"trial_type","trial_index","time_elapsed","internal_node_id","subject_id","task_version","interactions","blur_events","focus_events","fullscreenenter_events","fullscreenexit_events","success","timeout","failed_images","failed_audio","failed_video","rt","stimulus","response","button_pressed","task_part","key_press","answer","correct","left_choice","middle_choice","right_choice","choice_positions","option_selected","block"
"pavlovia","0","5","0.0-0.0","2015","2","""event"",""trial"",""time""
""fullscreenenter"",""1"",""2392""
","
","
","""event"",""trial"",""time""
""fullscreenenter"",""1"",""2392""
","
","","","","","","","","","","","","","","","","","","",""
"fullscreen","1","3357","0.0-1.0","2015","2","""event"",""trial"",""time""
""fullscreenenter"",""1"",""2392""
","
","
","""event"",""trial"",""time""
""fullscreenenter"",""1"",""2392""
","
","true","","","","","","","","","","","","","","","","","",""
"preload","2","4671","0.0-2.0","2015","2","""event"",""trial"",""time""
""fullscreenenter"",""1"",""2392""
","
","
","""event"",""trial"",""time""
""fullscreenenter"",""1"",""2392""
","
","true","false","[]","[]","[]","","","","","","","","","","","","","",""
"audio-keyboard-response","3","8601","0.0-3.0","2015","2","""event"",""trial"",""time""
""fullscreenenter"",""1"",""2392""
","
","
","""event"",""trial"",""time""
""fullscreenenter"",""1"",""2392""
","
","","","","","","3920","audio/beep_loop.wav"," ","","","","","","","","","","",""
"audio-button-response","4","10629","0.0-4.0","2015","2","""event"",""trial"",""time""
""fullscreenenter"",""1"",""2392""
","
","
","""event"",""trial"",""time""
""fullscreenenter"",""1"",""2392""
","
","","","","","","2027","audio/turtle.wav","3","","","","","","","","","","",""
"audio-button-response","5","13984","0.0-5.0","2015","2","""event"",""trial"",""time""
""fullscreenenter"",""1"",""2392""
","
","
","""event"",""trial"",""time""
""fullscreenenter"",""1"",""2392""
","
","","","","","","2347","audio/shark.wav","2","","","","","","","","","","",""
"preload","6","21996","0.0-6.0","2015","2","""event"",""trial"",""time""
""fullscreenenter"",""1"",""2392""
","
","
","""event"",""trial"",""time""
""fullscreenenter"",""1"",""2392""
","
","true","false","[]","[]","[]","","","","","","","","","","","","","",""
"learning-instructions","7","29502","0.0-7.0-0.0","2015","2","""event"",""trial"",""time""
""fullscreenenter"",""1"",""2392""
","
","
","""event"",""trial"",""time""
""fullscreenenter"",""1"",""2392""
","
","","","","","","2697","<p> Welcome back! </p><p> Last week, you had to make choices about lots of different items.  </p>","","0","instructions","","","","","","","","",""
"learning-instructions","8","37885","0.0-7.0-0.1","2015","2","""event"",""trial"",""time""
""fullscreenenter"",""1"",""2392""
","
","
","""event"",""trial"",""time""
""fullscreenenter"",""1"",""2392""
","
","","","","","","4083.400000035763","<p> Today, we are going to ask you to try to remember all the items. </p>","","0","instructions","","","","","","","","",""
"learning-instructions","9","49503","0.0-7.0-0.2","2015","2","""event"",""trial"",""time""
""fullscreenenter"",""1"",""2392""
","
","
","""event"",""trial"",""time""
""fullscreenenter"",""1"",""2392""
","
","","","","","","1483","<p> On every trial, you will see an image. </p><p> The image may be an OLD image you saw during the games last week or it may be a NEW image that was not presented. </p>","","0","instructions","","","","","","","","",""
"learning-instructions","10","62403","0.0-7.0-0.3","2015","2","""event"",""trial"",""time""
""fullscreenenter"",""1"",""2392""
","
","
","""event"",""trial"",""time""
""fullscreenenter"",""1"",""2392""
","
","","","","","","4404.5","<p> You need to select whether the image is:  </p><p>  'Definitely old', 'Maybe old', 'Maybe new', or 'Definitely new.'  </p><div class=""mem-choice-instructions-grid""><div class=""choice-option"" id=""choice-option-1"" ><img src=""images/definitely_old_1.png"" id=""choice-option-img-1"" class=""choice-option-img"" stage=""1""></div><div class=""choice-option"" id=""choice-option-2"" ><img src=""images/maybe_old_1.png"" id=""choice-option-img-2"" class=""choice-option-img"" stage=""1""></div><div class=""choice-option"" id=""choice-option-3"" ><img src=""images/maybe_new_1.png"" id=""choice-option-img-3"" class=""choice-option-img"" stage=""1""></div><div class=""choice-option"" id=""choice-option-4"" > <img src=""images/definitely_new_1.png"" id=""choice-option-img-4"" class=""choice-option-img"" stage=""1""></div></div>","","0","instructions","","","","","","","","",""
"learning-instructions","11","70345","0.0-7.0-0.4","2015","2","""event"",""trial"",""time""
""fullscreenenter"",""1"",""2392""
","
","
","""event"",""trial"",""time""
""fullscreenenter"",""1"",""2392""
","
","","","","","","1252","<p> You should use the 1, 2, 3, and 4 keys to make your responses.  </p><div class=""mem-choice-instructions-grid""><div class=""choice-option"" id=""choice-option-1"" ><img src=""images/definitely_old.png"" id=""choice-option-img-1"" class=""choice-option-img"" stage=""1""></div><div class=""choice-option"" id=""choice-option-2"" ><img src=""images/maybe_old.png"" id=""choice-option-img-2"" class=""choice-option-img"" stage=""1""></div><div class=""choice-option"" id=""choice-option-3"" ><img src=""images/maybe_new.png"" id=""choice-option-img-3"" class=""choice-option-img"" stage=""1""></div><div class=""choice-option"" id=""choice-option-4"" > <img src=""images/definitely_new.png"" id=""choice-option-img-4"" class=""choice-option-img"" stage=""1""></div></div>","","0","instructions","","","","","","","","",""
"learning-instructions","12","79179","0.0-7.0-0.5","2015","2","""event"",""trial"",""time""
""fullscreenenter"",""1"",""2392""
","
","
","""event"",""trial"",""time""
""fullscreenenter"",""1"",""2392""
","
","","","","","","2072.300000011921","<p> You will have 10 seconds to make each response.  </p><p>  Make sure to respond before time runs out! </p>","","0","instructions","","","","","","","","",""
"learning-instructions","13","87846","0.0-7.0-0.6","2015","2","""event"",""trial"",""time""
""fullscreenenter"",""1"",""2392""
","
","
","""event"",""trial"",""time""
""fullscreenenter"",""1"",""2392""
","
","","","","","","1086.1000000238419","<p> Today, you will see each image ONCE only.  </p><p>  That means none of the images will repeat. </p>","","0","instructions","","","","","","","","",""
"learning-instructions","14","101505","0.0-7.0-0.7","2015","2","""event"",""trial"",""time""
""fullscreenenter"",""1"",""2392""
","
","
","""event"",""trial"",""time""
""fullscreenenter"",""1"",""2392""
","
","","","","","","991.3000000119209","<p> Before you play the real game, it is time to practice. </p><p>  Just like in the real game, some of the images in the practice will be ones you have seen before. </p><p>  Others will be entirely new. </p>","","0","instructions","","","","","","","","",""
"html-button-response","15","102558","0.0-8.0","2015","2","""event"",""trial"",""time""
""fullscreenenter"",""1"",""2392""
","
","
","""event"",""trial"",""time""
""fullscreenenter"",""1"",""2392""
","
","","","","","","949.1000000238419","<p> Ready to practice? </p><p> Remember, use the 1, 2, 3, and 4 keys to make your responses. </p>","0","","instructions","","","","","","","","",""
"html-keyboard-response","16","103165","0.0-9.0-0.0","2015","2","""event"",""trial"",""time""
""fullscreenenter"",""1"",""2392""
","
","
","""event"",""trial"",""time""
""fullscreenenter"",""1"",""2392""
","
","","","","","","null","<div style=""font-size:60px;"">+</div>","null","","fixation","","","","","","","","",""
"memory-trial","17","105755","0.0-9.0-1.0","2015","2","""event"",""trial"",""time""
""fullscreenenter"",""1"",""2392""
","
","
","""event"",""trial"",""time""
""fullscreenenter"",""1"",""2392""
","
","","","","","","1584.800000011921","images/ball2.png","","","practice","2","maybe_old","","","","","","",""
"html-keyboard-response","18","106262","0.0-9.0-0.1","2015","2","""event"",""trial"",""time""
""fullscreenenter"",""1"",""2392""
","
","
","""event"",""trial"",""time""
""fullscreenenter"",""1"",""2392""
","
","","","","","","null","<div style=""font-size:60px;"">+</div>","null","","fixation","","","","","","","","",""
"memory-trial","19","108654","0.0-9.0-1.1","2015","2","""event"",""trial"",""time""
""fullscreenenter"",""1"",""2392""
","
","
","""event"",""trial"",""time""
""fullscreenenter"",""1"",""2392""
","
","","","","","","1384","images/ball3.png","","","practice","1","definitely_old","","","","","","",""
"html-keyboard-response","20","109160","0.0-9.0-0.2","2015","2","""event"",""trial"",""time""
""fullscreenenter"",""1"",""2392""
","
","
","""event"",""trial"",""time""
""fullscreenenter"",""1"",""2392""
","
","","","","","","null","<div style=""font-size:60px;"">+</div>","null","","fixation","","","","","","","","",""
"memory-trial","21","111320","0.0-9.0-1.2","2015","2","""event"",""trial"",""time""
""fullscreenenter"",""1"",""2392""
","
","
","""event"",""trial"",""time""
""fullscreenenter"",""1"",""2392""
","
","","","","","","1152.5","images/racket3.png","","","practice","1","definitely_old","","","","","","",""
"html-keyboard-response","22","111824","0.0-9.0-0.3","2015","2","""event"",""trial"",""time""
""fullscreenenter"",""1"",""2392""
","
","
","""event"",""trial"",""time""
""fullscreenenter"",""1"",""2392""
","
","","","","","","null","<div style=""font-size:60px;"">+</div>","null","","fixation","","","","","","","","",""
"memory-trial","23","114206","0.0-9.0-1.3","2015","2","""event"",""trial"",""time""
""fullscreenenter"",""1"",""2392""
","
","
","""event"",""trial"",""time""
""fullscreenenter"",""1"",""2392""
","
","","","","","","1377.300000011921","images/ball1.png","","","practice","1","definitely_old","","","","","","",""
"html-keyboard-response","24","114710","0.0-9.0-0.4","2015","2","""event"",""trial"",""time""
""fullscreenenter"",""1"",""2392""
","
","
","""event"",""trial"",""time""
""fullscreenenter"",""1"",""2392""
","
","","","","","","null","<div style=""font-size:60px;"">+</div>","null","","fixation","","","","","","","","",""
"memory-trial","25","116632","0.0-9.0-1.4","2015","2","""event"",""trial"",""time""
""fullscreenenter"",""1"",""2392""
","
","
","""event"",""trial"",""time""
""fullscreenenter"",""1"",""2392""
","
","","","","","","918.3000000119209","images/racket2.png","","","practice","1","definitely_old","","","","","","",""
"html-keyboard-response","26","117137","0.0-9.0-0.5","2015","2","""event"",""trial"",""time""
""fullscreenenter"",""1"",""2392""
","
","
","""event"",""trial"",""time""
""fullscreenenter"",""1"",""2392""
","
","","","","","","null","<div style=""font-size:60px;"">+</div>","null","","fixation","","","","","","","","",""
"memory-trial","27","119009","0.0-9.0-1.5","2015","2","""event"",""trial"",""time""
""fullscreenenter"",""1"",""2392""
","
","
","""event"",""trial"",""time""
""fullscreenenter"",""1"",""2392""
","
","","","","","","868.3000000119209","images/ball4.png","","","practice","1","definitely_old","","","","","","",""
"html-keyboard-response","28","119513","0.0-9.0-0.6","2015","2","""event"",""trial"",""time""
""fullscreenenter"",""1"",""2392""
","
","
","""event"",""trial"",""time""
""fullscreenenter"",""1"",""2392""
","
","","","","","","null","<div style=""font-size:60px;"">+</div>","null","","fixation","","","","","","","","",""
"memory-trial","29","122552","0.0-9.0-1.6","2015","2","""event"",""trial"",""time""
""fullscreenenter"",""1"",""2392""
","
","
","""event"",""trial"",""time""
""fullscreenenter"",""1"",""2392""
","
","","","","","","2032.3999999761581","images/racket4.png","","","practice","4","definitely_new","","","","","","",""
"html-keyboard-response","30","123058","0.0-9.0-0.7","2015","2","""event"",""trial"",""time""
""fullscreenenter"",""1"",""2392""
","
","
","""event"",""trial"",""time""
""fullscreenenter"",""1"",""2392""
","
","","","","","","null","<div style=""font-size:60px;"">+</div>","null","","fixation","","","","","","","","",""
"memory-trial","31","125669","0.0-9.0-1.7","2015","2","""event"",""trial"",""time""
""fullscreenenter"",""1"",""2392""
","
","
","""event"",""trial"",""time""
""fullscreenenter"",""1"",""2392""
","
","","","","","","1603.0999999642372","images/racket1.png","","","practice","3","maybe_new","","","","","","",""
"learning-instructions","32","134920","0.0-10.0-0.0","2015","2","""event"",""trial"",""time""
""fullscreenenter"",""1"",""2392""
","
","
","""event"",""trial"",""time""
""fullscreenenter"",""1"",""2392""
","
","","","","","","1297.7000000476837","<p> Great! You have completed the practice. </p><p> Before you start, we're going to ask you a few questions about how the game works.  </p>","","0","instructions","","","","","","","","",""
"preload","33","150492","0.0-11.0","2015","2","""event"",""trial"",""time""
""fullscreenenter"",""1"",""2392""
","
","
","""event"",""trial"",""time""
""fullscreenenter"",""1"",""2392""
","
","true","false","[]","[]","[]","","","","","","","","","","","","","",""
"comp-q","34","175618","0.0-12.0-0.0","2015","2","""event"",""trial"",""time""
""fullscreenenter"",""1"",""2392""
","
","
","""event"",""trial"",""time""
""fullscreenenter"",""1"",""2392""
","
","","","","","","19298","<p> <b> True or False? </b> </p><p> In this game, you will only see each image once. </p>","","0","comp_question","","","true","","","","","",""
"comp-q","35","183089","0.0-12.0-1.0","2015","2","""event"",""trial"",""time""
""fullscreenenter"",""1"",""2392""
","
","
","""event"",""trial"",""time""
""fullscreenenter"",""1"",""2392""
","
","","","","","","1133.199999988079","<p> <b> That's right! </b> You will see many different images <i> one time each </i> in this game. </p>","","0","comp_answer","","","","","","","","",""
"comp-q","36","192906","0.0-12.0-0.1","2015","2","""event"",""trial"",""time""
""fullscreenenter"",""1"",""2392""
","
","
","""event"",""trial"",""time""
""fullscreenenter"",""1"",""2392""
","
","","","","","","4016.5","<p> <b> True or False? </b> </p><p> You should use the mouse and click to make your response. </p>","","0","comp_question","","","false","","","","","",""
"comp-q","37","201524","0.0-12.0-1.1","2015","2","""event"",""trial"",""time""
""fullscreenenter"",""1"",""2392""
","
","
","""event"",""trial"",""time""
""fullscreenenter"",""1"",""2392""
","
","","","","","","1670","<p><b> Incorrect. </b> You should use the '1', '2', '3', and '4' keys to make your response. </p>","","0","comp_answer","","","","","","","","",""
"comp-q","38","211408","0.0-12.0-0.2","2015","2","""event"",""trial"",""time""
""fullscreenenter"",""1"",""2392""
","
","
","""event"",""trial"",""time""
""fullscreenenter"",""1"",""2392""
","
","","","","","","3890.300000011921","<p> <b> True or False? </b> </p><p> You will have as much time as you want to make each choice. </p>","","0","comp_question","","","false","","","","","",""
"comp-q","39","221474","0.0-12.0-1.2","2015","2","""event"",""trial"",""time""
""fullscreenenter"",""1"",""2392""
","
","
","""event"",""trial"",""time""
""fullscreenenter"",""1"",""2392""
","
","","","","","","4746.099999964237","<p> <b>Incorrect.</b> You will only have 10 seconds to make each choice.</p>","","0","comp_answer","","","","","","","","",""
"learning-instructions","40","231697","0.0-13.0","2015","2","""event"",""trial"",""time""
""fullscreenenter"",""1"",""2392""
","
","
","""event"",""trial"",""time""
""fullscreenenter"",""1"",""2392""
","
","","","","","","1556.8999999761581","<p> Great! You are now ready to begin the game. </p><p> Remember, use the 1, 2, 3, and 4 keys to make your responses. </p>","","0","instructions","","","","","","","","",""
"preload","41","250301","0.0-14.0","2015","2","""event"",""trial"",""time""
""fullscreenenter"",""1"",""2392""
","
","
","""event"",""trial"",""time""
""fullscreenenter"",""1"",""2392""
","
","true","false","[]","[]","[]","","","","","","","","","","","","","",""
"html-keyboard-response","42","250805","0.0-15.0-0.0","2015","2","""event"",""trial"",""time""
""fullscreenenter"",""1"",""2392""
","
","
","""event"",""trial"",""time""
""fullscreenenter"",""1"",""2392""
","
","","","","","","null","<div style=""font-size:60px;"">+</div>","null","","fixation","","","","","","","","",""
"memory-trial","43","253386","0.0-15.0-1.0","2015","2","""event"",""trial"",""time""
""fullscreenenter"",""1"",""2392""
","
","
","""event"",""trial"",""time""
""fullscreenenter"",""1"",""2392""
","
","","","","","","1572","images/orange5.png","","","memory_trial","4","definitely_new","","","","","","",""
"html-keyboard-response","44","253888","0.0-15.0-0.1","2015","2","""event"",""trial"",""time""
""fullscreenenter"",""1"",""2392""
","
","
","""event"",""trial"",""time""
""fullscreenenter"",""1"",""2392""
","
","","","","","","null","<div style=""font-size:60px;"">+</div>","null","","fixation","","","","","","","","",""
"memory-trial","45","255977","0.0-15.0-1.1","2015","2","""event"",""trial"",""time""
""fullscreenenter"",""1"",""2392""
","
","
","""event"",""trial"",""time""
""fullscreenenter"",""1"",""2392""
","
","","","","","","1082.4000000357628","images/rodent2.png","","","memory_trial","3","maybe_new","","","","","","",""
"html-keyboard-response","46","256479","0.0-15.0-0.2","2015","2","""event"",""trial"",""time""
""fullscreenenter"",""1"",""2392""
","
","
","""event"",""trial"",""time""
""fullscreenenter"",""1"",""2392""
","
","","","","","","null","<div style=""font-size:60px;"">+</div>","null","","fixation","","","","","","","","",""
"memory-trial","47","258477","0.0-15.0-1.2","2015","2","""event"",""trial"",""time""
""fullscreenenter"",""1"",""2392""
","
","
","""event"",""trial"",""time""
""fullscreenenter"",""1"",""2392""
","
","","","","","","994.5999999642372","images/cactus4.png","","","memory_trial","4","definitely_new","","","","","","",""
"html-keyboard-response","48","258980","0.0-15.0-0.3","2015","2","""event"",""trial"",""time""
""fullscreenenter"",""1"",""2392""
","
","
","""event"",""trial"",""time""
""fullscreenenter"",""1"",""2392""
","
","","","","","","null","<div style=""font-size:60px;"">+</div>","null","","fixation","","","","","","","","",""
"memory-trial","49","260779","0.0-15.0-1.3","2015","2","""event"",""trial"",""time""
""fullscreenenter"",""1"",""2392""
","
","
","""event"",""trial"",""time""
""fullscreenenter"",""1"",""2392""
","
","","","","","","793.3999999761581","images/chair5.png","","","memory_trial","4","definitely_new","","","","","","",""
"html-keyboard-response","50","261282","0.0-15.0-0.4","2015","2","""event"",""trial"",""time""
""fullscreenenter"",""1"",""2392""
","
","
","""event"",""trial"",""time""
""fullscreenenter"",""1"",""2392""
","
","","","","","","null","<div style=""font-size:60px;"">+</div>","null","","fixation","","","","","","","","",""
"memory-trial","51","263387","0.0-15.0-1.4","2015","2","""event"",""trial"",""time""
""fullscreenenter"",""1"",""2392""
","
","
","""event"",""trial"",""time""
""fullscreenenter"",""1"",""2392""
","
","","","","","","1101.9000000357628","images/apple4.png","","","memory_trial","1","definitely_old","","","","","","",""
"html-keyboard-response","52","263888","0.0-15.0-0.5","2015","2","""event"",""trial"",""time""
""fullscreenenter"",""1"",""2392""
","
","
","""event"",""trial"",""time""
""fullscreenenter"",""1"",""2392""
","
","","","","","","null","<div style=""font-size:60px;"">+</div>","null","","fixation","","","","","","","","",""
"memory-trial","53","266325","0.0-15.0-1.5","2015","2","""event"",""trial"",""time""
""fullscreenenter"",""1"",""2392""
","
","
","""event"",""trial"",""time""
""fullscreenenter"",""1"",""2392""
","
","","","","","","1434.5","images/feline4.png","","","memory_trial","2","maybe_old","","","","","","",""
"html-keyboard-response","54","266827","0.0-15.0-0.6","2015","2","""event"",""trial"",""time""
""fullscreenenter"",""1"",""2392""
","
","
","""event"",""trial"",""time""
""fullscreenenter"",""1"",""2392""
","
","","","","","","null","<div style=""font-size:60px;"">+</div>","null","","fixation","","","","","","","","",""
"memory-trial","55","268991","0.0-15.0-1.6","2015","2","""event"",""trial"",""time""
""fullscreenenter"",""1"",""2392""
","
","
","""event"",""trial"",""time""
""fullscreenenter"",""1"",""2392""
","
","","","","","","1161.1000000238419","images/horse5.png","","","memory_trial","3","maybe_new","","","","","","",""
"html-keyboard-response","56","269493","0.0-15.0-0.7","2015","2","""event"",""trial"",""time""
""fullscreenenter"",""1"",""2392""
","
","
","""event"",""trial"",""time""
""fullscreenenter"",""1"",""2392""
","
","","","","","","null","<div style=""font-size:60px;"">+</div>","null","","fixation","","","","","","","","",""
"memory-trial","57","271484","0.0-15.0-1.7","2015","2","""event"",""trial"",""time""
""fullscreenenter"",""1"",""2392""
","
","
","""event"",""trial"",""time""
""fullscreenenter"",""1"",""2392""
","
","","","","","","983.3999999761581","images/rodent5.png","","","memory_trial","2","maybe_old","","","","","","",""
"html-keyboard-response","58","271986","0.0-15.0-0.8","2015","2","""event"",""trial"",""time""
""fullscreenenter"",""1"",""2392""
","
","
","""event"",""trial"",""time""
""fullscreenenter"",""1"",""2392""
","
","","","","","","null","<div style=""font-size:60px;"">+</div>","null","","fixation","","","","","","","","",""
"memory-trial","59","274057","0.0-15.0-1.8","2015","2","""event"",""trial"",""time""
""fullscreenenter"",""1"",""2392""
","
","
","""event"",""trial"",""time""
""fullscreenenter"",""1"",""2392""
","
","","","","","","1063.4000000357628","images/cactus2.png","","","memory_trial","3","maybe_new","","","","","","",""
"html-keyboard-response","60","274559","0.0-15.0-0.9","2015","2","""event"",""trial"",""time""
""fullscreenenter"",""1"",""2392""
","
","
","""event"",""trial"",""time""
""fullscreenenter"",""1"",""2392""
","
","","","","","","null","<div style=""font-size:60px;"">+</div>","null","","fixation","","","","","","","","",""
"memory-trial","61","276853","0.0-15.0-1.9","2015","2","""event"",""trial"",""time""
""fullscreenenter"",""1"",""2392""
","
","
","""event"",""trial"",""time""
""fullscreenenter"",""1"",""2392""
","
","","","","","","1286.6000000238419","images/rabbit5.png","","","memory_trial","1","definitely_old","","","","","","",""
"html-keyboard-response","62","277360","0.0-15.0-0.10","2015","2","""event"",""trial"",""time""
""fullscreenenter"",""1"",""2392""
","
","
","""event"",""trial"",""time""
""fullscreenenter"",""1"",""2392""
","
","","","","","","null","<div style=""font-size:60px;"">+</div>","null","","fixation","","","","","","","","",""
"memory-trial","63","279360","0.0-15.0-1.10","2015","2","""event"",""trial"",""time""
""fullscreenenter"",""1"",""2392""
","
","
","""event"",""trial"",""time""
""fullscreenenter"",""1"",""2392""
","
","","","","","","994.3000000119209","images/sheep3.png","","","memory_trial","1","definitely_old","","","","","","",""
"html-keyboard-response","64","279866","0.0-15.0-0.11","2015","2","""event"",""trial"",""time""
""fullscreenenter"",""1"",""2392""
","
","
","""event"",""trial"",""time""
""fullscreenenter"",""1"",""2392""
","
","","","","","","null","<div style=""font-size:60px;"">+</div>","null","","fixation","","","","","","","","",""
"memory-trial","65","282917","0.0-15.0-1.11","2015","2","""event"",""trial"",""time""
""fullscreenenter"",""1"",""2392""
","
","
","""event"",""trial"",""time""
""fullscreenenter"",""1"",""2392""
","
","","","","","","2044","images/flower3.png","","","memory_trial","4","definitely_new","","","","","","",""
"html-keyboard-response","66","283418","0.0-15.0-0.12","2015","2","""event"",""trial"",""time""
""fullscreenenter"",""1"",""2392""
","
","
","""event"",""trial"",""time""
""fullscreenenter"",""1"",""2392""
","
","","","","","","null","<div style=""font-size:60px;"">+</div>","null","","fixation","","","","","","","","",""
"memory-trial","67","285460","0.0-15.0-1.12","2015","2","""event"",""trial"",""time""
""fullscreenenter"",""1"",""2392""
","
","
","""event"",""trial"",""time""
""fullscreenenter"",""1"",""2392""
","
","","","","","","1037.5","images/bed5.png","","","memory_trial","4","definitely_new","","","","","","",""
"html-keyboard-response","68","285962","0.0-15.0-0.13","2015","2","""event"",""trial"",""time""
""fullscreenenter"",""1"",""2392""
","
","
","""event"",""trial"",""time""
""fullscreenenter"",""1"",""2392""
","
","","","","","","null","<div style=""font-size:60px;"">+</div>","null","","fixation","","","","","","","","",""
"memory-trial","69","289263","0.0-15.0-1.13","2015","2","""event"",""trial"",""time""
""fullscreenenter"",""1"",""2392""
","
","
","""event"",""trial"",""time""
""fullscreenenter"",""1"",""2392""
","
","","","","","","2294.5","images/sheep2.png","","","memory_trial","3","maybe_new","","","","","","",""
"html-keyboard-response","70","289770","0.0-15.0-0.14","2015","2","""event"",""trial"",""time""
""fullscreenenter"",""1"",""2392""
","
","
","""event"",""trial"",""time""
""fullscreenenter"",""1"",""2392""
","
","","","","","","null","<div style=""font-size:60px;"">+</div>","null","","fixation","","","","","","","","",""
"memory-trial","71","291818","0.0-15.0-1.14","2015","2","""event"",""trial"",""time""
""fullscreenenter"",""1"",""2392""
","
","
","""event"",""trial"",""time""
""fullscreenenter"",""1"",""2392""
","
","","","","","","1040.1000000238419","images/apple1.png","","","memory_trial","4","definitely_new","","","","","","",""
"html-keyboard-response","72","292319","0.0-15.0-0.15","2015","2","""event"",""trial"",""time""
""fullscreenenter"",""1"",""2392""
","
","
","""event"",""trial"",""time""
""fullscreenenter"",""1"",""2392""
","
","","","","","","null","<div style=""font-size:60px;"">+</div>","null","","fixation","","","","","","","","",""
"memory-trial","73","295003","0.0-15.0-1.15","2015","2","""event"",""trial"",""time""
""fullscreenenter"",""1"",""2392""
","
","
","""event"",""trial"",""time""
""fullscreenenter"",""1"",""2392""
","
","","","","","","1680.1000000238419","images/cactus1.png","","","memory_trial","3","maybe_new","","","","","","",""
"html-keyboard-response","74","295508","0.0-15.0-0.16","2015","2","""event"",""trial"",""time""
""fullscreenenter"",""1"",""2392""
","
","
","""event"",""trial"",""time""
""fullscreenenter"",""1"",""2392""
","
","","","","","","null","<div style=""font-size:60px;"">+</div>","null","","fixation","","","","","","","","",""
"memory-trial","75","297705","0.0-15.0-1.16","2015","2","""event"",""trial"",""time""
""fullscreenenter"",""1"",""2392""
","
","
","""event"",""trial"",""time""
""fullscreenenter"",""1"",""2392""
","
","","","","","","1192.800000011921","images/feline3.png","","","memory_trial","4","definitely_new","","","","","","",""
"html-keyboard-response","76","298207","0.0-15.0-0.17","2015","2","""event"",""trial"",""time""
""fullscreenenter"",""1"",""2392""
","
","
","""event"",""trial"",""time""
""fullscreenenter"",""1"",""2392""
","
","","","","","","null","<div style=""font-size:60px;"">+</div>","null","","fixation","","","","","","","","",""
"memory-trial","77","300740","0.0-15.0-1.17","2015","2","""event"",""trial"",""time""
""fullscreenenter"",""1"",""2392""
","
","
","""event"",""trial"",""time""
""fullscreenenter"",""1"",""2392""
","
","","","","","","1526.0999999642372","images/banana3.png","","","memory_trial","3","maybe_new","","","","","","",""
"html-keyboard-response","78","301241","0.0-15.0-0.18","2015","2","""event"",""trial"",""time""
""fullscreenenter"",""1"",""2392""
","
","
","""event"",""trial"",""time""
""fullscreenenter"",""1"",""2392""
","
","","","","","","null","<div style=""font-size:60px;"">+</div>","null","","fixation","","","","","","","","",""
"memory-trial","79","304057","0.0-15.0-1.18","2015","2","""event"",""trial"",""time""
""fullscreenenter"",""1"",""2392""
","
","
","""event"",""trial"",""time""
""fullscreenenter"",""1"",""2392""
","
","","","","","","1807.699999988079","images/banana2.png","","","memory_trial","2","maybe_old","","","","","","",""
"html-keyboard-response","80","304559","0.0-15.0-0.19","2015","2","""event"",""trial"",""time""
""fullscreenenter"",""1"",""2392""
","
","
","""event"",""trial"",""time""
""fullscreenenter"",""1"",""2392""
","
","","","","","","null","<div style=""font-size:60px;"">+</div>","null","","fixation","","","","","","","","",""
"memory-trial","81","307353","0.0-15.0-1.19","2015","2","""event"",""trial"",""time""
""fullscreenenter"",""1"",""2392""
","
","
","""event"",""trial"",""time""
""fullscreenenter"",""1"",""2392""
","
","","","","","","1791.0999999642372","images/straw5.png","","","memory_trial","2","maybe_old","","","","","","",""
"html-keyboard-response","82","307854","0.0-15.0-0.20","2015","2","""event"",""trial"",""time""
""fullscreenenter"",""1"",""2392""
","
","
","""event"",""trial"",""time""
""fullscreenenter"",""1"",""2392""
","
","","","","","","null","<div style=""font-size:60px;"">+</div>","null","","fixation","","","","","","","","",""
"memory-trial","83","310465","0.0-15.0-1.20","2015","2","""event"",""trial"",""time""
""fullscreenenter"",""1"",""2392""
","
","
","""event"",""trial"",""time""
""fullscreenenter"",""1"",""2392""
","
","","","","","","1602.800000011921","images/flower2.png","","","memory_trial","2","maybe_old","","","","","","",""
"html-keyboard-response","84","310971","0.0-15.0-0.21","2015","2","""event"",""trial"",""time""
""fullscreenenter"",""1"",""2392""
","
","
","""event"",""trial"",""time""
""fullscreenenter"",""1"",""2392""
","
","","","","","","null","<div style=""font-size:60px;"">+</div>","null","","fixation","","","","","","","","",""
"memory-trial","85","313065","0.0-15.0-1.21","2015","2","""event"",""trial"",""time""
""fullscreenenter"",""1"",""2392""
","
","
","""event"",""trial"",""time""
""fullscreenenter"",""1"",""2392""
","
","","","","","","1085.699999988079","images/boat2.png","","","memory_trial","1","definitely_old","","","","","","",""
"html-keyboard-response","86","313566","0.0-15.0-0.22","2015","2","""event"",""trial"",""time""
""fullscreenenter"",""1"",""2392""
","
","
","""event"",""trial"",""time""
""fullscreenenter"",""1"",""2392""
","
","","","","","","null","<div style=""font-size:60px;"">+</div>","null","","fixation","","","","","","","","",""
"memory-trial","87","316014","0.0-15.0-1.22","2015","2","""event"",""trial"",""time""
""fullscreenenter"",""1"",""2392""
","
","
","""event"",""trial"",""time""
""fullscreenenter"",""1"",""2392""
","
","","","","","","1442.800000011921","images/goat4.png","","","memory_trial","4","definitely_new","","","","","","",""
"html-keyboard-response","88","316515","0.0-15.0-0.23","2015","2","""event"",""trial"",""time""
""fullscreenenter"",""1"",""2392""
","
","
","""event"",""trial"",""time""
""fullscreenenter"",""1"",""2392""
","
","","","","","","null","<div style=""font-size:60px;"">+</div>","null","","fixation","","","","","","","","",""
"memory-trial","89","318790","0.0-15.0-1.23","2015","2","""event"",""trial"",""time""
""fullscreenenter"",""1"",""2392""
","
","
","""event"",""trial"",""time""
""fullscreenenter"",""1"",""2392""
","
","","","","","","1271.1000000238419","images/bed4.png","","","memory_trial","3","maybe_new","","","","","","",""
"html-keyboard-response","90","319291","0.0-15.0-0.24","2015","2","""event"",""trial"",""time""
""fullscreenenter"",""1"",""2392""
","
","
","""event"",""trial"",""time""
""fullscreenenter"",""1"",""2392""
","
","","","","","","null","<div style=""font-size:60px;"">+</div>","null","","fixation","","","","","","","","",""
"memory-trial","91","321125","0.0-15.0-1.24","2015","2","""event"",""trial"",""time""
""fullscreenenter"",""1"",""2392""
","
","
","""event"",""trial"",""time""
""fullscreenenter"",""1"",""2392""
","
","","","","","","830.3999999761581","images/dog2.png","","","memory_trial","2","maybe_old","","","","","","",""
"html-keyboard-response","92","321630","0.0-15.0-0.25","2015","2","""event"",""trial"",""time""
""fullscreenenter"",""1"",""2392""
","
","
","""event"",""trial"",""time""
""fullscreenenter"",""1"",""2392""
","
","","","","","","null","<div style=""font-size:60px;"">+</div>","null","","fixation","","","","","","","","",""
"memory-trial","93","323918","0.0-15.0-1.25","2015","2","""event"",""trial"",""time""
""fullscreenenter"",""1"",""2392""
","
","
","""event"",""trial"",""time""
""fullscreenenter"",""1"",""2392""
","
","","","","","","1283.5999999642372","images/feline2.png","","","memory_trial","2","maybe_old","","","","","","",""
"html-keyboard-response","94","324424","0.0-15.0-0.26","2015","2","""event"",""trial"",""time""
""fullscreenenter"",""1"",""2392""
","
","
","""event"",""trial"",""time""
""fullscreenenter"",""1"",""2392""
","
","","","","","","null","<div style=""font-size:60px;"">+</div>","null","","fixation","","","","","","","","",""
"memory-trial","95","326394","0.0-15.0-1.26","2015","2","""event"",""trial"",""time""
""fullscreenenter"",""1"",""2392""
","
","
","""event"",""trial"",""time""
""fullscreenenter"",""1"",""2392""
","
","","","","","","966.4000000357628","images/chair3.png","","","memory_trial","4","definitely_new","","","","","","",""
"html-keyboard-response","96","326897","0.0-15.0-0.27","2015","2","""event"",""trial"",""time""
""fullscreenenter"",""1"",""2392""
","
","
","""event"",""trial"",""time""
""fullscreenenter"",""1"",""2392""
","
","","","","","","null","<div style=""font-size:60px;"">+</div>","null","","fixation","","","","","","","","",""
"memory-trial","97","328889","0.0-15.0-1.27","2015","2","""event"",""trial"",""time""
""fullscreenenter"",""1"",""2392""
","
","
","""event"",""trial"",""time""
""fullscreenenter"",""1"",""2392""
","
","","","","","","989.1000000238419","images/goat2.png","","","memory_trial","4","definitely_new","","","","","","",""
"html-keyboard-response","98","329392","0.0-15.0-0.28","2015","2","""event"",""trial"",""time""
""fullscreenenter"",""1"",""2392""
","
","
","""event"",""trial"",""time""
""fullscreenenter"",""1"",""2392""
","
","","","","","","null","<div style=""font-size:60px;"">+</div>","null","","fixation","","","","","","","","",""
"memory-trial","99","331415","0.0-15.0-1.28","2015","2","""event"",""trial"",""time""
""fullscreenenter"",""1"",""2392""
","
","
","""event"",""trial"",""time""
""fullscreenenter"",""1"",""2392""
","
","","","","","","1019.2999999523163","images/chair2.png","","","memory_trial","3","maybe_new","","","","","","",""
"html-keyboard-response","100","331918","0.0-15.0-0.29","2015","2","""event"",""trial"",""time""
""fullscreenenter"",""1"",""2392""
","
","
","""event"",""trial"",""time""
""fullscreenenter"",""1"",""2392""
","
","","","","","","null","<div style=""font-size:60px;"">+</div>","null","","fixation","","","","","","","","",""
"memory-trial","101","334360","0.0-15.0-1.29","2015","2","""event"",""trial"",""time""
""fullscreenenter"",""1"",""2392""
","
","
","""event"",""trial"",""time""
""fullscreenenter"",""1"",""2392""
","
","","","","","","1436.9000000357628","images/banana5.png","","","memory_trial","2","maybe_old","","","","","","",""
"html-keyboard-response","102","334861","0.0-15.0-0.30","2015","2","""event"",""trial"",""time""
""fullscreenenter"",""1"",""2392""
","
","
","""event"",""trial"",""time""
""fullscreenenter"",""1"",""2392""
","
","","","","","","null","<div style=""font-size:60px;"">+</div>","null","","fixation","","","","","","","","",""
"memory-trial","103","337088","0.0-15.0-1.30","2015","2","""event"",""trial"",""time""
""fullscreenenter"",""1"",""2392""
","
","
","""event"",""trial"",""time""
""fullscreenenter"",""1"",""2392""
","
","","","","","","1224.6000000238419","images/bush3.png","","","memory_trial","1","definitely_old","","","","","","",""
"html-keyboard-response","104","337591","0.0-15.0-0.31","2015","2","""event"",""trial"",""time""
""fullscreenenter"",""1"",""2392""
","
","
","""event"",""trial"",""time""
""fullscreenenter"",""1"",""2392""
","
","","","","","","null","<div style=""font-size:60px;"">+</div>","null","","fixation","","","","","","","","",""
"memory-trial","105","339867","0.0-15.0-1.31","2015","2","""event"",""trial"",""time""
""fullscreenenter"",""1"",""2392""
","
","
","""event"",""trial"",""time""
""fullscreenenter"",""1"",""2392""
","
","","","","","","1270.699999988079","images/table2.png","","","memory_trial","1","definitely_old","","","","","","",""
"html-keyboard-response","106","340370","0.0-15.0-0.32","2015","2","""event"",""trial"",""time""
""fullscreenenter"",""1"",""2392""
","
","
","""event"",""trial"",""time""
""fullscreenenter"",""1"",""2392""
","
","","","","","","null","<div style=""font-size:60px;"">+</div>","null","","fixation","","","","","","","","",""
"memory-trial","107","342880","0.0-15.0-1.32","2015","2","""event"",""trial"",""time""
""fullscreenenter"",""1"",""2392""
","
","
","""event"",""trial"",""time""
""fullscreenenter"",""1"",""2392""
","
","","","","","","1506.5","images/train5.png","","","memory_trial","2","maybe_old","","","","","","",""
"html-keyboard-response","108","343381","0.0-15.0-0.33","2015","2","""event"",""trial"",""time""
""fullscreenenter"",""1"",""2392""
","
","
","""event"",""trial"",""time""
""fullscreenenter"",""1"",""2392""
","
","","","","","","null","<div style=""font-size:60px;"">+</div>","null","","fixation","","","","","","","","",""
"memory-trial","109","345546","0.0-15.0-1.33","2015","2","""event"",""trial"",""time""
""fullscreenenter"",""1"",""2392""
","
","
","""event"",""trial"",""time""
""fullscreenenter"",""1"",""2392""
","
","","","","","","1158","images/chair4.png","","","memory_trial","4","definitely_new","","","","","","",""
"html-keyboard-response","110","346051","0.0-15.0-0.34","2015","2","""event"",""trial"",""time""
""fullscreenenter"",""1"",""2392""
","
","
","""event"",""trial"",""time""
""fullscreenenter"",""1"",""2392""
","
","","","","","","null","<div style=""font-size:60px;"">+</div>","null","","fixation","","","","","","","","",""
"memory-trial","111","348324","0.0-15.0-1.34","2015","2","""event"",""trial"",""time""
""fullscreenenter"",""1"",""2392""
","
","
","""event"",""trial"",""time""
""fullscreenenter"",""1"",""2392""
","
","","","","","","1265.7999999523163","images/chair1.png","","","memory_trial","3","maybe_new","","","","","","",""
"html-keyboard-response","112","348830","0.0-15.0-0.35","2015","2","""event"",""trial"",""time""
""fullscreenenter"",""1"",""2392""
","
","
","""event"",""trial"",""time""
""fullscreenenter"",""1"",""2392""
","
","","","","","","null","<div style=""font-size:60px;"">+</div>","null","","fixation","","","","","","","","",""
"memory-trial","113","351099","0.0-15.0-1.35","2015","2","""event"",""trial"",""time""
""fullscreenenter"",""1"",""2392""
","
","
","""event"",""trial"",""time""
""fullscreenenter"",""1"",""2392""
","
","","","","","","1264.5","images/rabbit1.png","","","memory_trial","3","maybe_new","","","","","","",""
"html-keyboard-response","114","351604","0.0-15.0-0.36","2015","2","""event"",""trial"",""time""
""fullscreenenter"",""1"",""2392""
","
","
","""event"",""trial"",""time""
""fullscreenenter"",""1"",""2392""
","
","","","","","","null","<div style=""font-size:60px;"">+</div>","null","","fixation","","","","","","","","",""
"memory-trial","115","353246","0.0-15.0-1.36","2015","2","""event"",""trial"",""time""
""fullscreenenter"",""1"",""2392""
","
","
","""event"",""trial"",""time""
""fullscreenenter"",""1"",""2392""
","
","","","","","","635.5","images/sheep4.png","","","memory_trial","3","maybe_new","","","","","","",""
"html-keyboard-response","116","353747","0.0-15.0-0.37","2015","2","""event"",""trial"",""time""
""fullscreenenter"",""1"",""2392""
","
","
","""event"",""trial"",""time""
""fullscreenenter"",""1"",""2392""
","
","","","","","","null","<div style=""font-size:60px;"">+</div>","null","","fixation","","","","","","","","",""
"memory-trial","117","355752","0.0-15.0-1.37","2015","2","""event"",""trial"",""time""
""fullscreenenter"",""1"",""2392""
","
","
","""event"",""trial"",""time""
""fullscreenenter"",""1"",""2392""
","
","","","","","","1001.7000000476837","images/plane2.png","","","memory_trial","4","definitely_new","","","","","","",""
"html-keyboard-response","118","356255","0.0-15.0-0.38","2015","2","""event"",""trial"",""time""
""fullscreenenter"",""1"",""2392""
","
","
","""event"",""trial"",""time""
""fullscreenenter"",""1"",""2392""
","
","","","","","","null","<div style=""font-size:60px;"">+</div>","null","","fixation","","","","","","","","",""
"memory-trial","119","358301","0.0-15.0-1.38","2015","2","""event"",""trial"",""time""
""fullscreenenter"",""1"",""2392""
","
","
","""event"",""trial"",""time""
""fullscreenenter"",""1"",""2392""
","
","","","","","","1040.9000000357628","images/rabbit2.png","","","memory_trial","4","definitely_new","","","","","","",""
"html-keyboard-response","120","358802","0.0-15.0-0.39","2015","2","""event"",""trial"",""time""
""fullscreenenter"",""1"",""2392""
","
","
","""event"",""trial"",""time""
""fullscreenenter"",""1"",""2392""
","
","","","","","","null","<div style=""font-size:60px;"">+</div>","null","","fixation","","","","","","","","",""
"memory-trial","121","361378","0.0-15.0-1.39","2015","2","""event"",""trial"",""time""
""fullscreenenter"",""1"",""2392""
","
","
","""event"",""trial"",""time""
""fullscreenenter"",""1"",""2392""
","
","","","","","","1571.800000011921","images/straw3.png","","","memory_trial","4","definitely_new","","","","","","",""
"html-keyboard-response","122","361880","0.0-15.0-0.40","2015","2","""event"",""trial"",""time""
""fullscreenenter"",""1"",""2392""
","
","
","""event"",""trial"",""time""
""fullscreenenter"",""1"",""2392""
","
","","","","","","null","<div style=""font-size:60px;"">+</div>","null","","fixation","","","","","","","","",""
"memory-trial","123","364152","0.0-15.0-1.40","2015","2","""event"",""trial"",""time""
""fullscreenenter"",""1"",""2392""
","
","
","""event"",""trial"",""time""
""fullscreenenter"",""1"",""2392""
","
","","","","","","1265.199999988079","images/dog4.png","","","memory_trial","2","maybe_old","","","","","","",""
"html-keyboard-response","124","364658","0.0-15.0-0.41","2015","2","""event"",""trial"",""time""
""fullscreenenter"",""1"",""2392""
","
","
","""event"",""trial"",""time""
""fullscreenenter"",""1"",""2392""
","
","","","","","","null","<div style=""font-size:60px;"">+</div>","null","","fixation","","","","","","","","",""
"memory-trial","125","366953","0.0-15.0-1.41","2015","2","""event"",""trial"",""time""
""fullscreenenter"",""1"",""2392""
","
","
","""event"",""trial"",""time""
""fullscreenenter"",""1"",""2392""
","
","","","","","","1288.699999988079","images/flower5.png","","","memory_trial","1","definitely_old","","","","","","",""
"html-keyboard-response","126","367457","0.0-15.0-0.42","2015","2","""event"",""trial"",""time""
""fullscreenenter"",""1"",""2392""
","
","
","""event"",""trial"",""time""
""fullscreenenter"",""1"",""2392""
","
","","","","","","null","<div style=""font-size:60px;"">+</div>","null","","fixation","","","","","","","","",""
"memory-trial","127","369255","0.0-15.0-1.42","2015","2","""event"",""trial"",""time""
""fullscreenenter"",""1"",""2392""
","
","
","""event"",""trial"",""time""
""fullscreenenter"",""1"",""2392""
","
","","","","","","793","images/apple2.png","","","memory_trial","1","definitely_old","","","","","","",""
"html-keyboard-response","128","369756","0.0-15.0-0.43","2015","2","""event"",""trial"",""time""
""fullscreenenter"",""1"",""2392""
","
","
","""event"",""trial"",""time""
""fullscreenenter"",""1"",""2392""
","
","","","","","","null","<div style=""font-size:60px;"">+</div>","null","","fixation","","","","","","","","",""
"memory-trial","129","371987","0.0-15.0-1.43","2015","2","""event"",""trial"",""time""
""fullscreenenter"",""1"",""2392""
","
","
","""event"",""trial"",""time""
""fullscreenenter"",""1"",""2392""
","
","","","","","","1227.699999988079","images/train1.png","","","memory_trial","1","definitely_old","","","","","","",""
"html-keyboard-response","130","372492","0.0-15.0-0.44","2015","2","""event"",""trial"",""time""
""fullscreenenter"",""1"",""2392""
","
","
","""event"",""trial"",""time""
""fullscreenenter"",""1"",""2392""
","
","","","","","","null","<div style=""font-size:60px;"">+</div>","null","","fixation","","","","","","","","",""
"memory-trial","131","374545","0.0-15.0-1.44","2015","2","""event"",""trial"",""time""
""fullscreenenter"",""1"",""2392""
","
","
","""event"",""trial"",""time""
""fullscreenenter"",""1"",""2392""
","
","","","","","","1046.199999988079","images/sofa3.png","","","memory_trial","4","definitely_new","","","","","","",""
"html-keyboard-response","132","375048","0.0-15.0-0.45","2015","2","""event"",""trial"",""time""
""fullscreenenter"",""1"",""2392""
","
","
","""event"",""trial"",""time""
""fullscreenenter"",""1"",""2392""
","
","","","","","","null","<div style=""font-size:60px;"">+</div>","null","","fixation","","","","","","","","",""
"memory-trial","133","377259","0.0-15.0-1.45","2015","2","""event"",""trial"",""time""
""fullscreenenter"",""1"",""2392""
","
","
","""event"",""trial"",""time""
""fullscreenenter"",""1"",""2392""
","
","","","","","","1202.8999999761581","images/sofa1.png","","","memory_trial","4","definitely_new","","","","","","",""
"html-keyboard-response","134","377764","0.0-15.0-0.46","2015","2","""event"",""trial"",""time""
""fullscreenenter"",""1"",""2392""
","
","
","""event"",""trial"",""time""
""fullscreenenter"",""1"",""2392""
","
","","","","","","null","<div style=""font-size:60px;"">+</div>","null","","fixation","","","","","","","","",""
"memory-trial","135","379774","0.0-15.0-1.46","2015","2","""event"",""trial"",""time""
""fullscreenenter"",""1"",""2392""
","
","
","""event"",""trial"",""time""
""fullscreenenter"",""1"",""2392""
","
","","","","","","1006.3999999761581","images/banana4.png","","","memory_trial","1","definitely_old","","","","","","",""
"html-button-response","136","382412","0.0-15.0-2.46-0.46","2015","2","""event"",""trial"",""time""
""fullscreenenter"",""1"",""2392""
","
","
","""event"",""trial"",""time""
""fullscreenenter"",""1"",""2392""
","
","","","","","","2636.800000011921","<p> Take a break! </p><p> Click the button to continue. </p>","0","","break","","","","","","","","",""
"html-keyboard-response","137","382913","0.0-15.0-0.47","2015","2","""event"",""trial"",""time""
""fullscreenenter"",""1"",""2392""
","
","
","""event"",""trial"",""time""
""fullscreenenter"",""1"",""2392""
","
","","","","","","null","<div style=""font-size:60px;"">+</div>","null","","fixation","","","","","","","","",""
"memory-trial","138","384986","0.0-15.0-1.47","2015","2","""event"",""trial"",""time""
""fullscreenenter"",""1"",""2392""
","
","
","""event"",""trial"",""time""
""fullscreenenter"",""1"",""2392""
","
","","","","","","1069.4000000357628","images/table1.png","","","memory_trial","4","definitely_new","","","","","","",""
"html-keyboard-response","139","385488","0.0-15.0-0.48","2015","2","""event"",""trial"",""time""
""fullscreenenter"",""1"",""2392""
","
","
","""event"",""trial"",""time""
""fullscreenenter"",""1"",""2392""
","
","","","","","","null","<div style=""font-size:60px;"">+</div>","null","","fixation","","","","","","","","",""
"memory-trial","140","387445","0.0-15.0-1.48","2015","2","""event"",""trial"",""time""
""fullscreenenter"",""1"",""2392""
","
","
","""event"",""trial"",""time""
""fullscreenenter"",""1"",""2392""
","
","","","","","","953.6999999880791","images/dog1.png","","","memory_trial","3","maybe_new","","","","","","",""
"html-keyboard-response","141","387947","0.0-15.0-0.49","2015","2","""event"",""trial"",""time""
""fullscreenenter"",""1"",""2392""
","
","
","""event"",""trial"",""time""
""fullscreenenter"",""1"",""2392""
","
","","","","","","null","<div style=""font-size:60px;"">+</div>","null","","fixation","","","","","","","","",""
"memory-trial","142","390032","0.0-15.0-1.49","2015","2","""event"",""trial"",""time""
""fullscreenenter"",""1"",""2392""
","
","
","""event"",""trial"",""time""
""fullscreenenter"",""1"",""2392""
","
","","","","","","1080.4000000357628","images/straw1.png","","","memory_trial","3","maybe_new","","","","","","",""
"html-keyboard-response","143","390537","0.0-15.0-0.50","2015","2","""event"",""trial"",""time""
""fullscreenenter"",""1"",""2392""
","
","
","""event"",""trial"",""time""
""fullscreenenter"",""1"",""2392""
","
","","","","","","null","<div style=""font-size:60px;"">+</div>","null","","fixation","","","","","","","","",""
"memory-trial","144","392432","0.0-15.0-1.50","2015","2","""event"",""trial"",""time""
""fullscreenenter"",""1"",""2392""
","
","
","""event"",""trial"",""time""
""fullscreenenter"",""1"",""2392""
","
","","","","","","891.6999999880791","images/cactus5.png","","","memory_trial","3","maybe_new","","","","","","",""
"html-keyboard-response","145","392936","0.0-15.0-0.51","2015","2","""event"",""trial"",""time""
""fullscreenenter"",""1"",""2392""
","
","
","""event"",""trial"",""time""
""fullscreenenter"",""1"",""2392""
","
","","","","","","null","<div style=""font-size:60px;"">+</div>","null","","fixation","","","","","","","","",""
"memory-trial","146","395098","0.0-15.0-1.51","2015","2","""event"",""trial"",""time""
""fullscreenenter"",""1"",""2392""
","
","
","""event"",""trial"",""time""
""fullscreenenter"",""1"",""2392""
","
","","","","","","1158.3999999761581","images/rabbit3.png","","","memory_trial","4","definitely_new","","","","","","",""
"html-keyboard-response","147","395604","0.0-15.0-0.52","2015","2","""event"",""trial"",""time""
""fullscreenenter"",""1"",""2392""
","
","
","""event"",""trial"",""time""
""fullscreenenter"",""1"",""2392""
","
","","","","","","null","<div style=""font-size:60px;"">+</div>","null","","fixation","","","","","","","","",""
"memory-trial","148","397696","0.0-15.0-1.52","2015","2","""event"",""trial"",""time""
""fullscreenenter"",""1"",""2392""
","
","
","""event"",""trial"",""time""
""fullscreenenter"",""1"",""2392""
","
","","","","","","1085.6000000238419","images/rodent3.png","","","memory_trial","2","maybe_old","","","","","","",""
"html-keyboard-response","149","398202","0.0-15.0-0.53","2015","2","""event"",""trial"",""time""
""fullscreenenter"",""1"",""2392""
","
","
","""event"",""trial"",""time""
""fullscreenenter"",""1"",""2392""
","
","","","","","","null","<div style=""font-size:60px;"">+</div>","null","","fixation","","","","","","","","",""
"memory-trial","150","400048","0.0-15.0-1.53","2015","2","""event"",""trial"",""time""
""fullscreenenter"",""1"",""2392""
","
","
","""event"",""trial"",""time""
""fullscreenenter"",""1"",""2392""
","
","","","","","","842.1000000238419","images/bush1.png","","","memory_trial","1","definitely_old","","","","","","",""
"html-keyboard-response","151","400554","0.0-15.0-0.54","2015","2","""event"",""trial"",""time""
""fullscreenenter"",""1"",""2392""
","
","
","""event"",""trial"",""time""
""fullscreenenter"",""1"",""2392""
","
","","","","","","null","<div style=""font-size:60px;"">+</div>","null","","fixation","","","","","","","","",""
"memory-trial","152","402976","0.0-15.0-1.54","2015","2","""event"",""trial"",""time""
""fullscreenenter"",""1"",""2392""
","
","
","""event"",""trial"",""time""
""fullscreenenter"",""1"",""2392""
","
","","","","","","1418.5","images/dog5.png","","","memory_trial","2","maybe_old","","","","","","",""
"html-keyboard-response","153","403477","0.0-15.0-0.55","2015","2","""event"",""trial"",""time""
""fullscreenenter"",""1"",""2392""
","
","
","""event"",""trial"",""time""
""fullscreenenter"",""1"",""2392""
","
","","","","","","null","<div style=""font-size:60px;"">+</div>","null","","fixation","","","","","","","","",""
"memory-trial","154","405487","0.0-15.0-1.55","2015","2","""event"",""trial"",""time""
""fullscreenenter"",""1"",""2392""
","
","
","""event"",""trial"",""time""
""fullscreenenter"",""1"",""2392""
","
","","","","","","1007.8000000119209","images/cactus3.png","","","memory_trial","1","definitely_old","","","","","","",""
"html-keyboard-response","155","405989","0.0-15.0-0.56","2015","2","""event"",""trial"",""time""
""fullscreenenter"",""1"",""2392""
","
","
","""event"",""trial"",""time""
""fullscreenenter"",""1"",""2392""
","
","","","","","","null","<div style=""font-size:60px;"">+</div>","null","","fixation","","","","","","","","",""
"memory-trial","156","408506","0.0-15.0-1.56","2015","2","""event"",""trial"",""time""
""fullscreenenter"",""1"",""2392""
","
","
","""event"",""trial"",""time""
""fullscreenenter"",""1"",""2392""
","
","","","","","","1510","images/tree4.png","","","memory_trial","4","definitely_new","","","","","","",""
"html-keyboard-response","157","409007","0.0-15.0-0.57","2015","2","""event"",""trial"",""time""
""fullscreenenter"",""1"",""2392""
","
","
","""event"",""trial"",""time""
""fullscreenenter"",""1"",""2392""
","
","","","","","","null","<div style=""font-size:60px;"">+</div>","null","","fixation","","","","","","","","",""
"memory-trial","158","411581","0.0-15.0-1.57","2015","2","""event"",""trial"",""time""
""fullscreenenter"",""1"",""2392""
","
","
","""event"",""trial"",""time""
""fullscreenenter"",""1"",""2392""
","
","","","","","","1570","images/boat3.png","","","memory_trial","3","maybe_new","","","","","","",""
"html-keyboard-response","159","412084","0.0-15.0-0.58","2015","2","""event"",""trial"",""time""
""fullscreenenter"",""1"",""2392""
","
","
","""event"",""trial"",""time""
""fullscreenenter"",""1"",""2392""
","
","","","","","","null","<div style=""font-size:60px;"">+</div>","null","","fixation","","","","","","","","",""
"memory-trial","160","414351","0.0-15.0-1.58","2015","2","""event"",""trial"",""time""
""fullscreenenter"",""1"",""2392""
","
","
","""event"",""trial"",""time""
""fullscreenenter"",""1"",""2392""
","
","","","","","","1262.6000000238419","images/plane3.png","","","memory_trial","4","definitely_new","","","","","","",""
"html-keyboard-response","161","414859","0.0-15.0-0.59","2015","2","""event"",""trial"",""time""
""fullscreenenter"",""1"",""2392""
","
","
","""event"",""trial"",""time""
""fullscreenenter"",""1"",""2392""
","
","","","","","","null","<div style=""font-size:60px;"">+</div>","null","","fixation","","","","","","","","",""
"memory-trial","162","417145","0.0-15.0-1.59","2015","2","""event"",""trial"",""time""
""fullscreenenter"",""1"",""2392""
","
","
","""event"",""trial"",""time""
""fullscreenenter"",""1"",""2392""
","
","","","","","","1282.699999988079","images/goat1.png","","","memory_trial","4","definitely_new","","","","","","",""
"html-keyboard-response","163","417652","0.0-15.0-0.60","2015","2","""event"",""trial"",""time""
""fullscreenenter"",""1"",""2392""
","
","
","""event"",""trial"",""time""
""fullscreenenter"",""1"",""2392""
","
","","","","","","null","<div style=""font-size:60px;"">+</div>","null","","fixation","","","","","","","","",""
"memory-trial","164","420153","0.0-15.0-1.60","2015","2","""event"",""trial"",""time""
""fullscreenenter"",""1"",""2392""
","
","
","""event"",""trial"",""time""
""fullscreenenter"",""1"",""2392""
","
","","","","","","1495.8999999761581","images/apple5.png","","","memory_trial","4","definitely_new","","","","","","",""
"html-keyboard-response","165","420660","0.0-15.0-0.61","2015","2","""event"",""trial"",""time""
""fullscreenenter"",""1"",""2392""
","
","
","""event"",""trial"",""time""
""fullscreenenter"",""1"",""2392""
","
","","","","","","null","<div style=""font-size:60px;"">+</div>","null","","fixation","","","","","","","","",""
"memory-trial","166","423017","0.0-15.0-1.61","2015","2","""event"",""trial"",""time""
""fullscreenenter"",""1"",""2392""
","
","
","""event"",""trial"",""time""
""fullscreenenter"",""1"",""2392""
","
","","","","","","1353.800000011921","images/orange3.png","","","memory_trial","3","maybe_new","","","","","","",""
"html-keyboard-response","167","423519","0.0-15.0-0.62","2015","2","""event"",""trial"",""time""
""fullscreenenter"",""1"",""2392""
","
","
","""event"",""trial"",""time""
""fullscreenenter"",""1"",""2392""
","
","","","","","","null","<div style=""font-size:60px;"">+</div>","null","","fixation","","","","","","","","",""
"memory-trial","168","425310","0.0-15.0-1.62","2015","2","""event"",""trial"",""time""
""fullscreenenter"",""1"",""2392""
","
","
","""event"",""trial"",""time""
""fullscreenenter"",""1"",""2392""
","
","","","","","","783.9000000357628","images/straw2.png","","","memory_trial","3","maybe_new","","","","","","",""
"html-keyboard-response","169","425812","0.0-15.0-0.63","2015","2","""event"",""trial"",""time""
""fullscreenenter"",""1"",""2392""
","
","
","""event"",""trial"",""time""
""fullscreenenter"",""1"",""2392""
","
","","","","","","null","<div style=""font-size:60px;"">+</div>","null","","fixation","","","","","","","","",""
"memory-trial","170","427950","0.0-15.0-1.63","2015","2","""event"",""trial"",""time""
""fullscreenenter"",""1"",""2392""
","
","
","""event"",""trial"",""time""
""fullscreenenter"",""1"",""2392""
","
","","","","","","1134.5999999642372","images/horse2.png","","","memory_trial","4","definitely_new","","","","","","",""
"html-keyboard-response","171","428452","0.0-15.0-0.64","2015","2","""event"",""trial"",""time""
""fullscreenenter"",""1"",""2392""
","
","
","""event"",""trial"",""time""
""fullscreenenter"",""1"",""2392""
","
","","","","","","null","<div style=""font-size:60px;"">+</div>","null","","fixation","","","","","","","","",""
"memory-trial","172","430318","0.0-15.0-1.64","2015","2","""event"",""trial"",""time""
""fullscreenenter"",""1"",""2392""
","
","
","""event"",""trial"",""time""
""fullscreenenter"",""1"",""2392""
","
","","","","","","862.6000000238419","images/plane1.png","","","memory_trial","4","definitely_new","","","","","","",""
"html-keyboard-response","173","430819","0.0-15.0-0.65","2015","2","""event"",""trial"",""time""
""fullscreenenter"",""1"",""2392""
","
","
","""event"",""trial"",""time""
""fullscreenenter"",""1"",""2392""
","
","","","","","","null","<div style=""font-size:60px;"">+</div>","null","","fixation","","","","","","","","",""
"memory-trial","174","432880","0.0-15.0-1.65","2015","2","""event"",""trial"",""time""
""fullscreenenter"",""1"",""2392""
","
","
","""event"",""trial"",""time""
""fullscreenenter"",""1"",""2392""
","
","","","","","","1057.6000000238419","images/bush5.png","","","memory_trial","2","maybe_old","","","","","","",""
"html-keyboard-response","175","433382","0.0-15.0-0.66","2015","2","""event"",""trial"",""time""
""fullscreenenter"",""1"",""2392""
","
","
","""event"",""trial"",""time""
""fullscreenenter"",""1"",""2392""
","
","","","","","","null","<div style=""font-size:60px;"">+</div>","null","","fixation","","","","","","","","",""
"memory-trial","176","435123","0.0-15.0-1.66","2015","2","""event"",""trial"",""time""
""fullscreenenter"",""1"",""2392""
","
","
","""event"",""trial"",""time""
""fullscreenenter"",""1"",""2392""
","
","","","","","","734.7999999523163","images/rabbit4.png","","","memory_trial","2","maybe_old","","","","","","",""
"html-keyboard-response","177","435625","0.0-15.0-0.67","2015","2","""event"",""trial"",""time""
""fullscreenenter"",""1"",""2392""
","
","
","""event"",""trial"",""time""
""fullscreenenter"",""1"",""2392""
","
","","","","","","null","<div style=""font-size:60px;"">+</div>","null","","fixation","","","","","","","","",""
"memory-trial","178","437769","0.0-15.0-1.67","2015","2","""event"",""trial"",""time""
""fullscreenenter"",""1"",""2392""
","
","
","""event"",""trial"",""time""
""fullscreenenter"",""1"",""2392""
","
","","","","","","1137.8999999761581","images/feline5.png","","","memory_trial","4","definitely_new","","","","","","",""
"html-keyboard-response","179","438270","0.0-15.0-0.68","2015","2","""event"",""trial"",""time""
""fullscreenenter"",""1"",""2392""
","
","
","""event"",""trial"",""time""
""fullscreenenter"",""1"",""2392""
","
","","","","","","null","<div style=""font-size:60px;"">+</div>","null","","fixation","","","","","","","","",""
"memory-trial","180","440640","0.0-15.0-1.68","2015","2","""event"",""trial"",""time""
""fullscreenenter"",""1"",""2392""
","
","
","""event"",""trial"",""time""
""fullscreenenter"",""1"",""2392""
","
","","","","","","1365","images/bush4.png","","","memory_trial","3","maybe_new","","","","","","",""
"html-keyboard-response","181","441146","0.0-15.0-0.69","2015","2","""event"",""trial"",""time""
""fullscreenenter"",""1"",""2392""
","
","
","""event"",""trial"",""time""
""fullscreenenter"",""1"",""2392""
","
","","","","","","null","<div style=""font-size:60px;"">+</div>","null","","fixation","","","","","","","","",""
"memory-trial","182","442974","0.0-15.0-1.69","2015","2","""event"",""trial"",""time""
""fullscreenenter"",""1"",""2392""
","
","
","""event"",""trial"",""time""
""fullscreenenter"",""1"",""2392""
","
","","","","","","820.3000000119209","images/bush2.png","","","memory_trial","2","maybe_old","","","","","","",""
"html-keyboard-response","183","443475","0.0-15.0-0.70","2015","2","""event"",""trial"",""time""
""fullscreenenter"",""1"",""2392""
","
","
","""event"",""trial"",""time""
""fullscreenenter"",""1"",""2392""
","
","","","","","","null","<div style=""font-size:60px;"">+</div>","null","","fixation","","","","","","","","",""
"memory-trial","184","445491","0.0-15.0-1.70","2015","2","""event"",""trial"",""time""
""fullscreenenter"",""1"",""2392""
","
","
","""event"",""trial"",""time""
""fullscreenenter"",""1"",""2392""
","
","","","","","","1012.5","images/rodent1.png","","","memory_trial","2","maybe_old","","","","","","",""
"html-keyboard-response","185","445993","0.0-15.0-0.71","2015","2","""event"",""trial"",""time""
""fullscreenenter"",""1"",""2392""
","
","
","""event"",""trial"",""time""
""fullscreenenter"",""1"",""2392""
","
","","","","","","null","<div style=""font-size:60px;"">+</div>","null","","fixation","","","","","","","","",""
"memory-trial","186","447992","0.0-15.0-1.71","2015","2","""event"",""trial"",""time""
""fullscreenenter"",""1"",""2392""
","
","
","""event"",""trial"",""time""
""fullscreenenter"",""1"",""2392""
","
","","","","","","994.1999999880791","images/horse3.png","","","memory_trial","4","definitely_new","","","","","","",""
"html-keyboard-response","187","448493","0.0-15.0-0.72","2015","2","""event"",""trial"",""time""
""fullscreenenter"",""1"",""2392""
","
","
","""event"",""trial"",""time""
""fullscreenenter"",""1"",""2392""
","
","","","","","","null","<div style=""font-size:60px;"">+</div>","null","","fixation","","","","","","","","",""
"memory-trial","188","450435","0.0-15.0-1.72","2015","2","""event"",""trial"",""time""
""fullscreenenter"",""1"",""2392""
","
","
","""event"",""trial"",""time""
""fullscreenenter"",""1"",""2392""
","
","","","","","","936.6000000238419","images/bed2.png","","","memory_trial","3","maybe_new","","","","","","",""
"html-keyboard-response","189","450936","0.0-15.0-0.73","2015","2","""event"",""trial"",""time""
""fullscreenenter"",""1"",""2392""
","
","
","""event"",""trial"",""time""
""fullscreenenter"",""1"",""2392""
","
","","","","","","null","<div style=""font-size:60px;"">+</div>","null","","fixation","","","","","","","","",""
"memory-trial","190","452882","0.0-15.0-1.73","2015","2","""event"",""trial"",""time""
""fullscreenenter"",""1"",""2392""
","
","
","""event"",""trial"",""time""
""fullscreenenter"",""1"",""2392""
","
","","","","","","943.3999999761581","images/sheep1.png","","","memory_trial","2","maybe_old","","","","","","",""
"html-keyboard-response","191","453384","0.0-15.0-0.74","2015","2","""event"",""trial"",""time""
""fullscreenenter"",""1"",""2392""
","
","
","""event"",""trial"",""time""
""fullscreenenter"",""1"",""2392""
","
","","","","","","null","<div style=""font-size:60px;"">+</div>","null","","fixation","","","","","","","","",""
"memory-trial","192","455048","0.0-15.0-1.74","2015","2","""event"",""trial"",""time""
""fullscreenenter"",""1"",""2392""
","
","
","""event"",""trial"",""time""
""fullscreenenter"",""1"",""2392""
","
","","","","","","657.5999999642372","images/orange4.png","","","memory_trial","2","maybe_old","","","","","","",""
"html-keyboard-response","193","455549","0.0-15.0-0.75","2015","2","""event"",""trial"",""time""
""fullscreenenter"",""1"",""2392""
","
","
","""event"",""trial"",""time""
""fullscreenenter"",""1"",""2392""
","
","","","","","","null","<div style=""font-size:60px;"">+</div>","null","","fixation","","","","","","","","",""
"memory-trial","194","457208","0.0-15.0-1.75","2015","2","""event"",""trial"",""time""
""fullscreenenter"",""1"",""2392""
","
","
","""event"",""trial"",""time""
""fullscreenenter"",""1"",""2392""
","
","","","","","","656","images/train2.png","","","memory_trial","2","maybe_old","","","","","","",""
"html-keyboard-response","195","457716","0.0-15.0-0.76","2015","2","""event"",""trial"",""time""
""fullscreenenter"",""1"",""2392""
","
","
","""event"",""trial"",""time""
""fullscreenenter"",""1"",""2392""
","
","","","","","","null","<div style=""font-size:60px;"">+</div>","null","","fixation","","","","","","","","",""
"memory-trial","196","459386","0.0-15.0-1.76","2015","2","""event"",""trial"",""time""
""fullscreenenter"",""1"",""2392""
","
","
","""event"",""trial"",""time""
""fullscreenenter"",""1"",""2392""
","
","","","","","","665.6999999880791","images/tree3.png","","","memory_trial","2","maybe_old","","","","","","",""
"html-keyboard-response","197","459890","0.0-15.0-0.77","2015","2","""event"",""trial"",""time""
""fullscreenenter"",""1"",""2392""
","
","
","""event"",""trial"",""time""
""fullscreenenter"",""1"",""2392""
","
","","","","","","null","<div style=""font-size:60px;"">+</div>","null","","fixation","","","","","","","","",""
"memory-trial","198","461650","0.0-15.0-1.77","2015","2","""event"",""trial"",""time""
""fullscreenenter"",""1"",""2392""
","
","
","""event"",""trial"",""time""
""fullscreenenter"",""1"",""2392""
","
","","","","","","756.1000000238419","images/sofa5.png","","","memory_trial","2","maybe_old","","","","","","",""
"html-keyboard-response","199","462151","0.0-15.0-0.78","2015","2","""event"",""trial"",""time""
""fullscreenenter"",""1"",""2392""
","
","
","""event"",""trial"",""time""
""fullscreenenter"",""1"",""2392""
","
","","","","","","null","<div style=""font-size:60px;"">+</div>","null","","fixation","","","","","","","","",""
"memory-trial","200","463831","0.0-15.0-1.78","2015","2","""event"",""trial"",""time""
""fullscreenenter"",""1"",""2392""
","
","
","""event"",""trial"",""time""
""fullscreenenter"",""1"",""2392""
","
","","","","","","674.6999999880791","images/rodent4.png","","","memory_trial","2","maybe_old","","","","","","",""
"html-keyboard-response","201","464333","0.0-15.0-0.79","2015","2","""event"",""trial"",""time""
""fullscreenenter"",""1"",""2392""
","
","
","""event"",""trial"",""time""
""fullscreenenter"",""1"",""2392""
","
","","","","","","null","<div style=""font-size:60px;"">+</div>","null","","fixation","","","","","","","","",""
"memory-trial","202","466001","0.0-15.0-1.79","2015","2","""event"",""trial"",""time""
""fullscreenenter"",""1"",""2392""
","
","
","""event"",""trial"",""time""
""fullscreenenter"",""1"",""2392""
","
","","","","","","663.8000000119209","images/tree5.png","","","memory_trial","3","maybe_new","","","","","","",""
"html-keyboard-response","203","466503","0.0-15.0-0.80","2015","2","""event"",""trial"",""time""
""fullscreenenter"",""1"",""2392""
","
","
","""event"",""trial"",""time""
""fullscreenenter"",""1"",""2392""
","
","","","","","","null","<div style=""font-size:60px;"">+</div>","null","","fixation","","","","","","","","",""
"memory-trial","204","468373","0.0-15.0-1.80","2015","2","""event"",""trial"",""time""
""fullscreenenter"",""1"",""2392""
","
","
","""event"",""trial"",""time""
""fullscreenenter"",""1"",""2392""
","
","","","","","","867.8999999761581","images/plane4.png","","","memory_trial","3","maybe_new","","","","","","",""
"html-keyboard-response","205","468875","0.0-15.0-0.81","2015","2","""event"",""trial"",""time""
""fullscreenenter"",""1"",""2392""
","
","
","""event"",""trial"",""time""
""fullscreenenter"",""1"",""2392""
","
","","","","","","null","<div style=""font-size:60px;"">+</div>","null","","fixation","","","","","","","","",""
"memory-trial","206","470946","0.0-15.0-1.81","2015","2","""event"",""trial"",""time""
""fullscreenenter"",""1"",""2392""
","
","
","""event"",""trial"",""time""
""fullscreenenter"",""1"",""2392""
","
","","","","","","1063.699999988079","images/boat5.png","","","memory_trial","2","maybe_old","","","","","","",""
"html-keyboard-response","207","471452","0.0-15.0-0.82","2015","2","""event"",""trial"",""time""
""fullscreenenter"",""1"",""2392""
","
","
","""event"",""trial"",""time""
""fullscreenenter"",""1"",""2392""
","
","","","","","","null","<div style=""font-size:60px;"">+</div>","null","","fixation","","","","","","","","",""
"memory-trial","208","473527","0.0-15.0-1.82","2015","2","""event"",""trial"",""time""
""fullscreenenter"",""1"",""2392""
","
","
","""event"",""trial"",""time""
""fullscreenenter"",""1"",""2392""
","
","","","","","","1069","images/straw4.png","","","memory_trial","3","maybe_new","","","","","","",""
"html-keyboard-response","209","474028","0.0-15.0-0.83","2015","2","""event"",""trial"",""time""
""fullscreenenter"",""1"",""2392""
","
","
","""event"",""trial"",""time""
""fullscreenenter"",""1"",""2392""
","
","","","","","","null","<div style=""font-size:60px;"">+</div>","null","","fixation","","","","","","","","",""
"memory-trial","210","475930","0.0-15.0-1.83","2015","2","""event"",""trial"",""time""
""fullscreenenter"",""1"",""2392""
","
","
","""event"",""trial"",""time""
""fullscreenenter"",""1"",""2392""
","
","","","","","","895.1999999880791","images/orange2.png","","","memory_trial","3","maybe_new","","","","","","",""
"html-keyboard-response","211","476433","0.0-15.0-0.84","2015","2","""event"",""trial"",""time""
""fullscreenenter"",""1"",""2392""
","
","
","""event"",""trial"",""time""
""fullscreenenter"",""1"",""2392""
","
","","","","","","null","<div style=""font-size:60px;"">+</div>","null","","fixation","","","","","","","","",""
"memory-trial","212","478145","0.0-15.0-1.84","2015","2","""event"",""trial"",""time""
""fullscreenenter"",""1"",""2392""
","
","
","""event"",""trial"",""time""
""fullscreenenter"",""1"",""2392""
","
","","","","","","708.3999999761581","images/truck3.png","","","memory_trial","3","maybe_new","","","","","","",""
"html-keyboard-response","213","478647","0.0-15.0-0.85","2015","2","""event"",""trial"",""time""
""fullscreenenter"",""1"",""2392""
","
","
","""event"",""trial"",""time""
""fullscreenenter"",""1"",""2392""
","
","","","","","","null","<div style=""font-size:60px;"">+</div>","null","","fixation","","","","","","","","",""
"memory-trial","214","480571","0.0-15.0-1.85","2015","2","""event"",""trial"",""time""
""fullscreenenter"",""1"",""2392""
","
","
","""event"",""trial"",""time""
""fullscreenenter"",""1"",""2392""
","
","","","","","","917.5","images/boat1.png","","","memory_trial","3","maybe_new","","","","","","",""
"html-keyboard-response","215","481073","0.0-15.0-0.86","2015","2","""event"",""trial"",""time""
""fullscreenenter"",""1"",""2392""
","
","
","""event"",""trial"",""time""
""fullscreenenter"",""1"",""2392""
","
","","","","","","null","<div style=""font-size:60px;"">+</div>","null","","fixation","","","","","","","","",""
"memory-trial","216","482967","0.0-15.0-1.86","2015","2","""event"",""trial"",""time""
""fullscreenenter"",""1"",""2392""
","
","
","""event"",""trial"",""time""
""fullscreenenter"",""1"",""2392""
","
","","","","","","890.1999999880791","images/dog3.png","","","memory_trial","2","maybe_old","","","","","","",""
"html-keyboard-response","217","483473","0.0-15.0-0.87","2015","2","""event"",""trial"",""time""
""fullscreenenter"",""1"",""2392""
","
","
","""event"",""trial"",""time""
""fullscreenenter"",""1"",""2392""
","
","","","","","","null","<div style=""font-size:60px;"">+</div>","null","","fixation","","","","","","","","",""
"memory-trial","218","485644","0.0-15.0-1.87","2015","2","""event"",""trial"",""time""
""fullscreenenter"",""1"",""2392""
","
","
","""event"",""trial"",""time""
""fullscreenenter"",""1"",""2392""
","
","","","","","","1164.0999999642372","images/sofa4.png","","","memory_trial","3","maybe_new","","","","","","",""
"html-keyboard-response","219","486150","0.0-15.0-0.88","2015","2","""event"",""trial"",""time""
""fullscreenenter"",""1"",""2392""
","
","
","""event"",""trial"",""time""
""fullscreenenter"",""1"",""2392""
","
","","","","","","null","<div style=""font-size:60px;"">+</div>","null","","fixation","","","","","","","","",""
"memory-trial","220","487974","0.0-15.0-1.88","2015","2","""event"",""trial"",""time""
""fullscreenenter"",""1"",""2392""
","
","
","""event"",""trial"",""time""
""fullscreenenter"",""1"",""2392""
","
","","","","","","820.5","images/table5.png","","","memory_trial","3","maybe_new","","","","","","",""
"html-keyboard-response","221","488476","0.0-15.0-0.89","2015","2","""event"",""trial"",""time""
""fullscreenenter"",""1"",""2392""
","
","
","""event"",""trial"",""time""
""fullscreenenter"",""1"",""2392""
","
","","","","","","null","<div style=""font-size:60px;"">+</div>","null","","fixation","","","","","","","","",""
"memory-trial","222","489745","0.0-15.0-1.89","2015","2","""event"",""trial"",""time""
""fullscreenenter"",""1"",""2392""
","
","
","""event"",""trial"",""time""
""fullscreenenter"",""1"",""2392""
","
","","","","","","264.10000002384186","images/tree1.png","","","memory_trial","3","maybe_new","","","","","","",""
"html-keyboard-response","223","490251","0.0-15.0-0.90","2015","2","""event"",""trial"",""time""
""fullscreenenter"",""1"",""2392""
","
","
","""event"",""trial"",""time""
""fullscreenenter"",""1"",""2392""
","
","","","","","","null","<div style=""font-size:60px;"">+</div>","null","","fixation","","","","","","","","",""
"memory-trial","224","492028","0.0-15.0-1.90","2015","2","""event"",""trial"",""time""
""fullscreenenter"",""1"",""2392""
","
","
","""event"",""trial"",""time""
""fullscreenenter"",""1"",""2392""
","
","","","","","","773.4000000357628","images/cow1.png","","","memory_trial","2","maybe_old","","","","","","",""
"html-keyboard-response","225","492534","0.0-15.0-0.91","2015","2","""event"",""trial"",""time""
""fullscreenenter"",""1"",""2392""
","
","
","""event"",""trial"",""time""
""fullscreenenter"",""1"",""2392""
","
","","","","","","null","<div style=""font-size:60px;"">+</div>","null","","fixation","","","","","","","","",""
"memory-trial","226","494539","0.0-15.0-1.91","2015","2","""event"",""trial"",""time""
""fullscreenenter"",""1"",""2392""
","
","
","""event"",""trial"",""time""
""fullscreenenter"",""1"",""2392""
","
","","","","","","1001.3000000119209","images/truck2.png","","","memory_trial","2","maybe_old","","","","","","",""
"html-keyboard-response","227","495043","0.0-15.0-0.92","2015","2","""event"",""trial"",""time""
""fullscreenenter"",""1"",""2392""
","
","
","""event"",""trial"",""time""
""fullscreenenter"",""1"",""2392""
","
","","","","","","null","<div style=""font-size:60px;"">+</div>","null","","fixation","","","","","","","","",""
"memory-trial","228","497334","0.0-15.0-1.92","2015","2","""event"",""trial"",""time""
""fullscreenenter"",""1"",""2392""
","
","
","""event"",""trial"",""time""
""fullscreenenter"",""1"",""2392""
","
","","","","","","1283.199999988079","images/apple3.png","","","memory_trial","4","definitely_new","","","","","","",""
"html-keyboard-response","229","497840","0.0-15.0-0.93","2015","2","""event"",""trial"",""time""
""fullscreenenter"",""1"",""2392""
","
","
","""event"",""trial"",""time""
""fullscreenenter"",""1"",""2392""
","
","","","","","","null","<div style=""font-size:60px;"">+</div>","null","","fixation","","","","","","","","",""
"memory-trial","230","499688","0.0-15.0-1.93","2015","2","""event"",""trial"",""time""
""fullscreenenter"",""1"",""2392""
","
","
","""event"",""trial"",""time""
""fullscreenenter"",""1"",""2392""
","
","","","","","","841.1999999880791","images/goat3.png","","","memory_trial","2","maybe_old","","","","","","",""
"html-keyboard-response","231","500194","0.0-15.0-0.94","2015","2","""event"",""trial"",""time""
""fullscreenenter"",""1"",""2392""
","
","
","""event"",""trial"",""time""
""fullscreenenter"",""1"",""2392""
","
","","","","","","null","<div style=""font-size:60px;"">+</div>","null","","fixation","","","","","","","","",""
"memory-trial","232","501963","0.0-15.0-1.94","2015","2","""event"",""trial"",""time""
""fullscreenenter"",""1"",""2392""
","
","
","""event"",""trial"",""time""
""fullscreenenter"",""1"",""2392""
","
","","","","","","762.1000000238419","images/sheep5.png","","","memory_trial","3","maybe_new","","","","","","",""
"html-keyboard-response","233","502470","0.0-15.0-0.95","2015","2","""event"",""trial"",""time""
""fullscreenenter"",""1"",""2392""
","
","
","""event"",""trial"",""time""
""fullscreenenter"",""1"",""2392""
","
","","","","","","null","<div style=""font-size:60px;"">+</div>","null","","fixation","","","","","","","","",""
"memory-trial","234","504421","0.0-15.0-1.95","2015","2","""event"",""trial"",""time""
""fullscreenenter"",""1"",""2392""
","
","
","""event"",""trial"",""time""
""fullscreenenter"",""1"",""2392""
","
","","","","","","945.5","images/flower4.png","","","memory_trial","1","definitely_old","","","","","","",""
"html-keyboard-response","235","504923","0.0-15.0-0.96","2015","2","""event"",""trial"",""time""
""fullscreenenter"",""1"",""2392""
","
","
","""event"",""trial"",""time""
""fullscreenenter"",""1"",""2392""
","
","","","","","","null","<div style=""font-size:60px;"">+</div>","null","","fixation","","","","","","","","",""
"memory-trial","236","507051","0.0-15.0-1.96","2015","2","""event"",""trial"",""time""
""fullscreenenter"",""1"",""2392""
","
","
","""event"",""trial"",""time""
""fullscreenenter"",""1"",""2392""
","
","","","","","","1124","images/truck1.png","","","memory_trial","4","definitely_new","","","","","","",""
"html-keyboard-response","237","507552","0.0-15.0-0.97","2015","2","""event"",""trial"",""time""
""fullscreenenter"",""1"",""2392""
","
","
","""event"",""trial"",""time""
""fullscreenenter"",""1"",""2392""
","
","","","","","","null","<div style=""font-size:60px;"">+</div>","null","","fixation","","","","","","","","",""
"memory-trial","238","509562","0.0-15.0-1.97","2015","2","""event"",""trial"",""time""
""fullscreenenter"",""1"",""2392""
","
","
","""event"",""trial"",""time""
""fullscreenenter"",""1"",""2392""
","
","","","","","","1006.2999999523163","images/cow4.png","","","memory_trial","3","maybe_new","","","","","","",""
"html-keyboard-response","239","510064","0.0-15.0-0.98","2015","2","""event"",""trial"",""time""
""fullscreenenter"",""1"",""2392""
","
","
","""event"",""trial"",""time""
""fullscreenenter"",""1"",""2392""
","
","","","","","","null","<div style=""font-size:60px;"">+</div>","null","","fixation","","","","","","","","",""
"memory-trial","240","511872","0.0-15.0-1.98","2015","2","""event"",""trial"",""time""
""fullscreenenter"",""1"",""2392""
","
","
","""event"",""trial"",""time""
""fullscreenenter"",""1"",""2392""
","
","","","","","","801.8000000119209","images/banana1.png","","","memory_trial","2","maybe_old","","","","","","",""
"html-keyboard-response","241","512373","0.0-15.0-0.99","2015","2","""event"",""trial"",""time""
""fullscreenenter"",""1"",""2392""
","
","
","""event"",""trial"",""time""
""fullscreenenter"",""1"",""2392""
","
","","","","","","null","<div style=""font-size:60px;"">+</div>","null","","fixation","","","","","","","","",""
"memory-trial","242","514335","0.0-15.0-1.99","2015","2","""event"",""trial"",""time""
""fullscreenenter"",""1"",""2392""
","
","
","""event"",""trial"",""time""
""fullscreenenter"",""1"",""2392""
","
","","","","","","956.4000000357628","images/tree2.png","","","memory_trial","3","maybe_new","","","","","","",""
"html-keyboard-response","243","514841","0.0-15.0-0.100","2015","2","""event"",""trial"",""time""
""fullscreenenter"",""1"",""2392""
","
","
","""event"",""trial"",""time""
""fullscreenenter"",""1"",""2392""
","
","","","","","","null","<div style=""font-size:60px;"">+</div>","null","","fixation","","","","","","","","",""
"memory-trial","244","516869","0.0-15.0-1.100","2015","2","""event"",""trial"",""time""
""fullscreenenter"",""1"",""2392""
","
","
","""event"",""trial"",""time""
""fullscreenenter"",""1"",""2392""
","
","","","","","","1025","images/bed3.png","","","memory_trial","3","maybe_new","","","","","","",""
"html-keyboard-response","245","517371","0.0-15.0-0.101","2015","2","""event"",""trial"",""time""
""fullscreenenter"",""1"",""2392""
","
","
","""event"",""trial"",""time""
""fullscreenenter"",""1"",""2392""
","
","","","","","","null","<div style=""font-size:60px;"">+</div>","null","","fixation","","","","","","","","",""
"memory-trial","246","520402","0.0-15.0-1.101","2015","2","""event"",""trial"",""time""
""fullscreenenter"",""1"",""2392""
","
","
","""event"",""trial"",""time""
""fullscreenenter"",""1"",""2392""
","
","","","","","","2025.1000000238419","images/horse1.png","","","memory_trial","3","maybe_new","","","","","","",""
"html-button-response","247","521962","0.0-15.0-2.101-0.101","2015","2","""event"",""trial"",""time""
""fullscreenenter"",""1"",""2392""
","
","
","""event"",""trial"",""time""
""fullscreenenter"",""1"",""2392""
","
","","","","","","1558.699999988079","<p> Take a break! </p><p> Click the button to continue. </p>","0","","break","","","","","","","","",""
"html-keyboard-response","248","522464","0.0-15.0-0.102","2015","2","""event"",""trial"",""time""
""fullscreenenter"",""1"",""2392""
","
","
","""event"",""trial"",""time""
""fullscreenenter"",""1"",""2392""
","
","","","","","","null","<div style=""font-size:60px;"">+</div>","null","","fixation","","","","","","","","",""
"memory-trial","249","524735","0.0-15.0-1.102","2015","2","""event"",""trial"",""time""
""fullscreenenter"",""1"",""2392""
","
","
","""event"",""trial"",""time""
""fullscreenenter"",""1"",""2392""
","
","","","","","","1266.0999999642372","images/train4.png","","","memory_trial","3","maybe_new","","","","","","",""
"html-keyboard-response","250","525239","0.0-15.0-0.103","2015","2","""event"",""trial"",""time""
""fullscreenenter"",""1"",""2392""
","
","
","""event"",""trial"",""time""
""fullscreenenter"",""1"",""2392""
","
","","","","","","null","<div style=""font-size:60px;"">+</div>","null","","fixation","","","","","","","","",""
"memory-trial","251","527524","0.0-15.0-1.103","2015","2","""event"",""trial"",""time""
""fullscreenenter"",""1"",""2392""
","
","
","""event"",""trial"",""time""
""fullscreenenter"",""1"",""2392""
","
","","","","","","1280.3999999761581","images/goat5.png","","","memory_trial","4","definitely_new","","","","","","",""
"html-keyboard-response","252","528026","0.0-15.0-0.104","2015","2","""event"",""trial"",""time""
""fullscreenenter"",""1"",""2392""
","
","
","""event"",""trial"",""time""
""fullscreenenter"",""1"",""2392""
","
","","","","","","null","<div style=""font-size:60px;"">+</div>","null","","fixation","","","","","","","","",""
"memory-trial","253","529828","0.0-15.0-1.104","2015","2","""event"",""trial"",""time""
""fullscreenenter"",""1"",""2392""
","
","
","""event"",""trial"",""time""
""fullscreenenter"",""1"",""2392""
","
","","","","","","796.8000000119209","images/truck5.png","","","memory_trial","3","maybe_new","","","","","","",""
"html-keyboard-response","254","530330","0.0-15.0-0.105","2015","2","""event"",""trial"",""time""
""fullscreenenter"",""1"",""2392""
","
","
","""event"",""trial"",""time""
""fullscreenenter"",""1"",""2392""
","
","","","","","","null","<div style=""font-size:60px;"">+</div>","null","","fixation","","","","","","","","",""
"memory-trial","255","532268","0.0-15.0-1.105","2015","2","""event"",""trial"",""time""
""fullscreenenter"",""1"",""2392""
","
","
","""event"",""trial"",""time""
""fullscreenenter"",""1"",""2392""
","
","","","","","","932.7000000476837","images/truck4.png","","","memory_trial","2","maybe_old","","","","","","",""
"html-keyboard-response","256","532770","0.0-15.0-0.106","2015","2","""event"",""trial"",""time""
""fullscreenenter"",""1"",""2392""
","
","
","""event"",""trial"",""time""
""fullscreenenter"",""1"",""2392""
","
","","","","","","null","<div style=""font-size:60px;"">+</div>","null","","fixation","","","","","","","","",""
"memory-trial","257","535119","0.0-15.0-1.106","2015","2","""event"",""trial"",""time""
""fullscreenenter"",""1"",""2392""
","
","
","""event"",""trial"",""time""
""fullscreenenter"",""1"",""2392""
","
","","","","","","1342.5","images/feline1.png","","","memory_trial","3","maybe_new","","","","","","",""
"html-keyboard-response","258","535622","0.0-15.0-0.107","2015","2","""event"",""trial"",""time""
""fullscreenenter"",""1"",""2392""
","
","
","""event"",""trial"",""time""
""fullscreenenter"",""1"",""2392""
","
","","","","","","null","<div style=""font-size:60px;"">+</div>","null","","fixation","","","","","","","","",""
"memory-trial","259","537444","0.0-15.0-1.107","2015","2","""event"",""trial"",""time""
""fullscreenenter"",""1"",""2392""
","
","
","""event"",""trial"",""time""
""fullscreenenter"",""1"",""2392""
","
","","","","","","815.9000000357628","images/sofa2.png","","","memory_trial","2","maybe_old","","","","","","",""
"html-keyboard-response","260","537950","0.0-15.0-0.108","2015","2","""event"",""trial"",""time""
""fullscreenenter"",""1"",""2392""
","
","
","""event"",""trial"",""time""
""fullscreenenter"",""1"",""2392""
","
","","","","","","null","<div style=""font-size:60px;"">+</div>","null","","fixation","","","","","","","","",""
"memory-trial","261","540115","0.0-15.0-1.108","2015","2","""event"",""trial"",""time""
""fullscreenenter"",""1"",""2392""
","
","
","""event"",""trial"",""time""
""fullscreenenter"",""1"",""2392""
","
","","","","","","1161.1000000238419","images/boat4.png","","","memory_trial","2","maybe_old","","","","","","",""
"html-keyboard-response","262","540620","0.0-15.0-0.109","2015","2","""event"",""trial"",""time""
""fullscreenenter"",""1"",""2392""
","
","
","""event"",""trial"",""time""
""fullscreenenter"",""1"",""2392""
","
","","","","","","null","<div style=""font-size:60px;"">+</div>","null","","fixation","","","","","","","","",""
"memory-trial","263","542649","0.0-15.0-1.109","2015","2","""event"",""trial"",""time""
""fullscreenenter"",""1"",""2392""
","
","
","""event"",""trial"",""time""
""fullscreenenter"",""1"",""2392""
","
","","","","","","1024.8999999761581","images/plane5.png","","","memory_trial","2","maybe_old","","","","","","",""
"html-keyboard-response","264","543159","0.0-15.0-0.110","2015","2","""event"",""trial"",""time""
""fullscreenenter"",""1"",""2392""
","
","
","""event"",""trial"",""time""
""fullscreenenter"",""1"",""2392""
","
","","","","","","null","<div style=""font-size:60px;"">+</div>","null","","fixation","","","","","","","","",""
"memory-trial","265","545193","0.0-15.0-1.110","2015","2","""event"",""trial"",""time""
""fullscreenenter"",""1"",""2392""
","
","
","""event"",""trial"",""time""
""fullscreenenter"",""1"",""2392""
","
","","","","","","1027.699999988079","images/cow2.png","","","memory_trial","4","definitely_new","","","","","","",""
"html-keyboard-response","266","545700","0.0-15.0-0.111","2015","2","""event"",""trial"",""time""
""fullscreenenter"",""1"",""2392""
","
","
","""event"",""trial"",""time""
""fullscreenenter"",""1"",""2392""
","
","","","","","","null","<div style=""font-size:60px;"">+</div>","null","","fixation","","","","","","","","",""
"memory-trial","267","548020","0.0-15.0-1.111","2015","2","""event"",""trial"",""time""
""fullscreenenter"",""1"",""2392""
","
","
","""event"",""trial"",""time""
""fullscreenenter"",""1"",""2392""
","
","","","","","","1311.6000000238419","images/horse4.png","","","memory_trial","2","maybe_old","","","","","","",""
"html-keyboard-response","268","548526","0.0-15.0-0.112","2015","2","""event"",""trial"",""time""
""fullscreenenter"",""1"",""2392""
","
","
","""event"",""trial"",""time""
""fullscreenenter"",""1"",""2392""
","
","","","","","","null","<div style=""font-size:60px;"">+</div>","null","","fixation","","","","","","","","",""
"memory-trial","269","550835","0.0-15.0-1.112","2015","2","""event"",""trial"",""time""
""fullscreenenter"",""1"",""2392""
","
","
","""event"",""trial"",""time""
""fullscreenenter"",""1"",""2392""
","
","","","","","","1305.3999999761581","images/orange1.png","","","memory_trial","2","maybe_old","","","","","","",""
"html-keyboard-response","270","551337","0.0-15.0-0.113","2015","2","""event"",""trial"",""time""
""fullscreenenter"",""1"",""2392""
","
","
","""event"",""trial"",""time""
""fullscreenenter"",""1"",""2392""
","
","","","","","","null","<div style=""font-size:60px;"">+</div>","null","","fixation","","","","","","","","",""
"memory-trial","271","552969","0.0-15.0-1.113","2015","2","""event"",""trial"",""time""
""fullscreenenter"",""1"",""2392""
","
","
","""event"",""trial"",""time""
""fullscreenenter"",""1"",""2392""
","
","","","","","","627.6000000238419","images/flower1.png","","","memory_trial","1","definitely_old","","","","","","",""
"html-keyboard-response","272","553470","0.0-15.0-0.114","2015","2","""event"",""trial"",""time""
""fullscreenenter"",""1"",""2392""
","
","
","""event"",""trial"",""time""
""fullscreenenter"",""1"",""2392""
","
","","","","","","null","<div style=""font-size:60px;"">+</div>","null","","fixation","","","","","","","","",""
"memory-trial","273","555726","0.0-15.0-1.114","2015","2","""event"",""trial"",""time""
""fullscreenenter"",""1"",""2392""
","
","
","""event"",""trial"",""time""
""fullscreenenter"",""1"",""2392""
","
","","","","","","1253","images/cow5.png","","","memory_trial","2","maybe_old","","","","","","",""
"html-keyboard-response","274","556233","0.0-15.0-0.115","2015","2","""event"",""trial"",""time""
""fullscreenenter"",""1"",""2392""
","
","
","""event"",""trial"",""time""
""fullscreenenter"",""1"",""2392""
","
","","","","","","null","<div style=""font-size:60px;"">+</div>","null","","fixation","","","","","","","","",""
"memory-trial","275","558419","0.0-15.0-1.115","2015","2","""event"",""trial"",""time""
""fullscreenenter"",""1"",""2392""
","
","
","""event"",""trial"",""time""
""fullscreenenter"",""1"",""2392""
","
","","","","","","1179.3999999761581","images/bed1.png","","","memory_trial","3","maybe_new","","","","","","",""
"html-keyboard-response","276","558920","0.0-15.0-0.116","2015","2","""event"",""trial"",""time""
""fullscreenenter"",""1"",""2392""
","
","
","""event"",""trial"",""time""
""fullscreenenter"",""1"",""2392""
","
","","","","","","null","<div style=""font-size:60px;"">+</div>","null","","fixation","","","","","","","","",""
"memory-trial","277","560853","0.0-15.0-1.116","2015","2","""event"",""trial"",""time""
""fullscreenenter"",""1"",""2392""
","
","
","""event"",""trial"",""time""
""fullscreenenter"",""1"",""2392""
","
","","","","","","926.8999999761581","images/table3.png","","","memory_trial","2","maybe_old","","","","","","",""
"html-keyboard-response","278","561358","0.0-15.0-0.117","2015","2","""event"",""trial"",""time""
""fullscreenenter"",""1"",""2392""
","
","
","""event"",""trial"",""time""
""fullscreenenter"",""1"",""2392""
","
","","","","","","null","<div style=""font-size:60px;"">+</div>","null","","fixation","","","","","","","","",""
"memory-trial","279","563072","0.0-15.0-1.117","2015","2","""event"",""trial"",""time""
""fullscreenenter"",""1"",""2392""
","
","
","""event"",""trial"",""time""
""fullscreenenter"",""1"",""2392""
","
","","","","","","708.1999999880791","images/cow3.png","","","memory_trial","2","maybe_old","","","","","","",""
"html-keyboard-response","280","563575","0.0-15.0-0.118","2015","2","""event"",""trial"",""time""
""fullscreenenter"",""1"",""2392""
","
","
","""event"",""trial"",""time""
""fullscreenenter"",""1"",""2392""
","
","","","","","","null","<div style=""font-size:60px;"">+</div>","null","","fixation","","","","","","","","",""
"memory-trial","281","565873","0.0-15.0-1.118","2015","2","""event"",""trial"",""time""
""fullscreenenter"",""1"",""2392""
","
","
","""event"",""trial"",""time""
""fullscreenenter"",""1"",""2392""
","
","","","","","","1294.5","images/train3.png","","","memory_trial","2","maybe_old","","","","","","",""
"html-keyboard-response","282","566378","0.0-15.0-0.119","2015","2","""event"",""trial"",""time""
""fullscreenenter"",""1"",""2392""
","
","
","""event"",""trial"",""time""
""fullscreenenter"",""1"",""2392""
","
","","","","","","null","<div style=""font-size:60px;"">+</div>","null","","fixation","","","","","","","","",""
"memory-trial","283","568632","0.0-15.0-1.119","2015","2","""event"",""trial"",""time""
""fullscreenenter"",""1"",""2392""
","
","
","""event"",""trial"",""time""
""fullscreenenter"",""1"",""2392""
","
","","","","","","1249.300000011921","images/table4.png","","","memory_trial","2","maybe_old","","","","","","",""
"preload","284","581627","0.0-16.0","2015","2","""event"",""trial"",""time""
""fullscreenenter"",""1"",""2392""
","
","
","""event"",""trial"",""time""
""fullscreenenter"",""1"",""2392""
","
","true","false","[]","[]","[]","","","","","","","","","","","","","",""
"learning-instructions","285","586859","0.0-17.0-0.0-0.0-0.0","2015","2","""event"",""trial"",""time""
""fullscreenenter"",""1"",""2392""
","
","
","""event"",""trial"",""time""
""fullscreenenter"",""1"",""2392""
","
","","","","","","2202.5","<p> We're now going to ask you to water your plants again. </p>","","0","instructions","","","","","","","","",""
"learning-instructions","286","595424","0.0-17.0-0.0-0.0-0.1","2015","2","""event"",""trial"",""time""
""fullscreenenter"",""1"",""2392""
","
","
","""event"",""trial"",""time""
""fullscreenenter"",""1"",""2392""
","
","","","","","","2694.099999964237","<p> On each trial, you will see a plant. Select the watering can that you think will make the plant grow. </p>","","0","instructions","","","","","","","","",""
"learning-instructions","287","603285","0.0-17.0-0.0-0.0-0.2","2015","2","""event"",""trial"",""time""
""fullscreenenter"",""1"",""2392""
","
","
","""event"",""trial"",""time""
""fullscreenenter"",""1"",""2392""
","
","","","","","","795.0999999642372","<p> To make your selection, think about what you learned last week. You will NOT receive any feedback about your choice. </p>","","0","instructions","","","","","","","","",""
"learning-instructions","288","615553","0.0-17.0-0.0-0.0-0.3","2015","2","""event"",""trial"",""time""
""fullscreenenter"",""1"",""2392""
","
","
","""event"",""trial"",""time""
""fullscreenenter"",""1"",""2392""
","
","","","","","","3153.199999988079","<p> You should use the 1 key to select the watering can on the left, the 2 key to select the watering can in the middle, and the 3 key to select the watering can on the right. </p><br><div class=""choice-mem-instructions-grid""> <div class=""choice-mem-option""><img src=""images/plants_choice1.png"" class=""choice-mem-option-img"" stage=""instructions"" position=""0"" ><div class=""choice-mem-option-text""> Press ""1."" </div></div><div class=""choice-mem-option""><img src=""images/plants_choice2.png"" class=""choice-mem-option-img"" stage=""instructions"" position=""1"" ><div class=""choice-mem-option-text""> Press ""2."" </div></div><div class=""choice-mem-option""><img src=""images/plants_choice3.png"" class=""choice-mem-option-img"" stage=""instructions"" position=""2"" ><div class=""choice-mem-option-text""> Press ""3."" </div></div></div>","","0","instructions","","","","","","","","",""
"learning-instructions","289","622671","0.0-17.0-0.0-0.0-0.4","2015","2","""event"",""trial"",""time""
""fullscreenenter"",""1"",""2392""
","
","
","""event"",""trial"",""time""
""fullscreenenter"",""1"",""2392""
","
","","","","","","848.3000000119209","<p> You will have 10 seconds to make each selection. Try to respond before time runs out! </p>","","0","instructions","","","","","","","","",""
"learning-instructions","290","626093","0.0-17.0-0.0-1.0","2015","2","""event"",""trial"",""time""
""fullscreenenter"",""1"",""2392""
","
","
","""event"",""trial"",""time""
""fullscreenenter"",""1"",""2392""
","
","","","","","","1363.5999999642372","<p> You are now ready to begin the game. </p>","","0","instructions","","","","","","","","",""
"html-keyboard-response","291","626700","0.0-17.0-0.0-2.0-0.0","2015","2","""event"",""trial"",""time""
""fullscreenenter"",""1"",""2392""
","
","
","""event"",""trial"",""time""
""fullscreenenter"",""1"",""2392""
","
","","","","","","null","<div style=""font-size:60px;"">+</div>","null","","fixation","","","","","","","","",""
"choice-memory-trial","292","628360","0.0-17.0-0.0-2.0-1.0","2015","2","""event"",""trial"",""time""
""fullscreenenter"",""1"",""2392""
","
","
","""event"",""trial"",""time""
""fullscreenenter"",""1"",""2392""
","
","","","","","","653.5","images/flower1.png","","","choice_memory_trial","2","","","images/plants_choice2.png","images/plants_choice1.png","images/plants_choice3.png","[1,0,2]","images/plants_choice1.png","plants"
