"trial_type","trial_index","time_elapsed","internal_node_id","subject_id","task_version","interactions","blur_events","focus_events","fullscreenenter_events","fullscreenexit_events","success","timeout","failed_images","failed_audio","failed_video","rt","stimulus","response","button_pressed","task_part","key_press","answer","correct","left_choice","middle_choice","right_choice","choice_positions","option_selected","block"
"pavlovia","0","5","0.0-0.0","1638","2","""event"",""trial"",""time""
""blur"",""1"",""3827""
""focus"",""1"",""99675""
""fullscreenenter"",""1"",""101143""
","""event"",""trial"",""time""
""blur"",""1"",""3827""
","""event"",""trial"",""time""
""focus"",""1"",""99675""
","""event"",""trial"",""time""
""fullscreenenter"",""1"",""101143""
","
","","","","","","","","","","","","","","","","","","",""
"fullscreen","1","101328","0.0-1.0","1638","2","""event"",""trial"",""time""
""blur"",""1"",""3827""
""focus"",""1"",""99675""
""fullscreenenter"",""1"",""101143""
","""event"",""trial"",""time""
""blur"",""1"",""3827""
","""event"",""trial"",""time""
""focus"",""1"",""99675""
","""event"",""trial"",""time""
""fullscreenenter"",""1"",""101143""
","
","true","","","","","","","","","","","","","","","","","",""
"preload","2","101963","0.0-2.0","1638","2","""event"",""trial"",""time""
""blur"",""1"",""3827""
""focus"",""1"",""99675""
""fullscreenenter"",""1"",""101143""
","""event"",""trial"",""time""
""blur"",""1"",""3827""
","""event"",""trial"",""time""
""focus"",""1"",""99675""
","""event"",""trial"",""time""
""fullscreenenter"",""1"",""101143""
","
","true","false","[]","[]","[]","","","","","","","","","","","","","",""
"audio-keyboard-response","3","103610","0.0-3.0","1638","2","""event"",""trial"",""time""
""blur"",""1"",""3827""
""focus"",""1"",""99675""
""fullscreenenter"",""1"",""101143""
","""event"",""trial"",""time""
""blur"",""1"",""3827""
","""event"",""trial"",""time""
""focus"",""1"",""99675""
","""event"",""trial"",""time""
""fullscreenenter"",""1"",""101143""
","
","","","","","","1642.6666666666665","audio/beep_loop.wav"," ","","","","","","","","","","",""
"audio-button-response","4","105214","0.0-4.0","1638","2","""event"",""trial"",""time""
""blur"",""1"",""3827""
""focus"",""1"",""99675""
""fullscreenenter"",""1"",""101143""
","""event"",""trial"",""time""
""blur"",""1"",""3827""
","""event"",""trial"",""time""
""focus"",""1"",""99675""
","""event"",""trial"",""time""
""fullscreenenter"",""1"",""101143""
","
","","","","","","1600","audio/turtle.wav","3","","","","","","","","","","",""
"audio-button-response","5","107722","0.0-5.0","1638","2","""event"",""trial"",""time""
""blur"",""1"",""3827""
""focus"",""1"",""99675""
""fullscreenenter"",""1"",""101143""
","""event"",""trial"",""time""
""blur"",""1"",""3827""
","""event"",""trial"",""time""
""focus"",""1"",""99675""
","""event"",""trial"",""time""
""fullscreenenter"",""1"",""101143""
","
","","","","","","1504","audio/shark.wav","2","","","","","","","","","","",""
"preload","6","110139","0.0-6.0","1638","2","""event"",""trial"",""time""
""blur"",""1"",""3827""
""focus"",""1"",""99675""
""fullscreenenter"",""1"",""101143""
","""event"",""trial"",""time""
""blur"",""1"",""3827""
","""event"",""trial"",""time""
""focus"",""1"",""99675""
","""event"",""trial"",""time""
""fullscreenenter"",""1"",""101143""
","
","true","false","[]","[]","[]","","","","","","","","","","","","","",""
"learning-instructions","7","121592","0.0-7.0-0.0","1638","2","""event"",""trial"",""time""
""blur"",""1"",""3827""
""focus"",""1"",""99675""
""fullscreenenter"",""1"",""101143""
","""event"",""trial"",""time""
""blur"",""1"",""3827""
","""event"",""trial"",""time""
""focus"",""1"",""99675""
","""event"",""trial"",""time""
""fullscreenenter"",""1"",""101143""
","
","","","","","","6646.600000000093","<p> Welcome back! </p><p> Last week, you had to make choices about lots of different items.  </p>","","0","instructions","","","","","","","","",""
"learning-instructions","8","126591","0.0-7.0-0.1","1638","2","""event"",""trial"",""time""
""blur"",""1"",""3827""
""focus"",""1"",""99675""
""fullscreenenter"",""1"",""101143""
","""event"",""trial"",""time""
""blur"",""1"",""3827""
","""event"",""trial"",""time""
""focus"",""1"",""99675""
","""event"",""trial"",""time""
""fullscreenenter"",""1"",""101143""
","
","","","","","","695.7999999998137","<p> Today, we are going to ask you to try to remember all the items. </p>","","0","instructions","","","","","","","","",""
"learning-instructions","9","161811","0.0-7.0-0.2","1638","2","""event"",""trial"",""time""
""blur"",""1"",""3827""
""focus"",""1"",""99675""
""fullscreenenter"",""1"",""101143""
","""event"",""trial"",""time""
""blur"",""1"",""3827""
","""event"",""trial"",""time""
""focus"",""1"",""99675""
","""event"",""trial"",""time""
""fullscreenenter"",""1"",""101143""
","
","","","","","","25084","<p> On every trial, you will see an image. </p><p> The image may be an OLD image you saw during the games last week or it may be a NEW image that was not presented. </p>","","0","instructions","","","","","","","","",""
"learning-instructions","10","171068","0.0-7.0-0.3","1638","2","""event"",""trial"",""time""
""blur"",""1"",""3827""
""focus"",""1"",""99675""
""fullscreenenter"",""1"",""101143""
","""event"",""trial"",""time""
""blur"",""1"",""3827""
","""event"",""trial"",""time""
""focus"",""1"",""99675""
","""event"",""trial"",""time""
""fullscreenenter"",""1"",""101143""
","
","","","","","","756.2999999998137","<p> You need to select whether the image is:  </p><p>  'Definitely old', 'Maybe old', 'Maybe new', or 'Definitely new.'  </p><div class=""mem-choice-instructions-grid""><div class=""choice-option"" id=""choice-option-1"" ><img src=""images/definitely_old_1.png"" id=""choice-option-img-1"" class=""choice-option-img"" stage=""1""></div><div class=""choice-option"" id=""choice-option-2"" ><img src=""images/maybe_old_1.png"" id=""choice-option-img-2"" class=""choice-option-img"" stage=""1""></div><div class=""choice-option"" id=""choice-option-3"" ><img src=""images/maybe_new_1.png"" id=""choice-option-img-3"" class=""choice-option-img"" stage=""1""></div><div class=""choice-option"" id=""choice-option-4"" > <img src=""images/definitely_new_1.png"" id=""choice-option-img-4"" class=""choice-option-img"" stage=""1""></div></div>","","0","instructions","","","","","","","","",""
"learning-instructions","11","178555","0.0-7.0-0.4","1638","2","""event"",""trial"",""time""
""blur"",""1"",""3827""
""focus"",""1"",""99675""
""fullscreenenter"",""1"",""101143""
","""event"",""trial"",""time""
""blur"",""1"",""3827""
","""event"",""trial"",""time""
""focus"",""1"",""99675""
","""event"",""trial"",""time""
""fullscreenenter"",""1"",""101143""
","
","","","","","","798.4000000003725","<p> You should use the 1, 2, 3, and 4 keys to make your responses.  </p><div class=""mem-choice-instructions-grid""><div class=""choice-option"" id=""choice-option-1"" ><img src=""images/definitely_old.png"" id=""choice-option-img-1"" class=""choice-option-img"" stage=""1""></div><div class=""choice-option"" id=""choice-option-2"" ><img src=""images/maybe_old.png"" id=""choice-option-img-2"" class=""choice-option-img"" stage=""1""></div><div class=""choice-option"" id=""choice-option-3"" ><img src=""images/maybe_new.png"" id=""choice-option-img-3"" class=""choice-option-img"" stage=""1""></div><div class=""choice-option"" id=""choice-option-4"" > <img src=""images/definitely_new.png"" id=""choice-option-img-4"" class=""choice-option-img"" stage=""1""></div></div>","","0","instructions","","","","","","","","",""
"learning-instructions","12","186428","0.0-7.0-0.5","1638","2","""event"",""trial"",""time""
""blur"",""1"",""3827""
""focus"",""1"",""99675""
""fullscreenenter"",""1"",""101143""
","""event"",""trial"",""time""
""blur"",""1"",""3827""
","""event"",""trial"",""time""
""focus"",""1"",""99675""
","""event"",""trial"",""time""
""fullscreenenter"",""1"",""101143""
","
","","","","","","1114.2999999998137","<p> You will have 10 seconds to make each response.  </p><p>  Make sure to respond before time runs out! </p>","","0","instructions","","","","","","","","",""
"learning-instructions","13","195654","0.0-7.0-0.6","1638","2","""event"",""trial"",""time""
""blur"",""1"",""3827""
""focus"",""1"",""99675""
""fullscreenenter"",""1"",""101143""
","""event"",""trial"",""time""
""blur"",""1"",""3827""
","""event"",""trial"",""time""
""focus"",""1"",""99675""
","""event"",""trial"",""time""
""fullscreenenter"",""1"",""101143""
","
","","","","","","1647.1000000000931","<p> Today, you will see each image ONCE only.  </p><p>  That means none of the images will repeat. </p>","","0","instructions","","","","","","","","",""
"learning-instructions","14","215252","0.0-7.0-0.7","1638","2","""event"",""trial"",""time""
""blur"",""1"",""3827""
""focus"",""1"",""99675""
""fullscreenenter"",""1"",""101143""
","""event"",""trial"",""time""
""blur"",""1"",""3827""
","""event"",""trial"",""time""
""focus"",""1"",""99675""
","""event"",""trial"",""time""
""fullscreenenter"",""1"",""101143""
","
","","","","","","6929.600000000093","<p> Before you play the real game, it is time to practice. </p><p>  Just like in the real game, some of the images in the practice will be ones you have seen before. </p><p>  Others will be entirely new. </p>","","0","instructions","","","","","","","","",""
"html-button-response","15","219319","0.0-8.0","1638","2","""event"",""trial"",""time""
""blur"",""1"",""3827""
""focus"",""1"",""99675""
""fullscreenenter"",""1"",""101143""
","""event"",""trial"",""time""
""blur"",""1"",""3827""
","""event"",""trial"",""time""
""focus"",""1"",""99675""
","""event"",""trial"",""time""
""fullscreenenter"",""1"",""101143""
","
","","","","","","3963","<p> Ready to practice? </p><p> Remember, use the 1, 2, 3, and 4 keys to make your responses. </p>","0","","instructions","","","","","","","","",""
"html-keyboard-response","16","219925","0.0-9.0-0.0","1638","2","""event"",""trial"",""time""
""blur"",""1"",""3827""
""focus"",""1"",""99675""
""fullscreenenter"",""1"",""101143""
","""event"",""trial"",""time""
""blur"",""1"",""3827""
","""event"",""trial"",""time""
""focus"",""1"",""99675""
","""event"",""trial"",""time""
""fullscreenenter"",""1"",""101143""
","
","","","","","","null","<div style=""font-size:60px;"">+</div>","null","","fixation","","","","","","","","",""
"memory-trial","17","222704","0.0-9.0-1.0","1638","2","""event"",""trial"",""time""
""blur"",""1"",""3827""
""focus"",""1"",""99675""
""fullscreenenter"",""1"",""101143""
","""event"",""trial"",""time""
""blur"",""1"",""3827""
","""event"",""trial"",""time""
""focus"",""1"",""99675""
","""event"",""trial"",""time""
""fullscreenenter"",""1"",""101143""
","
","","","","","","1772.3999999999069","images/racket3.png","","","practice","3","maybe_new","","","","","","",""
"html-keyboard-response","18","223210","0.0-9.0-0.1","1638","2","""event"",""trial"",""time""
""blur"",""1"",""3827""
""focus"",""1"",""99675""
""fullscreenenter"",""1"",""101143""
","""event"",""trial"",""time""
""blur"",""1"",""3827""
","""event"",""trial"",""time""
""focus"",""1"",""99675""
","""event"",""trial"",""time""
""fullscreenenter"",""1"",""101143""
","
","","","","","","null","<div style=""font-size:60px;"">+</div>","null","","fixation","","","","","","","","",""
"memory-trial","19","225104","0.0-9.0-1.1","1638","2","""event"",""trial"",""time""
""blur"",""1"",""3827""
""focus"",""1"",""99675""
""fullscreenenter"",""1"",""101143""
","""event"",""trial"",""time""
""blur"",""1"",""3827""
","""event"",""trial"",""time""
""focus"",""1"",""99675""
","""event"",""trial"",""time""
""fullscreenenter"",""1"",""101143""
","
","","","","","","891.3999999999069","images/racket2.png","","","practice","1","definitely_old","","","","","","",""
"html-keyboard-response","20","225605","0.0-9.0-0.2","1638","2","""event"",""trial"",""time""
""blur"",""1"",""3827""
""focus"",""1"",""99675""
""fullscreenenter"",""1"",""101143""
","""event"",""trial"",""time""
""blur"",""1"",""3827""
","""event"",""trial"",""time""
""focus"",""1"",""99675""
","""event"",""trial"",""time""
""fullscreenenter"",""1"",""101143""
","
","","","","","","null","<div style=""font-size:60px;"">+</div>","null","","fixation","","","","","","","","",""
"memory-trial","21","227622","0.0-9.0-1.2","1638","2","""event"",""trial"",""time""
""blur"",""1"",""3827""
""focus"",""1"",""99675""
""fullscreenenter"",""1"",""101143""
","""event"",""trial"",""time""
""blur"",""1"",""3827""
","""event"",""trial"",""time""
""focus"",""1"",""99675""
","""event"",""trial"",""time""
""fullscreenenter"",""1"",""101143""
","
","","","","","","1015","images/racket1.png","","","practice","4","definitely_new","","","","","","",""
"html-keyboard-response","22","228128","0.0-9.0-0.3","1638","2","""event"",""trial"",""time""
""blur"",""1"",""3827""
""focus"",""1"",""99675""
""fullscreenenter"",""1"",""101143""
","""event"",""trial"",""time""
""blur"",""1"",""3827""
","""event"",""trial"",""time""
""focus"",""1"",""99675""
","""event"",""trial"",""time""
""fullscreenenter"",""1"",""101143""
","
","","","","","","null","<div style=""font-size:60px;"">+</div>","null","","fixation","","","","","","","","",""
"memory-trial","23","229622","0.0-9.0-1.3","1638","2","""event"",""trial"",""time""
""blur"",""1"",""3827""
""focus"",""1"",""99675""
""fullscreenenter"",""1"",""101143""
","""event"",""trial"",""time""
""blur"",""1"",""3827""
","""event"",""trial"",""time""
""focus"",""1"",""99675""
","""event"",""trial"",""time""
""fullscreenenter"",""1"",""101143""
","
","","","","","","489.09999999962747","images/racket4.png","","","practice","2","maybe_old","","","","","","",""
"html-keyboard-response","24","230128","0.0-9.0-0.4","1638","2","""event"",""trial"",""time""
""blur"",""1"",""3827""
""focus"",""1"",""99675""
""fullscreenenter"",""1"",""101143""
","""event"",""trial"",""time""
""blur"",""1"",""3827""
","""event"",""trial"",""time""
""focus"",""1"",""99675""
","""event"",""trial"",""time""
""fullscreenenter"",""1"",""101143""
","
","","","","","","null","<div style=""font-size:60px;"">+</div>","null","","fixation","","","","","","","","",""
"memory-trial","25","231673","0.0-9.0-1.4","1638","2","""event"",""trial"",""time""
""blur"",""1"",""3827""
""focus"",""1"",""99675""
""fullscreenenter"",""1"",""101143""
","""event"",""trial"",""time""
""blur"",""1"",""3827""
","""event"",""trial"",""time""
""focus"",""1"",""99675""
","""event"",""trial"",""time""
""fullscreenenter"",""1"",""101143""
","
","","","","","","538.8000000002794","images/ball3.png","","","practice","2","maybe_old","","","","","","",""
"html-keyboard-response","26","232177","0.0-9.0-0.5","1638","2","""event"",""trial"",""time""
""blur"",""1"",""3827""
""focus"",""1"",""99675""
""fullscreenenter"",""1"",""101143""
","""event"",""trial"",""time""
""blur"",""1"",""3827""
","""event"",""trial"",""time""
""focus"",""1"",""99675""
","""event"",""trial"",""time""
""fullscreenenter"",""1"",""101143""
","
","","","","","","null","<div style=""font-size:60px;"">+</div>","null","","fixation","","","","","","","","",""
"memory-trial","27","233782","0.0-9.0-1.5","1638","2","""event"",""trial"",""time""
""blur"",""1"",""3827""
""focus"",""1"",""99675""
""fullscreenenter"",""1"",""101143""
","""event"",""trial"",""time""
""blur"",""1"",""3827""
","""event"",""trial"",""time""
""focus"",""1"",""99675""
","""event"",""trial"",""time""
""fullscreenenter"",""1"",""101143""
","
","","","","","","601.7999999998137","images/ball4.png","","","practice","2","maybe_old","","","","","","",""
"html-keyboard-response","28","234288","0.0-9.0-0.6","1638","2","""event"",""trial"",""time""
""blur"",""1"",""3827""
""focus"",""1"",""99675""
""fullscreenenter"",""1"",""101143""
","""event"",""trial"",""time""
""blur"",""1"",""3827""
","""event"",""trial"",""time""
""focus"",""1"",""99675""
","""event"",""trial"",""time""
""fullscreenenter"",""1"",""101143""
","
","","","","","","null","<div style=""font-size:60px;"">+</div>","null","","fixation","","","","","","","","",""
"memory-trial","29","235493","0.0-9.0-1.6","1638","2","""event"",""trial"",""time""
""blur"",""1"",""3827""
""focus"",""1"",""99675""
""fullscreenenter"",""1"",""101143""
","""event"",""trial"",""time""
""blur"",""1"",""3827""
","""event"",""trial"",""time""
""focus"",""1"",""99675""
","""event"",""trial"",""time""
""fullscreenenter"",""1"",""101143""
","
","","","","","","202.39999999990687","images/ball1.png","","","practice","3","maybe_new","","","","","","",""
"html-keyboard-response","30","235995","0.0-9.0-0.7","1638","2","""event"",""trial"",""time""
""blur"",""1"",""3827""
""focus"",""1"",""99675""
""fullscreenenter"",""1"",""101143""
","""event"",""trial"",""time""
""blur"",""1"",""3827""
","""event"",""trial"",""time""
""focus"",""1"",""99675""
","""event"",""trial"",""time""
""fullscreenenter"",""1"",""101143""
","
","","","","","","null","<div style=""font-size:60px;"">+</div>","null","","fixation","","","","","","","","",""
"memory-trial","31","238101","0.0-9.0-1.7","1638","2","""event"",""trial"",""time""
""blur"",""1"",""3827""
""focus"",""1"",""99675""
""fullscreenenter"",""1"",""101143""
","""event"",""trial"",""time""
""blur"",""1"",""3827""
","""event"",""trial"",""time""
""focus"",""1"",""99675""
","""event"",""trial"",""time""
""fullscreenenter"",""1"",""101143""
","
","","","","","","1101.6000000000931","images/ball2.png","","","practice","4","definitely_new","","","","","","",""
"learning-instructions","32","264826","0.0-10.0-0.0","1638","2","""event"",""trial"",""time""
""blur"",""1"",""3827""
""focus"",""1"",""99675""
""fullscreenenter"",""1"",""101143""
","""event"",""trial"",""time""
""blur"",""1"",""3827""
","""event"",""trial"",""time""
""focus"",""1"",""99675""
","""event"",""trial"",""time""
""fullscreenenter"",""1"",""101143""
","
","","","","","","18775.700000000186","<p> Great! You have completed the practice. </p><p> Before you start, we're going to ask you a few questions about how the game works.  </p>","","0","instructions","","","","","","","","",""
"preload","33","266035","0.0-11.0","1638","2","""event"",""trial"",""time""
""blur"",""1"",""3827""
""focus"",""1"",""99675""
""fullscreenenter"",""1"",""101143""
","""event"",""trial"",""time""
""blur"",""1"",""3827""
","""event"",""trial"",""time""
""focus"",""1"",""99675""
","""event"",""trial"",""time""
""fullscreenenter"",""1"",""101143""
","
","true","false","[]","[]","[]","","","","","","","","","","","","","",""
"comp-q","34","273254","0.0-12.0-0.0","1638","2","""event"",""trial"",""time""
""blur"",""1"",""3827""
""focus"",""1"",""99675""
""fullscreenenter"",""1"",""101143""
","""event"",""trial"",""time""
""blur"",""1"",""3827""
","""event"",""trial"",""time""
""focus"",""1"",""99675""
","""event"",""trial"",""time""
""fullscreenenter"",""1"",""101143""
","
","","","","","","1389.1000000000931","<p> <b> True or False? </b> </p><p> In this game, you will only see each image once. </p>","","1","comp_question","","","false","","","","","",""
"comp-q","35","282124","0.0-12.0-1.0","1638","2","""event"",""trial"",""time""
""blur"",""1"",""3827""
""focus"",""1"",""99675""
""fullscreenenter"",""1"",""101143""
","""event"",""trial"",""time""
""blur"",""1"",""3827""
","""event"",""trial"",""time""
""focus"",""1"",""99675""
","""event"",""trial"",""time""
""fullscreenenter"",""1"",""101143""
","
","","","","","","2340.399999999907","<p> <b>Incorrect.</b> You will see many different images <i> one time each </i> in this game. </p>","","0","comp_answer","","","","","","","","",""
"comp-q","36","288756","0.0-12.0-0.1","1638","2","""event"",""trial"",""time""
""blur"",""1"",""3827""
""focus"",""1"",""99675""
""fullscreenenter"",""1"",""101143""
","""event"",""trial"",""time""
""blur"",""1"",""3827""
","""event"",""trial"",""time""
""focus"",""1"",""99675""
","""event"",""trial"",""time""
""fullscreenenter"",""1"",""101143""
","
","","","","","","833.1000000000931","<p> <b> True or False? </b> </p><p> You should use the mouse and click to make your response. </p>","","1","comp_question","","","true","","","","","",""
"comp-q","37","306492","0.0-12.0-1.1","1638","2","""event"",""trial"",""time""
""blur"",""1"",""3827""
""focus"",""1"",""99675""
""fullscreenenter"",""1"",""101143""
","""event"",""trial"",""time""
""blur"",""1"",""3827""
","""event"",""trial"",""time""
""focus"",""1"",""99675""
","""event"",""trial"",""time""
""fullscreenenter"",""1"",""101143""
","
","","","","","","10392.799999999814","<p><b> That's right! </b> You should use the '1', '2', '3', and '4' keys to make your response. </p>","","0","comp_answer","","","","","","","","",""
"comp-q","38","314316","0.0-12.0-0.2","1638","2","""event"",""trial"",""time""
""blur"",""1"",""3827""
""focus"",""1"",""99675""
""fullscreenenter"",""1"",""101143""
","""event"",""trial"",""time""
""blur"",""1"",""3827""
","""event"",""trial"",""time""
""focus"",""1"",""99675""
","""event"",""trial"",""time""
""fullscreenenter"",""1"",""101143""
","
","","","","","","1827.5","<p> <b> True or False? </b> </p><p> You will have as much time as you want to make each choice. </p>","","1","comp_question","","","true","","","","","",""
"comp-q","39","330982","0.0-12.0-1.2","1638","2","""event"",""trial"",""time""
""blur"",""1"",""3827""
""focus"",""1"",""99675""
""fullscreenenter"",""1"",""101143""
","""event"",""trial"",""time""
""blur"",""1"",""3827""
","""event"",""trial"",""time""
""focus"",""1"",""99675""
","""event"",""trial"",""time""
""fullscreenenter"",""1"",""101143""
","
","","","","","","11283.100000000093","<p> <b> That's right! </b> You will only have 10 seconds to make each choice. </p>","","0","comp_answer","","","","","","","","",""
"learning-instructions","40","348976","0.0-13.0","1638","2","""event"",""trial"",""time""
""blur"",""1"",""3827""
""focus"",""1"",""99675""
""fullscreenenter"",""1"",""101143""
","""event"",""trial"",""time""
""blur"",""1"",""3827""
","""event"",""trial"",""time""
""focus"",""1"",""99675""
","""event"",""trial"",""time""
""fullscreenenter"",""1"",""101143""
","
","","","","","","9330.69999999972","<p> Great! You are now ready to begin the game. </p><p> Remember, use the 1, 2, 3, and 4 keys to make your responses. </p>","","0","instructions","","","","","","","","",""
"preload","41","350982","0.0-14.0","1638","2","""event"",""trial"",""time""
""blur"",""1"",""3827""
""focus"",""1"",""99675""
""fullscreenenter"",""1"",""101143""
","""event"",""trial"",""time""
""blur"",""1"",""3827""
","""event"",""trial"",""time""
""focus"",""1"",""99675""
","""event"",""trial"",""time""
""fullscreenenter"",""1"",""101143""
","
","true","false","[]","[]","[]","","","","","","","","","","","","","",""
"html-keyboard-response","42","351483","0.0-15.0-0.0","1638","2","""event"",""trial"",""time""
""blur"",""1"",""3827""
""focus"",""1"",""99675""
""fullscreenenter"",""1"",""101143""
","""event"",""trial"",""time""
""blur"",""1"",""3827""
","""event"",""trial"",""time""
""focus"",""1"",""99675""
","""event"",""trial"",""time""
""fullscreenenter"",""1"",""101143""
","
","","","","","","null","<div style=""font-size:60px;"">+</div>","null","","fixation","","","","","","","","",""
"memory-trial","43","354829","0.0-15.0-1.0","1638","2","""event"",""trial"",""time""
""blur"",""1"",""3827""
""focus"",""1"",""99675""
""fullscreenenter"",""1"",""101143""
","""event"",""trial"",""time""
""blur"",""1"",""3827""
","""event"",""trial"",""time""
""focus"",""1"",""99675""
","""event"",""trial"",""time""
""fullscreenenter"",""1"",""101143""
","
","","","","","","2339.600000000093","images/plane2.png","","","memory_trial","2","maybe_old","","","","","","",""
"html-keyboard-response","44","355334","0.0-15.0-0.1","1638","2","""event"",""trial"",""time""
""blur"",""1"",""3827""
""focus"",""1"",""99675""
""fullscreenenter"",""1"",""101143""
","""event"",""trial"",""time""
""blur"",""1"",""3827""
","""event"",""trial"",""time""
""focus"",""1"",""99675""
","""event"",""trial"",""time""
""fullscreenenter"",""1"",""101143""
","
","","","","","","null","<div style=""font-size:60px;"">+</div>","null","","fixation","","","","","","","","",""
"memory-trial","45","357462","0.0-15.0-1.1","1638","2","""event"",""trial"",""time""
""blur"",""1"",""3827""
""focus"",""1"",""99675""
""fullscreenenter"",""1"",""101143""
","""event"",""trial"",""time""
""blur"",""1"",""3827""
","""event"",""trial"",""time""
""focus"",""1"",""99675""
","""event"",""trial"",""time""
""fullscreenenter"",""1"",""101143""
","
","","","","","","1124.6000000000931","images/flower2.png","","","memory_trial","4","definitely_new","","","","","","",""
"html-keyboard-response","46","357963","0.0-15.0-0.2","1638","2","""event"",""trial"",""time""
""blur"",""1"",""3827""
""focus"",""1"",""99675""
""fullscreenenter"",""1"",""101143""
","""event"",""trial"",""time""
""blur"",""1"",""3827""
","""event"",""trial"",""time""
""focus"",""1"",""99675""
","""event"",""trial"",""time""
""fullscreenenter"",""1"",""101143""
","
","","","","","","null","<div style=""font-size:60px;"">+</div>","null","","fixation","","","","","","","","",""
"memory-trial","47","359792","0.0-15.0-1.2","1638","2","""event"",""trial"",""time""
""blur"",""1"",""3827""
""focus"",""1"",""99675""
""fullscreenenter"",""1"",""101143""
","""event"",""trial"",""time""
""blur"",""1"",""3827""
","""event"",""trial"",""time""
""focus"",""1"",""99675""
","""event"",""trial"",""time""
""fullscreenenter"",""1"",""101143""
","
","","","","","","823.8000000002794","images/dog4.png","","","memory_trial","3","maybe_new","","","","","","",""
"html-keyboard-response","48","360296","0.0-15.0-0.3","1638","2","""event"",""trial"",""time""
""blur"",""1"",""3827""
""focus"",""1"",""99675""
""fullscreenenter"",""1"",""101143""
","""event"",""trial"",""time""
""blur"",""1"",""3827""
","""event"",""trial"",""time""
""focus"",""1"",""99675""
","""event"",""trial"",""time""
""fullscreenenter"",""1"",""101143""
","
","","","","","","null","<div style=""font-size:60px;"">+</div>","null","","fixation","","","","","","","","",""
"memory-trial","49","362361","0.0-15.0-1.3","1638","2","""event"",""trial"",""time""
""blur"",""1"",""3827""
""focus"",""1"",""99675""
""fullscreenenter"",""1"",""101143""
","""event"",""trial"",""time""
""blur"",""1"",""3827""
","""event"",""trial"",""time""
""focus"",""1"",""99675""
","""event"",""trial"",""time""
""fullscreenenter"",""1"",""101143""
","
","","","","","","1060.3999999999069","images/bed2.png","","","memory_trial","1","definitely_old","","","","","","",""
"html-keyboard-response","50","362864","0.0-15.0-0.4","1638","2","""event"",""trial"",""time""
""blur"",""1"",""3827""
""focus"",""1"",""99675""
""fullscreenenter"",""1"",""101143""
","""event"",""trial"",""time""
""blur"",""1"",""3827""
","""event"",""trial"",""time""
""focus"",""1"",""99675""
","""event"",""trial"",""time""
""fullscreenenter"",""1"",""101143""
","
","","","","","","null","<div style=""font-size:60px;"">+</div>","null","","fixation","","","","","","","","",""
"memory-trial","51","364120","0.0-15.0-1.4","1638","2","""event"",""trial"",""time""
""blur"",""1"",""3827""
""focus"",""1"",""99675""
""fullscreenenter"",""1"",""101143""
","""event"",""trial"",""time""
""blur"",""1"",""3827""
","""event"",""trial"",""time""
""focus"",""1"",""99675""
","""event"",""trial"",""time""
""fullscreenenter"",""1"",""101143""
","
","","","","","","250.79999999981374","images/sheep3.png","","","memory_trial","2","maybe_old","","","","","","",""
"html-keyboard-response","52","364625","0.0-15.0-0.5","1638","2","""event"",""trial"",""time""
""blur"",""1"",""3827""
""focus"",""1"",""99675""
""fullscreenenter"",""1"",""101143""
","""event"",""trial"",""time""
""blur"",""1"",""3827""
","""event"",""trial"",""time""
""focus"",""1"",""99675""
","""event"",""trial"",""time""
""fullscreenenter"",""1"",""101143""
","
","","","","","","null","<div style=""font-size:60px;"">+</div>","null","","fixation","","","","","","","","",""
"memory-trial","53","365675","0.0-15.0-1.5","1638","2","""event"",""trial"",""time""
""blur"",""1"",""3827""
""focus"",""1"",""99675""
""fullscreenenter"",""1"",""101143""
","""event"",""trial"",""time""
""blur"",""1"",""3827""
","""event"",""trial"",""time""
""focus"",""1"",""99675""
","""event"",""trial"",""time""
""fullscreenenter"",""1"",""101143""
","
","","","","","","44.39999999990687","images/chair4.png","","","memory_trial","2","maybe_old","","","","","","",""
"html-keyboard-response","54","366179","0.0-15.0-0.6","1638","2","""event"",""trial"",""time""
""blur"",""1"",""3827""
""focus"",""1"",""99675""
""fullscreenenter"",""1"",""101143""
","""event"",""trial"",""time""
""blur"",""1"",""3827""
","""event"",""trial"",""time""
""focus"",""1"",""99675""
","""event"",""trial"",""time""
""fullscreenenter"",""1"",""101143""
","
","","","","","","null","<div style=""font-size:60px;"">+</div>","null","","fixation","","","","","","","","",""
"memory-trial","55","367436","0.0-15.0-1.6","1638","2","""event"",""trial"",""time""
""blur"",""1"",""3827""
""focus"",""1"",""99675""
""fullscreenenter"",""1"",""101143""
","""event"",""trial"",""time""
""blur"",""1"",""3827""
","""event"",""trial"",""time""
""focus"",""1"",""99675""
","""event"",""trial"",""time""
""fullscreenenter"",""1"",""101143""
","
","","","","","","254.29999999981374","images/cactus3.png","","","memory_trial","2","maybe_old","","","","","","",""
"html-keyboard-response","56","367937","0.0-15.0-0.7","1638","2","""event"",""trial"",""time""
""blur"",""1"",""3827""
""focus"",""1"",""99675""
""fullscreenenter"",""1"",""101143""
","""event"",""trial"",""time""
""blur"",""1"",""3827""
","""event"",""trial"",""time""
""focus"",""1"",""99675""
","""event"",""trial"",""time""
""fullscreenenter"",""1"",""101143""
","
","","","","","","null","<div style=""font-size:60px;"">+</div>","null","","fixation","","","","","","","","",""
"memory-trial","57","372417","0.0-15.0-1.7","1638","2","""event"",""trial"",""time""
""blur"",""1"",""3827""
""focus"",""1"",""99675""
""fullscreenenter"",""1"",""101143""
","""event"",""trial"",""time""
""blur"",""1"",""3827""
","""event"",""trial"",""time""
""focus"",""1"",""99675""
","""event"",""trial"",""time""
""fullscreenenter"",""1"",""101143""
","
","","","","","","3478.399999999907","images/truck1.png","","","memory_trial","3","maybe_new","","","","","","",""
"html-keyboard-response","58","372920","0.0-15.0-0.8","1638","2","""event"",""trial"",""time""
""blur"",""1"",""3827""
""focus"",""1"",""99675""
""fullscreenenter"",""1"",""101143""
","""event"",""trial"",""time""
""blur"",""1"",""3827""
","""event"",""trial"",""time""
""focus"",""1"",""99675""
","""event"",""trial"",""time""
""fullscreenenter"",""1"",""101143""
","
","","","","","","null","<div style=""font-size:60px;"">+</div>","null","","fixation","","","","","","","","",""
"memory-trial","59","375748","0.0-15.0-1.8","1638","2","""event"",""trial"",""time""
""blur"",""1"",""3827""
""focus"",""1"",""99675""
""fullscreenenter"",""1"",""101143""
","""event"",""trial"",""time""
""blur"",""1"",""3827""
","""event"",""trial"",""time""
""focus"",""1"",""99675""
","""event"",""trial"",""time""
""fullscreenenter"",""1"",""101143""
","
","","","","","","1821.1999999997206","images/sheep5.png","","","memory_trial","4","definitely_new","","","","","","",""
"html-keyboard-response","60","376252","0.0-15.0-0.9","1638","2","""event"",""trial"",""time""
""blur"",""1"",""3827""
""focus"",""1"",""99675""
""fullscreenenter"",""1"",""101143""
","""event"",""trial"",""time""
""blur"",""1"",""3827""
","""event"",""trial"",""time""
""focus"",""1"",""99675""
","""event"",""trial"",""time""
""fullscreenenter"",""1"",""101143""
","
","","","","","","null","<div style=""font-size:60px;"">+</div>","null","","fixation","","","","","","","","",""
"memory-trial","61","379945","0.0-15.0-1.9","1638","2","""event"",""trial"",""time""
""blur"",""1"",""3827""
""focus"",""1"",""99675""
""fullscreenenter"",""1"",""101143""
","""event"",""trial"",""time""
""blur"",""1"",""3827""
","""event"",""trial"",""time""
""focus"",""1"",""99675""
","""event"",""trial"",""time""
""fullscreenenter"",""1"",""101143""
","
","","","","","","2688.2000000001863","images/straw4.png","","","memory_trial","3","maybe_new","","","","","","",""
"html-keyboard-response","62","380449","0.0-15.0-0.10","1638","2","""event"",""trial"",""time""
""blur"",""1"",""3827""
""focus"",""1"",""99675""
""fullscreenenter"",""1"",""101143""
""blur"",""63"",""380948""
""focus"",""63"",""380950""
","""event"",""trial"",""time""
""blur"",""1"",""3827""
""blur"",""63"",""380948""
","""event"",""trial"",""time""
""focus"",""1"",""99675""
""focus"",""63"",""380950""
","""event"",""trial"",""time""
""fullscreenenter"",""1"",""101143""
","
","","","","","","null","<div style=""font-size:60px;"">+</div>","null","","fixation","","","","","","","","",""
"memory-trial","63","382502","0.0-15.0-1.10","1638","2","""event"",""trial"",""time""
""blur"",""1"",""3827""
""focus"",""1"",""99675""
""fullscreenenter"",""1"",""101143""
""blur"",""63"",""380948""
""focus"",""63"",""380950""
","""event"",""trial"",""time""
""blur"",""1"",""3827""
""blur"",""63"",""380948""
","""event"",""trial"",""time""
""focus"",""1"",""99675""
""focus"",""63"",""380950""
","""event"",""trial"",""time""
""fullscreenenter"",""1"",""101143""
","
","","","","","","1050","images/banana1.png","","","memory_trial","1","definitely_old","","","","","","",""
"html-keyboard-response","64","383004","0.0-15.0-0.11","1638","2","""event"",""trial"",""time""
""blur"",""1"",""3827""
""focus"",""1"",""99675""
""fullscreenenter"",""1"",""101143""
""blur"",""63"",""380948""
""focus"",""63"",""380950""
","""event"",""trial"",""time""
""blur"",""1"",""3827""
""blur"",""63"",""380948""
","""event"",""trial"",""time""
""focus"",""1"",""99675""
""focus"",""63"",""380950""
","""event"",""trial"",""time""
""fullscreenenter"",""1"",""101143""
","
","","","","","","null","<div style=""font-size:60px;"">+</div>","null","","fixation","","","","","","","","",""
"memory-trial","65","385651","0.0-15.0-1.11","1638","2","""event"",""trial"",""time""
""blur"",""1"",""3827""
""focus"",""1"",""99675""
""fullscreenenter"",""1"",""101143""
""blur"",""63"",""380948""
""focus"",""63"",""380950""
","""event"",""trial"",""time""
""blur"",""1"",""3827""
""blur"",""63"",""380948""
","""event"",""trial"",""time""
""focus"",""1"",""99675""
""focus"",""63"",""380950""
","""event"",""trial"",""time""
""fullscreenenter"",""1"",""101143""
","
","","","","","","1641.8000000002794","images/straw1.png","","","memory_trial","2","maybe_old","","","","","","",""
"html-keyboard-response","66","386155","0.0-15.0-0.12","1638","2","""event"",""trial"",""time""
""blur"",""1"",""3827""
""focus"",""1"",""99675""
""fullscreenenter"",""1"",""101143""
""blur"",""63"",""380948""
""focus"",""63"",""380950""
","""event"",""trial"",""time""
""blur"",""1"",""3827""
""blur"",""63"",""380948""
","""event"",""trial"",""time""
""focus"",""1"",""99675""
""focus"",""63"",""380950""
","""event"",""trial"",""time""
""fullscreenenter"",""1"",""101143""
","
","","","","","","null","<div style=""font-size:60px;"">+</div>","null","","fixation","","","","","","","","",""
"memory-trial","67","387660","0.0-15.0-1.12","1638","2","""event"",""trial"",""time""
""blur"",""1"",""3827""
""focus"",""1"",""99675""
""fullscreenenter"",""1"",""101143""
""blur"",""63"",""380948""
""focus"",""63"",""380950""
","""event"",""trial"",""time""
""blur"",""1"",""3827""
""blur"",""63"",""380948""
","""event"",""trial"",""time""
""focus"",""1"",""99675""
""focus"",""63"",""380950""
","""event"",""trial"",""time""
""fullscreenenter"",""1"",""101143""
","
","","","","","","500.29999999981374","images/bed4.png","","","memory_trial","2","maybe_old","","","","","","",""
"html-keyboard-response","68","388164","0.0-15.0-0.13","1638","2","""event"",""trial"",""time""
""blur"",""1"",""3827""
""focus"",""1"",""99675""
""fullscreenenter"",""1"",""101143""
""blur"",""63"",""380948""
""focus"",""63"",""380950""
","""event"",""trial"",""time""
""blur"",""1"",""3827""
""blur"",""63"",""380948""
","""event"",""trial"",""time""
""focus"",""1"",""99675""
""focus"",""63"",""380950""
","""event"",""trial"",""time""
""fullscreenenter"",""1"",""101143""
","
","","","","","","null","<div style=""font-size:60px;"">+</div>","null","","fixation","","","","","","","","",""
"memory-trial","69","389870","0.0-15.0-1.13","1638","2","""event"",""trial"",""time""
""blur"",""1"",""3827""
""focus"",""1"",""99675""
""fullscreenenter"",""1"",""101143""
""blur"",""63"",""380948""
""focus"",""63"",""380950""
","""event"",""trial"",""time""
""blur"",""1"",""3827""
""blur"",""63"",""380948""
","""event"",""trial"",""time""
""focus"",""1"",""99675""
""focus"",""63"",""380950""
","""event"",""trial"",""time""
""fullscreenenter"",""1"",""101143""
","
","","","","","","700.7999999998137","images/flower4.png","","","memory_trial","3","maybe_new","","","","","","",""
"html-keyboard-response","70","390374","0.0-15.0-0.14","1638","2","""event"",""trial"",""time""
""blur"",""1"",""3827""
""focus"",""1"",""99675""
""fullscreenenter"",""1"",""101143""
""blur"",""63"",""380948""
""focus"",""63"",""380950""
","""event"",""trial"",""time""
""blur"",""1"",""3827""
""blur"",""63"",""380948""
","""event"",""trial"",""time""
""focus"",""1"",""99675""
""focus"",""63"",""380950""
","""event"",""trial"",""time""
""fullscreenenter"",""1"",""101143""
","
","","","","","","null","<div style=""font-size:60px;"">+</div>","null","","fixation","","","","","","","","",""
"memory-trial","71","391529","0.0-15.0-1.14","1638","2","""event"",""trial"",""time""
""blur"",""1"",""3827""
""focus"",""1"",""99675""
""fullscreenenter"",""1"",""101143""
""blur"",""63"",""380948""
""focus"",""63"",""380950""
","""event"",""trial"",""time""
""blur"",""1"",""3827""
""blur"",""63"",""380948""
","""event"",""trial"",""time""
""focus"",""1"",""99675""
""focus"",""63"",""380950""
","""event"",""trial"",""time""
""fullscreenenter"",""1"",""101143""
","
","","","","","","149","images/chair3.png","","","memory_trial","4","definitely_new","","","","","","",""
"html-keyboard-response","72","392033","0.0-15.0-0.15","1638","2","""event"",""trial"",""time""
""blur"",""1"",""3827""
""focus"",""1"",""99675""
""fullscreenenter"",""1"",""101143""
""blur"",""63"",""380948""
""focus"",""63"",""380950""
","""event"",""trial"",""time""
""blur"",""1"",""3827""
""blur"",""63"",""380948""
","""event"",""trial"",""time""
""focus"",""1"",""99675""
""focus"",""63"",""380950""
","""event"",""trial"",""time""
""fullscreenenter"",""1"",""101143""
","
","","","","","","null","<div style=""font-size:60px;"">+</div>","null","","fixation","","","","","","","","",""
"memory-trial","73","393208","0.0-15.0-1.15","1638","2","""event"",""trial"",""time""
""blur"",""1"",""3827""
""focus"",""1"",""99675""
""fullscreenenter"",""1"",""101143""
""blur"",""63"",""380948""
""focus"",""63"",""380950""
","""event"",""trial"",""time""
""blur"",""1"",""3827""
""blur"",""63"",""380948""
","""event"",""trial"",""time""
""focus"",""1"",""99675""
""focus"",""63"",""380950""
","""event"",""trial"",""time""
""fullscreenenter"",""1"",""101143""
","
","","","","","","169.39999999990687","images/chair1.png","","","memory_trial","4","definitely_new","","","","","","",""
"html-keyboard-response","74","393713","0.0-15.0-0.16","1638","2","""event"",""trial"",""time""
""blur"",""1"",""3827""
""focus"",""1"",""99675""
""fullscreenenter"",""1"",""101143""
""blur"",""63"",""380948""
""focus"",""63"",""380950""
","""event"",""trial"",""time""
""blur"",""1"",""3827""
""blur"",""63"",""380948""
","""event"",""trial"",""time""
""focus"",""1"",""99675""
""focus"",""63"",""380950""
","""event"",""trial"",""time""
""fullscreenenter"",""1"",""101143""
","
","","","","","","null","<div style=""font-size:60px;"">+</div>","null","","fixation","","","","","","","","",""
"memory-trial","75","394886","0.0-15.0-1.16","1638","2","""event"",""trial"",""time""
""blur"",""1"",""3827""
""focus"",""1"",""99675""
""fullscreenenter"",""1"",""101143""
""blur"",""63"",""380948""
""focus"",""63"",""380950""
","""event"",""trial"",""time""
""blur"",""1"",""3827""
""blur"",""63"",""380948""
","""event"",""trial"",""time""
""focus"",""1"",""99675""
""focus"",""63"",""380950""
","""event"",""trial"",""time""
""fullscreenenter"",""1"",""101143""
","
","","","","","","168.89999999990687","images/sofa5.png","","","memory_trial","3","maybe_new","","","","","","",""
"html-keyboard-response","76","395391","0.0-15.0-0.17","1638","2","""event"",""trial"",""time""
""blur"",""1"",""3827""
""focus"",""1"",""99675""
""fullscreenenter"",""1"",""101143""
""blur"",""63"",""380948""
""focus"",""63"",""380950""
","""event"",""trial"",""time""
""blur"",""1"",""3827""
""blur"",""63"",""380948""
","""event"",""trial"",""time""
""focus"",""1"",""99675""
""focus"",""63"",""380950""
","""event"",""trial"",""time""
""fullscreenenter"",""1"",""101143""
","
","","","","","","null","<div style=""font-size:60px;"">+</div>","null","","fixation","","","","","","","","",""
"memory-trial","77","397620","0.0-15.0-1.17","1638","2","""event"",""trial"",""time""
""blur"",""1"",""3827""
""focus"",""1"",""99675""
""fullscreenenter"",""1"",""101143""
""blur"",""63"",""380948""
""focus"",""63"",""380950""
","""event"",""trial"",""time""
""blur"",""1"",""3827""
""blur"",""63"",""380948""
","""event"",""trial"",""time""
""focus"",""1"",""99675""
""focus"",""63"",""380950""
","""event"",""trial"",""time""
""fullscreenenter"",""1"",""101143""
","
","","","","","","1224","images/chair5.png","","","memory_trial","1","definitely_old","","","","","","",""
"html-keyboard-response","78","398126","0.0-15.0-0.18","1638","2","""event"",""trial"",""time""
""blur"",""1"",""3827""
""focus"",""1"",""99675""
""fullscreenenter"",""1"",""101143""
""blur"",""63"",""380948""
""focus"",""63"",""380950""
","""event"",""trial"",""time""
""blur"",""1"",""3827""
""blur"",""63"",""380948""
","""event"",""trial"",""time""
""focus"",""1"",""99675""
""focus"",""63"",""380950""
","""event"",""trial"",""time""
""fullscreenenter"",""1"",""101143""
","
","","","","","","null","<div style=""font-size:60px;"">+</div>","null","","fixation","","","","","","","","",""
"memory-trial","79","400916","0.0-15.0-1.18","1638","2","""event"",""trial"",""time""
""blur"",""1"",""3827""
""focus"",""1"",""99675""
""fullscreenenter"",""1"",""101143""
""blur"",""63"",""380948""
""focus"",""63"",""380950""
","""event"",""trial"",""time""
""blur"",""1"",""3827""
""blur"",""63"",""380948""
","""event"",""trial"",""time""
""focus"",""1"",""99675""
""focus"",""63"",""380950""
","""event"",""trial"",""time""
""fullscreenenter"",""1"",""101143""
","
","","","","","","1784.3999999999069","images/sofa2.png","","","memory_trial","2","maybe_old","","","","","","",""
"html-keyboard-response","80","401420","0.0-15.0-0.19","1638","2","""event"",""trial"",""time""
""blur"",""1"",""3827""
""focus"",""1"",""99675""
""fullscreenenter"",""1"",""101143""
""blur"",""63"",""380948""
""focus"",""63"",""380950""
","""event"",""trial"",""time""
""blur"",""1"",""3827""
""blur"",""63"",""380948""
","""event"",""trial"",""time""
""focus"",""1"",""99675""
""focus"",""63"",""380950""
","""event"",""trial"",""time""
""fullscreenenter"",""1"",""101143""
","
","","","","","","null","<div style=""font-size:60px;"">+</div>","null","","fixation","","","","","","","","",""
"memory-trial","81","403100","0.0-15.0-1.19","1638","2","""event"",""trial"",""time""
""blur"",""1"",""3827""
""focus"",""1"",""99675""
""fullscreenenter"",""1"",""101143""
""blur"",""63"",""380948""
""focus"",""63"",""380950""
","""event"",""trial"",""time""
""blur"",""1"",""3827""
""blur"",""63"",""380948""
","""event"",""trial"",""time""
""focus"",""1"",""99675""
""focus"",""63"",""380950""
","""event"",""trial"",""time""
""fullscreenenter"",""1"",""101143""
","
","","","","","","673.1000000000931","images/table4.png","","","memory_trial","2","maybe_old","","","","","","",""
"html-keyboard-response","82","403603","0.0-15.0-0.20","1638","2","""event"",""trial"",""time""
""blur"",""1"",""3827""
""focus"",""1"",""99675""
""fullscreenenter"",""1"",""101143""
""blur"",""63"",""380948""
""focus"",""63"",""380950""
","""event"",""trial"",""time""
""blur"",""1"",""3827""
""blur"",""63"",""380948""
","""event"",""trial"",""time""
""focus"",""1"",""99675""
""focus"",""63"",""380950""
","""event"",""trial"",""time""
""fullscreenenter"",""1"",""101143""
","
","","","","","","null","<div style=""font-size:60px;"">+</div>","null","","fixation","","","","","","","","",""
"memory-trial","83","404959","0.0-15.0-1.20","1638","2","""event"",""trial"",""time""
""blur"",""1"",""3827""
""focus"",""1"",""99675""
""fullscreenenter"",""1"",""101143""
""blur"",""63"",""380948""
""focus"",""63"",""380950""
","""event"",""trial"",""time""
""blur"",""1"",""3827""
""blur"",""63"",""380948""
","""event"",""trial"",""time""
""focus"",""1"",""99675""
""focus"",""63"",""380950""
","""event"",""trial"",""time""
""fullscreenenter"",""1"",""101143""
","
","","","","","","349.79999999981374","images/bush2.png","","","memory_trial","2","maybe_old","","","","","","",""
"html-keyboard-response","84","405462","0.0-15.0-0.21","1638","2","""event"",""trial"",""time""
""blur"",""1"",""3827""
""focus"",""1"",""99675""
""fullscreenenter"",""1"",""101143""
""blur"",""63"",""380948""
""focus"",""63"",""380950""
","""event"",""trial"",""time""
""blur"",""1"",""3827""
""blur"",""63"",""380948""
","""event"",""trial"",""time""
""focus"",""1"",""99675""
""focus"",""63"",""380950""
","""event"",""trial"",""time""
""fullscreenenter"",""1"",""101143""
","
","","","","","","null","<div style=""font-size:60px;"">+</div>","null","","fixation","","","","","","","","",""
"memory-trial","85","406503","0.0-15.0-1.21","1638","2","""event"",""trial"",""time""
""blur"",""1"",""3827""
""focus"",""1"",""99675""
""fullscreenenter"",""1"",""101143""
""blur"",""63"",""380948""
""focus"",""63"",""380950""
","""event"",""trial"",""time""
""blur"",""1"",""3827""
""blur"",""63"",""380948""
","""event"",""trial"",""time""
""focus"",""1"",""99675""
""focus"",""63"",""380950""
","""event"",""trial"",""time""
""fullscreenenter"",""1"",""101143""
","
","","","","","","37.89999999990687","images/train3.png","","","memory_trial","4","definitely_new","","","","","","",""
"html-keyboard-response","86","407004","0.0-15.0-0.22","1638","2","""event"",""trial"",""time""
""blur"",""1"",""3827""
""focus"",""1"",""99675""
""fullscreenenter"",""1"",""101143""
""blur"",""63"",""380948""
""focus"",""63"",""380950""
","""event"",""trial"",""time""
""blur"",""1"",""3827""
""blur"",""63"",""380948""
","""event"",""trial"",""time""
""focus"",""1"",""99675""
""focus"",""63"",""380950""
","""event"",""trial"",""time""
""fullscreenenter"",""1"",""101143""
","
","","","","","","null","<div style=""font-size:60px;"">+</div>","null","","fixation","","","","","","","","",""
"memory-trial","87","408468","0.0-15.0-1.22","1638","2","""event"",""trial"",""time""
""blur"",""1"",""3827""
""focus"",""1"",""99675""
""fullscreenenter"",""1"",""101143""
""blur"",""63"",""380948""
""focus"",""63"",""380950""
","""event"",""trial"",""time""
""blur"",""1"",""3827""
""blur"",""63"",""380948""
","""event"",""trial"",""time""
""focus"",""1"",""99675""
""focus"",""63"",""380950""
","""event"",""trial"",""time""
""fullscreenenter"",""1"",""101143""
","
","","","","","","457.79999999981374","images/table5.png","","","memory_trial","1","definitely_old","","","","","","",""
"html-keyboard-response","88","408971","0.0-15.0-0.23","1638","2","""event"",""trial"",""time""
""blur"",""1"",""3827""
""focus"",""1"",""99675""
""fullscreenenter"",""1"",""101143""
""blur"",""63"",""380948""
""focus"",""63"",""380950""
","""event"",""trial"",""time""
""blur"",""1"",""3827""
""blur"",""63"",""380948""
","""event"",""trial"",""time""
""focus"",""1"",""99675""
""focus"",""63"",""380950""
","""event"",""trial"",""time""
""fullscreenenter"",""1"",""101143""
","
","","","","","","null","<div style=""font-size:60px;"">+</div>","null","","fixation","","","","","","","","",""
"memory-trial","89","412204","0.0-15.0-1.23","1638","2","""event"",""trial"",""time""
""blur"",""1"",""3827""
""focus"",""1"",""99675""
""fullscreenenter"",""1"",""101143""
""blur"",""63"",""380948""
""focus"",""63"",""380950""
","""event"",""trial"",""time""
""blur"",""1"",""3827""
""blur"",""63"",""380948""
","""event"",""trial"",""time""
""focus"",""1"",""99675""
""focus"",""63"",""380950""
","""event"",""trial"",""time""
""fullscreenenter"",""1"",""101143""
","
","","","","","","2226.6999999997206","images/rodent3.png","","","memory_trial","1","definitely_old","","","","","","",""
"html-keyboard-response","90","412708","0.0-15.0-0.24","1638","2","""event"",""trial"",""time""
""blur"",""1"",""3827""
""focus"",""1"",""99675""
""fullscreenenter"",""1"",""101143""
""blur"",""63"",""380948""
""focus"",""63"",""380950""
","""event"",""trial"",""time""
""blur"",""1"",""3827""
""blur"",""63"",""380948""
","""event"",""trial"",""time""
""focus"",""1"",""99675""
""focus"",""63"",""380950""
","""event"",""trial"",""time""
""fullscreenenter"",""1"",""101143""
","
","","","","","","null","<div style=""font-size:60px;"">+</div>","null","","fixation","","","","","","","","",""
"memory-trial","91","414356","0.0-15.0-1.24","1638","2","""event"",""trial"",""time""
""blur"",""1"",""3827""
""focus"",""1"",""99675""
""fullscreenenter"",""1"",""101143""
""blur"",""63"",""380948""
""focus"",""63"",""380950""
","""event"",""trial"",""time""
""blur"",""1"",""3827""
""blur"",""63"",""380948""
","""event"",""trial"",""time""
""focus"",""1"",""99675""
""focus"",""63"",""380950""
","""event"",""trial"",""time""
""fullscreenenter"",""1"",""101143""
","
","","","","","","641.3999999999069","images/orange3.png","","","memory_trial","4","definitely_new","","","","","","",""
"html-keyboard-response","92","414859","0.0-15.0-0.25","1638","2","""event"",""trial"",""time""
""blur"",""1"",""3827""
""focus"",""1"",""99675""
""fullscreenenter"",""1"",""101143""
""blur"",""63"",""380948""
""focus"",""63"",""380950""
","""event"",""trial"",""time""
""blur"",""1"",""3827""
""blur"",""63"",""380948""
","""event"",""trial"",""time""
""focus"",""1"",""99675""
""focus"",""63"",""380950""
","""event"",""trial"",""time""
""fullscreenenter"",""1"",""101143""
","
","","","","","","null","<div style=""font-size:60px;"">+</div>","null","","fixation","","","","","","","","",""
"memory-trial","93","416324","0.0-15.0-1.25","1638","2","""event"",""trial"",""time""
""blur"",""1"",""3827""
""focus"",""1"",""99675""
""fullscreenenter"",""1"",""101143""
""blur"",""63"",""380948""
""focus"",""63"",""380950""
","""event"",""trial"",""time""
""blur"",""1"",""3827""
""blur"",""63"",""380948""
","""event"",""trial"",""time""
""focus"",""1"",""99675""
""focus"",""63"",""380950""
","""event"",""trial"",""time""
""fullscreenenter"",""1"",""101143""
","
","","","","","","460.70000000018626","images/banana5.png","","","memory_trial","4","definitely_new","","","","","","",""
"html-keyboard-response","94","416828","0.0-15.0-0.26","1638","2","""event"",""trial"",""time""
""blur"",""1"",""3827""
""focus"",""1"",""99675""
""fullscreenenter"",""1"",""101143""
""blur"",""63"",""380948""
""focus"",""63"",""380950""
","""event"",""trial"",""time""
""blur"",""1"",""3827""
""blur"",""63"",""380948""
","""event"",""trial"",""time""
""focus"",""1"",""99675""
""focus"",""63"",""380950""
","""event"",""trial"",""time""
""fullscreenenter"",""1"",""101143""
","
","","","","","","null","<div style=""font-size:60px;"">+</div>","null","","fixation","","","","","","","","",""
"memory-trial","95","417900","0.0-15.0-1.26","1638","2","""event"",""trial"",""time""
""blur"",""1"",""3827""
""focus"",""1"",""99675""
""fullscreenenter"",""1"",""101143""
""blur"",""63"",""380948""
""focus"",""63"",""380950""
","""event"",""trial"",""time""
""blur"",""1"",""3827""
""blur"",""63"",""380948""
","""event"",""trial"",""time""
""focus"",""1"",""99675""
""focus"",""63"",""380950""
","""event"",""trial"",""time""
""fullscreenenter"",""1"",""101143""
","
","","","","","","66","images/dog2.png","","","memory_trial","2","maybe_old","","","","","","",""
"html-keyboard-response","96","418404","0.0-15.0-0.27","1638","2","""event"",""trial"",""time""
""blur"",""1"",""3827""
""focus"",""1"",""99675""
""fullscreenenter"",""1"",""101143""
""blur"",""63"",""380948""
""focus"",""63"",""380950""
","""event"",""trial"",""time""
""blur"",""1"",""3827""
""blur"",""63"",""380948""
","""event"",""trial"",""time""
""focus"",""1"",""99675""
""focus"",""63"",""380950""
","""event"",""trial"",""time""
""fullscreenenter"",""1"",""101143""
","
","","","","","","null","<div style=""font-size:60px;"">+</div>","null","","fixation","","","","","","","","",""
"memory-trial","97","425513","0.0-15.0-1.27","1638","2","""event"",""trial"",""time""
""blur"",""1"",""3827""
""focus"",""1"",""99675""
""fullscreenenter"",""1"",""101143""
""blur"",""63"",""380948""
""focus"",""63"",""380950""
","""event"",""trial"",""time""
""blur"",""1"",""3827""
""blur"",""63"",""380948""
","""event"",""trial"",""time""
""focus"",""1"",""99675""
""focus"",""63"",""380950""
","""event"",""trial"",""time""
""fullscreenenter"",""1"",""101143""
","
","","","","","","6103.600000000093","images/truck3.png","","","memory_trial","2","maybe_old","","","","","","",""
"html-keyboard-response","98","426017","0.0-15.0-0.28","1638","2","""event"",""trial"",""time""
""blur"",""1"",""3827""
""focus"",""1"",""99675""
""fullscreenenter"",""1"",""101143""
""blur"",""63"",""380948""
""focus"",""63"",""380950""
","""event"",""trial"",""time""
""blur"",""1"",""3827""
""blur"",""63"",""380948""
","""event"",""trial"",""time""
""focus"",""1"",""99675""
""focus"",""63"",""380950""
","""event"",""trial"",""time""
""fullscreenenter"",""1"",""101143""
","
","","","","","","null","<div style=""font-size:60px;"">+</div>","null","","fixation","","","","","","","","",""
"memory-trial","99","427174","0.0-15.0-1.28","1638","2","""event"",""trial"",""time""
""blur"",""1"",""3827""
""focus"",""1"",""99675""
""fullscreenenter"",""1"",""101143""
""blur"",""63"",""380948""
""focus"",""63"",""380950""
","""event"",""trial"",""time""
""blur"",""1"",""3827""
""blur"",""63"",""380948""
","""event"",""trial"",""time""
""focus"",""1"",""99675""
""focus"",""63"",""380950""
","""event"",""trial"",""time""
""fullscreenenter"",""1"",""101143""
","
","","","","","","152.39999999990687","images/table2.png","","","memory_trial","2","maybe_old","","","","","","",""
"html-keyboard-response","100","427679","0.0-15.0-0.29","1638","2","""event"",""trial"",""time""
""blur"",""1"",""3827""
""focus"",""1"",""99675""
""fullscreenenter"",""1"",""101143""
""blur"",""63"",""380948""
""focus"",""63"",""380950""
","""event"",""trial"",""time""
""blur"",""1"",""3827""
""blur"",""63"",""380948""
","""event"",""trial"",""time""
""focus"",""1"",""99675""
""focus"",""63"",""380950""
","""event"",""trial"",""time""
""fullscreenenter"",""1"",""101143""
","
","","","","","","null","<div style=""font-size:60px;"">+</div>","null","","fixation","","","","","","","","",""
"memory-trial","101","428846","0.0-15.0-1.29","1638","2","""event"",""trial"",""time""
""blur"",""1"",""3827""
""focus"",""1"",""99675""
""fullscreenenter"",""1"",""101143""
""blur"",""63"",""380948""
""focus"",""63"",""380950""
","""event"",""trial"",""time""
""blur"",""1"",""3827""
""blur"",""63"",""380948""
","""event"",""trial"",""time""
""focus"",""1"",""99675""
""focus"",""63"",""380950""
","""event"",""trial"",""time""
""fullscreenenter"",""1"",""101143""
","
","","","","","","162","images/plane4.png","","","memory_trial","4","definitely_new","","","","","","",""
"html-keyboard-response","102","429351","0.0-15.0-0.30","1638","2","""event"",""trial"",""time""
""blur"",""1"",""3827""
""focus"",""1"",""99675""
""fullscreenenter"",""1"",""101143""
""blur"",""63"",""380948""
""focus"",""63"",""380950""
","""event"",""trial"",""time""
""blur"",""1"",""3827""
""blur"",""63"",""380948""
","""event"",""trial"",""time""
""focus"",""1"",""99675""
""focus"",""63"",""380950""
","""event"",""trial"",""time""
""fullscreenenter"",""1"",""101143""
","
","","","","","","null","<div style=""font-size:60px;"">+</div>","null","","fixation","","","","","","","","",""
"memory-trial","103","434047","0.0-15.0-1.30","1638","2","""event"",""trial"",""time""
""blur"",""1"",""3827""
""focus"",""1"",""99675""
""fullscreenenter"",""1"",""101143""
""blur"",""63"",""380948""
""focus"",""63"",""380950""
","""event"",""trial"",""time""
""blur"",""1"",""3827""
""blur"",""63"",""380948""
","""event"",""trial"",""time""
""focus"",""1"",""99675""
""focus"",""63"",""380950""
","""event"",""trial"",""time""
""fullscreenenter"",""1"",""101143""
","
","","","","","","3689.5","images/banana3.png","","","memory_trial","2","maybe_old","","","","","","",""
"html-keyboard-response","104","434552","0.0-15.0-0.31","1638","2","""event"",""trial"",""time""
""blur"",""1"",""3827""
""focus"",""1"",""99675""
""fullscreenenter"",""1"",""101143""
""blur"",""63"",""380948""
""focus"",""63"",""380950""
","""event"",""trial"",""time""
""blur"",""1"",""3827""
""blur"",""63"",""380948""
","""event"",""trial"",""time""
""focus"",""1"",""99675""
""focus"",""63"",""380950""
","""event"",""trial"",""time""
""fullscreenenter"",""1"",""101143""
","
","","","","","","null","<div style=""font-size:60px;"">+</div>","null","","fixation","","","","","","","","",""
"memory-trial","105","436567","0.0-15.0-1.31","1638","2","""event"",""trial"",""time""
""blur"",""1"",""3827""
""focus"",""1"",""99675""
""fullscreenenter"",""1"",""101143""
""blur"",""63"",""380948""
""focus"",""63"",""380950""
","""event"",""trial"",""time""
""blur"",""1"",""3827""
""blur"",""63"",""380948""
","""event"",""trial"",""time""
""focus"",""1"",""99675""
""focus"",""63"",""380950""
","""event"",""trial"",""time""
""fullscreenenter"",""1"",""101143""
","
","","","","","","1012.2999999998137","images/tree3.png","","","memory_trial","2","maybe_old","","","","","","",""
"html-keyboard-response","106","437068","0.0-15.0-0.32","1638","2","""event"",""trial"",""time""
""blur"",""1"",""3827""
""focus"",""1"",""99675""
""fullscreenenter"",""1"",""101143""
""blur"",""63"",""380948""
""focus"",""63"",""380950""
","""event"",""trial"",""time""
""blur"",""1"",""3827""
""blur"",""63"",""380948""
","""event"",""trial"",""time""
""focus"",""1"",""99675""
""focus"",""63"",""380950""
","""event"",""trial"",""time""
""fullscreenenter"",""1"",""101143""
","
","","","","","","null","<div style=""font-size:60px;"">+</div>","null","","fixation","","","","","","","","",""
"memory-trial","107","438916","0.0-15.0-1.32","1638","2","""event"",""trial"",""time""
""blur"",""1"",""3827""
""focus"",""1"",""99675""
""fullscreenenter"",""1"",""101143""
""blur"",""63"",""380948""
""focus"",""63"",""380950""
","""event"",""trial"",""time""
""blur"",""1"",""3827""
""blur"",""63"",""380948""
","""event"",""trial"",""time""
""focus"",""1"",""99675""
""focus"",""63"",""380950""
","""event"",""trial"",""time""
""fullscreenenter"",""1"",""101143""
","
","","","","","","843","images/tree1.png","","","memory_trial","2","maybe_old","","","","","","",""
"html-keyboard-response","108","439420","0.0-15.0-0.33","1638","2","""event"",""trial"",""time""
""blur"",""1"",""3827""
""focus"",""1"",""99675""
""fullscreenenter"",""1"",""101143""
""blur"",""63"",""380948""
""focus"",""63"",""380950""
","""event"",""trial"",""time""
""blur"",""1"",""3827""
""blur"",""63"",""380948""
","""event"",""trial"",""time""
""focus"",""1"",""99675""
""focus"",""63"",""380950""
","""event"",""trial"",""time""
""fullscreenenter"",""1"",""101143""
","
","","","","","","null","<div style=""font-size:60px;"">+</div>","null","","fixation","","","","","","","","",""
"memory-trial","109","440481","0.0-15.0-1.33","1638","2","""event"",""trial"",""time""
""blur"",""1"",""3827""
""focus"",""1"",""99675""
""fullscreenenter"",""1"",""101143""
""blur"",""63"",""380948""
""focus"",""63"",""380950""
","""event"",""trial"",""time""
""blur"",""1"",""3827""
""blur"",""63"",""380948""
","""event"",""trial"",""time""
""focus"",""1"",""99675""
""focus"",""63"",""380950""
","""event"",""trial"",""time""
""fullscreenenter"",""1"",""101143""
","
","","","","","","57.10000000009313","images/bed3.png","","","memory_trial","2","maybe_old","","","","","","",""
"html-keyboard-response","110","440986","0.0-15.0-0.34","1638","2","""event"",""trial"",""time""
""blur"",""1"",""3827""
""focus"",""1"",""99675""
""fullscreenenter"",""1"",""101143""
""blur"",""63"",""380948""
""focus"",""63"",""380950""
","""event"",""trial"",""time""
""blur"",""1"",""3827""
""blur"",""63"",""380948""
","""event"",""trial"",""time""
""focus"",""1"",""99675""
""focus"",""63"",""380950""
","""event"",""trial"",""time""
""fullscreenenter"",""1"",""101143""
","
","","","","","","null","<div style=""font-size:60px;"">+</div>","null","","fixation","","","","","","","","",""
"memory-trial","111","442156","0.0-15.0-1.34","1638","2","""event"",""trial"",""time""
""blur"",""1"",""3827""
""focus"",""1"",""99675""
""fullscreenenter"",""1"",""101143""
""blur"",""63"",""380948""
""focus"",""63"",""380950""
","""event"",""trial"",""time""
""blur"",""1"",""3827""
""blur"",""63"",""380948""
","""event"",""trial"",""time""
""focus"",""1"",""99675""
""focus"",""63"",""380950""
","""event"",""trial"",""time""
""fullscreenenter"",""1"",""101143""
","
","","","","","","167.79999999981374","images/cactus2.png","","","memory_trial","2","maybe_old","","","","","","",""
"html-keyboard-response","112","442660","0.0-15.0-0.35","1638","2","""event"",""trial"",""time""
""blur"",""1"",""3827""
""focus"",""1"",""99675""
""fullscreenenter"",""1"",""101143""
""blur"",""63"",""380948""
""focus"",""63"",""380950""
","""event"",""trial"",""time""
""blur"",""1"",""3827""
""blur"",""63"",""380948""
","""event"",""trial"",""time""
""focus"",""1"",""99675""
""focus"",""63"",""380950""
","""event"",""trial"",""time""
""fullscreenenter"",""1"",""101143""
","
","","","","","","null","<div style=""font-size:60px;"">+</div>","null","","fixation","","","","","","","","",""
"memory-trial","113","445061","0.0-15.0-1.35","1638","2","""event"",""trial"",""time""
""blur"",""1"",""3827""
""focus"",""1"",""99675""
""fullscreenenter"",""1"",""101143""
""blur"",""63"",""380948""
""focus"",""63"",""380950""
","""event"",""trial"",""time""
""blur"",""1"",""3827""
""blur"",""63"",""380948""
","""event"",""trial"",""time""
""focus"",""1"",""99675""
""focus"",""63"",""380950""
","""event"",""trial"",""time""
""fullscreenenter"",""1"",""101143""
","
","","","","","","1398.5999999996275","images/train4.png","","","memory_trial","2","maybe_old","","","","","","",""
"html-keyboard-response","114","445564","0.0-15.0-0.36","1638","2","""event"",""trial"",""time""
""blur"",""1"",""3827""
""focus"",""1"",""99675""
""fullscreenenter"",""1"",""101143""
""blur"",""63"",""380948""
""focus"",""63"",""380950""
","""event"",""trial"",""time""
""blur"",""1"",""3827""
""blur"",""63"",""380948""
","""event"",""trial"",""time""
""focus"",""1"",""99675""
""focus"",""63"",""380950""
","""event"",""trial"",""time""
""fullscreenenter"",""1"",""101143""
","
","","","","","","null","<div style=""font-size:60px;"">+</div>","null","","fixation","","","","","","","","",""
"memory-trial","115","447385","0.0-15.0-1.36","1638","2","""event"",""trial"",""time""
""blur"",""1"",""3827""
""focus"",""1"",""99675""
""fullscreenenter"",""1"",""101143""
""blur"",""63"",""380948""
""focus"",""63"",""380950""
","""event"",""trial"",""time""
""blur"",""1"",""3827""
""blur"",""63"",""380948""
","""event"",""trial"",""time""
""focus"",""1"",""99675""
""focus"",""63"",""380950""
","""event"",""trial"",""time""
""fullscreenenter"",""1"",""101143""
","
","","","","","","819.3999999999069","images/apple5.png","","","memory_trial","4","definitely_new","","","","","","",""
"html-keyboard-response","116","447886","0.0-15.0-0.37","1638","2","""event"",""trial"",""time""
""blur"",""1"",""3827""
""focus"",""1"",""99675""
""fullscreenenter"",""1"",""101143""
""blur"",""63"",""380948""
""focus"",""63"",""380950""
","""event"",""trial"",""time""
""blur"",""1"",""3827""
""blur"",""63"",""380948""
","""event"",""trial"",""time""
""focus"",""1"",""99675""
""focus"",""63"",""380950""
","""event"",""trial"",""time""
""fullscreenenter"",""1"",""101143""
","
","","","","","","null","<div style=""font-size:60px;"">+</div>","null","","fixation","","","","","","","","",""
"memory-trial","117","452719","0.0-15.0-1.37","1638","2","""event"",""trial"",""time""
""blur"",""1"",""3827""
""focus"",""1"",""99675""
""fullscreenenter"",""1"",""101143""
""blur"",""63"",""380948""
""focus"",""63"",""380950""
","""event"",""trial"",""time""
""blur"",""1"",""3827""
""blur"",""63"",""380948""
","""event"",""trial"",""time""
""focus"",""1"",""99675""
""focus"",""63"",""380950""
","""event"",""trial"",""time""
""fullscreenenter"",""1"",""101143""
","
","","","","","","3827.3000000002794","images/truck5.png","","","memory_trial","2","maybe_old","","","","","","",""
"html-keyboard-response","118","453223","0.0-15.0-0.38","1638","2","""event"",""trial"",""time""
""blur"",""1"",""3827""
""focus"",""1"",""99675""
""fullscreenenter"",""1"",""101143""
""blur"",""63"",""380948""
""focus"",""63"",""380950""
","""event"",""trial"",""time""
""blur"",""1"",""3827""
""blur"",""63"",""380948""
","""event"",""trial"",""time""
""focus"",""1"",""99675""
""focus"",""63"",""380950""
","""event"",""trial"",""time""
""fullscreenenter"",""1"",""101143""
","
","","","","","","null","<div style=""font-size:60px;"">+</div>","null","","fixation","","","","","","","","",""
"memory-trial","119","458023","0.0-15.0-1.38","1638","2","""event"",""trial"",""time""
""blur"",""1"",""3827""
""focus"",""1"",""99675""
""fullscreenenter"",""1"",""101143""
""blur"",""63"",""380948""
""focus"",""63"",""380950""
","""event"",""trial"",""time""
""blur"",""1"",""3827""
""blur"",""63"",""380948""
","""event"",""trial"",""time""
""focus"",""1"",""99675""
""focus"",""63"",""380950""
","""event"",""trial"",""time""
""fullscreenenter"",""1"",""101143""
","
","","","","","","3796.100000000093","images/goat5.png","","","memory_trial","2","maybe_old","","","","","","",""
"html-keyboard-response","120","458526","0.0-15.0-0.39","1638","2","""event"",""trial"",""time""
""blur"",""1"",""3827""
""focus"",""1"",""99675""
""fullscreenenter"",""1"",""101143""
""blur"",""63"",""380948""
""focus"",""63"",""380950""
","""event"",""trial"",""time""
""blur"",""1"",""3827""
""blur"",""63"",""380948""
","""event"",""trial"",""time""
""focus"",""1"",""99675""
""focus"",""63"",""380950""
","""event"",""trial"",""time""
""fullscreenenter"",""1"",""101143""
","
","","","","","","null","<div style=""font-size:60px;"">+</div>","null","","fixation","","","","","","","","",""
"memory-trial","121","462438","0.0-15.0-1.39","1638","2","""event"",""trial"",""time""
""blur"",""1"",""3827""
""focus"",""1"",""99675""
""fullscreenenter"",""1"",""101143""
""blur"",""63"",""380948""
""focus"",""63"",""380950""
","""event"",""trial"",""time""
""blur"",""1"",""3827""
""blur"",""63"",""380948""
","""event"",""trial"",""time""
""focus"",""1"",""99675""
""focus"",""63"",""380950""
","""event"",""trial"",""time""
""fullscreenenter"",""1"",""101143""
","
","","","","","","2907.0999999996275","images/horse2.png","","","memory_trial","2","maybe_old","","","","","","",""
"html-keyboard-response","122","462943","0.0-15.0-0.40","1638","2","""event"",""trial"",""time""
""blur"",""1"",""3827""
""focus"",""1"",""99675""
""fullscreenenter"",""1"",""101143""
""blur"",""63"",""380948""
""focus"",""63"",""380950""
","""event"",""trial"",""time""
""blur"",""1"",""3827""
""blur"",""63"",""380948""
","""event"",""trial"",""time""
""focus"",""1"",""99675""
""focus"",""63"",""380950""
","""event"",""trial"",""time""
""fullscreenenter"",""1"",""101143""
","
","","","","","","null","<div style=""font-size:60px;"">+</div>","null","","fixation","","","","","","","","",""
"memory-trial","123","466772","0.0-15.0-1.40","1638","2","""event"",""trial"",""time""
""blur"",""1"",""3827""
""focus"",""1"",""99675""
""fullscreenenter"",""1"",""101143""
""blur"",""63"",""380948""
""focus"",""63"",""380950""
","""event"",""trial"",""time""
""blur"",""1"",""3827""
""blur"",""63"",""380948""
","""event"",""trial"",""time""
""focus"",""1"",""99675""
""focus"",""63"",""380950""
","""event"",""trial"",""time""
""fullscreenenter"",""1"",""101143""
","
","","","","","","2824.600000000093","images/feline5.png","","","memory_trial","3","maybe_new","","","","","","",""
"html-keyboard-response","124","467276","0.0-15.0-0.41","1638","2","""event"",""trial"",""time""
""blur"",""1"",""3827""
""focus"",""1"",""99675""
""fullscreenenter"",""1"",""101143""
""blur"",""63"",""380948""
""focus"",""63"",""380950""
","""event"",""trial"",""time""
""blur"",""1"",""3827""
""blur"",""63"",""380948""
","""event"",""trial"",""time""
""focus"",""1"",""99675""
""focus"",""63"",""380950""
","""event"",""trial"",""time""
""fullscreenenter"",""1"",""101143""
","
","","","","","","null","<div style=""font-size:60px;"">+</div>","null","","fixation","","","","","","","","",""
"memory-trial","125","471088","0.0-15.0-1.41","1638","2","""event"",""trial"",""time""
""blur"",""1"",""3827""
""focus"",""1"",""99675""
""fullscreenenter"",""1"",""101143""
""blur"",""63"",""380948""
""focus"",""63"",""380950""
","""event"",""trial"",""time""
""blur"",""1"",""3827""
""blur"",""63"",""380948""
","""event"",""trial"",""time""
""focus"",""1"",""99675""
""focus"",""63"",""380950""
","""event"",""trial"",""time""
""fullscreenenter"",""1"",""101143""
","
","","","","","","2805.600000000093","images/cactus5.png","","","memory_trial","2","maybe_old","","","","","","",""
"html-keyboard-response","126","471589","0.0-15.0-0.42","1638","2","""event"",""trial"",""time""
""blur"",""1"",""3827""
""focus"",""1"",""99675""
""fullscreenenter"",""1"",""101143""
""blur"",""63"",""380948""
""focus"",""63"",""380950""
","""event"",""trial"",""time""
""blur"",""1"",""3827""
""blur"",""63"",""380948""
","""event"",""trial"",""time""
""focus"",""1"",""99675""
""focus"",""63"",""380950""
","""event"",""trial"",""time""
""fullscreenenter"",""1"",""101143""
","
","","","","","","null","<div style=""font-size:60px;"">+</div>","null","","fixation","","","","","","","","",""
"memory-trial","127","474231","0.0-15.0-1.42","1638","2","""event"",""trial"",""time""
""blur"",""1"",""3827""
""focus"",""1"",""99675""
""fullscreenenter"",""1"",""101143""
""blur"",""63"",""380948""
""focus"",""63"",""380950""
","""event"",""trial"",""time""
""blur"",""1"",""3827""
""blur"",""63"",""380948""
","""event"",""trial"",""time""
""focus"",""1"",""99675""
""focus"",""63"",""380950""
","""event"",""trial"",""time""
""fullscreenenter"",""1"",""101143""
","
","","","","","","1637","images/rabbit4.png","","","memory_trial","2","maybe_old","","","","","","",""
"html-keyboard-response","128","474735","0.0-15.0-0.43","1638","2","""event"",""trial"",""time""
""blur"",""1"",""3827""
""focus"",""1"",""99675""
""fullscreenenter"",""1"",""101143""
""blur"",""63"",""380948""
""focus"",""63"",""380950""
","""event"",""trial"",""time""
""blur"",""1"",""3827""
""blur"",""63"",""380948""
","""event"",""trial"",""time""
""focus"",""1"",""99675""
""focus"",""63"",""380950""
","""event"",""trial"",""time""
""fullscreenenter"",""1"",""101143""
","
","","","","","","null","<div style=""font-size:60px;"">+</div>","null","","fixation","","","","","","","","",""
"memory-trial","129","480346","0.0-15.0-1.43","1638","2","""event"",""trial"",""time""
""blur"",""1"",""3827""
""focus"",""1"",""99675""
""fullscreenenter"",""1"",""101143""
""blur"",""63"",""380948""
""focus"",""63"",""380950""
","""event"",""trial"",""time""
""blur"",""1"",""3827""
""blur"",""63"",""380948""
","""event"",""trial"",""time""
""focus"",""1"",""99675""
""focus"",""63"",""380950""
","""event"",""trial"",""time""
""fullscreenenter"",""1"",""101143""
","
","","","","","","4605.9000000003725","images/sheep2.png","","","memory_trial","3","maybe_new","","","","","","",""
"html-keyboard-response","130","480850","0.0-15.0-0.44","1638","2","""event"",""trial"",""time""
""blur"",""1"",""3827""
""focus"",""1"",""99675""
""fullscreenenter"",""1"",""101143""
""blur"",""63"",""380948""
""focus"",""63"",""380950""
","""event"",""trial"",""time""
""blur"",""1"",""3827""
""blur"",""63"",""380948""
","""event"",""trial"",""time""
""focus"",""1"",""99675""
""focus"",""63"",""380950""
","""event"",""trial"",""time""
""fullscreenenter"",""1"",""101143""
","
","","","","","","null","<div style=""font-size:60px;"">+</div>","null","","fixation","","","","","","","","",""
"memory-trial","131","483540","0.0-15.0-1.44","1638","2","""event"",""trial"",""time""
""blur"",""1"",""3827""
""focus"",""1"",""99675""
""fullscreenenter"",""1"",""101143""
""blur"",""63"",""380948""
""focus"",""63"",""380950""
","""event"",""trial"",""time""
""blur"",""1"",""3827""
""blur"",""63"",""380948""
","""event"",""trial"",""time""
""focus"",""1"",""99675""
""focus"",""63"",""380950""
","""event"",""trial"",""time""
""fullscreenenter"",""1"",""101143""
","
","","","","","","1685.8999999999069","images/bush5.png","","","memory_trial","3","maybe_new","","","","","","",""
"html-keyboard-response","132","484044","0.0-15.0-0.45","1638","2","""event"",""trial"",""time""
""blur"",""1"",""3827""
""focus"",""1"",""99675""
""fullscreenenter"",""1"",""101143""
""blur"",""63"",""380948""
""focus"",""63"",""380950""
","""event"",""trial"",""time""
""blur"",""1"",""3827""
""blur"",""63"",""380948""
","""event"",""trial"",""time""
""focus"",""1"",""99675""
""focus"",""63"",""380950""
","""event"",""trial"",""time""
""fullscreenenter"",""1"",""101143""
","
","","","","","","null","<div style=""font-size:60px;"">+</div>","null","","fixation","","","","","","","","",""
"memory-trial","133","487509","0.0-15.0-1.45","1638","2","""event"",""trial"",""time""
""blur"",""1"",""3827""
""focus"",""1"",""99675""
""fullscreenenter"",""1"",""101143""
""blur"",""63"",""380948""
""focus"",""63"",""380950""
","""event"",""trial"",""time""
""blur"",""1"",""3827""
""blur"",""63"",""380948""
","""event"",""trial"",""time""
""focus"",""1"",""99675""
""focus"",""63"",""380950""
","""event"",""trial"",""time""
""fullscreenenter"",""1"",""101143""
","
","","","","","","2459.899999999907","images/orange1.png","","","memory_trial","3","maybe_new","","","","","","",""
"html-keyboard-response","134","488012","0.0-15.0-0.46","1638","2","""event"",""trial"",""time""
""blur"",""1"",""3827""
""focus"",""1"",""99675""
""fullscreenenter"",""1"",""101143""
""blur"",""63"",""380948""
""focus"",""63"",""380950""
","""event"",""trial"",""time""
""blur"",""1"",""3827""
""blur"",""63"",""380948""
","""event"",""trial"",""time""
""focus"",""1"",""99675""
""focus"",""63"",""380950""
","""event"",""trial"",""time""
""fullscreenenter"",""1"",""101143""
","
","","","","","","null","<div style=""font-size:60px;"">+</div>","null","","fixation","","","","","","","","",""
"memory-trial","135","490655","0.0-15.0-1.46","1638","2","""event"",""trial"",""time""
""blur"",""1"",""3827""
""focus"",""1"",""99675""
""fullscreenenter"",""1"",""101143""
""blur"",""63"",""380948""
""focus"",""63"",""380950""
","""event"",""trial"",""time""
""blur"",""1"",""3827""
""blur"",""63"",""380948""
","""event"",""trial"",""time""
""focus"",""1"",""99675""
""focus"",""63"",""380950""
","""event"",""trial"",""time""
""fullscreenenter"",""1"",""101143""
","
","","","","","","1638.1999999997206","images/flower3.png","","","memory_trial","3","maybe_new","","","","","","",""
"html-button-response","136","492724","0.0-15.0-2.46-0.46","1638","2","""event"",""trial"",""time""
""blur"",""1"",""3827""
""focus"",""1"",""99675""
""fullscreenenter"",""1"",""101143""
""blur"",""63"",""380948""
""focus"",""63"",""380950""
","""event"",""trial"",""time""
""blur"",""1"",""3827""
""blur"",""63"",""380948""
","""event"",""trial"",""time""
""focus"",""1"",""99675""
""focus"",""63"",""380950""
","""event"",""trial"",""time""
""fullscreenenter"",""1"",""101143""
","
","","","","","","2068.600000000093","<p> Take a break! </p><p> Click the button to continue. </p>","0","","break","","","","","","","","",""
"html-keyboard-response","137","493225","0.0-15.0-0.47","1638","2","""event"",""trial"",""time""
""blur"",""1"",""3827""
""focus"",""1"",""99675""
""fullscreenenter"",""1"",""101143""
""blur"",""63"",""380948""
""focus"",""63"",""380950""
","""event"",""trial"",""time""
""blur"",""1"",""3827""
""blur"",""63"",""380948""
","""event"",""trial"",""time""
""focus"",""1"",""99675""
""focus"",""63"",""380950""
","""event"",""trial"",""time""
""fullscreenenter"",""1"",""101143""
","
","","","","","","null","<div style=""font-size:60px;"">+</div>","null","","fixation","","","","","","","","",""
"memory-trial","138","494973","0.0-15.0-1.47","1638","2","""event"",""trial"",""time""
""blur"",""1"",""3827""
""focus"",""1"",""99675""
""fullscreenenter"",""1"",""101143""
""blur"",""63"",""380948""
""focus"",""63"",""380950""
","""event"",""trial"",""time""
""blur"",""1"",""3827""
""blur"",""63"",""380948""
","""event"",""trial"",""time""
""focus"",""1"",""99675""
""focus"",""63"",""380950""
","""event"",""trial"",""time""
""fullscreenenter"",""1"",""101143""
","
","","","","","","740.7000000001863","images/table3.png","","","memory_trial","1","definitely_old","","","","","","",""
"html-keyboard-response","139","495476","0.0-15.0-0.48","1638","2","""event"",""trial"",""time""
""blur"",""1"",""3827""
""focus"",""1"",""99675""
""fullscreenenter"",""1"",""101143""
""blur"",""63"",""380948""
""focus"",""63"",""380950""
","""event"",""trial"",""time""
""blur"",""1"",""3827""
""blur"",""63"",""380948""
","""event"",""trial"",""time""
""focus"",""1"",""99675""
""focus"",""63"",""380950""
","""event"",""trial"",""time""
""fullscreenenter"",""1"",""101143""
","
","","","","","","null","<div style=""font-size:60px;"">+</div>","null","","fixation","","","","","","","","",""
"memory-trial","140","497357","0.0-15.0-1.48","1638","2","""event"",""trial"",""time""
""blur"",""1"",""3827""
""focus"",""1"",""99675""
""fullscreenenter"",""1"",""101143""
""blur"",""63"",""380948""
""focus"",""63"",""380950""
","""event"",""trial"",""time""
""blur"",""1"",""3827""
""blur"",""63"",""380948""
","""event"",""trial"",""time""
""focus"",""1"",""99675""
""focus"",""63"",""380950""
","""event"",""trial"",""time""
""fullscreenenter"",""1"",""101143""
","
","","","","","","876.7000000001863","images/boat4.png","","","memory_trial","2","maybe_old","","","","","","",""
"html-keyboard-response","141","497859","0.0-15.0-0.49","1638","2","""event"",""trial"",""time""
""blur"",""1"",""3827""
""focus"",""1"",""99675""
""fullscreenenter"",""1"",""101143""
""blur"",""63"",""380948""
""focus"",""63"",""380950""
","""event"",""trial"",""time""
""blur"",""1"",""3827""
""blur"",""63"",""380948""
","""event"",""trial"",""time""
""focus"",""1"",""99675""
""focus"",""63"",""380950""
","""event"",""trial"",""time""
""fullscreenenter"",""1"",""101143""
","
","","","","","","null","<div style=""font-size:60px;"">+</div>","null","","fixation","","","","","","","","",""
"memory-trial","142","499050","0.0-15.0-1.49","1638","2","""event"",""trial"",""time""
""blur"",""1"",""3827""
""focus"",""1"",""99675""
""fullscreenenter"",""1"",""101143""
""blur"",""63"",""380948""
""focus"",""63"",""380950""
","""event"",""trial"",""time""
""blur"",""1"",""3827""
""blur"",""63"",""380948""
","""event"",""trial"",""time""
""focus"",""1"",""99675""
""focus"",""63"",""380950""
","""event"",""trial"",""time""
""fullscreenenter"",""1"",""101143""
","
","","","","","","183.6999999997206","images/rabbit2.png","","","memory_trial","3","maybe_new","","","","","","",""
"html-keyboard-response","143","499553","0.0-15.0-0.50","1638","2","""event"",""trial"",""time""
""blur"",""1"",""3827""
""focus"",""1"",""99675""
""fullscreenenter"",""1"",""101143""
""blur"",""63"",""380948""
""focus"",""63"",""380950""
","""event"",""trial"",""time""
""blur"",""1"",""3827""
""blur"",""63"",""380948""
","""event"",""trial"",""time""
""focus"",""1"",""99675""
""focus"",""63"",""380950""
","""event"",""trial"",""time""
""fullscreenenter"",""1"",""101143""
","
","","","","","","null","<div style=""font-size:60px;"">+</div>","null","","fixation","","","","","","","","",""
"memory-trial","144","500991","0.0-15.0-1.50","1638","2","""event"",""trial"",""time""
""blur"",""1"",""3827""
""focus"",""1"",""99675""
""fullscreenenter"",""1"",""101143""
""blur"",""63"",""380948""
""focus"",""63"",""380950""
","""event"",""trial"",""time""
""blur"",""1"",""3827""
""blur"",""63"",""380948""
","""event"",""trial"",""time""
""focus"",""1"",""99675""
""focus"",""63"",""380950""
","""event"",""trial"",""time""
""fullscreenenter"",""1"",""101143""
","
","","","","","","433.10000000009313","images/goat1.png","","","memory_trial","2","maybe_old","","","","","","",""
"html-keyboard-response","145","501495","0.0-15.0-0.51","1638","2","""event"",""trial"",""time""
""blur"",""1"",""3827""
""focus"",""1"",""99675""
""fullscreenenter"",""1"",""101143""
""blur"",""63"",""380948""
""focus"",""63"",""380950""
","""event"",""trial"",""time""
""blur"",""1"",""3827""
""blur"",""63"",""380948""
","""event"",""trial"",""time""
""focus"",""1"",""99675""
""focus"",""63"",""380950""
","""event"",""trial"",""time""
""fullscreenenter"",""1"",""101143""
","
","","","","","","null","<div style=""font-size:60px;"">+</div>","null","","fixation","","","","","","","","",""
"memory-trial","146","502735","0.0-15.0-1.51","1638","2","""event"",""trial"",""time""
""blur"",""1"",""3827""
""focus"",""1"",""99675""
""fullscreenenter"",""1"",""101143""
""blur"",""63"",""380948""
""focus"",""63"",""380950""
","""event"",""trial"",""time""
""blur"",""1"",""3827""
""blur"",""63"",""380948""
","""event"",""trial"",""time""
""focus"",""1"",""99675""
""focus"",""63"",""380950""
","""event"",""trial"",""time""
""fullscreenenter"",""1"",""101143""
","
","","","","","","238.20000000018626","images/straw5.png","","","memory_trial","2","maybe_old","","","","","","",""
"html-keyboard-response","147","503239","0.0-15.0-0.52","1638","2","""event"",""trial"",""time""
""blur"",""1"",""3827""
""focus"",""1"",""99675""
""fullscreenenter"",""1"",""101143""
""blur"",""63"",""380948""
""focus"",""63"",""380950""
","""event"",""trial"",""time""
""blur"",""1"",""3827""
""blur"",""63"",""380948""
","""event"",""trial"",""time""
""focus"",""1"",""99675""
""focus"",""63"",""380950""
","""event"",""trial"",""time""
""fullscreenenter"",""1"",""101143""
","
","","","","","","null","<div style=""font-size:60px;"">+</div>","null","","fixation","","","","","","","","",""
"memory-trial","148","504898","0.0-15.0-1.52","1638","2","""event"",""trial"",""time""
""blur"",""1"",""3827""
""focus"",""1"",""99675""
""fullscreenenter"",""1"",""101143""
""blur"",""63"",""380948""
""focus"",""63"",""380950""
","""event"",""trial"",""time""
""blur"",""1"",""3827""
""blur"",""63"",""380948""
","""event"",""trial"",""time""
""focus"",""1"",""99675""
""focus"",""63"",""380950""
","""event"",""trial"",""time""
""fullscreenenter"",""1"",""101143""
","
","","","","","","653.3999999999069","images/feline3.png","","","memory_trial","2","maybe_old","","","","","","",""
"html-keyboard-response","149","505401","0.0-15.0-0.53","1638","2","""event"",""trial"",""time""
""blur"",""1"",""3827""
""focus"",""1"",""99675""
""fullscreenenter"",""1"",""101143""
""blur"",""63"",""380948""
""focus"",""63"",""380950""
","""event"",""trial"",""time""
""blur"",""1"",""3827""
""blur"",""63"",""380948""
","""event"",""trial"",""time""
""focus"",""1"",""99675""
""focus"",""63"",""380950""
","""event"",""trial"",""time""
""fullscreenenter"",""1"",""101143""
","
","","","","","","null","<div style=""font-size:60px;"">+</div>","null","","fixation","","","","","","","","",""
"memory-trial","150","507060","0.0-15.0-1.53","1638","2","""event"",""trial"",""time""
""blur"",""1"",""3827""
""focus"",""1"",""99675""
""fullscreenenter"",""1"",""101143""
""blur"",""63"",""380948""
""focus"",""63"",""380950""
","""event"",""trial"",""time""
""blur"",""1"",""3827""
""blur"",""63"",""380948""
","""event"",""trial"",""time""
""focus"",""1"",""99675""
""focus"",""63"",""380950""
","""event"",""trial"",""time""
""fullscreenenter"",""1"",""101143""
","
","","","","","","654.5999999996275","images/horse5.png","","","memory_trial","3","maybe_new","","","","","","",""
"html-keyboard-response","151","507565","0.0-15.0-0.54","1638","2","""event"",""trial"",""time""
""blur"",""1"",""3827""
""focus"",""1"",""99675""
""fullscreenenter"",""1"",""101143""
""blur"",""63"",""380948""
""focus"",""63"",""380950""
","""event"",""trial"",""time""
""blur"",""1"",""3827""
""blur"",""63"",""380948""
","""event"",""trial"",""time""
""focus"",""1"",""99675""
""focus"",""63"",""380950""
","""event"",""trial"",""time""
""fullscreenenter"",""1"",""101143""
","
","","","","","","null","<div style=""font-size:60px;"">+</div>","null","","fixation","","","","","","","","",""
"memory-trial","152","508874","0.0-15.0-1.54","1638","2","""event"",""trial"",""time""
""blur"",""1"",""3827""
""focus"",""1"",""99675""
""fullscreenenter"",""1"",""101143""
""blur"",""63"",""380948""
""focus"",""63"",""380950""
","""event"",""trial"",""time""
""blur"",""1"",""3827""
""blur"",""63"",""380948""
","""event"",""trial"",""time""
""focus"",""1"",""99675""
""focus"",""63"",""380950""
","""event"",""trial"",""time""
""fullscreenenter"",""1"",""101143""
","
","","","","","","304.70000000018626","images/sheep4.png","","","memory_trial","4","definitely_new","","","","","","",""
"html-keyboard-response","153","509378","0.0-15.0-0.55","1638","2","""event"",""trial"",""time""
""blur"",""1"",""3827""
""focus"",""1"",""99675""
""fullscreenenter"",""1"",""101143""
""blur"",""63"",""380948""
""focus"",""63"",""380950""
","""event"",""trial"",""time""
""blur"",""1"",""3827""
""blur"",""63"",""380948""
","""event"",""trial"",""time""
""focus"",""1"",""99675""
""focus"",""63"",""380950""
","""event"",""trial"",""time""
""fullscreenenter"",""1"",""101143""
","
","","","","","","null","<div style=""font-size:60px;"">+</div>","null","","fixation","","","","","","","","",""
"memory-trial","154","511226","0.0-15.0-1.55","1638","2","""event"",""trial"",""time""
""blur"",""1"",""3827""
""focus"",""1"",""99675""
""fullscreenenter"",""1"",""101143""
""blur"",""63"",""380948""
""focus"",""63"",""380950""
","""event"",""trial"",""time""
""blur"",""1"",""3827""
""blur"",""63"",""380948""
","""event"",""trial"",""time""
""focus"",""1"",""99675""
""focus"",""63"",""380950""
","""event"",""trial"",""time""
""fullscreenenter"",""1"",""101143""
","
","","","","","","844.1000000000931","images/cow2.png","","","memory_trial","1","definitely_old","","","","","","",""
"html-keyboard-response","155","511727","0.0-15.0-0.56","1638","2","""event"",""trial"",""time""
""blur"",""1"",""3827""
""focus"",""1"",""99675""
""fullscreenenter"",""1"",""101143""
""blur"",""63"",""380948""
""focus"",""63"",""380950""
","""event"",""trial"",""time""
""blur"",""1"",""3827""
""blur"",""63"",""380948""
","""event"",""trial"",""time""
""focus"",""1"",""99675""
""focus"",""63"",""380950""
","""event"",""trial"",""time""
""fullscreenenter"",""1"",""101143""
","
","","","","","","null","<div style=""font-size:60px;"">+</div>","null","","fixation","","","","","","","","",""
"memory-trial","156","513402","0.0-15.0-1.56","1638","2","""event"",""trial"",""time""
""blur"",""1"",""3827""
""focus"",""1"",""99675""
""fullscreenenter"",""1"",""101143""
""blur"",""63"",""380948""
""focus"",""63"",""380950""
","""event"",""trial"",""time""
""blur"",""1"",""3827""
""blur"",""63"",""380948""
","""event"",""trial"",""time""
""focus"",""1"",""99675""
""focus"",""63"",""380950""
","""event"",""trial"",""time""
""fullscreenenter"",""1"",""101143""
","
","","","","","","668.5","images/sofa4.png","","","memory_trial","2","maybe_old","","","","","","",""
"html-keyboard-response","157","513906","0.0-15.0-0.57","1638","2","""event"",""trial"",""time""
""blur"",""1"",""3827""
""focus"",""1"",""99675""
""fullscreenenter"",""1"",""101143""
""blur"",""63"",""380948""
""focus"",""63"",""380950""
","""event"",""trial"",""time""
""blur"",""1"",""3827""
""blur"",""63"",""380948""
","""event"",""trial"",""time""
""focus"",""1"",""99675""
""focus"",""63"",""380950""
","""event"",""trial"",""time""
""fullscreenenter"",""1"",""101143""
","
","","","","","","null","<div style=""font-size:60px;"">+</div>","null","","fixation","","","","","","","","",""
"memory-trial","158","517999","0.0-15.0-1.57","1638","2","""event"",""trial"",""time""
""blur"",""1"",""3827""
""focus"",""1"",""99675""
""fullscreenenter"",""1"",""101143""
""blur"",""63"",""380948""
""focus"",""63"",""380950""
","""event"",""trial"",""time""
""blur"",""1"",""3827""
""blur"",""63"",""380948""
","""event"",""trial"",""time""
""focus"",""1"",""99675""
""focus"",""63"",""380950""
","""event"",""trial"",""time""
""fullscreenenter"",""1"",""101143""
","
","","","","","","3090.2999999998137","images/orange5.png","","","memory_trial","2","maybe_old","","","","","","",""
"html-keyboard-response","159","518503","0.0-15.0-0.58","1638","2","""event"",""trial"",""time""
""blur"",""1"",""3827""
""focus"",""1"",""99675""
""fullscreenenter"",""1"",""101143""
""blur"",""63"",""380948""
""focus"",""63"",""380950""
","""event"",""trial"",""time""
""blur"",""1"",""3827""
""blur"",""63"",""380948""
","""event"",""trial"",""time""
""focus"",""1"",""99675""
""focus"",""63"",""380950""
","""event"",""trial"",""time""
""fullscreenenter"",""1"",""101143""
","
","","","","","","null","<div style=""font-size:60px;"">+</div>","null","","fixation","","","","","","","","",""
"memory-trial","160","519786","0.0-15.0-1.58","1638","2","""event"",""trial"",""time""
""blur"",""1"",""3827""
""focus"",""1"",""99675""
""fullscreenenter"",""1"",""101143""
""blur"",""63"",""380948""
""focus"",""63"",""380950""
","""event"",""trial"",""time""
""blur"",""1"",""3827""
""blur"",""63"",""380948""
","""event"",""trial"",""time""
""focus"",""1"",""99675""
""focus"",""63"",""380950""
","""event"",""trial"",""time""
""fullscreenenter"",""1"",""101143""
","
","","","","","","278.10000000009313","images/apple4.png","","","memory_trial","3","maybe_new","","","","","","",""
"html-keyboard-response","161","520290","0.0-15.0-0.59","1638","2","""event"",""trial"",""time""
""blur"",""1"",""3827""
""focus"",""1"",""99675""
""fullscreenenter"",""1"",""101143""
""blur"",""63"",""380948""
""focus"",""63"",""380950""
","""event"",""trial"",""time""
""blur"",""1"",""3827""
""blur"",""63"",""380948""
","""event"",""trial"",""time""
""focus"",""1"",""99675""
""focus"",""63"",""380950""
","""event"",""trial"",""time""
""fullscreenenter"",""1"",""101143""
","
","","","","","","null","<div style=""font-size:60px;"">+</div>","null","","fixation","","","","","","","","",""
"memory-trial","162","523855","0.0-15.0-1.59","1638","2","""event"",""trial"",""time""
""blur"",""1"",""3827""
""focus"",""1"",""99675""
""fullscreenenter"",""1"",""101143""
""blur"",""63"",""380948""
""focus"",""63"",""380950""
","""event"",""trial"",""time""
""blur"",""1"",""3827""
""blur"",""63"",""380948""
","""event"",""trial"",""time""
""focus"",""1"",""99675""
""focus"",""63"",""380950""
","""event"",""trial"",""time""
""fullscreenenter"",""1"",""101143""
","
","","","","","","2560.6999999997206","images/truck2.png","","","memory_trial","3","maybe_new","","","","","","",""
"html-keyboard-response","163","524359","0.0-15.0-0.60","1638","2","""event"",""trial"",""time""
""blur"",""1"",""3827""
""focus"",""1"",""99675""
""fullscreenenter"",""1"",""101143""
""blur"",""63"",""380948""
""focus"",""63"",""380950""
","""event"",""trial"",""time""
""blur"",""1"",""3827""
""blur"",""63"",""380948""
","""event"",""trial"",""time""
""focus"",""1"",""99675""
""focus"",""63"",""380950""
","""event"",""trial"",""time""
""fullscreenenter"",""1"",""101143""
","
","","","","","","null","<div style=""font-size:60px;"">+</div>","null","","fixation","","","","","","","","",""
"memory-trial","164","529312","0.0-15.0-1.60","1638","2","""event"",""trial"",""time""
""blur"",""1"",""3827""
""focus"",""1"",""99675""
""fullscreenenter"",""1"",""101143""
""blur"",""63"",""380948""
""focus"",""63"",""380950""
","""event"",""trial"",""time""
""blur"",""1"",""3827""
""blur"",""63"",""380948""
","""event"",""trial"",""time""
""focus"",""1"",""99675""
""focus"",""63"",""380950""
","""event"",""trial"",""time""
""fullscreenenter"",""1"",""101143""
","
","","","","","","3947.1999999997206","images/rabbit3.png","","","memory_trial","3","maybe_new","","","","","","",""
"html-keyboard-response","165","529813","0.0-15.0-0.61","1638","2","""event"",""trial"",""time""
""blur"",""1"",""3827""
""focus"",""1"",""99675""
""fullscreenenter"",""1"",""101143""
""blur"",""63"",""380948""
""focus"",""63"",""380950""
","""event"",""trial"",""time""
""blur"",""1"",""3827""
""blur"",""63"",""380948""
","""event"",""trial"",""time""
""focus"",""1"",""99675""
""focus"",""63"",""380950""
","""event"",""trial"",""time""
""fullscreenenter"",""1"",""101143""
","
","","","","","","null","<div style=""font-size:60px;"">+</div>","null","","fixation","","","","","","","","",""
"memory-trial","166","534776","0.0-15.0-1.61","1638","2","""event"",""trial"",""time""
""blur"",""1"",""3827""
""focus"",""1"",""99675""
""fullscreenenter"",""1"",""101143""
""blur"",""63"",""380948""
""focus"",""63"",""380950""
","""event"",""trial"",""time""
""blur"",""1"",""3827""
""blur"",""63"",""380948""
","""event"",""trial"",""time""
""focus"",""1"",""99675""
""focus"",""63"",""380950""
","""event"",""trial"",""time""
""fullscreenenter"",""1"",""101143""
","
","","","","","","3957.600000000093","images/bed1.png","","","memory_trial","4","definitely_new","","","","","","",""
"html-keyboard-response","167","535282","0.0-15.0-0.62","1638","2","""event"",""trial"",""time""
""blur"",""1"",""3827""
""focus"",""1"",""99675""
""fullscreenenter"",""1"",""101143""
""blur"",""63"",""380948""
""focus"",""63"",""380950""
","""event"",""trial"",""time""
""blur"",""1"",""3827""
""blur"",""63"",""380948""
","""event"",""trial"",""time""
""focus"",""1"",""99675""
""focus"",""63"",""380950""
","""event"",""trial"",""time""
""fullscreenenter"",""1"",""101143""
","
","","","","","","null","<div style=""font-size:60px;"">+</div>","null","","fixation","","","","","","","","",""
"memory-trial","168","539816","0.0-15.0-1.62","1638","2","""event"",""trial"",""time""
""blur"",""1"",""3827""
""focus"",""1"",""99675""
""fullscreenenter"",""1"",""101143""
""blur"",""63"",""380948""
""focus"",""63"",""380950""
","""event"",""trial"",""time""
""blur"",""1"",""3827""
""blur"",""63"",""380948""
","""event"",""trial"",""time""
""focus"",""1"",""99675""
""focus"",""63"",""380950""
","""event"",""trial"",""time""
""fullscreenenter"",""1"",""101143""
","
","","","","","","3531.5","images/straw2.png","","","memory_trial","2","maybe_old","","","","","","",""
"html-keyboard-response","169","540320","0.0-15.0-0.63","1638","2","""event"",""trial"",""time""
""blur"",""1"",""3827""
""focus"",""1"",""99675""
""fullscreenenter"",""1"",""101143""
""blur"",""63"",""380948""
""focus"",""63"",""380950""
","""event"",""trial"",""time""
""blur"",""1"",""3827""
""blur"",""63"",""380948""
","""event"",""trial"",""time""
""focus"",""1"",""99675""
""focus"",""63"",""380950""
","""event"",""trial"",""time""
""fullscreenenter"",""1"",""101143""
","
","","","","","","null","<div style=""font-size:60px;"">+</div>","null","","fixation","","","","","","","","",""
"memory-trial","170","542517","0.0-15.0-1.63","1638","2","""event"",""trial"",""time""
""blur"",""1"",""3827""
""focus"",""1"",""99675""
""fullscreenenter"",""1"",""101143""
""blur"",""63"",""380948""
""focus"",""63"",""380950""
","""event"",""trial"",""time""
""blur"",""1"",""3827""
""blur"",""63"",""380948""
","""event"",""trial"",""time""
""focus"",""1"",""99675""
""focus"",""63"",""380950""
","""event"",""trial"",""time""
""fullscreenenter"",""1"",""101143""
","
","","","","","","1192.6000000000931","images/chair2.png","","","memory_trial","4","definitely_new","","","","","","",""
"html-keyboard-response","171","543021","0.0-15.0-0.64","1638","2","""event"",""trial"",""time""
""blur"",""1"",""3827""
""focus"",""1"",""99675""
""fullscreenenter"",""1"",""101143""
""blur"",""63"",""380948""
""focus"",""63"",""380950""
","""event"",""trial"",""time""
""blur"",""1"",""3827""
""blur"",""63"",""380948""
","""event"",""trial"",""time""
""focus"",""1"",""99675""
""focus"",""63"",""380950""
","""event"",""trial"",""time""
""fullscreenenter"",""1"",""101143""
","
","","","","","","null","<div style=""font-size:60px;"">+</div>","null","","fixation","","","","","","","","",""
"memory-trial","172","544456","0.0-15.0-1.64","1638","2","""event"",""trial"",""time""
""blur"",""1"",""3827""
""focus"",""1"",""99675""
""fullscreenenter"",""1"",""101143""
""blur"",""63"",""380948""
