"trial_type","trial_index","time_elapsed","internal_node_id","subject_id","task_version","interactions","blur_events","focus_events","fullscreenenter_events","fullscreenexit_events","success","timeout","failed_images","failed_audio","failed_video","rt","stimulus","response","button_pressed","task_part","key_press","answer","correct","left_choice","middle_choice","right_choice","choice_positions","option_selected","block"
"pavlovia","0","4","0.0-0.0","1735","2","""event"",""trial"",""time""
""fullscreenenter"",""1"",""9913""
","
","
","""event"",""trial"",""time""
""fullscreenenter"",""1"",""9913""
","
","","","","","","","","","","","","","","","","","","",""
"fullscreen","1","10905","0.0-1.0","1735","2","""event"",""trial"",""time""
""fullscreenenter"",""1"",""9913""
","
","
","""event"",""trial"",""time""
""fullscreenenter"",""1"",""9913""
","
","true","","","","","","","","","","","","","","","","","",""
"preload","2","12251","0.0-2.0","1735","2","""event"",""trial"",""time""
""fullscreenenter"",""1"",""9913""
","
","
","""event"",""trial"",""time""
""fullscreenenter"",""1"",""9913""
","
","true","false","[]","[]","[]","","","","","","","","","","","","","",""
"audio-keyboard-response","3","17540","0.0-3.0","1735","2","""event"",""trial"",""time""
""fullscreenenter"",""1"",""9913""
","
","
","""event"",""trial"",""time""
""fullscreenenter"",""1"",""9913""
","
","","","","","","5040","audio/beep_loop.wav"," ","","","","","","","","","","",""
"audio-button-response","4","20808","0.0-4.0","1735","2","""event"",""trial"",""time""
""fullscreenenter"",""1"",""9913""
","
","
","""event"",""trial"",""time""
""fullscreenenter"",""1"",""9913""
","
","","","","","","3269","audio/turtle.wav","3","","","","","","","","","","",""
"audio-button-response","5","24437","0.0-5.0","1735","2","""event"",""trial"",""time""
""fullscreenenter"",""1"",""9913""
","
","
","""event"",""trial"",""time""
""fullscreenenter"",""1"",""9913""
","
","","","","","","2619","audio/shark.wav","2","","","","","","","","","","",""
"preload","6","29968","0.0-6.0","1735","2","""event"",""trial"",""time""
""fullscreenenter"",""1"",""9913""
","
","
","""event"",""trial"",""time""
""fullscreenenter"",""1"",""9913""
","
","true","false","[]","[]","[]","","","","","","","","","","","","","",""
"learning-instructions","7","68090","0.0-7.0-0.0","1735","2","""event"",""trial"",""time""
""fullscreenenter"",""1"",""9913""
","
","
","""event"",""trial"",""time""
""fullscreenenter"",""1"",""9913""
","
","","","","","","33314.89999999991","<p> Welcome back! </p><p> Last week, you had to make choices about lots of different items.  </p>","","0","instructions","","","","","","","","",""
"learning-instructions","8","74690","0.0-7.0-0.1","1735","2","""event"",""trial"",""time""
""fullscreenenter"",""1"",""9913""
","
","
","""event"",""trial"",""time""
""fullscreenenter"",""1"",""9913""
","
","","","","","","2314.1999999999534","<p> Today, we are going to ask you to try to remember all the items. </p>","","0","instructions","","","","","","","","",""
"learning-instructions","9","91966","0.0-7.0-0.2","1735","2","""event"",""trial"",""time""
""fullscreenenter"",""1"",""9913""
","
","
","""event"",""trial"",""time""
""fullscreenenter"",""1"",""9913""
","
","","","","","","7150.40000000014","<p> On every trial, you will see an image. </p><p> The image may be an OLD image you saw during the games last week or it may be a NEW image that was not presented. </p>","","0","instructions","","","","","","","","",""
"learning-instructions","10","104136","0.0-7.0-0.3","1735","2","""event"",""trial"",""time""
""fullscreenenter"",""1"",""9913""
""blur"",""11"",""108375""
""focus"",""11"",""117399""
","""event"",""trial"",""time""
""blur"",""11"",""108375""
","""event"",""trial"",""time""
""focus"",""11"",""117399""
","""event"",""trial"",""time""
""fullscreenenter"",""1"",""9913""
","
","","","","","","3649.8000000000466","<p> You need to select whether the image is:  </p><p>  'Definitely old', 'Maybe old', 'Maybe new', or 'Definitely new.'  </p><div class=""mem-choice-instructions-grid""><div class=""choice-option"" id=""choice-option-1"" ><img src=""images/definitely_old_1.png"" id=""choice-option-img-1"" class=""choice-option-img"" stage=""1""></div><div class=""choice-option"" id=""choice-option-2"" ><img src=""images/maybe_old_1.png"" id=""choice-option-img-2"" class=""choice-option-img"" stage=""1""></div><div class=""choice-option"" id=""choice-option-3"" ><img src=""images/maybe_new_1.png"" id=""choice-option-img-3"" class=""choice-option-img"" stage=""1""></div><div class=""choice-option"" id=""choice-option-4"" > <img src=""images/definitely_new_1.png"" id=""choice-option-img-4"" class=""choice-option-img"" stage=""1""></div></div>","","0","instructions","","","","","","","","",""
"learning-instructions","11","122710","0.0-7.0-0.4","1735","2","""event"",""trial"",""time""
""fullscreenenter"",""1"",""9913""
""blur"",""11"",""108375""
""focus"",""11"",""117399""
","""event"",""trial"",""time""
""blur"",""11"",""108375""
","""event"",""trial"",""time""
""focus"",""11"",""117399""
","""event"",""trial"",""time""
""fullscreenenter"",""1"",""9913""
","
","","","","","","11862.699999999953","<p> You should use the 1, 2, 3, and 4 keys to make your responses.  </p><div class=""mem-choice-instructions-grid""><div class=""choice-option"" id=""choice-option-1"" ><img src=""images/definitely_old.png"" id=""choice-option-img-1"" class=""choice-option-img"" stage=""1""></div><div class=""choice-option"" id=""choice-option-2"" ><img src=""images/maybe_old.png"" id=""choice-option-img-2"" class=""choice-option-img"" stage=""1""></div><div class=""choice-option"" id=""choice-option-3"" ><img src=""images/maybe_new.png"" id=""choice-option-img-3"" class=""choice-option-img"" stage=""1""></div><div class=""choice-option"" id=""choice-option-4"" > <img src=""images/definitely_new.png"" id=""choice-option-img-4"" class=""choice-option-img"" stage=""1""></div></div>","","0","instructions","","","","","","","","",""
"learning-instructions","12","130380","0.0-7.0-0.5","1735","2","""event"",""trial"",""time""
""fullscreenenter"",""1"",""9913""
""blur"",""11"",""108375""
""focus"",""11"",""117399""
","""event"",""trial"",""time""
""blur"",""11"",""108375""
","""event"",""trial"",""time""
""focus"",""11"",""117399""
","""event"",""trial"",""time""
""fullscreenenter"",""1"",""9913""
","
","","","","","","892.7000000001863","<p> You will have 10 seconds to make each response.  </p><p>  Make sure to respond before time runs out! </p>","","0","instructions","","","","","","","","",""
"learning-instructions","13","142716","0.0-7.0-0.6","1735","2","""event"",""trial"",""time""
""fullscreenenter"",""1"",""9913""
""blur"",""11"",""108375""
""focus"",""11"",""117399""
","""event"",""trial"",""time""
""blur"",""11"",""108375""
","""event"",""trial"",""time""
""focus"",""11"",""117399""
","""event"",""trial"",""time""
""fullscreenenter"",""1"",""9913""
","
","","","","","","4740","<p> Today, you will see each image ONCE only.  </p><p>  That means none of the images will repeat. </p>","","0","instructions","","","","","","","","",""
"learning-instructions","14","156885","0.0-7.0-0.7","1735","2","""event"",""trial"",""time""
""fullscreenenter"",""1"",""9913""
""blur"",""11"",""108375""
""focus"",""11"",""117399""
","""event"",""trial"",""time""
""blur"",""11"",""108375""
","""event"",""trial"",""time""
""focus"",""11"",""117399""
","""event"",""trial"",""time""
""fullscreenenter"",""1"",""9913""
","
","","","","","","1478.7999999998137","<p> Before you play the real game, it is time to practice. </p><p>  Just like in the real game, some of the images in the practice will be ones you have seen before. </p><p>  Others will be entirely new. </p>","","0","instructions","","","","","","","","",""
"html-button-response","15","159831","0.0-8.0","1735","2","""event"",""trial"",""time""
""fullscreenenter"",""1"",""9913""
""blur"",""11"",""108375""
""focus"",""11"",""117399""
","""event"",""trial"",""time""
""blur"",""11"",""108375""
","""event"",""trial"",""time""
""focus"",""11"",""117399""
","""event"",""trial"",""time""
""fullscreenenter"",""1"",""9913""
","
","","","","","","2835.0999999998603","<p> Ready to practice? </p><p> Remember, use the 1, 2, 3, and 4 keys to make your responses. </p>","0","","instructions","","","","","","","","",""
"html-keyboard-response","16","160466","0.0-9.0-0.0","1735","2","""event"",""trial"",""time""
""fullscreenenter"",""1"",""9913""
""blur"",""11"",""108375""
""focus"",""11"",""117399""
","""event"",""trial"",""time""
""blur"",""11"",""108375""
","""event"",""trial"",""time""
""focus"",""11"",""117399""
","""event"",""trial"",""time""
""fullscreenenter"",""1"",""9913""
","
","","","","","","null","<div style=""font-size:60px;"">+</div>","null","","fixation","","","","","","","","",""
"memory-trial","17","166726","0.0-9.0-1.0","1735","2","""event"",""trial"",""time""
""fullscreenenter"",""1"",""9913""
""blur"",""11"",""108375""
""focus"",""11"",""117399""
","""event"",""trial"",""time""
""blur"",""11"",""108375""
","""event"",""trial"",""time""
""focus"",""11"",""117399""
","""event"",""trial"",""time""
""fullscreenenter"",""1"",""9913""
","
","","","","","","5244","images/racket2.png","","","practice","1","definitely_old","","","","","","",""
"html-keyboard-response","18","167244","0.0-9.0-0.1","1735","2","""event"",""trial"",""time""
""fullscreenenter"",""1"",""9913""
""blur"",""11"",""108375""
""focus"",""11"",""117399""
","""event"",""trial"",""time""
""blur"",""11"",""108375""
","""event"",""trial"",""time""
""focus"",""11"",""117399""
","""event"",""trial"",""time""
""fullscreenenter"",""1"",""9913""
","
","","","","","","null","<div style=""font-size:60px;"">+</div>","null","","fixation","","","","","","","","",""
"memory-trial","19","173076","0.0-9.0-1.1","1735","2","""event"",""trial"",""time""
""fullscreenenter"",""1"",""9913""
""blur"",""11"",""108375""
""focus"",""11"",""117399""
","""event"",""trial"",""time""
""blur"",""11"",""108375""
","""event"",""trial"",""time""
""focus"",""11"",""117399""
","""event"",""trial"",""time""
""fullscreenenter"",""1"",""9913""
","
","","","","","","4826","images/ball1.png","","","practice","1","definitely_old","","","","","","",""
"html-keyboard-response","20","173603","0.0-9.0-0.2","1735","2","""event"",""trial"",""time""
""fullscreenenter"",""1"",""9913""
""blur"",""11"",""108375""
""focus"",""11"",""117399""
","""event"",""trial"",""time""
""blur"",""11"",""108375""
","""event"",""trial"",""time""
""focus"",""11"",""117399""
","""event"",""trial"",""time""
""fullscreenenter"",""1"",""9913""
","
","","","","","","null","<div style=""font-size:60px;"">+</div>","null","","fixation","","","","","","","","",""
"memory-trial","21","177524","0.0-9.0-1.2","1735","2","""event"",""trial"",""time""
""fullscreenenter"",""1"",""9913""
""blur"",""11"",""108375""
""focus"",""11"",""117399""
","""event"",""trial"",""time""
""blur"",""11"",""108375""
","""event"",""trial"",""time""
""focus"",""11"",""117399""
","""event"",""trial"",""time""
""fullscreenenter"",""1"",""9913""
","
","","","","","","2913.1999999999534","images/ball3.png","","","practice","1","definitely_old","","","","","","",""
"html-keyboard-response","22","178045","0.0-9.0-0.3","1735","2","""event"",""trial"",""time""
""fullscreenenter"",""1"",""9913""
""blur"",""11"",""108375""
""focus"",""11"",""117399""
","""event"",""trial"",""time""
""blur"",""11"",""108375""
","""event"",""trial"",""time""
""focus"",""11"",""117399""
","""event"",""trial"",""time""
""fullscreenenter"",""1"",""9913""
","
","","","","","","null","<div style=""font-size:60px;"">+</div>","null","","fixation","","","","","","","","",""
"memory-trial","23","180546","0.0-9.0-1.3","1735","2","""event"",""trial"",""time""
""fullscreenenter"",""1"",""9913""
""blur"",""11"",""108375""
""focus"",""11"",""117399""
","""event"",""trial"",""time""
""blur"",""11"",""108375""
","""event"",""trial"",""time""
""focus"",""11"",""117399""
","""event"",""trial"",""time""
""fullscreenenter"",""1"",""9913""
","
","","","","","","1480.1000000000931","images/racket1.png","","","practice","1","definitely_old","","","","","","",""
"html-keyboard-response","24","181055","0.0-9.0-0.4","1735","2","""event"",""trial"",""time""
""fullscreenenter"",""1"",""9913""
""blur"",""11"",""108375""
""focus"",""11"",""117399""
","""event"",""trial"",""time""
""blur"",""11"",""108375""
","""event"",""trial"",""time""
""focus"",""11"",""117399""
","""event"",""trial"",""time""
""fullscreenenter"",""1"",""9913""
","
","","","","","","null","<div style=""font-size:60px;"">+</div>","null","","fixation","","","","","","","","",""
"memory-trial","25","183955","0.0-9.0-1.4","1735","2","""event"",""trial"",""time""
""fullscreenenter"",""1"",""9913""
""blur"",""11"",""108375""
""focus"",""11"",""117399""
","""event"",""trial"",""time""
""blur"",""11"",""108375""
","""event"",""trial"",""time""
""focus"",""11"",""117399""
","""event"",""trial"",""time""
""fullscreenenter"",""1"",""9913""
","
","","","","","","1877.5","images/racket3.png","","","practice","1","definitely_old","","","","","","",""
"html-keyboard-response","26","184465","0.0-9.0-0.5","1735","2","""event"",""trial"",""time""
""fullscreenenter"",""1"",""9913""
""blur"",""11"",""108375""
""focus"",""11"",""117399""
","""event"",""trial"",""time""
""blur"",""11"",""108375""
","""event"",""trial"",""time""
""focus"",""11"",""117399""
","""event"",""trial"",""time""
""fullscreenenter"",""1"",""9913""
","
","","","","","","null","<div style=""font-size:60px;"">+</div>","null","","fixation","","","","","","","","",""
"memory-trial","27","188601","0.0-9.0-1.5","1735","2","""event"",""trial"",""time""
""fullscreenenter"",""1"",""9913""
""blur"",""11"",""108375""
""focus"",""11"",""117399""
","""event"",""trial"",""time""
""blur"",""11"",""108375""
","""event"",""trial"",""time""
""focus"",""11"",""117399""
","""event"",""trial"",""time""
""fullscreenenter"",""1"",""9913""
","
","","","","","","3132.1999999999534","images/ball4.png","","","practice","1","definitely_old","","","","","","",""
"html-keyboard-response","28","189104","0.0-9.0-0.6","1735","2","""event"",""trial"",""time""
""fullscreenenter"",""1"",""9913""
""blur"",""11"",""108375""
""focus"",""11"",""117399""
","""event"",""trial"",""time""
""blur"",""11"",""108375""
","""event"",""trial"",""time""
""focus"",""11"",""117399""
","""event"",""trial"",""time""
""fullscreenenter"",""1"",""9913""
","
","","","","","","null","<div style=""font-size:60px;"">+</div>","null","","fixation","","","","","","","","",""
"memory-trial","29","191659","0.0-9.0-1.6","1735","2","""event"",""trial"",""time""
""fullscreenenter"",""1"",""9913""
""blur"",""11"",""108375""
""focus"",""11"",""117399""
","""event"",""trial"",""time""
""blur"",""11"",""108375""
","""event"",""trial"",""time""
""focus"",""11"",""117399""
","""event"",""trial"",""time""
""fullscreenenter"",""1"",""9913""
","
","","","","","","1549.9000000001397","images/ball2.png","","","practice","1","definitely_old","","","","","","",""
"html-keyboard-response","30","192161","0.0-9.0-0.7","1735","2","""event"",""trial"",""time""
""fullscreenenter"",""1"",""9913""
""blur"",""11"",""108375""
""focus"",""11"",""117399""
","""event"",""trial"",""time""
""blur"",""11"",""108375""
","""event"",""trial"",""time""
""focus"",""11"",""117399""
","""event"",""trial"",""time""
""fullscreenenter"",""1"",""9913""
","
","","","","","","null","<div style=""font-size:60px;"">+</div>","null","","fixation","","","","","","","","",""
"memory-trial","31","196418","0.0-9.0-1.7","1735","2","""event"",""trial"",""time""
""fullscreenenter"",""1"",""9913""
""blur"",""11"",""108375""
""focus"",""11"",""117399""
","""event"",""trial"",""time""
""blur"",""11"",""108375""
","""event"",""trial"",""time""
""focus"",""11"",""117399""
","""event"",""trial"",""time""
""fullscreenenter"",""1"",""9913""
","
","","","","","","3253.600000000093","images/racket4.png","","","practice","2","maybe_old","","","","","","",""
"learning-instructions","32","206440","0.0-10.0-0.0","1735","2","""event"",""trial"",""time""
""fullscreenenter"",""1"",""9913""
""blur"",""11"",""108375""
""focus"",""11"",""117399""
","""event"",""trial"",""time""
""blur"",""11"",""108375""
","""event"",""trial"",""time""
""focus"",""11"",""117399""
","""event"",""trial"",""time""
""fullscreenenter"",""1"",""9913""
","
","","","","","","1995.5","<p> Great! You have completed the practice. </p><p> Before you start, we're going to ask you a few questions about how the game works.  </p>","","0","instructions","","","","","","","","",""
"preload","33","208819","0.0-11.0","1735","2","""event"",""trial"",""time""
""fullscreenenter"",""1"",""9913""
""blur"",""11"",""108375""
""focus"",""11"",""117399""
","""event"",""trial"",""time""
""blur"",""11"",""108375""
","""event"",""trial"",""time""
""focus"",""11"",""117399""
","""event"",""trial"",""time""
""fullscreenenter"",""1"",""9913""
","
","true","false","[]","[]","[]","","","","","","","","","","","","","",""
"comp-q","34","220475","0.0-12.0-0.0","1735","2","""event"",""trial"",""time""
""fullscreenenter"",""1"",""9913""
""blur"",""11"",""108375""
""focus"",""11"",""117399""
","""event"",""trial"",""time""
""blur"",""11"",""108375""
","""event"",""trial"",""time""
""focus"",""11"",""117399""
","""event"",""trial"",""time""
""fullscreenenter"",""1"",""9913""
","
","","","","","","5829.100000000093","<p> <b> True or False? </b> </p><p> In this game, you will only see each image once. </p>","","0","comp_question","","","true","","","","","",""
"comp-q","35","227946","0.0-12.0-1.0","1735","2","""event"",""trial"",""time""
""fullscreenenter"",""1"",""9913""
""blur"",""11"",""108375""
""focus"",""11"",""117399""
","""event"",""trial"",""time""
""blur"",""11"",""108375""
","""event"",""trial"",""time""
""focus"",""11"",""117399""
","""event"",""trial"",""time""
""fullscreenenter"",""1"",""9913""
","
","","","","","","1111","<p> <b> That's right! </b> You will see many different images <i> one time each </i> in this game. </p>","","0","comp_answer","","","","","","","","",""
"comp-q","36","234896","0.0-12.0-0.1","1735","2","""event"",""trial"",""time""
""fullscreenenter"",""1"",""9913""
""blur"",""11"",""108375""
""focus"",""11"",""117399""
","""event"",""trial"",""time""
""blur"",""11"",""108375""
","""event"",""trial"",""time""
""focus"",""11"",""117399""
","""event"",""trial"",""time""
""fullscreenenter"",""1"",""9913""
","
","","","","","","1142.1000000000931","<p> <b> True or False? </b> </p><p> You should use the mouse and click to make your response. </p>","","1","comp_question","","","true","","","","","",""
"comp-q","37","243103","0.0-12.0-1.1","1735","2","""event"",""trial"",""time""
""fullscreenenter"",""1"",""9913""
""blur"",""11"",""108375""
""focus"",""11"",""117399""
","""event"",""trial"",""time""
""blur"",""11"",""108375""
","""event"",""trial"",""time""
""focus"",""11"",""117399""
","""event"",""trial"",""time""
""fullscreenenter"",""1"",""9913""
","
","","","","","","848.6000000000931","<p><b> That's right! </b> You should use the '1', '2', '3', and '4' keys to make your response. </p>","","0","comp_answer","","","","","","","","",""
"comp-q","38","249959","0.0-12.0-0.2","1735","2","""event"",""trial"",""time""
""fullscreenenter"",""1"",""9913""
""blur"",""11"",""108375""
""focus"",""11"",""117399""
","""event"",""trial"",""time""
""blur"",""11"",""108375""
","""event"",""trial"",""time""
""focus"",""11"",""117399""
","""event"",""trial"",""time""
""fullscreenenter"",""1"",""9913""
","
","","","","","","845.6999999999534","<p> <b> True or False? </b> </p><p> You will have as much time as you want to make each choice. </p>","","1","comp_question","","","true","","","","","",""
"comp-q","39","256954","0.0-12.0-1.2","1735","2","""event"",""trial"",""time""
""fullscreenenter"",""1"",""9913""
""blur"",""11"",""108375""
""focus"",""11"",""117399""
","""event"",""trial"",""time""
""blur"",""11"",""108375""
","""event"",""trial"",""time""
""focus"",""11"",""117399""
","""event"",""trial"",""time""
""fullscreenenter"",""1"",""9913""
","
","","","","","","1598.1000000000931","<p> <b> That's right! </b> You will only have 10 seconds to make each choice. </p>","","0","comp_answer","","","","","","","","",""
"learning-instructions","40","268201","0.0-13.0","1735","2","""event"",""trial"",""time""
""fullscreenenter"",""1"",""9913""
""blur"",""11"",""108375""
""focus"",""11"",""117399""
","""event"",""trial"",""time""
""blur"",""11"",""108375""
","""event"",""trial"",""time""
""focus"",""11"",""117399""
","""event"",""trial"",""time""
""fullscreenenter"",""1"",""9913""
","
","","","","","","2565.3000000000466","<p> Great! You are now ready to begin the game. </p><p> Remember, use the 1, 2, 3, and 4 keys to make your responses. </p>","","0","instructions","","","","","","","","",""
"preload","41","275852","0.0-14.0","1735","2","""event"",""trial"",""time""
""fullscreenenter"",""1"",""9913""
""blur"",""11"",""108375""
""focus"",""11"",""117399""
","""event"",""trial"",""time""
""blur"",""11"",""108375""
","""event"",""trial"",""time""
""focus"",""11"",""117399""
","""event"",""trial"",""time""
""fullscreenenter"",""1"",""9913""
","
","true","false","[]","[]","[]","","","","","","","","","","","","","",""
"html-keyboard-response","42","276374","0.0-15.0-0.0","1735","2","""event"",""trial"",""time""
""fullscreenenter"",""1"",""9913""
""blur"",""11"",""108375""
""focus"",""11"",""117399""
","""event"",""trial"",""time""
""blur"",""11"",""108375""
","""event"",""trial"",""time""
""focus"",""11"",""117399""
","""event"",""trial"",""time""
""fullscreenenter"",""1"",""9913""
","
","","","","","","null","<div style=""font-size:60px;"">+</div>","null","","fixation","","","","","","","","",""
"memory-trial","43","282189","0.0-15.0-1.0","1735","2","""event"",""trial"",""time""
""fullscreenenter"",""1"",""9913""
""blur"",""11"",""108375""
""focus"",""11"",""117399""
","""event"",""trial"",""time""
""blur"",""11"",""108375""
","""event"",""trial"",""time""
""focus"",""11"",""117399""
","""event"",""trial"",""time""
""fullscreenenter"",""1"",""9913""
","
","","","","","","4806.100000000093","images/plane2.png","","","memory_trial","4","definitely_new","","","","","","",""
"html-keyboard-response","44","282708","0.0-15.0-0.1","1735","2","""event"",""trial"",""time""
""fullscreenenter"",""1"",""9913""
""blur"",""11"",""108375""
""focus"",""11"",""117399""
","""event"",""trial"",""time""
""blur"",""11"",""108375""
","""event"",""trial"",""time""
""focus"",""11"",""117399""
","""event"",""trial"",""time""
""fullscreenenter"",""1"",""9913""
","
","","","","","","null","<div style=""font-size:60px;"">+</div>","null","","fixation","","","","","","","","",""
"memory-trial","45","287084","0.0-15.0-1.1","1735","2","""event"",""trial"",""time""
""fullscreenenter"",""1"",""9913""
""blur"",""11"",""108375""
""focus"",""11"",""117399""
","""event"",""trial"",""time""
""blur"",""11"",""108375""
","""event"",""trial"",""time""
""focus"",""11"",""117399""
","""event"",""trial"",""time""
""fullscreenenter"",""1"",""9913""
","
","","","","","","3368.899999999907","images/boat5.png","","","memory_trial","4","definitely_new","","","","","","",""
"html-keyboard-response","46","287595","0.0-15.0-0.2","1735","2","""event"",""trial"",""time""
""fullscreenenter"",""1"",""9913""
""blur"",""11"",""108375""
""focus"",""11"",""117399""
","""event"",""trial"",""time""
""blur"",""11"",""108375""
","""event"",""trial"",""time""
""focus"",""11"",""117399""
","""event"",""trial"",""time""
""fullscreenenter"",""1"",""9913""
","
","","","","","","null","<div style=""font-size:60px;"">+</div>","null","","fixation","","","","","","","","",""
"memory-trial","47","290323","0.0-15.0-1.2","1735","2","""event"",""trial"",""time""
""fullscreenenter"",""1"",""9913""
""blur"",""11"",""108375""
""focus"",""11"",""117399""
","""event"",""trial"",""time""
""blur"",""11"",""108375""
","""event"",""trial"",""time""
""focus"",""11"",""117399""
","""event"",""trial"",""time""
""fullscreenenter"",""1"",""9913""
","
","","","","","","1708.8000000000466","images/rabbit2.png","","","memory_trial","1","definitely_old","","","","","","",""
"html-keyboard-response","48","290833","0.0-15.0-0.3","1735","2","""event"",""trial"",""time""
""fullscreenenter"",""1"",""9913""
""blur"",""11"",""108375""
""focus"",""11"",""117399""
","""event"",""trial"",""time""
""blur"",""11"",""108375""
","""event"",""trial"",""time""
""focus"",""11"",""117399""
","""event"",""trial"",""time""
""fullscreenenter"",""1"",""9913""
","
","","","","","","null","<div style=""font-size:60px;"">+</div>","null","","fixation","","","","","","","","",""
"memory-trial","49","294155","0.0-15.0-1.3","1735","2","""event"",""trial"",""time""
""fullscreenenter"",""1"",""9913""
""blur"",""11"",""108375""
""focus"",""11"",""117399""
","""event"",""trial"",""time""
""blur"",""11"",""108375""
","""event"",""trial"",""time""
""focus"",""11"",""117399""
","""event"",""trial"",""time""
""fullscreenenter"",""1"",""9913""
","
","","","","","","2304.600000000093","images/plane5.png","","","memory_trial","4","definitely_new","","","","","","",""
"html-keyboard-response","50","294674","0.0-15.0-0.4","1735","2","""event"",""trial"",""time""
""fullscreenenter"",""1"",""9913""
""blur"",""11"",""108375""
""focus"",""11"",""117399""
","""event"",""trial"",""time""
""blur"",""11"",""108375""
","""event"",""trial"",""time""
""focus"",""11"",""117399""
","""event"",""trial"",""time""
""fullscreenenter"",""1"",""9913""
","
","","","","","","null","<div style=""font-size:60px;"">+</div>","null","","fixation","","","","","","","","",""
"memory-trial","51","297814","0.0-15.0-1.4","1735","2","""event"",""trial"",""time""
""fullscreenenter"",""1"",""9913""
""blur"",""11"",""108375""
""focus"",""11"",""117399""
","""event"",""trial"",""time""
""blur"",""11"",""108375""
","""event"",""trial"",""time""
""focus"",""11"",""117399""
","""event"",""trial"",""time""
""fullscreenenter"",""1"",""9913""
","
","","","","","","2135.600000000093","images/cactus1.png","","","memory_trial","1","definitely_old","","","","","","",""
"html-keyboard-response","52","298317","0.0-15.0-0.5","1735","2","""event"",""trial"",""time""
""fullscreenenter"",""1"",""9913""
""blur"",""11"",""108375""
""focus"",""11"",""117399""
","""event"",""trial"",""time""
""blur"",""11"",""108375""
","""event"",""trial"",""time""
""focus"",""11"",""117399""
","""event"",""trial"",""time""
""fullscreenenter"",""1"",""9913""
","
","","","","","","null","<div style=""font-size:60px;"">+</div>","null","","fixation","","","","","","","","",""
"memory-trial","53","302778","0.0-15.0-1.5","1735","2","""event"",""trial"",""time""
""fullscreenenter"",""1"",""9913""
""blur"",""11"",""108375""
""focus"",""11"",""117399""
","""event"",""trial"",""time""
""blur"",""11"",""108375""
","""event"",""trial"",""time""
""focus"",""11"",""117399""
","""event"",""trial"",""time""
""fullscreenenter"",""1"",""9913""
","
","","","","","","3458.5","images/boat4.png","","","memory_trial","3","maybe_new","","","","","","",""
"html-keyboard-response","54","303281","0.0-15.0-0.6","1735","2","""event"",""trial"",""time""
""fullscreenenter"",""1"",""9913""
""blur"",""11"",""108375""
""focus"",""11"",""117399""
","""event"",""trial"",""time""
""blur"",""11"",""108375""
","""event"",""trial"",""time""
""focus"",""11"",""117399""
","""event"",""trial"",""time""
""fullscreenenter"",""1"",""9913""
","
","","","","","","null","<div style=""font-size:60px;"">+</div>","null","","fixation","","","","","","","","",""
"memory-trial","55","307516","0.0-15.0-1.6","1735","2","""event"",""trial"",""time""
""fullscreenenter"",""1"",""9913""
""blur"",""11"",""108375""
""focus"",""11"",""117399""
","""event"",""trial"",""time""
""blur"",""11"",""108375""
","""event"",""trial"",""time""
""focus"",""11"",""117399""
","""event"",""trial"",""time""
""fullscreenenter"",""1"",""9913""
","
","","","","","","3221.3000000000466","images/plane3.png","","","memory_trial","4","definitely_new","","","","","","",""
"html-keyboard-response","56","308017","0.0-15.0-0.7","1735","2","""event"",""trial"",""time""
""fullscreenenter"",""1"",""9913""
""blur"",""11"",""108375""
""focus"",""11"",""117399""
","""event"",""trial"",""time""
""blur"",""11"",""108375""
","""event"",""trial"",""time""
""focus"",""11"",""117399""
","""event"",""trial"",""time""
""fullscreenenter"",""1"",""9913""
","
","","","","","","null","<div style=""font-size:60px;"">+</div>","null","","fixation","","","","","","","","",""
"memory-trial","57","310594","0.0-15.0-1.7","1735","2","""event"",""trial"",""time""
""fullscreenenter"",""1"",""9913""
""blur"",""11"",""108375""
""focus"",""11"",""117399""
","""event"",""trial"",""time""
""blur"",""11"",""108375""
","""event"",""trial"",""time""
""focus"",""11"",""117399""
","""event"",""trial"",""time""
""fullscreenenter"",""1"",""9913""
","
","","","","","","1570.6999999999534","images/truck4.png","","","memory_trial","1","definitely_old","","","","","","",""
"html-keyboard-response","58","311097","0.0-15.0-0.8","1735","2","""event"",""trial"",""time""
""fullscreenenter"",""1"",""9913""
""blur"",""11"",""108375""
""focus"",""11"",""117399""
","""event"",""trial"",""time""
""blur"",""11"",""108375""
","""event"",""trial"",""time""
""focus"",""11"",""117399""
","""event"",""trial"",""time""
""fullscreenenter"",""1"",""9913""
","
","","","","","","null","<div style=""font-size:60px;"">+</div>","null","","fixation","","","","","","","","",""
"memory-trial","59","314152","0.0-15.0-1.8","1735","2","""event"",""trial"",""time""
""fullscreenenter"",""1"",""9913""
""blur"",""11"",""108375""
""focus"",""11"",""117399""
","""event"",""trial"",""time""
""blur"",""11"",""108375""
","""event"",""trial"",""time""
""focus"",""11"",""117399""
","""event"",""trial"",""time""
""fullscreenenter"",""1"",""9913""
","
","","","","","","2049.3000000000466","images/plane1.png","","","memory_trial","4","definitely_new","","","","","","",""
"html-keyboard-response","60","314654","0.0-15.0-0.9","1735","2","""event"",""trial"",""time""
""fullscreenenter"",""1"",""9913""
""blur"",""11"",""108375""
""focus"",""11"",""117399""
","""event"",""trial"",""time""
""blur"",""11"",""108375""
","""event"",""trial"",""time""
""focus"",""11"",""117399""
","""event"",""trial"",""time""
""fullscreenenter"",""1"",""9913""
","
","","","","","","null","<div style=""font-size:60px;"">+</div>","null","","fixation","","","","","","","","",""
"memory-trial","61","318266","0.0-15.0-1.9","1735","2","""event"",""trial"",""time""
""fullscreenenter"",""1"",""9913""
""blur"",""11"",""108375""
""focus"",""11"",""117399""
","""event"",""trial"",""time""
""blur"",""11"",""108375""
","""event"",""trial"",""time""
""focus"",""11"",""117399""
","""event"",""trial"",""time""
""fullscreenenter"",""1"",""9913""
","
","","","","","","2606.9000000001397","images/goat5.png","","","memory_trial","2","maybe_old","","","","","","",""
"html-keyboard-response","62","318768","0.0-15.0-0.10","1735","2","""event"",""trial"",""time""
""fullscreenenter"",""1"",""9913""
""blur"",""11"",""108375""
""focus"",""11"",""117399""
","""event"",""trial"",""time""
""blur"",""11"",""108375""
","""event"",""trial"",""time""
""focus"",""11"",""117399""
","""event"",""trial"",""time""
""fullscreenenter"",""1"",""9913""
","
","","","","","","null","<div style=""font-size:60px;"">+</div>","null","","fixation","","","","","","","","",""
"memory-trial","63","321048","0.0-15.0-1.10","1735","2","""event"",""trial"",""time""
""fullscreenenter"",""1"",""9913""
""blur"",""11"",""108375""
""focus"",""11"",""117399""
","""event"",""trial"",""time""
""blur"",""11"",""108375""
","""event"",""trial"",""time""
""focus"",""11"",""117399""
","""event"",""trial"",""time""
""fullscreenenter"",""1"",""9913""
","
","","","","","","1276.3000000000466","images/horse1.png","","","memory_trial","1","definitely_old","","","","","","",""
"html-keyboard-response","64","321551","0.0-15.0-0.11","1735","2","""event"",""trial"",""time""
""fullscreenenter"",""1"",""9913""
""blur"",""11"",""108375""
""focus"",""11"",""117399""
","""event"",""trial"",""time""
""blur"",""11"",""108375""
","""event"",""trial"",""time""
""focus"",""11"",""117399""
","""event"",""trial"",""time""
""fullscreenenter"",""1"",""9913""
","
","","","","","","null","<div style=""font-size:60px;"">+</div>","null","","fixation","","","","","","","","",""
"memory-trial","65","323375","0.0-15.0-1.11","1735","2","""event"",""trial"",""time""
""fullscreenenter"",""1"",""9913""
""blur"",""11"",""108375""
""focus"",""11"",""117399""
","""event"",""trial"",""time""
""blur"",""11"",""108375""
","""event"",""trial"",""time""
""focus"",""11"",""117399""
","""event"",""trial"",""time""
""fullscreenenter"",""1"",""9913""
","
","","","","","","820","images/sofa4.png","","","memory_trial","1","definitely_old","","","","","","",""
"html-keyboard-response","66","323877","0.0-15.0-0.12","1735","2","""event"",""trial"",""time""
""fullscreenenter"",""1"",""9913""
""blur"",""11"",""108375""
""focus"",""11"",""117399""
","""event"",""trial"",""time""
""blur"",""11"",""108375""
","""event"",""trial"",""time""
""focus"",""11"",""117399""
","""event"",""trial"",""time""
""fullscreenenter"",""1"",""9913""
","
","","","","","","null","<div style=""font-size:60px;"">+</div>","null","","fixation","","","","","","","","",""
"memory-trial","67","327058","0.0-15.0-1.12","1735","2","""event"",""trial"",""time""
""fullscreenenter"",""1"",""9913""
""blur"",""11"",""108375""
""focus"",""11"",""117399""
","""event"",""trial"",""time""
""blur"",""11"",""108375""
","""event"",""trial"",""time""
""focus"",""11"",""117399""
","""event"",""trial"",""time""
""fullscreenenter"",""1"",""9913""
","
","","","","","","2178.3000000000466","images/banana5.png","","","memory_trial","3","maybe_new","","","","","","",""
"html-keyboard-response","68","327560","0.0-15.0-0.13","1735","2","""event"",""trial"",""time""
""fullscreenenter"",""1"",""9913""
""blur"",""11"",""108375""
""focus"",""11"",""117399""
","""event"",""trial"",""time""
""blur"",""11"",""108375""
","""event"",""trial"",""time""
""focus"",""11"",""117399""
","""event"",""trial"",""time""
""fullscreenenter"",""1"",""9913""
","
","","","","","","null","<div style=""font-size:60px;"">+</div>","null","","fixation","","","","","","","","",""
"memory-trial","69","329873","0.0-15.0-1.13","1735","2","""event"",""trial"",""time""
""fullscreenenter"",""1"",""9913""
""blur"",""11"",""108375""
""focus"",""11"",""117399""
","""event"",""trial"",""time""
""blur"",""11"",""108375""
","""event"",""trial"",""time""
""focus"",""11"",""117399""
","""event"",""trial"",""time""
""fullscreenenter"",""1"",""9913""
","
","","","","","","1307.6999999999534","images/orange3.png","","","memory_trial","1","definitely_old","","","","","","",""
"html-keyboard-response","70","330377","0.0-15.0-0.14","1735","2","""event"",""trial"",""time""
""fullscreenenter"",""1"",""9913""
""blur"",""11"",""108375""
""focus"",""11"",""117399""
","""event"",""trial"",""time""
""blur"",""11"",""108375""
","""event"",""trial"",""time""
""focus"",""11"",""117399""
","""event"",""trial"",""time""
""fullscreenenter"",""1"",""9913""
","
","","","","","","null","<div style=""font-size:60px;"">+</div>","null","","fixation","","","","","","","","",""
"memory-trial","71","332559","0.0-15.0-1.14","1735","2","""event"",""trial"",""time""
""fullscreenenter"",""1"",""9913""
""blur"",""11"",""108375""
""focus"",""11"",""117399""
","""event"",""trial"",""time""
""blur"",""11"",""108375""
","""event"",""trial"",""time""
""focus"",""11"",""117399""
","""event"",""trial"",""time""
""fullscreenenter"",""1"",""9913""
","
","","","","","","1178","images/straw2.png","","","memory_trial","1","definitely_old","","","","","","",""
"html-keyboard-response","72","333061","0.0-15.0-0.15","1735","2","""event"",""trial"",""time""
""fullscreenenter"",""1"",""9913""
""blur"",""11"",""108375""
""focus"",""11"",""117399""
","""event"",""trial"",""time""
""blur"",""11"",""108375""
","""event"",""trial"",""time""
""focus"",""11"",""117399""
","""event"",""trial"",""time""
""fullscreenenter"",""1"",""9913""
","
","","","","","","null","<div style=""font-size:60px;"">+</div>","null","","fixation","","","","","","","","",""
"memory-trial","73","335669","0.0-15.0-1.15","1735","2","""event"",""trial"",""time""
""fullscreenenter"",""1"",""9913""
""blur"",""11"",""108375""
""focus"",""11"",""117399""
","""event"",""trial"",""time""
""blur"",""11"",""108375""
","""event"",""trial"",""time""
""focus"",""11"",""117399""
","""event"",""trial"",""time""
""fullscreenenter"",""1"",""9913""
","
","","","","","","1603.8000000000466","images/sheep1.png","","","memory_trial","3","maybe_new","","","","","","",""
"html-keyboard-response","74","336171","0.0-15.0-0.16","1735","2","""event"",""trial"",""time""
""fullscreenenter"",""1"",""9913""
""blur"",""11"",""108375""
""focus"",""11"",""117399""
","""event"",""trial"",""time""
""blur"",""11"",""108375""
","""event"",""trial"",""time""
""focus"",""11"",""117399""
","""event"",""trial"",""time""
""fullscreenenter"",""1"",""9913""
","
","","","","","","null","<div style=""font-size:60px;"">+</div>","null","","fixation","","","","","","","","",""
"memory-trial","75","338306","0.0-15.0-1.16","1735","2","""event"",""trial"",""time""
""fullscreenenter"",""1"",""9913""
""blur"",""11"",""108375""
""focus"",""11"",""117399""
","""event"",""trial"",""time""
""blur"",""11"",""108375""
","""event"",""trial"",""time""
""focus"",""11"",""117399""
","""event"",""trial"",""time""
""fullscreenenter"",""1"",""9913""
","
","","","","","","1124","images/dog3.png","","","memory_trial","1","definitely_old","","","","","","",""
"html-keyboard-response","76","338808","0.0-15.0-0.17","1735","2","""event"",""trial"",""time""
""fullscreenenter"",""1"",""9913""
""blur"",""11"",""108375""
""focus"",""11"",""117399""
","""event"",""trial"",""time""
""blur"",""11"",""108375""
","""event"",""trial"",""time""
""focus"",""11"",""117399""
","""event"",""trial"",""time""
""fullscreenenter"",""1"",""9913""
","
","","","","","","null","<div style=""font-size:60px;"">+</div>","null","","fixation","","","","","","","","",""
"memory-trial","77","344058","0.0-15.0-1.17","1735","2","""event"",""trial"",""time""
""fullscreenenter"",""1"",""9913""
""blur"",""11"",""108375""
""focus"",""11"",""117399""
","""event"",""trial"",""time""
""blur"",""11"",""108375""
","""event"",""trial"",""time""
""focus"",""11"",""117399""
","""event"",""trial"",""time""
""fullscreenenter"",""1"",""9913""
","
","","","","","","4245.5","images/sheep5.png","","","memory_trial","3","maybe_new","","","","","","",""
"html-keyboard-response","78","344560","0.0-15.0-0.18","1735","2","""event"",""trial"",""time""
""fullscreenenter"",""1"",""9913""
""blur"",""11"",""108375""
""focus"",""11"",""117399""
","""event"",""trial"",""time""
""blur"",""11"",""108375""
","""event"",""trial"",""time""
""focus"",""11"",""117399""
","""event"",""trial"",""time""
""fullscreenenter"",""1"",""9913""
","
","","","","","","null","<div style=""font-size:60px;"">+</div>","null","","fixation","","","","","","","","",""
"memory-trial","79","347062","0.0-15.0-1.18","1735","2","""event"",""trial"",""time""
""fullscreenenter"",""1"",""9913""
""blur"",""11"",""108375""
""focus"",""11"",""117399""
","""event"",""trial"",""time""
""blur"",""11"",""108375""
","""event"",""trial"",""time""
""focus"",""11"",""117399""
","""event"",""trial"",""time""
""fullscreenenter"",""1"",""9913""
","
","","","","","","1496.1000000000931","images/orange2.png","","","memory_trial","1","definitely_old","","","","","","",""
"html-keyboard-response","80","347564","0.0-15.0-0.19","1735","2","""event"",""trial"",""time""
""fullscreenenter"",""1"",""9913""
""blur"",""11"",""108375""
""focus"",""11"",""117399""
","""event"",""trial"",""time""
""blur"",""11"",""108375""
","""event"",""trial"",""time""
""focus"",""11"",""117399""
","""event"",""trial"",""time""
""fullscreenenter"",""1"",""9913""
","
","","","","","","null","<div style=""font-size:60px;"">+</div>","null","","fixation","","","","","","","","",""
"memory-trial","81","352916","0.0-15.0-1.19","1735","2","""event"",""trial"",""time""
""fullscreenenter"",""1"",""9913""
""blur"",""11"",""108375""
""focus"",""11"",""117399""
","""event"",""trial"",""time""
""blur"",""11"",""108375""
","""event"",""trial"",""time""
""focus"",""11"",""117399""
","""event"",""trial"",""time""
""fullscreenenter"",""1"",""9913""
","
","","","","","","4348.09999999986","images/tree5.png","","","memory_trial","3","maybe_new","","","","","","",""
"html-keyboard-response","82","353418","0.0-15.0-0.20","1735","2","""event"",""trial"",""time""
""fullscreenenter"",""1"",""9913""
""blur"",""11"",""108375""
""focus"",""11"",""117399""
","""event"",""trial"",""time""
""blur"",""11"",""108375""
","""event"",""trial"",""time""
""focus"",""11"",""117399""
","""event"",""trial"",""time""
""fullscreenenter"",""1"",""9913""
","
","","","","","","null","<div style=""font-size:60px;"">+</div>","null","","fixation","","","","","","","","",""
"memory-trial","83","355614","0.0-15.0-1.20","1735","2","""event"",""trial"",""time""
""fullscreenenter"",""1"",""9913""
""blur"",""11"",""108375""
""focus"",""11"",""117399""
","""event"",""trial"",""time""
""blur"",""11"",""108375""
","""event"",""trial"",""time""
""focus"",""11"",""117399""
","""event"",""trial"",""time""
""fullscreenenter"",""1"",""9913""
","
","","","","","","1191.3999999999069","images/train2.png","","","memory_trial","1","definitely_old","","","","","","",""
"html-keyboard-response","84","356117","0.0-15.0-0.21","1735","2","""event"",""trial"",""time""
""fullscreenenter"",""1"",""9913""
""blur"",""11"",""108375""
""focus"",""11"",""117399""
","""event"",""trial"",""time""
""blur"",""11"",""108375""
","""event"",""trial"",""time""
""focus"",""11"",""117399""
","""event"",""trial"",""time""
""fullscreenenter"",""1"",""9913""
","
","","","","","","null","<div style=""font-size:60px;"">+</div>","null","","fixation","","","","","","","","",""
"memory-trial","85","358189","0.0-15.0-1.21","1735","2","""event"",""trial"",""time""
""fullscreenenter"",""1"",""9913""
""blur"",""11"",""108375""
""focus"",""11"",""117399""
","""event"",""trial"",""time""
""blur"",""11"",""108375""
","""event"",""trial"",""time""
""focus"",""11"",""117399""
","""event"",""trial"",""time""
""fullscreenenter"",""1"",""9913""
","
","","","","","","1067.1000000000931","images/feline1.png","","","memory_trial","4","definitely_new","","","","","","",""
"html-keyboard-response","86","358692","0.0-15.0-0.22","1735","2","""event"",""trial"",""time""
""fullscreenenter"",""1"",""9913""
""blur"",""11"",""108375""
""focus"",""11"",""117399""
","""event"",""trial"",""time""
""blur"",""11"",""108375""
","""event"",""trial"",""time""
""focus"",""11"",""117399""
","""event"",""trial"",""time""
""fullscreenenter"",""1"",""9913""
","
","","","","","","null","<div style=""font-size:60px;"">+</div>","null","","fixation","","","","","","","","",""
"memory-trial","87","362304","0.0-15.0-1.22","1735","2","""event"",""trial"",""time""
""fullscreenenter"",""1"",""9913""
""blur"",""11"",""108375""
""focus"",""11"",""117399""
","""event"",""trial"",""time""
""blur"",""11"",""108375""
","""event"",""trial"",""time""
""focus"",""11"",""117399""
","""event"",""trial"",""time""
""fullscreenenter"",""1"",""9913""
","
","","","","","","2607.3000000000466","images/apple3.png","","","memory_trial","2","maybe_old","","","","","","",""
"html-keyboard-response","88","362806","0.0-15.0-0.23","1735","2","""event"",""trial"",""time""
""fullscreenenter"",""1"",""9913""
""blur"",""11"",""108375""
""focus"",""11"",""117399""
","""event"",""trial"",""time""
""blur"",""11"",""108375""
","""event"",""trial"",""time""
""focus"",""11"",""117399""
","""event"",""trial"",""time""
""fullscreenenter"",""1"",""9913""
","
","","","","","","null","<div style=""font-size:60px;"">+</div>","null","","fixation","","","","","","","","",""
"memory-trial","89","367480","0.0-15.0-1.23","1735","2","""event"",""trial"",""time""
""fullscreenenter"",""1"",""9913""
""blur"",""11"",""108375""
""focus"",""11"",""117399""
","""event"",""trial"",""time""
""blur"",""11"",""108375""
","""event"",""trial"",""time""
""focus"",""11"",""117399""
","""event"",""trial"",""time""
""fullscreenenter"",""1"",""9913""
","
","","","","","","3671.2999999998137","images/cactus3.png","","","memory_trial","3","maybe_new","","","","","","",""
"html-keyboard-response","90","367981","0.0-15.0-0.24","1735","2","""event"",""trial"",""time""
""fullscreenenter"",""1"",""9913""
""blur"",""11"",""108375""
""focus"",""11"",""117399""
","""event"",""trial"",""time""
""blur"",""11"",""108375""
","""event"",""trial"",""time""
""focus"",""11"",""117399""
","""event"",""trial"",""time""
""fullscreenenter"",""1"",""9913""
","
","","","","","","null","<div style=""font-size:60px;"">+</div>","null","","fixation","","","","","","","","",""
"memory-trial","91","370170","0.0-15.0-1.24","1735","2","""event"",""trial"",""time""
""fullscreenenter"",""1"",""9913""
""blur"",""11"",""108375""
""focus"",""11"",""117399""
","""event"",""trial"",""time""
""blur"",""11"",""108375""
","""event"",""trial"",""time""
""focus"",""11"",""117399""
","""event"",""trial"",""time""
""fullscreenenter"",""1"",""9913""
","
","","","","","","1183.6000000000931","images/rodent2.png","","","memory_trial","1","definitely_old","","","","","","",""
"html-keyboard-response","92","370672","0.0-15.0-0.25","1735","2","""event"",""trial"",""time""
""fullscreenenter"",""1"",""9913""
""blur"",""11"",""108375""
""focus"",""11"",""117399""
","""event"",""trial"",""time""
""blur"",""11"",""108375""
","""event"",""trial"",""time""
""focus"",""11"",""117399""
","""event"",""trial"",""time""
""fullscreenenter"",""1"",""9913""
","
","","","","","","null","<div style=""font-size:60px;"">+</div>","null","","fixation","","","","","","","","",""
"memory-trial","93","372674","0.0-15.0-1.25","1735","2","""event"",""trial"",""time""
""fullscreenenter"",""1"",""9913""
""blur"",""11"",""108375""
""focus"",""11"",""117399""
","""event"",""trial"",""time""
""blur"",""11"",""108375""
","""event"",""trial"",""time""
""focus"",""11"",""117399""
","""event"",""trial"",""time""
""fullscreenenter"",""1"",""9913""
","
","","","","","","996.4000000001397","images/horse3.png","","","memory_trial","1","definitely_old","","","","","","",""
"html-keyboard-response","94","373182","0.0-15.0-0.26","1735","2","""event"",""trial"",""time""
""fullscreenenter"",""1"",""9913""
""blur"",""11"",""108375""
""focus"",""11"",""117399""
","""event"",""trial"",""time""
""blur"",""11"",""108375""
","""event"",""trial"",""time""
""focus"",""11"",""117399""
","""event"",""trial"",""time""
""fullscreenenter"",""1"",""9913""
","
","","","","","","null","<div style=""font-size:60px;"">+</div>","null","","fixation","","","","","","","","",""
"memory-trial","95","375119","0.0-15.0-1.26","1735","2","""event"",""trial"",""time""
""fullscreenenter"",""1"",""9913""
""blur"",""11"",""108375""
""focus"",""11"",""117399""
","""event"",""trial"",""time""
""blur"",""11"",""108375""
","""event"",""trial"",""time""
""focus"",""11"",""117399""
","""event"",""trial"",""time""
""fullscreenenter"",""1"",""9913""
","
","","","","","","933.2000000001863","images/rodent1.png","","","memory_trial","1","definitely_old","","","","","","",""
"html-keyboard-response","96","375621","0.0-15.0-0.27","1735","2","""event"",""trial"",""time""
""fullscreenenter"",""1"",""9913""
""blur"",""11"",""108375""
""focus"",""11"",""117399""
","""event"",""trial"",""time""
""blur"",""11"",""108375""
","""event"",""trial"",""time""
""focus"",""11"",""117399""
","""event"",""trial"",""time""
""fullscreenenter"",""1"",""9913""
","
","","","","","","null","<div style=""font-size:60px;"">+</div>","null","","fixation","","","","","","","","",""
"memory-trial","97","379558","0.0-15.0-1.27","1735","2","""event"",""trial"",""time""
""fullscreenenter"",""1"",""9913""
""blur"",""11"",""108375""
""focus"",""11"",""117399""
","""event"",""trial"",""time""
""blur"",""11"",""108375""
","""event"",""trial"",""time""
""focus"",""11"",""117399""
","""event"",""trial"",""time""
""fullscreenenter"",""1"",""9913""
","
","","","","","","2932.600000000093","images/bush2.png","","","memory_trial","2","maybe_old","","","","","","",""
"html-keyboard-response","98","380060","0.0-15.0-0.28","1735","2","""event"",""trial"",""time""
""fullscreenenter"",""1"",""9913""
""blur"",""11"",""108375""
""focus"",""11"",""117399""
","""event"",""trial"",""time""
""blur"",""11"",""108375""
","""event"",""trial"",""time""
""focus"",""11"",""117399""
","""event"",""trial"",""time""
""fullscreenenter"",""1"",""9913""
","
","","","","","","null","<div style=""font-size:60px;"">+</div>","null","","fixation","","","","","","","","",""
"memory-trial","99","382328","0.0-15.0-1.28","1735","2","""event"",""trial"",""time""
""fullscreenenter"",""1"",""9913""
""blur"",""11"",""108375""
""focus"",""11"",""117399""
","""event"",""trial"",""time""
""blur"",""11"",""108375""
","""event"",""trial"",""time""
""focus"",""11"",""117399""
","""event"",""trial"",""time""
""fullscreenenter"",""1"",""9913""
","
","","","","","","1261.0999999998603","images/plane4.png","","","memory_trial","4","definitely_new","","","","","","",""
"html-keyboard-response","100","382830","0.0-15.0-0.29","1735","2","""event"",""trial"",""time""
""fullscreenenter"",""1"",""9913""
""blur"",""11"",""108375""
""focus"",""11"",""117399""
","""event"",""trial"",""time""
""blur"",""11"",""108375""
","""event"",""trial"",""time""
""focus"",""11"",""117399""
","""event"",""trial"",""time""
""fullscreenenter"",""1"",""9913""
","
","","","","","","null","<div style=""font-size:60px;"">+</div>","null","","fixation","","","","","","","","",""
"memory-trial","101","385731","0.0-15.0-1.29","1735","2","""event"",""trial"",""time""
""fullscreenenter"",""1"",""9913""
""blur"",""11"",""108375""
""focus"",""11"",""117399""
","""event"",""trial"",""time""
""blur"",""11"",""108375""
","""event"",""trial"",""time""
""focus"",""11"",""117399""
","""event"",""trial"",""time""
""fullscreenenter"",""1"",""9913""
","
","","","","","","1895.8000000000466","images/dog5.png","","","memory_trial","1","definitely_old","","","","","","",""
"html-keyboard-response","102","386236","0.0-15.0-0.30","1735","2","""event"",""trial"",""time""
""fullscreenenter"",""1"",""9913""
""blur"",""11"",""108375""
""focus"",""11"",""117399""
","""event"",""trial"",""time""
""blur"",""11"",""108375""
","""event"",""trial"",""time""
""focus"",""11"",""117399""
","""event"",""trial"",""time""
""fullscreenenter"",""1"",""9913""
","
","","","","","","null","<div style=""font-size:60px;"">+</div>","null","","fixation","","","","","","","","",""
"memory-trial","103","391477","0.0-15.0-1.30","1735","2","""event"",""trial"",""time""
""fullscreenenter"",""1"",""9913""
""blur"",""11"",""108375""
""focus"",""11"",""117399""
","""event"",""trial"",""time""
""blur"",""11"",""108375""
","""event"",""trial"",""time""
""focus"",""11"",""117399""
","""event"",""trial"",""time""
""fullscreenenter"",""1"",""9913""
","
","","","","","","4237.199999999953","images/straw3.png","","","memory_trial","1","definitely_old","","","","","","",""
"html-keyboard-response","104","391978","0.0-15.0-0.31","1735","2","""event"",""trial"",""time""
""fullscreenenter"",""1"",""9913""
""blur"",""11"",""108375""
""focus"",""11"",""117399""
","""event"",""trial"",""time""
""blur"",""11"",""108375""
","""event"",""trial"",""time""
""focus"",""11"",""117399""
","""event"",""trial"",""time""
""fullscreenenter"",""1"",""9913""
","
","","","","","","null","<div style=""font-size:60px;"">+</div>","null","","fixation","","","","","","","","",""
"memory-trial","105","394582","0.0-15.0-1.31","1735","2","""event"",""trial"",""time""
""fullscreenenter"",""1"",""9913""
""blur"",""11"",""108375""
""focus"",""11"",""117399""
","""event"",""trial"",""time""
""blur"",""11"",""108375""
","""event"",""trial"",""time""
""focus"",""11"",""117399""
","""event"",""trial"",""time""
""fullscreenenter"",""1"",""9913""
","
","","","","","","1600.1000000000931","images/feline5.png","","","memory_trial","4","definitely_new","","","","","","",""
"html-keyboard-response","106","395084","0.0-15.0-0.32","1735","2","""event"",""trial"",""time""
""fullscreenenter"",""1"",""9913""
""blur"",""11"",""108375""
""focus"",""11"",""117399""
","""event"",""trial"",""time""
""blur"",""11"",""108375""
","""event"",""trial"",""time""
""focus"",""11"",""117399""
","""event"",""trial"",""time""
""fullscreenenter"",""1"",""9913""
","
","","","","","","null","<div style=""font-size:60px;"">+</div>","null","","fixation","","","","","","","","",""
"memory-trial","107","397210","0.0-15.0-1.32","1735","2","""event"",""trial"",""time""
""fullscreenenter"",""1"",""9913""
""blur"",""11"",""108375""
""focus"",""11"",""117399""
","""event"",""trial"",""time""
""blur"",""11"",""108375""
","""event"",""trial"",""time""
""focus"",""11"",""117399""
","""event"",""trial"",""time""
""fullscreenenter"",""1"",""9913""
","
","","","","","","1120.5","images/bed4.png","","","memory_trial","1","definitely_old","","","","","","",""
"html-keyboard-response","108","397712","0.0-15.0-0.33","1735","2","""event"",""trial"",""time""
""fullscreenenter"",""1"",""9913""
""blur"",""11"",""108375""
""focus"",""11"",""117399""
","""event"",""trial"",""time""
""blur"",""11"",""108375""
","""event"",""trial"",""time""
""focus"",""11"",""117399""
","""event"",""trial"",""time""
""fullscreenenter"",""1"",""9913""
","
","","","","","","null","<div style=""font-size:60px;"">+</div>","null","","fixation","","","","","","","","",""
"memory-trial","109","399975","0.0-15.0-1.33","1735","2","""event"",""trial"",""time""
""fullscreenenter"",""1"",""9913""
""blur"",""11"",""108375""
""focus"",""11"",""117399""
","""event"",""trial"",""time""
""blur"",""11"",""108375""
","""event"",""trial"",""time""
""focus"",""11"",""117399""
","""event"",""trial"",""time""
""fullscreenenter"",""1"",""9913""
","
","","","","","","1258.7000000001863","images/orange1.png","","","memory_trial","1","definitely_old","","","","","","",""
"html-keyboard-response","110","400477","0.0-15.0-0.34","1735","2","""event"",""trial"",""time""
""fullscreenenter"",""1"",""9913""
""blur"",""11"",""108375""
""focus"",""11"",""117399""
","""event"",""trial"",""time""
""blur"",""11"",""108375""
","""event"",""trial"",""time""
""focus"",""11"",""117399""
","""event"",""trial"",""time""
""fullscreenenter"",""1"",""9913""
","
","","","","","","null","<div style=""font-size:60px;"">+</div>","null","","fixation","","","","","","","","",""
"memory-trial","111","403984","0.0-15.0-1.34","1735","2","""event"",""trial"",""time""
""fullscreenenter"",""1"",""9913""
""blur"",""11"",""108375""
""focus"",""11"",""117399""
","""event"",""trial"",""time""
""blur"",""11"",""108375""
","""event"",""trial"",""time""
""focus"",""11"",""117399""
","""event"",""trial"",""time""
""fullscreenenter"",""1"",""9913""
","
","","","","","","2503.9000000001397","images/table2.png","","","memory_trial","4","definitely_new","","","","","","",""
"html-keyboard-response","112","404488","0.0-15.0-0.35","1735","2","""event"",""trial"",""time""
""fullscreenenter"",""1"",""9913""
""blur"",""11"",""108375""
""focus"",""11"",""117399""
","""event"",""trial"",""time""
""blur"",""11"",""108375""
","""event"",""trial"",""time""
""focus"",""11"",""117399""
","""event"",""trial"",""time""
""fullscreenenter"",""1"",""9913""
","
","","","","","","null","<div style=""font-size:60px;"">+</div>","null","","fixation","","","","","","","","",""
"memory-trial","113","406590","0.0-15.0-1.35","1735","2","""event"",""trial"",""time""
""fullscreenenter"",""1"",""9913""
""blur"",""11"",""108375""
""focus"",""11"",""117399""
","""event"",""trial"",""time""
""blur"",""11"",""108375""
","""event"",""trial"",""time""
""focus"",""11"",""117399""
","""event"",""trial"",""time""
""fullscreenenter"",""1"",""9913""
","
","","","","","","1097.5","images/sofa2.png","","","memory_trial","1","definitely_old","","","","","","",""
"html-keyboard-response","114","407093","0.0-15.0-0.36","1735","2","""event"",""trial"",""time""
""fullscreenenter"",""1"",""9913""
""blur"",""11"",""108375""
""focus"",""11"",""117399""
","""event"",""trial"",""time""
""blur"",""11"",""108375""
","""event"",""trial"",""time""
""focus"",""11"",""117399""
","""event"",""trial"",""time""
""fullscreenenter"",""1"",""9913""
","
","","","","","","null","<div style=""font-size:60px;"">+</div>","null","","fixation","","","","","","","","",""
"memory-trial","115","411007","0.0-15.0-1.36","1735","2","""event"",""trial"",""time""
""fullscreenenter"",""1"",""9913""
""blur"",""11"",""108375""
""focus"",""11"",""117399""
","""event"",""trial"",""time""
""blur"",""11"",""108375""
","""event"",""trial"",""time""
""focus"",""11"",""117399""
","""event"",""trial"",""time""
""fullscreenenter"",""1"",""9913""
","
","","","","","","2908.5999999998603","images/goat1.png","","","memory_trial","1","definitely_old","","","","","","",""
"html-keyboard-response","116","411509","0.0-15.0-0.37","1735","2","""event"",""trial"",""time""
""fullscreenenter"",""1"",""9913""
""blur"",""11"",""108375""
""focus"",""11"",""117399""
","""event"",""trial"",""time""
""blur"",""11"",""108375""
","""event"",""trial"",""time""
""focus"",""11"",""117399""
","""event"",""trial"",""time""
""fullscreenenter"",""1"",""9913""
","
","","","","","","null","<div style=""font-size:60px;"">+</div>","null","","fixation","","","","","","","","",""
"memory-trial","117","413708","0.0-15.0-1.37","1735","2","""event"",""trial"",""time""
""fullscreenenter"",""1"",""9913""
""blur"",""11"",""108375""
""focus"",""11"",""117399""
","""event"",""trial"",""time""
""blur"",""11"",""108375""
","""event"",""trial"",""time""
""focus"",""11"",""117399""
","""event"",""trial"",""time""
""fullscreenenter"",""1"",""9913""
","
","","","","","","1193.1999999999534","images/chair1.png","","","memory_trial","1","definitely_old","","","","","","",""
"html-keyboard-response","118","414210","0.0-15.0-0.38","1735","2","""event"",""trial"",""time""
""fullscreenenter"",""1"",""9913""
""blur"",""11"",""108375""
""focus"",""11"",""117399""
","""event"",""trial"",""time""
""blur"",""11"",""108375""
","""event"",""trial"",""time""
""focus"",""11"",""117399""
","""event"",""trial"",""time""
""fullscreenenter"",""1"",""9913""
","
","","","","","","null","<div style=""font-size:60px;"">+</div>","null","","fixation","","","","","","","","",""
"memory-trial","119","416357","0.0-15.0-1.38","1735","2","""event"",""trial"",""time""
""fullscreenenter"",""1"",""9913""
""blur"",""11"",""108375""
""focus"",""11"",""117399""
","""event"",""trial"",""time""
""blur"",""11"",""108375""
","""event"",""trial"",""time""
""focus"",""11"",""117399""
","""event"",""trial"",""time""
""fullscreenenter"",""1"",""9913""
","
","","","","","","1144.7000000001863","images/rabbit4.png","","","memory_trial","1","definitely_old","","","","","","",""
"html-keyboard-response","120","416859","0.0-15.0-0.39","1735","2","""event"",""trial"",""time""
""fullscreenenter"",""1"",""9913""
""blur"",""11"",""108375""
""focus"",""11"",""117399""
","""event"",""trial"",""time""
""blur"",""11"",""108375""
","""event"",""trial"",""time""
""focus"",""11"",""117399""
","""event"",""trial"",""time""
""fullscreenenter"",""1"",""9913""
","
","","","","","","null","<div style=""font-size:60px;"">+</div>","null","","fixation","","","","","","","","",""
"memory-trial","121","420495","0.0-15.0-1.39","1735","2","""event"",""trial"",""time""
""fullscreenenter"",""1"",""9913""
""blur"",""11"",""108375""
""focus"",""11"",""117399""
","""event"",""trial"",""time""
""blur"",""11"",""108375""
","""event"",""trial"",""time""
""focus"",""11"",""117399""
","""event"",""trial"",""time""
""fullscreenenter"",""1"",""9913""
","
","","","","","","2633.0999999998603","images/sofa3.png","","","memory_trial","3","maybe_new","","","","","","",""
"html-keyboard-response","122","420997","0.0-15.0-0.40","1735","2","""event"",""trial"",""time""
""fullscreenenter"",""1"",""9913""
""blur"",""11"",""108375""
""focus"",""11"",""117399""
","""event"",""trial"",""time""
""blur"",""11"",""108375""
","""event"",""trial"",""time""
""focus"",""11"",""117399""
","""event"",""trial"",""time""
""fullscreenenter"",""1"",""9913""
","
","","","","","","null","<div style=""font-size:60px;"">+</div>","null","","fixation","","","","","","","","",""
"memory-trial","123","425893","0.0-15.0-1.40","1735","2","""event"",""trial"",""time""
""fullscreenenter"",""1"",""9913""
""blur"",""11"",""108375""
""focus"",""11"",""117399""
","""event"",""trial"",""time""
""blur"",""11"",""108375""
","""event"",""trial"",""time""
""focus"",""11"",""117399""
","""event"",""trial"",""time""
""fullscreenenter"",""1"",""9913""
","
","","","","","","3890.2000000001863","images/flower1.png","","","memory_trial","4","definitely_new","","","","","","",""
"html-keyboard-response","124","426395","0.0-15.0-0.41","1735","2","""event"",""trial"",""time""
""fullscreenenter"",""1"",""9913""
""blur"",""11"",""108375""
""focus"",""11"",""117399""
","""event"",""trial"",""time""
""blur"",""11"",""108375""
","""event"",""trial"",""time""
""focus"",""11"",""117399""
","""event"",""trial"",""time""
""fullscreenenter"",""1"",""9913""
","
","","","","","","null","<div style=""font-size:60px;"">+</div>","null","","fixation","","","","","","","","",""
"memory-trial","125","429061","0.0-15.0-1.41","1735","2","""event"",""trial"",""time""
""fullscreenenter"",""1"",""9913""
""blur"",""11"",""108375""
""focus"",""11"",""117399""
","""event"",""trial"",""time""
""blur"",""11"",""108375""
","""event"",""trial"",""time""
""focus"",""11"",""117399""
","""event"",""trial"",""time""
""fullscreenenter"",""1"",""9913""
","
","","","","","","1659.9000000001397","images/train5.png","","","memory_trial","1","definitely_old","","","","","","",""
"html-keyboard-response","126","429564","0.0-15.0-0.42","1735","2","""event"",""trial"",""time""
""fullscreenenter"",""1"",""9913""
""blur"",""11"",""108375""
""focus"",""11"",""117399""
","""event"",""trial"",""time""
""blur"",""11"",""108375""
","""event"",""trial"",""time""
""focus"",""11"",""117399""
","""event"",""trial"",""time""
""fullscreenenter"",""1"",""9913""
","
","","","","","","null","<div style=""font-size:60px;"">+</div>","null","","fixation","","","","","","","","",""
"memory-trial","127","432915","0.0-15.0-1.42","1735","2","""event"",""trial"",""time""
""fullscreenenter"",""1"",""9913""
""blur"",""11"",""108375""
""focus"",""11"",""117399""
","""event"",""trial"",""time""
""blur"",""11"",""108375""
","""event"",""trial"",""time""
""focus"",""11"",""117399""
","""event"",""trial"",""time""
""fullscreenenter"",""1"",""9913""
","
","","","","","","2344.600000000093","images/banana2.png","","","memory_trial","4","definitely_new","","","","","","",""
"html-keyboard-response","128","433418","0.0-15.0-0.43","1735","2","""event"",""trial"",""time""
""fullscreenenter"",""1"",""9913""
""blur"",""11"",""108375""
""focus"",""11"",""117399""
","""event"",""trial"",""time""
""blur"",""11"",""108375""
","""event"",""trial"",""time""
""focus"",""11"",""117399""
","""event"",""trial"",""time""
""fullscreenenter"",""1"",""9913""
","
","","","","","","null","<div style=""font-size:60px;"">+</div>","null","","fixation","","","","","","","","",""
"memory-trial","129","436405","0.0-15.0-1.43","1735","2","""event"",""trial"",""time""
""fullscreenenter"",""1"",""9913""
""blur"",""11"",""108375""
""focus"",""11"",""117399""
","""event"",""trial"",""time""
""blur"",""11"",""108375""
","""event"",""trial"",""time""
""focus"",""11"",""117399""
","""event"",""trial"",""time""
""fullscreenenter"",""1"",""9913""
","
","","","","","","1983.1999999999534","images/horse2.png","","","memory_trial","1","definitely_old","","","","","","",""
"html-keyboard-response","130","436919","0.0-15.0-0.44","1735","2","""event"",""trial"",""time""
""fullscreenenter"",""1"",""9913""
""blur"",""11"",""108375""
""focus"",""11"",""117399""
","""event"",""trial"",""time""
""blur"",""11"",""108375""
","""event"",""trial"",""time""
""focus"",""11"",""117399""
","""event"",""trial"",""time""
""fullscreenenter"",""1"",""9913""
","
","","","","","","null","<div style=""font-size:60px;"">+</div>","null","","fixation","","","","","","","","",""
"memory-trial","131","440641","0.0-15.0-1.44","1735","2","""event"",""trial"",""time""
""fullscreenenter"",""1"",""9913""
""blur"",""11"",""108375""
""focus"",""11"",""117399""
","""event"",""trial"",""time""
""blur"",""11"",""108375""
","""event"",""trial"",""time""
""focus"",""11"",""117399""
","""event"",""trial"",""time""
""fullscreenenter"",""1"",""9913""
","
","","","","","","2716.8000000002794","images/bed5.png","","","memory_trial","1","definitely_old","","","","","","",""
"html-keyboard-response","132","441144","0.0-15.0-0.45","1735","2","""event"",""trial"",""time""
""fullscreenenter"",""1"",""9913""
""blur"",""11"",""108375""
""focus"",""11"",""117399""
","""event"",""trial"",""time""
""blur"",""11"",""108375""
","""event"",""trial"",""time""
""focus"",""11"",""117399""
","""event"",""trial"",""time""
""fullscreenenter"",""1"",""9913""
","
","","","","","","null","<div style=""font-size:60px;"">+</div>","null","","fixation","","","","","","","","",""
"memory-trial","133","446791","0.0-15.0-1.45","1735","2","""event"",""trial"",""time""
""fullscreenenter"",""1"",""9913""
""blur"",""11"",""108375""
""focus"",""11"",""117399""
","""event"",""trial"",""time""
""blur"",""11"",""108375""
","""event"",""trial"",""time""
""focus"",""11"",""117399""
","""event"",""trial"",""time""
""fullscreenenter"",""1"",""9913""
","
","","","","","","4642.5","images/straw4.png","","","memory_trial","2","maybe_old","","","","","","",""
"html-keyboard-response","134","447292","0.0-15.0-0.46","1735","2","""event"",""trial"",""time""
""fullscreenenter"",""1"",""9913""
""blur"",""11"",""108375""
""focus"",""11"",""117399""
","""event"",""trial"",""time""
""blur"",""11"",""108375""
","""event"",""trial"",""time""
""focus"",""11"",""117399""
","""event"",""trial"",""time""
""fullscreenenter"",""1"",""9913""
","
","","","","","","null","<div style=""font-size:60px;"">+</div>","null","","fixation","","","","","","","","",""
"memory-trial","135","451061","0.0-15.0-1.46","1735","2","""event"",""trial"",""time""
""fullscreenenter"",""1"",""9913""
""blur"",""11"",""108375""
""focus"",""11"",""117399""
""blur"",""136"",""525210""
""focus"",""136"",""556584""
","""event"",""trial"",""time""
""blur"",""11"",""108375""
""blur"",""136"",""525210""
","""event"",""trial"",""time""
""focus"",""11"",""117399""
""focus"",""136"",""556584""
","""event"",""trial"",""time""
""fullscreenenter"",""1"",""9913""
","
","","","","","","2766.7000000001863","images/bed1.png","","","memory_trial","1","definitely_old","","","","","","",""
"html-button-response","136","558991","0.0-15.0-2.46-0.46","1735","2","""event"",""trial"",""time""
""fullscreenenter"",""1"",""9913""
""blur"",""11"",""108375""
""focus"",""11"",""117399""
""blur"",""136"",""525210""
""focus"",""136"",""556584""
","""event"",""trial"",""time""
""blur"",""11"",""108375""
""blur"",""136"",""525210""
","""event"",""trial"",""time""
""focus"",""11"",""117399""
""focus"",""136"",""556584""
","""event"",""trial"",""time""
""fullscreenenter"",""1"",""9913""
","
","","","","","","107929.79999999981","<p> Take a break! </p><p> Click the button to continue. </p>","0","","break","","","","","","","","",""
"html-keyboard-response","137","559493","0.0-15.0-0.47","1735","2","""event"",""trial"",""time""
""fullscreenenter"",""1"",""9913""
""blur"",""11"",""108375""
""focus"",""11"",""117399""
""blur"",""136"",""525210""
""focus"",""136"",""556584""
","""event"",""trial"",""time""
""blur"",""11"",""108375""
""blur"",""136"",""525210""
","""event"",""trial"",""time""
""focus"",""11"",""117399""
""focus"",""136"",""556584""
","""event"",""trial"",""time""
""fullscreenenter"",""1"",""9913""
","
","","","","","","null","<div style=""font-size:60px;"">+</div>","null","","fixation","","","","","","","","",""
"memory-trial","138","564607","0.0-15.0-1.47","1735","2","""event"",""trial"",""time""
""fullscreenenter"",""1"",""9913""
""blur"",""11"",""108375""
""focus"",""11"",""117399""
""blur"",""136"",""525210""
""focus"",""136"",""556584""
","""event"",""trial"",""time""
""blur"",""11"",""108375""
""blur"",""136"",""525210""
","""event"",""trial"",""time""
""focus"",""11"",""117399""
""focus"",""136"",""556584""
","""event"",""trial"",""time""
""fullscreenenter"",""1"",""9913""
","
","","","","","","4104.899999999907","images/rodent3.png","","","memory_trial","1","definitely_old","","","","","","",""
"html-keyboard-response","139","565109","0.0-15.0-0.48","1735","2","""event"",""trial"",""time""
""fullscreenenter"",""1"",""9913""
""blur"",""11"",""108375""
""focus"",""11"",""117399""
""blur"",""136"",""525210""
""focus"",""136"",""556584""
","""event"",""trial"",""time""
""blur"",""11"",""108375""
""blur"",""136"",""525210""
","""event"",""trial"",""time""
""focus"",""11"",""117399""
""focus"",""136"",""556584""
","""event"",""trial"",""time""
""fullscreenenter"",""1"",""9913""
","
","","","","","","null","<div style=""font-size:60px;"">+</div>","null","","fixation","","","","","","","","",""
"memory-trial","140","570156","0.0-15.0-1.48","1735","2","""event"",""trial"",""time""
""fullscreenenter"",""1"",""9913""
""blur"",""11"",""108375""
""focus"",""11"",""117399""
""blur"",""136"",""525210""
""focus"",""136"",""556584""
","""event"",""trial"",""time""
""blur"",""11"",""108375""
""blur"",""136"",""525210""
","""event"",""trial"",""time""
""focus"",""11"",""117399""
""focus"",""136"",""556584""
","""event"",""trial"",""time""
""fullscreenenter"",""1"",""9913""
","
","","","","","","4043.600000000093","images/orange4.png","","","memory_trial","1","definitely_old","","","","","","",""
"html-keyboard-response","141","570657","0.0-15.0-0.49","1735","2","""event"",""trial"",""time""
""fullscreenenter"",""1"",""9913""
""blur"",""11"",""108375""
""focus"",""11"",""117399""
""blur"",""136"",""525210""
""focus"",""136"",""556584""
","""event"",""trial"",""time""
""blur"",""11"",""108375""
""blur"",""136"",""525210""
","""event"",""trial"",""time""
""focus"",""11"",""117399""
""focus"",""136"",""556584""
","""event"",""trial"",""time""
""fullscreenenter"",""1"",""9913""
","
","","","","","","null","<div style=""font-size:60px;"">+</div>","null","","fixation","","","","","","","","",""
"memory-trial","142","572358","0.0-15.0-1.49","1735","2","""event"",""trial"",""time""
""fullscreenenter"",""1"",""9913""
""blur"",""11"",""108375""
""focus"",""11"",""117399""
""blur"",""136"",""525210""
""focus"",""136"",""556584""
","""event"",""trial"",""time""
""blur"",""11"",""108375""
""blur"",""136"",""525210""
","""event"",""trial"",""time""
""focus"",""11"",""117399""
""focus"",""136"",""556584""
","""event"",""trial"",""time""
""fullscreenenter"",""1"",""9913""
","
","","","","","","697.3000000002794","images/bed2.png","","","memory_trial","1","definitely_old","","","","","","",""
"html-keyboard-response","143","572860","0.0-15.0-0.50","1735","2","""event"",""trial"",""time""
""fullscreenenter"",""1"",""9913""
""blur"",""11"",""108375""
""focus"",""11"",""117399""
""blur"",""136"",""525210""
""focus"",""136"",""556584""
","""event"",""trial"",""time""
""blur"",""11"",""108375""
""blur"",""136"",""525210""
","""event"",""trial"",""time""
""focus"",""11"",""117399""
""focus"",""136"",""556584""
","""event"",""trial"",""time""
""fullscreenenter"",""1"",""9913""
","
","","","","","","null","<div style=""font-size:60px;"">+</div>","null","","fixation","","","","","","","","",""
"memory-trial","144","574747","0.0-15.0-1.50","1735","2","""event"",""trial"",""time""
""fullscreenenter"",""1"",""9913""
""blur"",""11"",""108375""
""focus"",""11"",""117399""
""blur"",""136"",""525210""
""focus"",""136"",""556584""
","""event"",""trial"",""time""
""blur"",""11"",""108375""
""blur"",""136"",""525210""
","""event"",""trial"",""time""
""focus"",""11"",""117399""
""focus"",""136"",""556584""
","""event"",""trial"",""time""
""fullscreenenter"",""1"",""9913""
","
","","","","","","884.3000000002794","images/rodent5.png","","","memory_trial","1","definitely_old","","","","","","",""
"html-keyboard-response","145","575248","0.0-15.0-0.51","1735","2","""event"",""trial"",""time""
""fullscreenenter"",""1"",""9913""
""blur"",""11"",""108375""
""focus"",""11"",""117399""
""blur"",""136"",""525210""
""focus"",""136"",""556584""
","""event"",""trial"",""time""
""blur"",""11"",""108375""
""blur"",""136"",""525210""
","""event"",""trial"",""time""
""focus"",""11"",""117399""
""focus"",""136"",""556584""
","""event"",""trial"",""time""
""fullscreenenter"",""1"",""9913""
","
","","","","","","null","<div style=""font-size:60px;"">+</div>","null","","fixation","","","","","","","","",""
"memory-trial","146","578057","0.0-15.0-1.51","1735","2","""event"",""trial"",""time""
""fullscreenenter"",""1"",""9913""
""blur"",""11"",""108375""
""focus"",""11"",""117399""
""blur"",""136"",""525210""
""focus"",""136"",""556584""
","""event"",""trial"",""time""
""blur"",""11"",""108375""
""blur"",""136"",""525210""
","""event"",""trial"",""time""
""focus"",""11"",""117399""
""focus"",""136"",""556584""
","""event"",""trial"",""time""
""fullscreenenter"",""1"",""9913""
","
","","","","","","1805.6000000000931","images/feline3.png","","","memory_trial","3","maybe_new","","","","","","",""
"html-keyboard-response","147","578560","0.0-15.0-0.52","1735","2","""event"",""trial"",""time""
""fullscreenenter"",""1"",""9913""
""blur"",""11"",""108375""
""focus"",""11"",""117399""
""blur"",""136"",""525210""
""focus"",""136"",""556584""
","""event"",""trial"",""time""
""blur"",""11"",""108375""
""blur"",""136"",""525210""
","""event"",""trial"",""time""
""focus"",""11"",""117399""
""focus"",""136"",""556584""
","""event"",""trial"",""time""
""fullscreenenter"",""1"",""9913""
","
","","","","","","null","<div style=""font-size:60px;"">+</div>","null","","fixation","","","","","","","","",""
"memory-trial","148","583742","0.0-15.0-1.52","1735","2","""event"",""trial"",""time""
""fullscreenenter"",""1"",""9913""
""blur"",""11"",""108375""
""focus"",""11"",""117399""
""blur"",""136"",""525210""
""focus"",""136"",""556584""
","""event"",""trial"",""time""
""blur"",""11"",""108375""
""blur"",""136"",""525210""
","""event"",""trial"",""time""
""focus"",""11"",""117399""
""focus"",""136"",""556584""
","""event"",""trial"",""time""
""fullscreenenter"",""1"",""9913""
","
","","","","","","4178.5","images/apple5.png","","","memory_trial","1","definitely_old","","","","","","",""
"html-keyboard-response","149","584244","0.0-15.0-0.53","1735","2","""event"",""trial"",""time""
""fullscreenenter"",""1"",""9913""
""blur"",""11"",""108375""
""focus"",""11"",""117399""
""blur"",""136"",""525210""
""focus"",""136"",""556584""
","""event"",""trial"",""time""
""blur"",""11"",""108375""
""blur"",""136"",""525210""
","""event"",""trial"",""time""
""focus"",""11"",""117399""
""focus"",""136"",""556584""
","""event"",""trial"",""time""
""fullscreenenter"",""1"",""9913""
","
","","","","","","null","<div style=""font-size:60px;"">+</div>","null","","fixation","","","","","","","","",""
"memory-trial","150","587561","0.0-15.0-1.53","1735","2","""event"",""trial"",""time""
""fullscreenenter"",""1"",""9913""
""blur"",""11"",""108375""
""focus"",""11"",""117399""
""blur"",""136"",""525210""
""focus"",""136"",""556584""
","""event"",""trial"",""time""
""blur"",""11"",""108375""
""blur"",""136"",""525210""
","""event"",""trial"",""time""
""focus"",""11"",""117399""
""focus"",""136"",""556584""
","""event"",""trial"",""time""
""fullscreenenter"",""1"",""9913""
","
","","","","","","2313","images/feline4.png","","","memory_trial","4","definitely_new","","","","","","",""
"html-keyboard-response","151","588063","0.0-15.0-0.54","1735","2","""event"",""trial"",""time""
""fullscreenenter"",""1"",""9913""
""blur"",""11"",""108375""
""focus"",""11"",""117399""
""blur"",""136"",""525210""
""focus"",""136"",""556584""
","""event"",""trial"",""time""
""blur"",""11"",""108375""
""blur"",""136"",""525210""
","""event"",""trial"",""time""
""focus"",""11"",""117399""
""focus"",""136"",""556584""
","""event"",""trial"",""time""
""fullscreenenter"",""1"",""9913""
","
","","","","","","null","<div style=""font-size:60px;"">+</div>","null","","fixation","","","","","","","","",""
"memory-trial","152","591028","0.0-15.0-1.54","1735","2","""event"",""trial"",""time""
""fullscreenenter"",""1"",""9913""
""blur"",""11"",""108375""
""focus"",""11"",""117399""
""blur"",""136"",""525210""
""focus"",""136"",""556584""
","""event"",""trial"",""time""
""blur"",""11"",""108375""
""blur"",""136"",""525210""
","""event"",""trial"",""time""
""focus"",""11"",""117399""
""focus"",""136"",""556584""
","""event"",""trial"",""time""
""fullscreenenter"",""1"",""9913""
","
","","","","","","1954.1000000000931","images/banana1.png","","","memory_trial","3","maybe_new","","","","","","",""
"html-keyboard-response","153","591532","0.0-15.0-0.55","1735","2","""event"",""trial"",""time""
""fullscreenenter"",""1"",""9913""
""blur"",""11"",""108375""
""focus"",""11"",""117399""
""blur"",""136"",""525210""
""focus"",""136"",""556584""
","""event"",""trial"",""time""
""blur"",""11"",""108375""
""blur"",""136"",""525210""
","""event"",""trial"",""time""
""focus"",""11"",""117399""
""focus"",""136"",""556584""
","""event"",""trial"",""time""
""fullscreenenter"",""1"",""9913""
","
","","","","","","null","<div style=""font-size:60px;"">+</div>","null","","fixation","","","","","","","","",""
"memory-trial","154","595312","0.0-15.0-1.55","1735","2","""event"",""trial"",""time""
""fullscreenenter"",""1"",""9913""
""blur"",""11"",""108375""
""focus"",""11"",""117399""
""blur"",""136"",""525210""
""focus"",""136"",""556584""
","""event"",""trial"",""time""
""blur"",""11"",""108375""
""blur"",""136"",""525210""
","""event"",""trial"",""time""
""focus"",""11"",""117399""
""focus"",""136"",""556584""
","""event"",""trial"",""time""
""fullscreenenter"",""1"",""9913""
","
","","","","","","2777.899999999907","images/goat4.png","","","memory_trial","2","maybe_old","","","","","","",""
"html-keyboard-response","155","595814","0.0-15.0-0.56","1735","2","""event"",""trial"",""time""
""fullscreenenter"",""1"",""9913""
""blur"",""11"",""108375""
""focus"",""11"",""117399""
""blur"",""136"",""525210""
""focus"",""136"",""556584""
","""event"",""trial"",""time""
""blur"",""11"",""108375""
""blur"",""136"",""525210""
","""event"",""trial"",""time""
""focus"",""11"",""117399""
""focus"",""136"",""556584""
","""event"",""trial"",""time""
""fullscreenenter"",""1"",""9913""
","
","","","","","","null","<div style=""font-size:60px;"">+</div>","null","","fixation","","","","","","","","",""
"memory-trial","156","599911","0.0-15.0-1.56","1735","2","""event"",""trial"",""time""
""fullscreenenter"",""1"",""9913""
""blur"",""11"",""108375""
""focus"",""11"",""117399""
""blur"",""136"",""525210""
""focus"",""136"",""556584""
","""event"",""trial"",""time""
""blur"",""11"",""108375""
""blur"",""136"",""525210""
","""event"",""trial"",""time""
""focus"",""11"",""117399""
""focus"",""136"",""556584""
","""event"",""trial"",""time""
""fullscreenenter"",""1"",""9913""
","
","","","","","","3091.600000000093","images/rabbit3.png","","","memory_trial","3","maybe_new","","","","","","",""
"html-keyboard-response","157","600413","0.0-15.0-0.57","1735","2","""event"",""trial"",""time""
""fullscreenenter"",""1"",""9913""
""blur"",""11"",""108375""
""focus"",""11"",""117399""
""blur"",""136"",""525210""
""focus"",""136"",""556584""
","""event"",""trial"",""time""
""blur"",""11"",""108375""
""blur"",""136"",""525210""
","""event"",""trial"",""time""
""focus"",""11"",""117399""
""focus"",""136"",""556584""
","""event"",""trial"",""time""
""fullscreenenter"",""1"",""9913""
","
","","","","","","null","<div style=""font-size:60px;"">+</div>","null","","fixation","","","","","","","","",""
"memory-trial","158","603884","0.0-15.0-1.57","1735","2","""event"",""trial"",""time""
""fullscreenenter"",""1"",""9913""
""blur"",""11"",""108375""
""focus"",""11"",""117399""
""blur"",""136"",""525210""
""focus"",""136"",""556584""
","""event"",""trial"",""time""
""blur"",""11"",""108375""
""blur"",""136"",""525210""
","""event"",""trial"",""time""
""focus"",""11"",""117399""
""focus"",""136"",""556584""
","""event"",""trial"",""time""
""fullscreenenter"",""1"",""9913""
","
","","","","","","2468.3000000002794","images/apple1.png","","","memory_trial","4","definitely_new","","","","","","",""
"html-keyboard-response","159","604385","0.0-15.0-0.58","1735","2","""event"",""trial"",""time""
""fullscreenenter"",""1"",""9913""
""blur"",""11"",""108375""
""focus"",""11"",""117399""
""blur"",""136"",""525210""
""focus"",""136"",""556584""
","""event"",""trial"",""time""
""blur"",""11"",""108375""
""blur"",""136"",""525210""
","""event"",""trial"",""time""
""focus"",""11"",""117399""
""focus"",""136"",""556584""
","""event"",""trial"",""time""
""fullscreenenter"",""1"",""9913""
","
","","","","","","null","<div style=""font-size:60px;"">+</div>","null","","fixation","","","","","","","","",""
"memory-trial","160","607544","0.0-15.0-1.58","1735","2","""event"",""trial"",""time""
""fullscreenenter"",""1"",""9913""
""blur"",""11"",""108375""
""focus"",""11"",""117399""
""blur"",""136"",""525210""
""focus"",""136"",""556584""
","""event"",""trial"",""time""
""blur"",""11"",""108375""
""blur"",""136"",""525210""
","""event"",""trial"",""time""
""focus"",""11"",""117399""
""focus"",""136"",""556584""
","""event"",""trial"",""time""
""fullscreenenter"",""1"",""9913""
","
","","","","","","2156.6999999997206","images/cow5.png","","","memory_trial","1","definitely_old","","","","","","",""
"html-keyboard-response","161","608047","0.0-15.0-0.59","1735","2","""event"",""trial"",""time""
""fullscreenenter"",""1"",""9913""
""blur"",""11"",""108375""
""focus"",""11"",""117399""
""blur"",""136"",""525210""
""focus"",""136"",""556584""
","""event"",""trial"",""time""
""blur"",""11"",""108375""
""blur"",""136"",""525210""
","""event"",""trial"",""time""
""focus"",""11"",""117399""
""focus"",""136"",""556584""
","""event"",""trial"",""time""
""fullscreenenter"",""1"",""9913""
","
","","","","","","null","<div style=""font-size:60px;"">+</div>","null","","fixation","","","","","","","","",""
"memory-trial","162","610409","0.0-15.0-1.59","1735","2","""event"",""trial"",""time""
""fullscreenenter"",""1"",""9913""
""blur"",""11"",""108375""
""focus"",""11"",""117399""
""blur"",""136"",""525210""
""focus"",""136"",""556584""
","""event"",""trial"",""time""
""blur"",""11"",""108375""
""blur"",""136"",""525210""
","""event"",""trial"",""time""
""focus"",""11"",""117399""
""focus"",""136"",""556584""
","""event"",""trial"",""time""
""fullscreenenter"",""1"",""9913""
","
","","","","","","1357.8000000002794","images/rabbit1.png","","","memory_trial","1","definitely_old","","","","","","",""
"html-keyboard-response","163","610912","0.0-15.0-0.60","1735","2","""event"",""trial"",""time""
""fullscreenenter"",""1"",""9913""
""blur"",""11"",""108375""
""focus"",""11"",""117399""
""blur"",""136"",""525210""
""focus"",""136"",""556584""
","""event"",""trial"",""time""
""blur"",""11"",""108375""
""blur"",""136"",""525210""
","""event"",""trial"",""time""
""focus"",""11"",""117399""
""focus"",""136"",""556584""
","""event"",""trial"",""time""
""fullscreenenter"",""1"",""9913""
","
","","","","","","null","<div style=""font-size:60px;"">+</div>","null","","fixation","","","","","","","","",""
"memory-trial","164","612993","0.0-15.0-1.60","1735","2","""event"",""trial"",""time""
""fullscreenenter"",""1"",""9913""
""blur"",""11"",""108375""
""focus"",""11"",""117399""
""blur"",""136"",""525210""
""focus"",""136"",""556584""
","""event"",""trial"",""time""
""blur"",""11"",""108375""
""blur"",""136"",""525210""
","""event"",""trial"",""time""
""focus"",""11"",""117399""
""focus"",""136"",""556584""
","""event"",""trial"",""time""
""fullscreenenter"",""1"",""9913""
","
","","","","","","1077.7999999998137","images/orange5.png","","","memory_trial","1","definitely_old","","","","","","",""
"html-keyboard-response","165","613497","0.0-15.0-0.61","1735","2","""event"",""trial"",""time""
""fullscreenenter"",""1"",""9913""
""blur"",""11"",""108375""
""focus"",""11"",""117399""
""blur"",""136"",""525210""
""focus"",""136"",""556584""
","""event"",""trial"",""time""
""blur"",""11"",""108375""
""blur"",""136"",""525210""
","""event"",""trial"",""time""
""focus"",""11"",""117399""
""focus"",""136"",""556584""
","""event"",""trial"",""time""
""fullscreenenter"",""1"",""9913""
","
","","","","","","null","<div style=""font-size:60px;"">+</div>","null","","fixation","","","","","","","","",""
"memory-trial","166","616670","0.0-15.0-1.61","1735","2","""event"",""trial"",""time""
""fullscreenenter"",""1"",""9913""
""blur"",""11"",""108375""
""focus"",""11"",""117399""
""blur"",""136"",""525210""
""focus"",""136"",""556584""
","""event"",""trial"",""time""
""blur"",""11"",""108375""
""blur"",""136"",""525210""
","""event"",""trial"",""time""
""focus"",""11"",""117399""
""focus"",""136"",""556584""
","""event"",""trial"",""time""
""fullscreenenter"",""1"",""9913""
","
","","","","","","2168.399999999907","images/truck5.png","","","memory_trial","1","definitely_old","","","","","","",""
"html-keyboard-response","167","617172","0.0-15.0-0.62","1735","2","""event"",""trial"",""time""
""fullscreenenter"",""1"",""9913""
""blur"",""11"",""108375""
""focus"",""11"",""117399""
""blur"",""136"",""525210""
""focus"",""136"",""556584""
","""event"",""trial"",""time""
""blur"",""11"",""108375""
""blur"",""136"",""525210""
","""event"",""trial"",""time""
""focus"",""11"",""117399""
""focus"",""136"",""556584""
","""event"",""trial"",""time""
""fullscreenenter"",""1"",""9913""
","
","","","","","","null","<div style=""font-size:60px;"">+</div>","null","","fixation","","","","","","","","",""
"memory-trial","168","619362","0.0-15.0-1.62","1735","2","""event"",""trial"",""time""
""fullscreenenter"",""1"",""9913""
""blur"",""11"",""108375""
""focus"",""11"",""117399""
""blur"",""136"",""525210""
""focus"",""136"",""556584""
","""event"",""trial"",""time""
""blur"",""11"",""108375""
""blur"",""136"",""525210""
","""event"",""trial"",""time""
""focus"",""11"",""117399""
""focus"",""136"",""556584""
","""event"",""trial"",""time""
""fullscreenenter"",""1"",""9913""
","
","","","","","","1186.0999999996275","images/goat2.png","","","memory_trial","1","definitely_old","","","","","","",""
"html-keyboard-response","169","619865","0.0-15.0-0.63","1735","2","""event"",""trial"",""time""
""fullscreenenter"",""1"",""9913""
""blur"",""11"",""108375""
""focus"",""11"",""117399""
""blur"",""136"",""525210""
""focus"",""136"",""556584""
","""event"",""trial"",""time""
""blur"",""11"",""108375""
""blur"",""136"",""525210""
","""event"",""trial"",""time""
""focus"",""11"",""117399""
""focus"",""136"",""556584""
","""event"",""trial"",""time""
""fullscreenenter"",""1"",""9913""
","
","","","","","","null","<div style=""font-size:60px;"">+</div>","null","","fixation","","","","","","","","",""
"memory-trial","170","621924","0.0-15.0-1.63","1735","2","""event"",""trial"",""time""
""fullscreenenter"",""1"",""9913""
""blur"",""11"",""108375""
""focus"",""11"",""117399""
""blur"",""136"",""525210""
""focus"",""136"",""556584""
","""event"",""trial"",""time""
""blur"",""11"",""108375""
""blur"",""136"",""525210""
","""event"",""trial"",""time""
""focus"",""11"",""117399""
""focus"",""136"",""556584""
","""event"",""trial"",""time""
""fullscreenenter"",""1"",""9913""
","
","","","","","","1054.5","images/goat3.png","","","memory_trial","1","definitely_old","","","","","","",""
"html-keyboard-response","171","622426","0.0-15.0-0.64","1735","2","""event"",""trial"",""time""
""fullscreenenter"",""1"",""9913""
""blur"",""11"",""108375""
""focus"",""11"",""117399""
""blur"",""136"",""525210""
""focus"",""136"",""556584""
","""event"",""trial"",""time""
""blur"",""11"",""108375""
""blur"",""136"",""525210""
","""event"",""trial"",""time""
""focus"",""11"",""117399""
""focus"",""136"",""556584""
","""event"",""trial"",""time""
""fullscreenenter"",""1"",""9913""
","
","","","","","","null","<div style=""font-size:60px;"">+</div>","null","","fixation","","","","","","","","",""
"memory-trial","172","624050","0.0-15.0-1.64","1735","2","""event"",""trial"",""time""
""fullscreenenter"",""1"",""9913""
""blur"",""11"",""108375""
""focus"",""11"",""117399""
""blur"",""136"",""525210""
""focus"",""136"",""556584""
","""event"",""trial"",""time""
""blur"",""11"",""108375""
""blur"",""136"",""525210""
","""event"",""trial"",""time""
""focus"",""11"",""117399""
""focus"",""136"",""556584""
","""event"",""trial"",""time""
""fullscreenenter"",""1"",""9913""
","
","","","","","","620","images/table1.png","","","memory_trial","1","definitely_old","","","","","","",""
"html-keyboard-response","173","624553","0.0-15.0-0.65","1735","2","""event"",""trial"",""time""
""fullscreenenter"",""1"",""9913""
""blur"",""11"",""108375""
""focus"",""11"",""117399""
""blur"",""136"",""525210""
""focus"",""136"",""556584""
","""event"",""trial"",""time""
""blur"",""11"",""108375""
""blur"",""136"",""525210""
","""event"",""trial"",""time""
""focus"",""11"",""117399""
""focus"",""136"",""556584""
","""event"",""trial"",""time""
""fullscreenenter"",""1"",""9913""
","
","","","","","","null","<div style=""font-size:60px;"">+</div>","null","","fixation","","","","","","","","",""
"memory-trial","174","626753","0.0-15.0-1.65","1735","2","""event"",""trial"",""time""
""fullscreenenter"",""1"",""9913""
""blur"",""11"",""108375""
""focus"",""11"",""117399""
""blur"",""136"",""525210""
""focus"",""136"",""556584""
","""event"",""trial"",""time""
""blur"",""11"",""108375""
""blur"",""136"",""525210""
","""event"",""trial"",""time""
""focus"",""11"",""117399""
""focus"",""136"",""556584""
","""event"",""trial"",""time""
""fullscreenenter"",""1"",""9913""
","
","","","","","","1197.5","images/bush4.png","","","memory_trial","1","definitely_old","","","","","","",""
"html-keyboard-response","175","627255","0.0-15.0-0.66","1735","2","""event"",""trial"",""time""
""fullscreenenter"",""1"",""9913""
""blur"",""11"",""108375""
""focus"",""11"",""117399""
""blur"",""136"",""525210""
""focus"",""136"",""556584""
","""event"",""trial"",""time""
""blur"",""11"",""108375""
""blur"",""136"",""525210""
","""event"",""trial"",""time""
""focus"",""11"",""117399""
""focus"",""136"",""556584""
","""event"",""trial"",""time""
""fullscreenenter"",""1"",""9913""
","
","","","","","","null","<div style=""font-size:60px;"">+</div>","null","","fixation","","","","","","","","",""
"memory-trial","176","629505","0.0-15.0-1.66","1735","2","""event"",""trial"",""time""
""fullscreenenter"",""1"",""9913""
""blur"",""11"",""108375""
""focus"",""11"",""117399""
""blur"",""136"",""525210""
""focus"",""136"",""556584""
","""event"",""trial"",""time""
""blur"",""11"",""108375""
""blur"",""136"",""525210""
","""event"",""trial"",""time""
""focus"",""11"",""117399""
""focus"",""136"",""556584""
","""event"",""trial"",""time""
""fullscreenenter"",""1"",""9913""
","
","","","","","","1248.1999999997206","images/boat1.png","","","memory_trial","1","definitely_old","","","","","","",""
"html-keyboard-response","177","630007","0.0-15.0-0.67","1735","2","""event"",""trial"",""time""
""fullscreenenter"",""1"",""9913""
""blur"",""11"",""108375""
""focus"",""11"",""117399""
""blur"",""136"",""525210""
""focus"",""136"",""556584""
","""event"",""trial"",""time""
""blur"",""11"",""108375""
""blur"",""136"",""525210""
","""event"",""trial"",""time""
""focus"",""11"",""117399""
""focus"",""136"",""556584""
","""event"",""trial"",""time""
""fullscreenenter"",""1"",""9913""
","
","","","","","","null","<div style=""font-size:60px;"">+</div>","null","","fixation","","","","","","","","",""
"memory-trial","178","633245","0.0-15.0-1.67","1735","2","""event"",""trial"",""time""
""fullscreenenter"",""1"",""9913""
""blur"",""11"",""108375""
""focus"",""11"",""117399""
""blur"",""136"",""525210""
""focus"",""136"",""556584""
","""event"",""trial"",""time""
""blur"",""11"",""108375""
""blur"",""136"",""525210""
","""event"",""trial"",""time""
""focus"",""11"",""117399""
""focus"",""136"",""556584""
","""event"",""trial"",""time""
""fullscreenenter"",""1"",""9913""
","
","","","","","","2232.5","images/sofa5.png","","","memory_trial","2","maybe_old","","","","","","",""
"html-keyboard-response","179","633747","0.0-15.0-0.68","1735","2","""event"",""trial"",""time""
""fullscreenenter"",""1"",""9913""
""blur"",""11"",""108375""
""focus"",""11"",""117399""
""blur"",""136"",""525210""
""focus"",""136"",""556584""
","""event"",""trial"",""time""
""blur"",""11"",""108375""
""blur"",""136"",""525210""
","""event"",""trial"",""time""
""focus"",""11"",""117399""
""focus"",""136"",""556584""
","""event"",""trial"",""time""
""fullscreenenter"",""1"",""9913""
","
","","","","","","null","<div style=""font-size:60px;"">+</div>","null","","fixation","","","","","","","","",""
"memory-trial","180","636703","0.0-15.0-1.68","1735","2","""event"",""trial"",""time""
""fullscreenenter"",""1"",""9913""
""blur"",""11"",""108375""
""focus"",""11"",""117399""
""blur"",""136"",""525210""
""focus"",""136"",""556584""
","""event"",""trial"",""time""
""blur"",""11"",""108375""
""blur"",""136"",""525210""
","""event"",""trial"",""time""
""focus"",""11"",""117399""
""focus"",""136"",""556584""
","""event"",""trial"",""time""
""fullscreenenter"",""1"",""9913""
","
","","","","","","1953.3000000002794","images/chair2.png","","","memory_trial","3","maybe_new","","","","","","",""
"html-keyboard-response","181","637205","0.0-15.0-0.69","1735","2","""event"",""trial"",""time""
""fullscreenenter"",""1"",""9913""
""blur"",""11"",""108375""
""focus"",""11"",""117399""
""blur"",""136"",""525210""
""focus"",""136"",""556584""
","""event"",""trial"",""time""
""blur"",""11"",""108375""
""blur"",""136"",""525210""
","""event"",""trial"",""time""
""focus"",""11"",""117399""
""focus"",""136"",""556584""
","""event"",""trial"",""time""
""fullscreenenter"",""1"",""9913""
","
","","","","","","null","<div style=""font-size:60px;"">+</div>","null","","fixation","","","","","","","","",""
"memory-trial","182","640488","0.0-15.0-1.69","1735","2","""event"",""trial"",""time""
""fullscreenenter"",""1"",""9913""
""blur"",""11"",""108375""
""focus"",""11"",""117399""
""blur"",""136"",""525210""
""focus"",""136"",""556584""
","""event"",""trial"",""time""
""blur"",""11"",""108375""
""blur"",""136"",""525210""
","""event"",""trial"",""time""
""focus"",""11"",""117399""
""focus"",""136"",""556584""
","""event"",""trial"",""time""
""fullscreenenter"",""1"",""9913""
","
","","","","","","2276.100000000093","images/chair5.png","","","memory_trial","1","definitely_old","","","","","","",""
"html-keyboard-response","183","640993","0.0-15.0-0.70","1735","2","""event"",""trial"",""time""
""fullscreenenter"",""1"",""9913""
""blur"",""11"",""108375""
""focus"",""11"",""117399""
""blur"",""136"",""525210""
""focus"",""136"",""556584""
","""event"",""trial"",""time""
""blur"",""11"",""108375""
""blur"",""136"",""525210""
","""event"",""trial"",""time""
""focus"",""11"",""117399""
""focus"",""136"",""556584""
","""event"",""trial"",""time""
""fullscreenenter"",""1"",""9913""
","
","","","","","","null","<div style=""font-size:60px;"">+</div>","null","","fixation","","","","","","","","",""
"memory-trial","184","645615","0.0-15.0-1.70","1735","2","""event"",""trial"",""time""
""fullscreenenter"",""1"",""9913""
""blur"",""11"",""108375""
""focus"",""11"",""117399""
""blur"",""136"",""525210""
""focus"",""136"",""556584""
","""event"",""trial"",""time""
""blur"",""11"",""108375""
""blur"",""136"",""525210""
","""event"",""trial"",""time""
""focus"",""11"",""117399""
""focus"",""136"",""556584""
","""event"",""trial"",""time""
""fullscreenenter"",""1"",""9913""
","
","","","","","","3612.6999999997206","images/chair3.png","","","memory_trial","4","definitely_new","","","","","","",""
"html-keyboard-response","185","646117","0.0-15.0-0.71","1735","2","""event"",""trial"",""time""
""fullscreenenter"",""1"",""9913""
""blur"",""11"",""108375""
""focus"",""11"",""117399""
""blur"",""136"",""525210""
""focus"",""136"",""556584""
","""event"",""trial"",""time""
""blur"",""11"",""108375""
""blur"",""136"",""525210""
","""event"",""trial"",""time""
""focus"",""11"",""117399""
""focus"",""136"",""556584""
","""event"",""trial"",""time""
""fullscreenenter"",""1"",""9913""
","
","","","","","","null","<div style=""font-size:60px;"">+</div>","null","","fixation","","","","","","","","",""
"memory-trial","186","649399","0.0-15.0-1.71","1735","2","""event"",""trial"",""time""
""fullscreenenter"",""1"",""9913""
""blur"",""11"",""108375""
""focus"",""11"",""117399""
""blur"",""136"",""525210""
""focus"",""136"",""556584""
","""event"",""trial"",""time""
""blur"",""11"",""108375""
