"trial_type","trial_index","time_elapsed","internal_node_id","subject_id","task_version","interactions","blur_events","focus_events","fullscreenenter_events","fullscreenexit_events","success","timeout","failed_images","failed_audio","failed_video","rt","stimulus","response","button_pressed","task_part","key_press","answer","correct","left_choice","middle_choice","right_choice","choice_positions","option_selected","block"
"pavlovia","0","3","0.0-0.0","2010","2","""event"",""trial"",""time""
""fullscreenenter"",""1"",""8368""
","
","
","""event"",""trial"",""time""
""fullscreenenter"",""1"",""8368""
","
","","","","","","","","","","","","","","","","","","",""
"fullscreen","1","9327","0.0-1.0","2010","2","""event"",""trial"",""time""
""fullscreenenter"",""1"",""8368""
","
","
","""event"",""trial"",""time""
""fullscreenenter"",""1"",""8368""
","
","true","","","","","","","","","","","","","","","","","",""
"preload","2","10793","0.0-2.0","2010","2","""event"",""trial"",""time""
""fullscreenenter"",""1"",""8368""
","
","
","""event"",""trial"",""time""
""fullscreenenter"",""1"",""8368""
","
","true","false","[]","[]","[]","","","","","","","","","","","","","",""
"audio-keyboard-response","3","14003","0.0-3.0","2010","2","""event"",""trial"",""time""
""fullscreenenter"",""1"",""8368""
","
","
","""event"",""trial"",""time""
""fullscreenenter"",""1"",""8368""
","
","","","","","","3205.3333333333335","audio/beep_loop.wav"," ","","","","","","","","","","",""
"audio-button-response","4","15990","0.0-4.0","2010","2","""event"",""trial"",""time""
""fullscreenenter"",""1"",""8368""
","
","
","""event"",""trial"",""time""
""fullscreenenter"",""1"",""8368""
","
","","","","","","1984","audio/turtle.wav","3","","","","","","","","","","",""
"audio-button-response","5","18664","0.0-5.0","2010","2","""event"",""trial"",""time""
""fullscreenenter"",""1"",""8368""
","
","
","""event"",""trial"",""time""
""fullscreenenter"",""1"",""8368""
","
","","","","","","1669","audio/shark.wav","2","","","","","","","","","","",""
"preload","6","23551","0.0-6.0","2010","2","""event"",""trial"",""time""
""fullscreenenter"",""1"",""8368""
","
","
","""event"",""trial"",""time""
""fullscreenenter"",""1"",""8368""
","
","true","false","[]","[]","[]","","","","","","","","","","","","","",""
"learning-instructions","7","31380","0.0-7.0-0.0","2010","2","""event"",""trial"",""time""
""fullscreenenter"",""1"",""8368""
","
","
","""event"",""trial"",""time""
""fullscreenenter"",""1"",""8368""
","
","","","","","","3022.9000000953674","<p> Welcome back! </p><p> Last week, you had to make choices about lots of different items.  </p>","","0","instructions","","","","","","","","",""
"learning-instructions","8","38220","0.0-7.0-0.1","2010","2","""event"",""trial"",""time""
""fullscreenenter"",""1"",""8368""
","
","
","""event"",""trial"",""time""
""fullscreenenter"",""1"",""8368""
","
","","","","","","2541.4000000953674","<p> Today, we are going to ask you to try to remember all the items. </p>","","0","instructions","","","","","","","","",""
"learning-instructions","9","49759","0.0-7.0-0.2","2010","2","""event"",""trial"",""time""
""fullscreenenter"",""1"",""8368""
","
","
","""event"",""trial"",""time""
""fullscreenenter"",""1"",""8368""
","
","","","","","","1402.6000001430511","<p> On every trial, you will see an image. </p><p> The image may be an OLD image you saw during the games last week or it may be a NEW image that was not presented. </p>","","0","instructions","","","","","","","","",""
"learning-instructions","10","61577","0.0-7.0-0.3","2010","2","""event"",""trial"",""time""
""fullscreenenter"",""1"",""8368""
","
","
","""event"",""trial"",""time""
""fullscreenenter"",""1"",""8368""
","
","","","","","","3316.899999856949","<p> You need to select whether the image is:  </p><p>  'Definitely old', 'Maybe old', 'Maybe new', or 'Definitely new.'  </p><div class=""mem-choice-instructions-grid""><div class=""choice-option"" id=""choice-option-1"" ><img src=""images/definitely_old_1.png"" id=""choice-option-img-1"" class=""choice-option-img"" stage=""1""></div><div class=""choice-option"" id=""choice-option-2"" ><img src=""images/maybe_old_1.png"" id=""choice-option-img-2"" class=""choice-option-img"" stage=""1""></div><div class=""choice-option"" id=""choice-option-3"" ><img src=""images/maybe_new_1.png"" id=""choice-option-img-3"" class=""choice-option-img"" stage=""1""></div><div class=""choice-option"" id=""choice-option-4"" > <img src=""images/definitely_new_1.png"" id=""choice-option-img-4"" class=""choice-option-img"" stage=""1""></div></div>","","0","instructions","","","","","","","","",""
"learning-instructions","11","68738","0.0-7.0-0.4","2010","2","""event"",""trial"",""time""
""fullscreenenter"",""1"",""8368""
","
","
","""event"",""trial"",""time""
""fullscreenenter"",""1"",""8368""
","
","","","","","","471.89999985694885","<p> You should use the 1, 2, 3, and 4 keys to make your responses.  </p><div class=""mem-choice-instructions-grid""><div class=""choice-option"" id=""choice-option-1"" ><img src=""images/definitely_old.png"" id=""choice-option-img-1"" class=""choice-option-img"" stage=""1""></div><div class=""choice-option"" id=""choice-option-2"" ><img src=""images/maybe_old.png"" id=""choice-option-img-2"" class=""choice-option-img"" stage=""1""></div><div class=""choice-option"" id=""choice-option-3"" ><img src=""images/maybe_new.png"" id=""choice-option-img-3"" class=""choice-option-img"" stage=""1""></div><div class=""choice-option"" id=""choice-option-4"" > <img src=""images/definitely_new.png"" id=""choice-option-img-4"" class=""choice-option-img"" stage=""1""></div></div>","","0","instructions","","","","","","","","",""
"learning-instructions","12","76818","0.0-7.0-0.5","2010","2","""event"",""trial"",""time""
""fullscreenenter"",""1"",""8368""
","
","
","""event"",""trial"",""time""
""fullscreenenter"",""1"",""8368""
","
","","","","","","1321.6000001430511","<p> You will have 10 seconds to make each response.  </p><p>  Make sure to respond before time runs out! </p>","","0","instructions","","","","","","","","",""
"learning-instructions","13","85113","0.0-7.0-0.6","2010","2","""event"",""trial"",""time""
""fullscreenenter"",""1"",""8368""
","
","
","""event"",""trial"",""time""
""fullscreenenter"",""1"",""8368""
","
","","","","","","715.6000001430511","<p> Today, you will see each image ONCE only.  </p><p>  That means none of the images will repeat. </p>","","0","instructions","","","","","","","","",""
"learning-instructions","14","104149","0.0-7.0-0.7","2010","2","""event"",""trial"",""time""
""fullscreenenter"",""1"",""8368""
","
","
","""event"",""trial"",""time""
""fullscreenenter"",""1"",""8368""
","
","","","","","","6370.299999952316","<p> Before you play the real game, it is time to practice. </p><p>  Just like in the real game, some of the images in the practice will be ones you have seen before. </p><p>  Others will be entirely new. </p>","","0","instructions","","","","","","","","",""
"html-button-response","15","112850","0.0-8.0","2010","2","""event"",""trial"",""time""
""fullscreenenter"",""1"",""8368""
","
","
","""event"",""trial"",""time""
""fullscreenenter"",""1"",""8368""
","
","","","","","","8596.300000190735","<p> Ready to practice? </p><p> Remember, use the 1, 2, 3, and 4 keys to make your responses. </p>","0","","instructions","","","","","","","","",""
"html-keyboard-response","16","113452","0.0-9.0-0.0","2010","2","""event"",""trial"",""time""
""fullscreenenter"",""1"",""8368""
","
","
","""event"",""trial"",""time""
""fullscreenenter"",""1"",""8368""
","
","","","","","","null","<div style=""font-size:60px;"">+</div>","null","","fixation","","","","","","","","",""
"memory-trial","17","116756","0.0-9.0-1.0","2010","2","""event"",""trial"",""time""
""fullscreenenter"",""1"",""8368""
","
","
","""event"",""trial"",""time""
""fullscreenenter"",""1"",""8368""
","
","","","","","","2295.2000000476837","images/racket2.png","","","practice","1","definitely_old","","","","","","",""
"html-keyboard-response","18","117260","0.0-9.0-0.1","2010","2","""event"",""trial"",""time""
""fullscreenenter"",""1"",""8368""
","
","
","""event"",""trial"",""time""
""fullscreenenter"",""1"",""8368""
","
","","","","","","null","<div style=""font-size:60px;"">+</div>","null","","fixation","","","","","","","","",""
"memory-trial","19","120076","0.0-9.0-1.1","2010","2","""event"",""trial"",""time""
""fullscreenenter"",""1"",""8368""
","
","
","""event"",""trial"",""time""
""fullscreenenter"",""1"",""8368""
","
","","","","","","1811.7000000476837","images/ball4.png","","","practice","4","definitely_new","","","","","","",""
"html-keyboard-response","20","120582","0.0-9.0-0.2","2010","2","""event"",""trial"",""time""
""fullscreenenter"",""1"",""8368""
","
","
","""event"",""trial"",""time""
""fullscreenenter"",""1"",""8368""
","
","","","","","","null","<div style=""font-size:60px;"">+</div>","null","","fixation","","","","","","","","",""
"memory-trial","21","123247","0.0-9.0-1.2","2010","2","""event"",""trial"",""time""
""fullscreenenter"",""1"",""8368""
","
","
","""event"",""trial"",""time""
""fullscreenenter"",""1"",""8368""
","
","","","","","","1661.1000001430511","images/racket1.png","","","practice","2","maybe_old","","","","","","",""
"html-keyboard-response","22","123750","0.0-9.0-0.3","2010","2","""event"",""trial"",""time""
""fullscreenenter"",""1"",""8368""
","
","
","""event"",""trial"",""time""
""fullscreenenter"",""1"",""8368""
","
","","","","","","null","<div style=""font-size:60px;"">+</div>","null","","fixation","","","","","","","","",""
"memory-trial","23","125836","0.0-9.0-1.3","2010","2","""event"",""trial"",""time""
""fullscreenenter"",""1"",""8368""
","
","
","""event"",""trial"",""time""
""fullscreenenter"",""1"",""8368""
","
","","","","","","1081.0999999046326","images/ball3.png","","","practice","4","definitely_new","","","","","","",""
"html-keyboard-response","24","126342","0.0-9.0-0.4","2010","2","""event"",""trial"",""time""
""fullscreenenter"",""1"",""8368""
","
","
","""event"",""trial"",""time""
""fullscreenenter"",""1"",""8368""
","
","","","","","","null","<div style=""font-size:60px;"">+</div>","null","","fixation","","","","","","","","",""
"memory-trial","25","128946","0.0-9.0-1.4","2010","2","""event"",""trial"",""time""
""fullscreenenter"",""1"",""8368""
","
","
","""event"",""trial"",""time""
""fullscreenenter"",""1"",""8368""
","
","","","","","","1597.2999999523163","images/ball1.png","","","practice","2","maybe_old","","","","","","",""
"html-keyboard-response","26","129447","0.0-9.0-0.5","2010","2","""event"",""trial"",""time""
""fullscreenenter"",""1"",""8368""
","
","
","""event"",""trial"",""time""
""fullscreenenter"",""1"",""8368""
","
","","","","","","null","<div style=""font-size:60px;"">+</div>","null","","fixation","","","","","","","","",""
"memory-trial","27","131559","0.0-9.0-1.5","2010","2","""event"",""trial"",""time""
""fullscreenenter"",""1"",""8368""
","
","
","""event"",""trial"",""time""
""fullscreenenter"",""1"",""8368""
","
","","","","","","1108.5","images/racket4.png","","","practice","1","definitely_old","","","","","","",""
"html-keyboard-response","28","132060","0.0-9.0-0.6","2010","2","""event"",""trial"",""time""
""fullscreenenter"",""1"",""8368""
","
","
","""event"",""trial"",""time""
""fullscreenenter"",""1"",""8368""
","
","","","","","","null","<div style=""font-size:60px;"">+</div>","null","","fixation","","","","","","","","",""
"memory-trial","29","135991","0.0-9.0-1.6","2010","2","""event"",""trial"",""time""
""fullscreenenter"",""1"",""8368""
","
","
","""event"",""trial"",""time""
""fullscreenenter"",""1"",""8368""
","
","","","","","","2927.199999809265","images/ball2.png","","","practice","1","definitely_old","","","","","","",""
"html-keyboard-response","30","136492","0.0-9.0-0.7","2010","2","""event"",""trial"",""time""
""fullscreenenter"",""1"",""8368""
","
","
","""event"",""trial"",""time""
""fullscreenenter"",""1"",""8368""
","
","","","","","","null","<div style=""font-size:60px;"">+</div>","null","","fixation","","","","","","","","",""
"memory-trial","31","138604","0.0-9.0-1.7","2010","2","""event"",""trial"",""time""
""fullscreenenter"",""1"",""8368""
","
","
","""event"",""trial"",""time""
""fullscreenenter"",""1"",""8368""
","
","","","","","","1107.2999999523163","images/racket3.png","","","practice","1","definitely_old","","","","","","",""
"learning-instructions","32","148102","0.0-10.0-0.0","2010","2","""event"",""trial"",""time""
""fullscreenenter"",""1"",""8368""
","
","
","""event"",""trial"",""time""
""fullscreenenter"",""1"",""8368""
","
","","","","","","1514.3000001907349","<p> Great! You have completed the practice. </p><p> Before you start, we're going to ask you a few questions about how the game works.  </p>","","0","instructions","","","","","","","","",""
"preload","33","149582","0.0-11.0","2010","2","""event"",""trial"",""time""
""fullscreenenter"",""1"",""8368""
","
","
","""event"",""trial"",""time""
""fullscreenenter"",""1"",""8368""
","
","true","false","[]","[]","[]","","","","","","","","","","","","","",""
"comp-q","34","157284","0.0-12.0-0.0","2010","2","""event"",""trial"",""time""
""fullscreenenter"",""1"",""8368""
","
","
","""event"",""trial"",""time""
""fullscreenenter"",""1"",""8368""
","
","","","","","","1869.8999998569489","<p> <b> True or False? </b> </p><p> In this game, you will only see each image once. </p>","","0","comp_question","","","true","","","","","",""
"comp-q","35","164799","0.0-12.0-1.0","2010","2","""event"",""trial"",""time""
""fullscreenenter"",""1"",""8368""
","
","
","""event"",""trial"",""time""
""fullscreenenter"",""1"",""8368""
","
","","","","","","1177.2999999523163","<p> <b> That's right! </b> You will see many different images <i> one time each </i> in this game. </p>","","0","comp_answer","","","","","","","","",""
"comp-q","36","171647","0.0-12.0-0.1","2010","2","""event"",""trial"",""time""
""fullscreenenter"",""1"",""8368""
","
","
","""event"",""trial"",""time""
""fullscreenenter"",""1"",""8368""
","
","","","","","","1048.8999998569489","<p> <b> True or False? </b> </p><p> You should use the mouse and click to make your response. </p>","","1","comp_question","","","true","","","","","",""
"comp-q","37","179703","0.0-12.0-1.1","2010","2","""event"",""trial"",""time""
""fullscreenenter"",""1"",""8368""
","
","
","""event"",""trial"",""time""
""fullscreenenter"",""1"",""8368""
","
","","","","","","711.6000001430511","<p><b> That's right! </b> You should use the '1', '2', '3', and '4' keys to make your response. </p>","","0","comp_answer","","","","","","","","",""
"comp-q","38","186290","0.0-12.0-0.2","2010","2","""event"",""trial"",""time""
""fullscreenenter"",""1"",""8368""
","
","
","""event"",""trial"",""time""
""fullscreenenter"",""1"",""8368""
","
","","","","","","589.6000001430511","<p> <b> True or False? </b> </p><p> You will have as much time as you want to make each choice. </p>","","1","comp_question","","","true","","","","","",""
"comp-q","39","192588","0.0-12.0-1.2","2010","2","""event"",""trial"",""time""
""fullscreenenter"",""1"",""8368""
","
","
","""event"",""trial"",""time""
""fullscreenenter"",""1"",""8368""
","
","","","","","","908.5999999046326","<p> <b> That's right! </b> You will only have 10 seconds to make each choice. </p>","","0","comp_answer","","","","","","","","",""
"learning-instructions","40","202227","0.0-13.0","2010","2","""event"",""trial"",""time""
""fullscreenenter"",""1"",""8368""
","
","
","""event"",""trial"",""time""
""fullscreenenter"",""1"",""8368""
","
","","","","","","974.5999999046326","<p> Great! You are now ready to begin the game. </p><p> Remember, use the 1, 2, 3, and 4 keys to make your responses. </p>","","0","instructions","","","","","","","","",""
"preload","41","205120","0.0-14.0","2010","2","""event"",""trial"",""time""
""fullscreenenter"",""1"",""8368""
","
","
","""event"",""trial"",""time""
""fullscreenenter"",""1"",""8368""
","
","true","false","[]","[]","[]","","","","","","","","","","","","","",""
"html-keyboard-response","42","205624","0.0-15.0-0.0","2010","2","""event"",""trial"",""time""
""fullscreenenter"",""1"",""8368""
","
","
","""event"",""trial"",""time""
""fullscreenenter"",""1"",""8368""
","
","","","","","","null","<div style=""font-size:60px;"">+</div>","null","","fixation","","","","","","","","",""
"memory-trial","43","208055","0.0-15.0-1.0","2010","2","""event"",""trial"",""time""
""fullscreenenter"",""1"",""8368""
","
","
","""event"",""trial"",""time""
""fullscreenenter"",""1"",""8368""
","
","","","","","","1424.2000000476837","images/sheep5.png","","","memory_trial","4","definitely_new","","","","","","",""
"html-keyboard-response","44","208558","0.0-15.0-0.1","2010","2","""event"",""trial"",""time""
""fullscreenenter"",""1"",""8368""
","
","
","""event"",""trial"",""time""
""fullscreenenter"",""1"",""8368""
","
","","","","","","null","<div style=""font-size:60px;"">+</div>","null","","fixation","","","","","","","","",""
"memory-trial","45","210718","0.0-15.0-1.1","2010","2","""event"",""trial"",""time""
""fullscreenenter"",""1"",""8368""
","
","
","""event"",""trial"",""time""
""fullscreenenter"",""1"",""8368""
","
","","","","","","1157.2999999523163","images/tree2.png","","","memory_trial","4","definitely_new","","","","","","",""
"html-keyboard-response","46","211220","0.0-15.0-0.2","2010","2","""event"",""trial"",""time""
""fullscreenenter"",""1"",""8368""
","
","
","""event"",""trial"",""time""
""fullscreenenter"",""1"",""8368""
","
","","","","","","null","<div style=""font-size:60px;"">+</div>","null","","fixation","","","","","","","","",""
"memory-trial","47","213311","0.0-15.0-1.2","2010","2","""event"",""trial"",""time""
""fullscreenenter"",""1"",""8368""
","
","
","""event"",""trial"",""time""
""fullscreenenter"",""1"",""8368""
","
","","","","","","1088.6000001430511","images/sofa5.png","","","memory_trial","1","definitely_old","","","","","","",""
"html-keyboard-response","48","213816","0.0-15.0-0.3","2010","2","""event"",""trial"",""time""
""fullscreenenter"",""1"",""8368""
","
","
","""event"",""trial"",""time""
""fullscreenenter"",""1"",""8368""
","
","","","","","","null","<div style=""font-size:60px;"">+</div>","null","","fixation","","","","","","","","",""
"memory-trial","49","217006","0.0-15.0-1.3","2010","2","""event"",""trial"",""time""
""fullscreenenter"",""1"",""8368""
","
","
","""event"",""trial"",""time""
""fullscreenenter"",""1"",""8368""
","
","","","","","","2184.2999999523163","images/tree3.png","","","memory_trial","1","definitely_old","","","","","","",""
"html-keyboard-response","50","217513","0.0-15.0-0.4","2010","2","""event"",""trial"",""time""
""fullscreenenter"",""1"",""8368""
","
","
","""event"",""trial"",""time""
""fullscreenenter"",""1"",""8368""
","
","","","","","","null","<div style=""font-size:60px;"">+</div>","null","","fixation","","","","","","","","",""
"memory-trial","51","220145","0.0-15.0-1.4","2010","2","""event"",""trial"",""time""
""fullscreenenter"",""1"",""8368""
","
","
","""event"",""trial"",""time""
""fullscreenenter"",""1"",""8368""
","
","","","","","","1627.7000000476837","images/rabbit1.png","","","memory_trial","4","definitely_new","","","","","","",""
"html-keyboard-response","52","220648","0.0-15.0-0.5","2010","2","""event"",""trial"",""time""
""fullscreenenter"",""1"",""8368""
","
","
","""event"",""trial"",""time""
""fullscreenenter"",""1"",""8368""
","
","","","","","","null","<div style=""font-size:60px;"">+</div>","null","","fixation","","","","","","","","",""
"memory-trial","53","225947","0.0-15.0-1.5","2010","2","""event"",""trial"",""time""
""fullscreenenter"",""1"",""8368""
","
","
","""event"",""trial"",""time""
""fullscreenenter"",""1"",""8368""
","
","","","","","","4295.200000047684","images/banana5.png","","","memory_trial","3","maybe_new","","","","","","",""
"html-keyboard-response","54","226451","0.0-15.0-0.6","2010","2","""event"",""trial"",""time""
""fullscreenenter"",""1"",""8368""
","
","
","""event"",""trial"",""time""
""fullscreenenter"",""1"",""8368""
","
","","","","","","null","<div style=""font-size:60px;"">+</div>","null","","fixation","","","","","","","","",""
"memory-trial","55","229219","0.0-15.0-1.6","2010","2","""event"",""trial"",""time""
""fullscreenenter"",""1"",""8368""
","
","
","""event"",""trial"",""time""
""fullscreenenter"",""1"",""8368""
","
","","","","","","1765.2000000476837","images/rabbit4.png","","","memory_trial","3","maybe_new","","","","","","",""
"html-keyboard-response","56","229721","0.0-15.0-0.7","2010","2","""event"",""trial"",""time""
""fullscreenenter"",""1"",""8368""
","
","
","""event"",""trial"",""time""
""fullscreenenter"",""1"",""8368""
","
","","","","","","null","<div style=""font-size:60px;"">+</div>","null","","fixation","","","","","","","","",""
"memory-trial","57","232052","0.0-15.0-1.7","2010","2","""event"",""trial"",""time""
""fullscreenenter"",""1"",""8368""
","
","
","""event"",""trial"",""time""
""fullscreenenter"",""1"",""8368""
","
","","","","","","1326.2999999523163","images/goat1.png","","","memory_trial","1","definitely_old","","","","","","",""
"html-keyboard-response","58","232553","0.0-15.0-0.8","2010","2","""event"",""trial"",""time""
""fullscreenenter"",""1"",""8368""
","
","
","""event"",""trial"",""time""
""fullscreenenter"",""1"",""8368""
","
","","","","","","null","<div style=""font-size:60px;"">+</div>","null","","fixation","","","","","","","","",""
"memory-trial","59","235545","0.0-15.0-1.8","2010","2","""event"",""trial"",""time""
""fullscreenenter"",""1"",""8368""
","
","
","""event"",""trial"",""time""
""fullscreenenter"",""1"",""8368""
","
","","","","","","1987.9000000953674","images/table1.png","","","memory_trial","3","maybe_new","","","","","","",""
"html-keyboard-response","60","236051","0.0-15.0-0.9","2010","2","""event"",""trial"",""time""
""fullscreenenter"",""1"",""8368""
","
","
","""event"",""trial"",""time""
""fullscreenenter"",""1"",""8368""
","
","","","","","","null","<div style=""font-size:60px;"">+</div>","null","","fixation","","","","","","","","",""
"memory-trial","61","238030","0.0-15.0-1.9","2010","2","""event"",""trial"",""time""
""fullscreenenter"",""1"",""8368""
","
","
","""event"",""trial"",""time""
""fullscreenenter"",""1"",""8368""
","
","","","","","","972.5","images/flower1.png","","","memory_trial","4","definitely_new","","","","","","",""
"html-keyboard-response","62","238532","0.0-15.0-0.10","2010","2","""event"",""trial"",""time""
""fullscreenenter"",""1"",""8368""
","
","
","""event"",""trial"",""time""
""fullscreenenter"",""1"",""8368""
","
","","","","","","null","<div style=""font-size:60px;"">+</div>","null","","fixation","","","","","","","","",""
"memory-trial","63","241198","0.0-15.0-1.10","2010","2","""event"",""trial"",""time""
""fullscreenenter"",""1"",""8368""
","
","
","""event"",""trial"",""time""
""fullscreenenter"",""1"",""8368""
","
","","","","","","1660.6000001430511","images/chair1.png","","","memory_trial","4","definitely_new","","","","","","",""
"html-keyboard-response","64","241700","0.0-15.0-0.11","2010","2","""event"",""trial"",""time""
""fullscreenenter"",""1"",""8368""
","
","
","""event"",""trial"",""time""
""fullscreenenter"",""1"",""8368""
","
","","","","","","null","<div style=""font-size:60px;"">+</div>","null","","fixation","","","","","","","","",""
"memory-trial","65","244204","0.0-15.0-1.11","2010","2","""event"",""trial"",""time""
""fullscreenenter"",""1"",""8368""
","
","
","""event"",""trial"",""time""
""fullscreenenter"",""1"",""8368""
","
","","","","","","1501.3999998569489","images/dog1.png","","","memory_trial","1","definitely_old","","","","","","",""
"html-keyboard-response","66","244707","0.0-15.0-0.12","2010","2","""event"",""trial"",""time""
""fullscreenenter"",""1"",""8368""
","
","
","""event"",""trial"",""time""
""fullscreenenter"",""1"",""8368""
","
","","","","","","null","<div style=""font-size:60px;"">+</div>","null","","fixation","","","","","","","","",""
"memory-trial","67","246937","0.0-15.0-1.12","2010","2","""event"",""trial"",""time""
""fullscreenenter"",""1"",""8368""
","
","
","""event"",""trial"",""time""
""fullscreenenter"",""1"",""8368""
","
","","","","","","1227.3999998569489","images/truck2.png","","","memory_trial","1","definitely_old","","","","","","",""
"html-keyboard-response","68","247442","0.0-15.0-0.13","2010","2","""event"",""trial"",""time""
""fullscreenenter"",""1"",""8368""
","
","
","""event"",""trial"",""time""
""fullscreenenter"",""1"",""8368""
","
","","","","","","null","<div style=""font-size:60px;"">+</div>","null","","fixation","","","","","","","","",""
"memory-trial","69","250750","0.0-15.0-1.13","2010","2","""event"",""trial"",""time""
""fullscreenenter"",""1"",""8368""
","
","
","""event"",""trial"",""time""
""fullscreenenter"",""1"",""8368""
","
","","","","","","2302.5","images/boat3.png","","","memory_trial","4","definitely_new","","","","","","",""
"html-keyboard-response","70","251257","0.0-15.0-0.14","2010","2","""event"",""trial"",""time""
""fullscreenenter"",""1"",""8368""
","
","
","""event"",""trial"",""time""
""fullscreenenter"",""1"",""8368""
","
","","","","","","null","<div style=""font-size:60px;"">+</div>","null","","fixation","","","","","","","","",""
"memory-trial","71","254488","0.0-15.0-1.14","2010","2","""event"",""trial"",""time""
""fullscreenenter"",""1"",""8368""
","
","
","""event"",""trial"",""time""
""fullscreenenter"",""1"",""8368""
","
","","","","","","2226.199999809265","images/banana3.png","","","memory_trial","4","definitely_new","","","","","","",""
"html-keyboard-response","72","254990","0.0-15.0-0.15","2010","2","""event"",""trial"",""time""
""fullscreenenter"",""1"",""8368""
","
","
","""event"",""trial"",""time""
""fullscreenenter"",""1"",""8368""
","
","","","","","","null","<div style=""font-size:60px;"">+</div>","null","","fixation","","","","","","","","",""
"memory-trial","73","257459","0.0-15.0-1.15","2010","2","""event"",""trial"",""time""
""fullscreenenter"",""1"",""8368""
","
","
","""event"",""trial"",""time""
""fullscreenenter"",""1"",""8368""
","
","","","","","","1465.5999999046326","images/goat5.png","","","memory_trial","4","definitely_new","","","","","","",""
"html-keyboard-response","74","257964","0.0-15.0-0.16","2010","2","""event"",""trial"",""time""
""fullscreenenter"",""1"",""8368""
","
","
","""event"",""trial"",""time""
""fullscreenenter"",""1"",""8368""
","
","","","","","","null","<div style=""font-size:60px;"">+</div>","null","","fixation","","","","","","","","",""
"memory-trial","75","262355","0.0-15.0-1.16","2010","2","""event"",""trial"",""time""
""fullscreenenter"",""1"",""8368""
","
","
","""event"",""trial"",""time""
""fullscreenenter"",""1"",""8368""
","
","","","","","","3386.4000000953674","images/chair2.png","","","memory_trial","2","maybe_old","","","","","","",""
"html-keyboard-response","76","262857","0.0-15.0-0.17","2010","2","""event"",""trial"",""time""
""fullscreenenter"",""1"",""8368""
","
","
","""event"",""trial"",""time""
""fullscreenenter"",""1"",""8368""
","
","","","","","","null","<div style=""font-size:60px;"">+</div>","null","","fixation","","","","","","","","",""
"memory-trial","77","265182","0.0-15.0-1.17","2010","2","""event"",""trial"",""time""
""fullscreenenter"",""1"",""8368""
","
","
","""event"",""trial"",""time""
""fullscreenenter"",""1"",""8368""
","
","","","","","","1322.6000001430511","images/orange2.png","","","memory_trial","1","definitely_old","","","","","","",""
"html-keyboard-response","78","265683","0.0-15.0-0.18","2010","2","""event"",""trial"",""time""
""fullscreenenter"",""1"",""8368""
","
","
","""event"",""trial"",""time""
""fullscreenenter"",""1"",""8368""
","
","","","","","","null","<div style=""font-size:60px;"">+</div>","null","","fixation","","","","","","","","",""
"memory-trial","79","267566","0.0-15.0-1.18","2010","2","""event"",""trial"",""time""
""fullscreenenter"",""1"",""8368""
","
","
","""event"",""trial"",""time""
""fullscreenenter"",""1"",""8368""
","
","","","","","","877.7000000476837","images/orange3.png","","","memory_trial","1","definitely_old","","","","","","",""
"html-keyboard-response","80","268067","0.0-15.0-0.19","2010","2","""event"",""trial"",""time""
""fullscreenenter"",""1"",""8368""
","
","
","""event"",""trial"",""time""
""fullscreenenter"",""1"",""8368""
","
","","","","","","null","<div style=""font-size:60px;"">+</div>","null","","fixation","","","","","","","","",""
"memory-trial","81","270670","0.0-15.0-1.19","2010","2","""event"",""trial"",""time""
""fullscreenenter"",""1"",""8368""
","
","
","""event"",""trial"",""time""
""fullscreenenter"",""1"",""8368""
","
","","","","","","1594.6000001430511","images/bush4.png","","","memory_trial","1","definitely_old","","","","","","",""
"html-keyboard-response","82","271171","0.0-15.0-0.20","2010","2","""event"",""trial"",""time""
""fullscreenenter"",""1"",""8368""
","
","
","""event"",""trial"",""time""
""fullscreenenter"",""1"",""8368""
","
","","","","","","null","<div style=""font-size:60px;"">+</div>","null","","fixation","","","","","","","","",""
"memory-trial","83","272974","0.0-15.0-1.20","2010","2","""event"",""trial"",""time""
""fullscreenenter"",""1"",""8368""
","
","
","""event"",""trial"",""time""
""fullscreenenter"",""1"",""8368""
","
","","","","","","797.2000000476837","images/bush3.png","","","memory_trial","1","definitely_old","","","","","","",""
"html-keyboard-response","84","273475","0.0-15.0-0.21","2010","2","""event"",""trial"",""time""
""fullscreenenter"",""1"",""8368""
","
","
","""event"",""trial"",""time""
""fullscreenenter"",""1"",""8368""
","
","","","","","","null","<div style=""font-size:60px;"">+</div>","null","","fixation","","","","","","","","",""
"memory-trial","85","277624","0.0-15.0-1.21","2010","2","""event"",""trial"",""time""
""fullscreenenter"",""1"",""8368""
","
","
","""event"",""trial"",""time""
""fullscreenenter"",""1"",""8368""
","
","","","","","","3145.5","images/horse4.png","","","memory_trial","3","maybe_new","","","","","","",""
"html-keyboard-response","86","278128","0.0-15.0-0.22","2010","2","""event"",""trial"",""time""
""fullscreenenter"",""1"",""8368""
","
","
","""event"",""trial"",""time""
""fullscreenenter"",""1"",""8368""
","
","","","","","","null","<div style=""font-size:60px;"">+</div>","null","","fixation","","","","","","","","",""
"memory-trial","87","280024","0.0-15.0-1.22","2010","2","""event"",""trial"",""time""
""fullscreenenter"",""1"",""8368""
","
","
","""event"",""trial"",""time""
""fullscreenenter"",""1"",""8368""
","
","","","","","","891.8999998569489","images/feline4.png","","","memory_trial","1","definitely_old","","","","","","",""
"html-keyboard-response","88","280528","0.0-15.0-0.23","2010","2","""event"",""trial"",""time""
""fullscreenenter"",""1"",""8368""
","
","
","""event"",""trial"",""time""
""fullscreenenter"",""1"",""8368""
","
","","","","","","null","<div style=""font-size:60px;"">+</div>","null","","fixation","","","","","","","","",""
"memory-trial","89","282382","0.0-15.0-1.23","2010","2","""event"",""trial"",""time""
""fullscreenenter"",""1"",""8368""
","
","
","""event"",""trial"",""time""
""fullscreenenter"",""1"",""8368""
","
","","","","","","848.2999999523163","images/sofa3.png","","","memory_trial","1","definitely_old","","","","","","",""
"html-keyboard-response","90","282883","0.0-15.0-0.24","2010","2","""event"",""trial"",""time""
""fullscreenenter"",""1"",""8368""
","
","
","""event"",""trial"",""time""
""fullscreenenter"",""1"",""8368""
","
","","","","","","null","<div style=""font-size:60px;"">+</div>","null","","fixation","","","","","","","","",""
"memory-trial","91","284702","0.0-15.0-1.24","2010","2","""event"",""trial"",""time""
""fullscreenenter"",""1"",""8368""
","
","
","""event"",""trial"",""time""
""fullscreenenter"",""1"",""8368""
","
","","","","","","816.1999998092651","images/cow1.png","","","memory_trial","1","definitely_old","","","","","","",""
"html-keyboard-response","92","285203","0.0-15.0-0.25","2010","2","""event"",""trial"",""time""
""fullscreenenter"",""1"",""8368""
","
","
","""event"",""trial"",""time""
""fullscreenenter"",""1"",""8368""
","
","","","","","","null","<div style=""font-size:60px;"">+</div>","null","","fixation","","","","","","","","",""
"memory-trial","93","287208","0.0-15.0-1.25","2010","2","""event"",""trial"",""time""
""fullscreenenter"",""1"",""8368""
","
","
","""event"",""trial"",""time""
""fullscreenenter"",""1"",""8368""
","
","","","","","","999.9000000953674","images/flower5.png","","","memory_trial","4","definitely_new","","","","","","",""
"html-keyboard-response","94","287710","0.0-15.0-0.26","2010","2","""event"",""trial"",""time""
""fullscreenenter"",""1"",""8368""
","
","
","""event"",""trial"",""time""
""fullscreenenter"",""1"",""8368""
","
","","","","","","null","<div style=""font-size:60px;"">+</div>","null","","fixation","","","","","","","","",""
"memory-trial","95","289571","0.0-15.0-1.26","2010","2","""event"",""trial"",""time""
""fullscreenenter"",""1"",""8368""
","
","
","""event"",""trial"",""time""
""fullscreenenter"",""1"",""8368""
","
","","","","","","857.6000001430511","images/train4.png","","","memory_trial","1","definitely_old","","","","","","",""
"html-keyboard-response","96","290072","0.0-15.0-0.27","2010","2","""event"",""trial"",""time""
""fullscreenenter"",""1"",""8368""
","
","
","""event"",""trial"",""time""
""fullscreenenter"",""1"",""8368""
","
","","","","","","null","<div style=""font-size:60px;"">+</div>","null","","fixation","","","","","","","","",""
"memory-trial","97","293363","0.0-15.0-1.27","2010","2","""event"",""trial"",""time""
""fullscreenenter"",""1"",""8368""
","
","
","""event"",""trial"",""time""
""fullscreenenter"",""1"",""8368""
","
","","","","","","2284.2999999523163","images/banana4.png","","","memory_trial","3","maybe_new","","","","","","",""
"html-keyboard-response","98","293869","0.0-15.0-0.28","2010","2","""event"",""trial"",""time""
""fullscreenenter"",""1"",""8368""
","
","
","""event"",""trial"",""time""
""fullscreenenter"",""1"",""8368""
","
","","","","","","null","<div style=""font-size:60px;"">+</div>","null","","fixation","","","","","","","","",""
"memory-trial","99","296558","0.0-15.0-1.28","2010","2","""event"",""trial"",""time""
""fullscreenenter"",""1"",""8368""
","
","
","""event"",""trial"",""time""
""fullscreenenter"",""1"",""8368""
","
","","","","","","1683.7000000476837","images/plane3.png","","","memory_trial","4","definitely_new","","","","","","",""
"html-keyboard-response","100","297062","0.0-15.0-0.29","2010","2","""event"",""trial"",""time""
""fullscreenenter"",""1"",""8368""
","
","
","""event"",""trial"",""time""
""fullscreenenter"",""1"",""8368""
","
","","","","","","null","<div style=""font-size:60px;"">+</div>","null","","fixation","","","","","","","","",""
"memory-trial","101","298960","0.0-15.0-1.29","2010","2","""event"",""trial"",""time""
""fullscreenenter"",""1"",""8368""
","
","
","""event"",""trial"",""time""
""fullscreenenter"",""1"",""8368""
","
","","","","","","892.3999998569489","images/flower3.png","","","memory_trial","4","definitely_new","","","","","","",""
"html-keyboard-response","102","299464","0.0-15.0-0.30","2010","2","""event"",""trial"",""time""
""fullscreenenter"",""1"",""8368""
","
","
","""event"",""trial"",""time""
""fullscreenenter"",""1"",""8368""
","
","","","","","","null","<div style=""font-size:60px;"">+</div>","null","","fixation","","","","","","","","",""
"memory-trial","103","302984","0.0-15.0-1.30","2010","2","""event"",""trial"",""time""
""fullscreenenter"",""1"",""8368""
","
","
","""event"",""trial"",""time""
""fullscreenenter"",""1"",""8368""
","
","","","","","","2513.7000000476837","images/apple4.png","","","memory_trial","1","definitely_old","","","","","","",""
"html-keyboard-response","104","303491","0.0-15.0-0.31","2010","2","""event"",""trial"",""time""
""fullscreenenter"",""1"",""8368""
","
","
","""event"",""trial"",""time""
""fullscreenenter"",""1"",""8368""
","
","","","","","","null","<div style=""font-size:60px;"">+</div>","null","","fixation","","","","","","","","",""
"memory-trial","105","305277","0.0-15.0-1.31","2010","2","""event"",""trial"",""time""
""fullscreenenter"",""1"",""8368""
","
","
","""event"",""trial"",""time""
""fullscreenenter"",""1"",""8368""
","
","","","","","","783.4000000953674","images/apple3.png","","","memory_trial","1","definitely_old","","","","","","",""
"html-keyboard-response","106","305779","0.0-15.0-0.32","2010","2","""event"",""trial"",""time""
""fullscreenenter"",""1"",""8368""
","
","
","""event"",""trial"",""time""
""fullscreenenter"",""1"",""8368""
","
","","","","","","null","<div style=""font-size:60px;"">+</div>","null","","fixation","","","","","","","","",""
"memory-trial","107","307847","0.0-15.0-1.32","2010","2","""event"",""trial"",""time""
""fullscreenenter"",""1"",""8368""
","
","
","""event"",""trial"",""time""
""fullscreenenter"",""1"",""8368""
","
","","","","","","1064.2999999523163","images/rabbit3.png","","","memory_trial","4","definitely_new","","","","","","",""
"html-keyboard-response","108","308349","0.0-15.0-0.33","2010","2","""event"",""trial"",""time""
""fullscreenenter"",""1"",""8368""
","
","
","""event"",""trial"",""time""
""fullscreenenter"",""1"",""8368""
","
","","","","","","null","<div style=""font-size:60px;"">+</div>","null","","fixation","","","","","","","","",""
"memory-trial","109","310361","0.0-15.0-1.33","2010","2","""event"",""trial"",""time""
""fullscreenenter"",""1"",""8368""
","
","
","""event"",""trial"",""time""
""fullscreenenter"",""1"",""8368""
","
","","","","","","1009.4000000953674","images/goat3.png","","","memory_trial","1","definitely_old","","","","","","",""
"html-keyboard-response","110","310867","0.0-15.0-0.34","2010","2","""event"",""trial"",""time""
""fullscreenenter"",""1"",""8368""
","
","
","""event"",""trial"",""time""
""fullscreenenter"",""1"",""8368""
","
","","","","","","null","<div style=""font-size:60px;"">+</div>","null","","fixation","","","","","","","","",""
"memory-trial","111","312664","0.0-15.0-1.34","2010","2","""event"",""trial"",""time""
""fullscreenenter"",""1"",""8368""
","
","
","""event"",""trial"",""time""
""fullscreenenter"",""1"",""8368""
","
","","","","","","792.0999999046326","images/bed1.png","","","memory_trial","1","definitely_old","","","","","","",""
"html-keyboard-response","112","313165","0.0-15.0-0.35","2010","2","""event"",""trial"",""time""
""fullscreenenter"",""1"",""8368""
","
","
","""event"",""trial"",""time""
""fullscreenenter"",""1"",""8368""
","
","","","","","","null","<div style=""font-size:60px;"">+</div>","null","","fixation","","","","","","","","",""
"memory-trial","113","316877","0.0-15.0-1.35","2010","2","""event"",""trial"",""time""
""fullscreenenter"",""1"",""8368""
","
","
","""event"",""trial"",""time""
""fullscreenenter"",""1"",""8368""
","
","","","","","","2706.5","images/banana1.png","","","memory_trial","4","definitely_new","","","","","","",""
"html-keyboard-response","114","317379","0.0-15.0-0.36","2010","2","""event"",""trial"",""time""
""fullscreenenter"",""1"",""8368""
","
","
","""event"",""trial"",""time""
""fullscreenenter"",""1"",""8368""
","
","","","","","","null","<div style=""font-size:60px;"">+</div>","null","","fixation","","","","","","","","",""
"memory-trial","115","321052","0.0-15.0-1.36","2010","2","""event"",""trial"",""time""
""fullscreenenter"",""1"",""8368""
","
","
","""event"",""trial"",""time""
""fullscreenenter"",""1"",""8368""
","
","","","","","","2666.4000000953674","images/bush2.png","","","memory_trial","4","definitely_new","","","","","","",""
"html-keyboard-response","116","321555","0.0-15.0-0.37","2010","2","""event"",""trial"",""time""
""fullscreenenter"",""1"",""8368""
","
","
","""event"",""trial"",""time""
""fullscreenenter"",""1"",""8368""
","
","","","","","","null","<div style=""font-size:60px;"">+</div>","null","","fixation","","","","","","","","",""
"memory-trial","117","323484","0.0-15.0-1.37","2010","2","""event"",""trial"",""time""
""fullscreenenter"",""1"",""8368""
","
","
","""event"",""trial"",""time""
""fullscreenenter"",""1"",""8368""
","
","","","","","","924.5","images/sheep4.png","","","memory_trial","4","definitely_new","","","","","","",""
"html-keyboard-response","118","323986","0.0-15.0-0.38","2010","2","""event"",""trial"",""time""
""fullscreenenter"",""1"",""8368""
","
","
","""event"",""trial"",""time""
""fullscreenenter"",""1"",""8368""
","
","","","","","","null","<div style=""font-size:60px;"">+</div>","null","","fixation","","","","","","","","",""
"memory-trial","119","325763","0.0-15.0-1.38","2010","2","""event"",""trial"",""time""
""fullscreenenter"",""1"",""8368""
","
","
","""event"",""trial"",""time""
""fullscreenenter"",""1"",""8368""
","
","","","","","","770.7999999523163","images/flower2.png","","","memory_trial","4","definitely_new","","","","","","",""
"html-keyboard-response","120","326269","0.0-15.0-0.39","2010","2","""event"",""trial"",""time""
""fullscreenenter"",""1"",""8368""
","
","
","""event"",""trial"",""time""
""fullscreenenter"",""1"",""8368""
","
","","","","","","null","<div style=""font-size:60px;"">+</div>","null","","fixation","","","","","","","","",""
"memory-trial","121","328163","0.0-15.0-1.39","2010","2","""event"",""trial"",""time""
""fullscreenenter"",""1"",""8368""
","
","
","""event"",""trial"",""time""
""fullscreenenter"",""1"",""8368""
","
","","","","","","889.5999999046326","images/sofa4.png","","","memory_trial","4","definitely_new","","","","","","",""
"html-keyboard-response","122","328669","0.0-15.0-0.40","2010","2","""event"",""trial"",""time""
""fullscreenenter"",""1"",""8368""
","
","
","""event"",""trial"",""time""
""fullscreenenter"",""1"",""8368""
","
","","","","","","null","<div style=""font-size:60px;"">+</div>","null","","fixation","","","","","","","","",""
"memory-trial","123","330808","0.0-15.0-1.40","2010","2","""event"",""trial"",""time""
""fullscreenenter"",""1"",""8368""
","
","
","""event"",""trial"",""time""
""fullscreenenter"",""1"",""8368""
","
","","","","","","1136.5","images/cactus5.png","","","memory_trial","1","definitely_old","","","","","","",""
"html-keyboard-response","124","331313","0.0-15.0-0.41","2010","2","""event"",""trial"",""time""
""fullscreenenter"",""1"",""8368""
","
","
","""event"",""trial"",""time""
""fullscreenenter"",""1"",""8368""
","
","","","","","","null","<div style=""font-size:60px;"">+</div>","null","","fixation","","","","","","","","",""
"memory-trial","125","333481","0.0-15.0-1.41","2010","2","""event"",""trial"",""time""
""fullscreenenter"",""1"",""8368""
","
","
","""event"",""trial"",""time""
""fullscreenenter"",""1"",""8368""
","
","","","","","","1160.5999999046326","images/sofa2.png","","","memory_trial","1","definitely_old","","","","","","",""
"html-keyboard-response","126","333986","0.0-15.0-0.42","2010","2","""event"",""trial"",""time""
""fullscreenenter"",""1"",""8368""
","
","
","""event"",""trial"",""time""
""fullscreenenter"",""1"",""8368""
","
","","","","","","null","<div style=""font-size:60px;"">+</div>","null","","fixation","","","","","","","","",""
"memory-trial","127","335837","0.0-15.0-1.42","2010","2","""event"",""trial"",""time""
""fullscreenenter"",""1"",""8368""
","
","
","""event"",""trial"",""time""
""fullscreenenter"",""1"",""8368""
","
","","","","","","848.1000001430511","images/straw2.png","","","memory_trial","1","definitely_old","","","","","","",""
"html-keyboard-response","128","336344","0.0-15.0-0.43","2010","2","""event"",""trial"",""time""
""fullscreenenter"",""1"",""8368""
","
","
","""event"",""trial"",""time""
""fullscreenenter"",""1"",""8368""
","
","","","","","","null","<div style=""font-size:60px;"">+</div>","null","","fixation","","","","","","","","",""
"memory-trial","129","338440","0.0-15.0-1.43","2010","2","""event"",""trial"",""time""
""fullscreenenter"",""1"",""8368""
","
","
","""event"",""trial"",""time""
""fullscreenenter"",""1"",""8368""
","
","","","","","","1089.5","images/dog5.png","","","memory_trial","1","definitely_old","","","","","","",""
"html-keyboard-response","130","338941","0.0-15.0-0.44","2010","2","""event"",""trial"",""time""
""fullscreenenter"",""1"",""8368""
","
","
","""event"",""trial"",""time""
""fullscreenenter"",""1"",""8368""
","
","","","","","","null","<div style=""font-size:60px;"">+</div>","null","","fixation","","","","","","","","",""
"memory-trial","131","341437","0.0-15.0-1.44","2010","2","""event"",""trial"",""time""
""fullscreenenter"",""1"",""8368""
","
","
","""event"",""trial"",""time""
""fullscreenenter"",""1"",""8368""
","
","","","","","","1493","images/train1.png","","","memory_trial","4","definitely_new","","","","","","",""
"html-keyboard-response","132","341943","0.0-15.0-0.45","2010","2","""event"",""trial"",""time""
""fullscreenenter"",""1"",""8368""
","
","
","""event"",""trial"",""time""
""fullscreenenter"",""1"",""8368""
","
","","","","","","null","<div style=""font-size:60px;"">+</div>","null","","fixation","","","","","","","","",""
"memory-trial","133","343896","0.0-15.0-1.45","2010","2","""event"",""trial"",""time""
""fullscreenenter"",""1"",""8368""
","
","
","""event"",""trial"",""time""
""fullscreenenter"",""1"",""8368""
","
","","","","","","949.9000000953674","images/boat1.png","","","memory_trial","1","definitely_old","","","","","","",""
"html-keyboard-response","134","344397","0.0-15.0-0.46","2010","2","""event"",""trial"",""time""
""fullscreenenter"",""1"",""8368""
","
","
","""event"",""trial"",""time""
""fullscreenenter"",""1"",""8368""
","
","","","","","","null","<div style=""font-size:60px;"">+</div>","null","","fixation","","","","","","","","",""
"memory-trial","135","348689","0.0-15.0-1.46","2010","2","""event"",""trial"",""time""
""fullscreenenter"",""1"",""8368""
","
","
","""event"",""trial"",""time""
""fullscreenenter"",""1"",""8368""
","
","","","","","","3285.5","images/train2.png","","","memory_trial","1","definitely_old","","","","","","",""
"html-button-response","136","351730","0.0-15.0-2.46-0.46","2010","2","""event"",""trial"",""time""
""fullscreenenter"",""1"",""8368""
","
","
","""event"",""trial"",""time""
""fullscreenenter"",""1"",""8368""
","
","","","","","","3038.7999999523163","<p> Take a break! </p><p> Click the button to continue. </p>","0","","break","","","","","","","","",""
"html-keyboard-response","137","352231","0.0-15.0-0.47","2010","2","""event"",""trial"",""time""
""fullscreenenter"",""1"",""8368""
","
","
","""event"",""trial"",""time""
""fullscreenenter"",""1"",""8368""
","
","","","","","","null","<div style=""font-size:60px;"">+</div>","null","","fixation","","","","","","","","",""
"memory-trial","138","354334","0.0-15.0-1.47","2010","2","""event"",""trial"",""time""
""fullscreenenter"",""1"",""8368""
","
","
","""event"",""trial"",""time""
""fullscreenenter"",""1"",""8368""
","
","","","","","","1098.5","images/straw1.png","","","memory_trial","1","definitely_old","","","","","","",""
"html-keyboard-response","139","354839","0.0-15.0-0.48","2010","2","""event"",""trial"",""time""
""fullscreenenter"",""1"",""8368""
","
","
","""event"",""trial"",""time""
""fullscreenenter"",""1"",""8368""
","
","","","","","","null","<div style=""font-size:60px;"">+</div>","null","","fixation","","","","","","","","",""
"memory-trial","140","358466","0.0-15.0-1.48","2010","2","""event"",""trial"",""time""
""fullscreenenter"",""1"",""8368""
","
","
","""event"",""trial"",""time""
""fullscreenenter"",""1"",""8368""
","
","","","","","","2621.100000143051","images/plane5.png","","","memory_trial","3","maybe_new","","","","","","",""
"html-keyboard-response","141","358968","0.0-15.0-0.49","2010","2","""event"",""trial"",""time""
""fullscreenenter"",""1"",""8368""
","
","
","""event"",""trial"",""time""
""fullscreenenter"",""1"",""8368""
","
","","","","","","null","<div style=""font-size:60px;"">+</div>","null","","fixation","","","","","","","","",""
"memory-trial","142","362165","0.0-15.0-1.49","2010","2","""event"",""trial"",""time""
""fullscreenenter"",""1"",""8368""
","
","
","""event"",""trial"",""time""
""fullscreenenter"",""1"",""8368""
","
","","","","","","2193.4000000953674","images/bush1.png","","","memory_trial","3","maybe_new","","","","","","",""
"html-keyboard-response","143","362669","0.0-15.0-0.50","2010","2","""event"",""trial"",""time""
""fullscreenenter"",""1"",""8368""
","
","
","""event"",""trial"",""time""
""fullscreenenter"",""1"",""8368""
","
","","","","","","null","<div style=""font-size:60px;"">+</div>","null","","fixation","","","","","","","","",""
"memory-trial","144","364882","0.0-15.0-1.50","2010","2","""event"",""trial"",""time""
""fullscreenenter"",""1"",""8368""
","
","
","""event"",""trial"",""time""
""fullscreenenter"",""1"",""8368""
","
","","","","","","1209.2000000476837","images/feline1.png","","","memory_trial","4","definitely_new","","","","","","",""
"html-keyboard-response","145","365383","0.0-15.0-0.51","2010","2","""event"",""trial"",""time""
""fullscreenenter"",""1"",""8368""
","
","
","""event"",""trial"",""time""
""fullscreenenter"",""1"",""8368""
","
","","","","","","null","<div style=""font-size:60px;"">+</div>","null","","fixation","","","","","","","","",""
"memory-trial","146","367549","0.0-15.0-1.51","2010","2","""event"",""trial"",""time""
""fullscreenenter"",""1"",""8368""
","
","
","""event"",""trial"",""time""
""fullscreenenter"",""1"",""8368""
","
","","","","","","1162.7000000476837","images/straw3.png","","","memory_trial","4","definitely_new","","","","","","",""
"html-keyboard-response","147","368050","0.0-15.0-0.52","2010","2","""event"",""trial"",""time""
""fullscreenenter"",""1"",""8368""
","
","
","""event"",""trial"",""time""
""fullscreenenter"",""1"",""8368""
","
","","","","","","null","<div style=""font-size:60px;"">+</div>","null","","fixation","","","","","","","","",""
"memory-trial","148","370834","0.0-15.0-1.52","2010","2","""event"",""trial"",""time""
""fullscreenenter"",""1"",""8368""
","
","
","""event"",""trial"",""time""
""fullscreenenter"",""1"",""8368""
","
","","","","","","1778.5","images/dog4.png","","","memory_trial","4","definitely_new","","","","","","",""
"html-keyboard-response","149","371335","0.0-15.0-0.53","2010","2","""event"",""trial"",""time""
""fullscreenenter"",""1"",""8368""
","
","
","""event"",""trial"",""time""
""fullscreenenter"",""1"",""8368""
","
","","","","","","null","<div style=""font-size:60px;"">+</div>","null","","fixation","","","","","","","","",""
"memory-trial","150","373778","0.0-15.0-1.53","2010","2","""event"",""trial"",""time""
""fullscreenenter"",""1"",""8368""
","
","
","""event"",""trial"",""time""
""fullscreenenter"",""1"",""8368""
","
","","","","","","1440.5999999046326","images/apple1.png","","","memory_trial","1","definitely_old","","","","","","",""
"html-keyboard-response","151","374282","0.0-15.0-0.54","2010","2","""event"",""trial"",""time""
""fullscreenenter"",""1"",""8368""
","
","
","""event"",""trial"",""time""
""fullscreenenter"",""1"",""8368""
","
","","","","","","null","<div style=""font-size:60px;"">+</div>","null","","fixation","","","","","","","","",""
"memory-trial","152","378375","0.0-15.0-1.54","2010","2","""event"",""trial"",""time""
""fullscreenenter"",""1"",""8368""
","
","
","""event"",""trial"",""time""
""fullscreenenter"",""1"",""8368""
","
","","","","","","3089.7000000476837","images/boat2.png","","","memory_trial","2","maybe_old","","","","","","",""
"html-keyboard-response","153","378877","0.0-15.0-0.55","2010","2","""event"",""trial"",""time""
""fullscreenenter"",""1"",""8368""
","
","
","""event"",""trial"",""time""
""fullscreenenter"",""1"",""8368""
","
","","","","","","null","<div style=""font-size:60px;"">+</div>","null","","fixation","","","","","","","","",""
"memory-trial","154","380989","0.0-15.0-1.55","2010","2","""event"",""trial"",""time""
""fullscreenenter"",""1"",""8368""
","
","
","""event"",""trial"",""time""
""fullscreenenter"",""1"",""8368""
","
","","","","","","1109.2999999523163","images/cactus2.png","","","memory_trial","1","definitely_old","","","","","","",""
"html-keyboard-response","155","381490","0.0-15.0-0.56","2010","2","""event"",""trial"",""time""
""fullscreenenter"",""1"",""8368""
","
","
","""event"",""trial"",""time""
""fullscreenenter"",""1"",""8368""
","
","","","","","","null","<div style=""font-size:60px;"">+</div>","null","","fixation","","","","","","","","",""
"memory-trial","156","385964","0.0-15.0-1.56","2010","2","""event"",""trial"",""time""
""fullscreenenter"",""1"",""8368""
","
","
","""event"",""trial"",""time""
""fullscreenenter"",""1"",""8368""
","
","","","","","","3472.0999999046326","images/cow2.png","","","memory_trial","3","maybe_new","","","","","","",""
"html-keyboard-response","157","386466","0.0-15.0-0.57","2010","2","""event"",""trial"",""time""
""fullscreenenter"",""1"",""8368""
","
","
","""event"",""trial"",""time""
""fullscreenenter"",""1"",""8368""
","
","","","","","","null","<div style=""font-size:60px;"">+</div>","null","","fixation","","","","","","","","",""
"memory-trial","158","389847","0.0-15.0-1.57","2010","2","""event"",""trial"",""time""
""fullscreenenter"",""1"",""8368""
","
","
","""event"",""trial"",""time""
""fullscreenenter"",""1"",""8368""
","
","","","","","","2377.199999809265","images/horse1.png","","","memory_trial","1","definitely_old","","","","","","",""
"html-keyboard-response","159","390348","0.0-15.0-0.58","2010","2","""event"",""trial"",""time""
""fullscreenenter"",""1"",""8368""
","
","
","""event"",""trial"",""time""
""fullscreenenter"",""1"",""8368""
","
","","","","","","null","<div style=""font-size:60px;"">+</div>","null","","fixation","","","","","","","","",""
"memory-trial","160","393137","0.0-15.0-1.58","2010","2","""event"",""trial"",""time""
""fullscreenenter"",""1"",""8368""
","
","
","""event"",""trial"",""time""
""fullscreenenter"",""1"",""8368""
","
","","","","","","1786.3999998569489","images/bed4.png","","","memory_trial","1","definitely_old","","","","","","",""
"html-keyboard-response","161","393639","0.0-15.0-0.59","2010","2","""event"",""trial"",""time""
""fullscreenenter"",""1"",""8368""
","
","
","""event"",""trial"",""time""
""fullscreenenter"",""1"",""8368""
","
","","","","","","null","<div style=""font-size:60px;"">+</div>","null","","fixation","","","","","","","","",""
"memory-trial","162","395916","0.0-15.0-1.59","2010","2","""event"",""trial"",""time""
""fullscreenenter"",""1"",""8368""
","
","
","""event"",""trial"",""time""
""fullscreenenter"",""1"",""8368""
","
","","","","","","1273.3000001907349","images/cow4.png","","","memory_trial","1","definitely_old","","","","","","",""
"html-keyboard-response","163","396422","0.0-15.0-0.60","2010","2","""event"",""trial"",""time""
""fullscreenenter"",""1"",""8368""
","
","
","""event"",""trial"",""time""
""fullscreenenter"",""1"",""8368""
","
","","","","","","null","<div style=""font-size:60px;"">+</div>","null","","fixation","","","","","","","","",""
"memory-trial","164","399724","0.0-15.0-1.60","2010","2","""event"",""trial"",""time""
""fullscreenenter"",""1"",""8368""
","
","
","""event"",""trial"",""time""
""fullscreenenter"",""1"",""8368""
","
","","","","","","2296.5999999046326","images/rabbit2.png","","","memory_trial","3","maybe_new","","","","","","",""
"html-keyboard-response","165","400226","0.0-15.0-0.61","2010","2","""event"",""trial"",""time""
""fullscreenenter"",""1"",""8368""
","
","
","""event"",""trial"",""time""
""fullscreenenter"",""1"",""8368""
","
","","","","","","null","<div style=""font-size:60px;"">+</div>","null","","fixation","","","","","","","","",""
"memory-trial","166","402204","0.0-15.0-1.61","2010","2","""event"",""trial"",""time""
""fullscreenenter"",""1"",""8368""
","
","
","""event"",""trial"",""time""
""fullscreenenter"",""1"",""8368""
","
","","","","","","971.6000001430511","images/rabbit5.png","","","memory_trial","4","definitely_new","","","","","","",""
"html-keyboard-response","167","402705","0.0-15.0-0.62","2010","2","""event"",""trial"",""time""
""fullscreenenter"",""1"",""8368""
","
","
","""event"",""trial"",""time""
""fullscreenenter"",""1"",""8368""
","
","","","","","","null","<div style=""font-size:60px;"">+</div>","null","","fixation","","","","","","","","",""
"memory-trial","168","404663","0.0-15.0-1.62","2010","2","""event"",""trial"",""time""
""fullscreenenter"",""1"",""8368""
","
","
","""event"",""trial"",""time""
""fullscreenenter"",""1"",""8368""
","
","","","","","","951.2999999523163","images/chair3.png","","","memory_trial","4","definitely_new","","","","","","",""
"html-keyboard-response","169","405164","0.0-15.0-0.63","2010","2","""event"",""trial"",""time""
""fullscreenenter"",""1"",""8368""
","
","
","""event"",""trial"",""time""
""fullscreenenter"",""1"",""8368""
","
","","","","","","null","<div style=""font-size:60px;"">+</div>","null","","fixation","","","","","","","","",""
"memory-trial","170","407239","0.0-15.0-1.63","2010","2","""event"",""trial"",""time""
""fullscreenenter"",""1"",""8368""
","
","
","""event"",""trial"",""time""
""fullscreenenter"",""1"",""8368""
","
","","","","","","1071.8999998569489","images/truck3.png","","","memory_trial","4","definitely_new","","","","","","",""
"html-keyboard-response","171","407740","0.0-15.0-0.64","2010","2","""event"",""trial"",""time""
""fullscreenenter"",""1"",""8368""
","
","
","""event"",""trial"",""time""
""fullscreenenter"",""1"",""8368""
","
","","","","","","null","<div style=""font-size:60px;"">+</div>","null","","fixation","","","","","","","","",""
"memory-trial","172","410135","0.0-15.0-1.64","2010","2","""event"",""trial"",""time""
""fullscreenenter"",""1"",""8368""
","
","
","""event"",""trial"",""time""
""fullscreenenter"",""1"",""8368""
","
","","","","","","1391.5999999046326","images/table5.png","","","memory_trial","1","definitely_old","","","","","","",""
"html-keyboard-response","173","410636","0.0-15.0-0.65","2010","2","""event"",""trial"",""time""
""fullscreenenter"",""1"",""8368""
","
","
","""event"",""trial"",""time""
""fullscreenenter"",""1"",""8368""
","
","","","","","","null","<div style=""font-size:60px;"">+</div>","null","","fixation","","","","","","","","",""
"memory-trial","174","412503","0.0-15.0-1.65","2010","2","""event"",""trial"",""time""
""fullscreenenter"",""1"",""8368""
","
","
","""event"",""trial"",""time""
""fullscreenenter"",""1"",""8368""
","
","","","","","","863.9000000953674","images/feline2.png","","","memory_trial","1","definitely_old","","","","","","",""
"html-keyboard-response","175","413004","0.0-15.0-0.66","2010","2","""event"",""trial"",""time""
""fullscreenenter"",""1"",""8368""
","
","
","""event"",""trial"",""time""
""fullscreenenter"",""1"",""8368""
","
","","","","","","null","<div style=""font-size:60px;"">+</div>","null","","fixation","","","","","","","","",""
"memory-trial","176","415063","0.0-15.0-1.66","2010","2","""event"",""trial"",""time""
""fullscreenenter"",""1"",""8368""
","
","
","""event"",""trial"",""time""
""fullscreenenter"",""1"",""8368""
","
","","","","","","1055.5999999046326","images/table2.png","","","memory_trial","4","definitely_new","","","","","","",""
"html-keyboard-response","177","415567","0.0-15.0-0.67","2010","2","""event"",""trial"",""time""
""fullscreenenter"",""1"",""8368""
","
","
","""event"",""trial"",""time""
""fullscreenenter"",""1"",""8368""
","
","","","","","","null","<div style=""font-size:60px;"">+</div>","null","","fixation","","","","","","","","",""
"memory-trial","178","417372","0.0-15.0-1.67","2010","2","""event"",""trial"",""time""
""fullscreenenter"",""1"",""8368""
","
","
","""event"",""trial"",""time""
""fullscreenenter"",""1"",""8368""
","
","","","","","","801.7000000476837","images/cactus4.png","","","memory_trial","4","definitely_new","","","","","","",""
"html-keyboard-response","179","417873","0.0-15.0-0.68","2010","2","""event"",""trial"",""time""
""fullscreenenter"",""1"",""8368""
","
","
","""event"",""trial"",""time""
""fullscreenenter"",""1"",""8368""
","
","","","","","","null","<div style=""font-size:60px;"">+</div>","null","","fixation","","","","","","","","",""
"memory-trial","180","421799","0.0-15.0-1.68","2010","2","""event"",""trial"",""time""
""fullscreenenter"",""1"",""8368""
","
","
","""event"",""trial"",""time""
""fullscreenenter"",""1"",""8368""
","
","","","","","","2921.600000143051","images/table4.png","","","memory_trial","2","maybe_old","","","","","","",""
"html-keyboard-response","181","422300","0.0-15.0-0.69","2010","2","""event"",""trial"",""time""
""fullscreenenter"",""1"",""8368""
","
","
","""event"",""trial"",""time""
""fullscreenenter"",""1"",""8368""
","
","","","","","","null","<div style=""font-size:60px;"">+</div>","null","","fixation","","","","","","","","",""
"memory-trial","182","424380","0.0-15.0-1.69","2010","2","""event"",""trial"",""time""
""fullscreenenter"",""1"",""8368""
","
","
","""event"",""trial"",""time""
""fullscreenenter"",""1"",""8368""
","
","","","","","","1076.9000000953674","images/plane2.png","","","memory_trial","4","definitely_new","","","","","","",""
"html-keyboard-response","183","424881","0.0-15.0-0.70","2010","2","""event"",""trial"",""time""
""fullscreenenter"",""1"",""8368""
","
","
","""event"",""trial"",""time""
""fullscreenenter"",""1"",""8368""
","
","","","","","","null","<div style=""font-size:60px;"">+</div>","null","","fixation","","","","","","","","",""
"memory-trial","184","428711","0.0-15.0-1.70","2010","2","""event"",""trial"",""time""
""fullscreenenter"",""1"",""8368""
","
","
","""event"",""trial"",""time""
""fullscreenenter"",""1"",""8368""
","
","","","","","","2822.4000000953674","images/rodent1.png","","","memory_trial","2","maybe_old","","","","","","",""
"html-keyboard-response","185","429212","0.0-15.0-0.71","2010","2","""event"",""trial"",""time""
""fullscreenenter"",""1"",""8368""
","
","
","""event"",""trial"",""time""
""fullscreenenter"",""1"",""8368""
","
","","","","","","null","<div style=""font-size:60px;"">+</div>","null","","fixation","","","","","","","","",""
"memory-trial","186","431525","0.0-15.0-1.71","2010","2","""event"",""trial"",""time""
""fullscreenenter"",""1"",""8368""
","
","
","""event"",""trial"",""time""
""fullscreenenter"",""1"",""8368""
","
","","","","","","1308.8000001907349","images/table3.png","","","memory_trial","1","definitely_old","","","","","","",""
"html-keyboard-response","187","432028","0.0-15.0-0.72","2010","2","""event"",""trial"",""time""
""fullscreenenter"",""1"",""8368""
","
","
","""event"",""trial"",""time""
""fullscreenenter"",""1"",""8368""
","
","","","","","","null","<div style=""font-size:60px;"">+</div>","null","","fixation","","","","","","","","",""
"memory-trial","188","434087","0.0-15.0-1.72","2010","2","""event"",""trial"",""time""
""fullscreenenter"",""1"",""8368""
","
","
","""event"",""trial"",""time""
""fullscreenenter"",""1"",""8368""
","
","","","","","","1056.6000001430511","images/cow3.png","","","memory_trial","1","definitely_old","","","","","","",""
"html-keyboard-response","189","434593","0.0-15.0-0.73","2010","2","""event"",""trial"",""time""
""fullscreenenter"",""1"",""8368""
","
","
","""event"",""trial"",""time""
""fullscreenenter"",""1"",""8368""
","
","","","","","","null","<div style=""font-size:60px;"">+</div>","null","","fixation","","","","","","","","",""
"memory-trial","190","438092","0.0-15.0-1.73","2010","2","""event"",""trial"",""time""
""fullscreenenter"",""1"",""8368""
","
","
","""event"",""trial"",""time""
""fullscreenenter"",""1"",""8368""
","
","","","","","","2491.7999999523163","images/cow5.png","","","memory_trial","4","definitely_new","","","","","","",""
"html-keyboard-response","191","438598","0.0-15.0-0.74","2010","2","""event"",""trial"",""time""
""fullscreenenter"",""1"",""8368""
","
","
","""event"",""trial"",""time""
""fullscreenenter"",""1"",""8368""
","
","","","","","","null","<div style=""font-size:60px;"">+</div>","null","","fixation","","","","","","","","",""
"memory-trial","192","440556","0.0-15.0-1.74","2010","2","""event"",""trial"",""time""
""fullscreenenter"",""1"",""8368""
","
","
","""event"",""trial"",""time""
""fullscreenenter"",""1"",""8368""
","
","","","","","","953.6000001430511","images/sofa1.png","","","memory_trial","4","definitely_new","","","","","","",""
"html-keyboard-response","193","441057","0.0-15.0-0.75","2010","2","""event"",""trial"",""time""
""fullscreenenter"",""1"",""8368""
","
","
","""event"",""trial"",""time""
""fullscreenenter"",""1"",""8368""
","
","","","","","","null","<div style=""font-size:60px;"">+</div>","null","","fixation","","","","","","","","",""
"memory-trial","194","443889","0.0-15.0-1.75","2010","2","""event"",""trial"",""time""
""fullscreenenter"",""1"",""8368""
","
","
","""event"",""trial"",""time""
""fullscreenenter"",""1"",""8368""
","
","","","","","","1827.5","images/dog2.png","","","memory_trial","3","maybe_new","","","","","","",""
"html-keyboard-response","195","444390","0.0-15.0-0.76","2010","2","""event"",""trial"",""time""
""fullscreenenter"",""1"",""8368""
","
","
","""event"",""trial"",""time""
""fullscreenenter"",""1"",""8368""
","
","","","","","","null","<div style=""font-size:60px;"">+</div>","null","","fixation","","","","","","","","",""
"memory-trial","196","446561","0.0-15.0-1.76","2010","2","""event"",""trial"",""time""
""fullscreenenter"",""1"",""8368""
","
","
","""event"",""trial"",""time""
""fullscreenenter"",""1"",""8368""
","
","","","","","","1164","images/bed3.png","","","memory_trial","1","definitely_old","","","","","","",""
"html-keyboard-response","197","447065","0.0-15.0-0.77","2010","2","""event"",""trial"",""time""
""fullscreenenter"",""1"",""8368""
","
","
","""event"",""trial"",""time""
""fullscreenenter"",""1"",""8368""
","
","","","","","","null","<div style=""font-size:60px;"">+</div>","null","","fixation","","","","","","","","",""
"memory-trial","198","450666","0.0-15.0-1.77","2010","2","""event"",""trial"",""time""
""fullscreenenter"",""1"",""8368""
","
","
","""event"",""trial"",""time""
""fullscreenenter"",""1"",""8368""
","
","","","","","","2595.7000000476837","images/orange1.png","","","memory_trial","4","definitely_new","","","","","","",""
"html-keyboard-response","199","451171","0.0-15.0-0.78","2010","2","""event"",""trial"",""time""
""fullscreenenter"",""1"",""8368""
","
","
","""event"",""trial"",""time""
""fullscreenenter"",""1"",""8368""
","
","","","","","","null","<div style=""font-size:60px;"">+</div>","null","","fixation","","","","","","","","",""
"memory-trial","200","453262","0.0-15.0-1.78","2010","2","""event"",""trial"",""time""
""fullscreenenter"",""1"",""8368""
","
","
","""event"",""trial"",""time""
""fullscreenenter"",""1"",""8368""
","
","","","","","","1085.7000000476837","images/tree4.png","","","memory_trial","1","definitely_old","","","","","","",""
"html-keyboard-response","201","453766","0.0-15.0-0.79","2010","2","""event"",""trial"",""time""
""fullscreenenter"",""1"",""8368""
","
","
","""event"",""trial"",""time""
""fullscreenenter"",""1"",""8368""
","
","","","","","","null","<div style=""font-size:60px;"">+</div>","null","","fixation","","","","","","","","",""
"memory-trial","202","457526","0.0-15.0-1.79","2010","2","""event"",""trial"",""time""
""fullscreenenter"",""1"",""8368""
","
","
","""event"",""trial"",""time""
""fullscreenenter"",""1"",""8368""
","
","","","","","","2757.2999999523163","images/flower4.png","","","memory_trial","2","maybe_old","","","","","","",""
"html-keyboard-response","203","458028","0.0-15.0-0.80","2010","2","""event"",""trial"",""time""
""fullscreenenter"",""1"",""8368""
","
","
","""event"",""trial"",""time""
""fullscreenenter"",""1"",""8368""
","
","","","","","","null","<div style=""font-size:60px;"">+</div>","null","","fixation","","","","","","","","",""
"memory-trial","204","460113","0.0-15.0-1.80","2010","2","""event"",""trial"",""time""
""fullscreenenter"",""1"",""8368""
","
","
","""event"",""trial"",""time""
""fullscreenenter"",""1"",""8368""
","
","","","","","","1080.1000001430511","images/horse5.png","","","memory_trial","4","definitely_new","","","","","","",""
"html-keyboard-response","205","460616","0.0-15.0-0.81","2010","2","""event"",""trial"",""time""
""fullscreenenter"",""1"",""8368""
","
","
","""event"",""trial"",""time""
""fullscreenenter"",""1"",""8368""
","
","","","","","","null","<div style=""font-size:60px;"">+</div>","null","","fixation","","","","","","","","",""
"memory-trial","206","463724","0.0-15.0-1.81","2010","2","""event"",""trial"",""time""
""fullscreenenter"",""1"",""8368""
","
","
","""event"",""trial"",""time""
""fullscreenenter"",""1"",""8368""
","
","","","","","","2101","images/bed2.png","","","memory_trial","4","definitely_new","","","","","","",""
"html-keyboard-response","207","464225","0.0-15.0-0.82","2010","2","""event"",""trial"",""time""
""fullscreenenter"",""1"",""8368""
","
","
","""event"",""trial"",""time""
""fullscreenenter"",""1"",""8368""
","
","","","","","","null","<div style=""font-size:60px;"">+</div>","null","","fixation","","","","","","","","",""
"memory-trial","208","466494","0.0-15.0-1.82","2010","2","""event"",""trial"",""time""
""fullscreenenter"",""1"",""8368""
","
","
","""event"",""trial"",""time""
""fullscreenenter"",""1"",""8368""
","
","","","","","","1262.5","images/rodent5.png","","","memory_trial","1","definitely_old","","","","","","",""
"html-keyboard-response","209","466998","0.0-15.0-0.83","2010","2","""event"",""trial"",""time""
""fullscreenenter"",""1"",""8368""
","
","
","""event"",""trial"",""time""
""fullscreenenter"",""1"",""8368""
","
","","","","","","null","<div style=""font-size:60px;"">+</div>","null","","fixation","","","","","","","","",""
"memory-trial","210","469942","0.0-15.0-1.83","2010","2","""event"",""trial"",""time""
""fullscreenenter"",""1"",""8368""
","
","
","""event"",""trial"",""time""
""fullscreenenter"",""1"",""8368""
","
","","","","","","1938","images/bush5.png","","","memory_trial","2","maybe_old","","","","","","",""
"html-keyboard-response","211","470444","0.0-15.0-0.84","2010","2","""event"",""trial"",""time""
""fullscreenenter"",""1"",""8368""
","
","
","""event"",""trial"",""time""
""fullscreenenter"",""1"",""8368""
","
","","","","","","null","<div style=""font-size:60px;"">+</div>","null","","fixation","","","","","","","","",""
"memory-trial","212","472641","0.0-15.0-1.84","2010","2","""event"",""trial"",""time""
""fullscreenenter"",""1"",""8368""
","
","
","""event"",""trial"",""time""
""fullscreenenter"",""1"",""8368""
","
","","","","","","1193.7000000476837","images/feline3.png","","","memory_trial","1","definitely_old","","","","","","",""
"html-keyboard-response","213","473142","0.0-15.0-0.85","2010","2","""event"",""trial"",""time""
""fullscreenenter"",""1"",""8368""
","
","
","""event"",""trial"",""time""
""fullscreenenter"",""1"",""8368""
","
","","","","","","null","<div style=""font-size:60px;"">+</div>","null","","fixation","","","","","","","","",""
"memory-trial","214","475020","0.0-15.0-1.85","2010","2","""event"",""trial"",""time""
""fullscreenenter"",""1"",""8368""
","
","
","""event"",""trial"",""time""
""fullscreenenter"",""1"",""8368""
","
","","","","","","875.4000000953674","images/chair4.png","","","memory_trial","4","definitely_new","","","","","","",""
"html-keyboard-response","215","475521","0.0-15.0-0.86","2010","2","""event"",""trial"",""time""
""fullscreenenter"",""1"",""8368""
","
","
","""event"",""trial"",""time""
""fullscreenenter"",""1"",""8368""
","
","","","","","","null","<div style=""font-size:60px;"">+</div>","null","","fixation","","","","","","","","",""
"memory-trial","216","479947","0.0-15.0-1.86","2010","2","""event"",""trial"",""time""
""fullscreenenter"",""1"",""8368""
","
","
","""event"",""trial"",""time""
""fullscreenenter"",""1"",""8368""
","
","","","","","","3420.7999999523163","images/dog3.png","","","memory_trial","2","maybe_old","","","","","","",""
"html-keyboard-response","217","480449","0.0-15.0-0.87","2010","2","""event"",""trial"",""time""
""fullscreenenter"",""1"",""8368""
","
","
","""event"",""trial"",""time""
""fullscreenenter"",""1"",""8368""
","
","","","","","","null","<div style=""font-size:60px;"">+</div>","null","","fixation","","","","","","","","",""
"memory-trial","218","484496","0.0-15.0-1.87","2010","2","""event"",""trial"",""time""
""fullscreenenter"",""1"",""8368""
","
","
","""event"",""trial"",""time""
""fullscreenenter"",""1"",""8368""
","
","","","","","","3041.2999999523163","images/bed5.png","","","memory_trial","3","maybe_new","","","","","","",""
"html-keyboard-response","219","485002","0.0-15.0-0.88","2010","2","""event"",""trial"",""time""
""fullscreenenter"",""1"",""8368""
","
","
","""event"",""trial"",""time""
""fullscreenenter"",""1"",""8368""
","
","","","","","","null","<div style=""font-size:60px;"">+</div>","null","","fixation","","","","","","","","",""
"memory-trial","220","489462","0.0-15.0-1.88","2010","2","""event"",""trial"",""time""
""fullscreenenter"",""1"",""8368""
","
","
","""event"",""trial"",""time""
""fullscreenenter"",""1"",""8368""
","
","","","","","","3454.5","images/sheep2.png","","","memory_trial","3","maybe_new","","","","","","",""
"html-keyboard-response","221","489963","0.0-15.0-0.89","2010","2","""event"",""trial"",""time""
""fullscreenenter"",""1"",""8368""
","
","
","""event"",""trial"",""time""
""fullscreenenter"",""1"",""8368""
","
","","","","","","null","<div style=""font-size:60px;"">+</div>","null","","fixation","","","","","","","","",""
"memory-trial","222","492913","0.0-15.0-1.89","2010","2","""event"",""trial"",""time""
""fullscreenenter"",""1"",""8368""
","
","
","""event"",""trial"",""time""
""fullscreenenter"",""1"",""8368""
","
","","","","","","1946.2999999523163","images/plane4.png","","","memory_trial","4","definitely_new","","","","","","",""
"html-keyboard-response","223","493414","0.0-15.0-0.90","2010","2","""event"",""trial"",""time""
""fullscreenenter"",""1"",""8368""
","
","
","""event"",""trial"",""time""
""fullscreenenter"",""1"",""8368""
","
","","","","","","null","<div style=""font-size:60px;"">+</div>","null","","fixation","","","","","","","","",""
"memory-trial","224","495526","0.0-15.0-1.90","2010","2","""event"",""trial"",""time""
""fullscreenenter"",""1"",""8368""
","
","
","""event"",""trial"",""time""
""fullscreenenter"",""1"",""8368""
","
","","","","","","1105.2000000476837","images/chair5.png","","","memory_trial","4","definitely_new","","","","","","",""
"html-keyboard-response","225","496027","0.0-15.0-0.91","2010","2","""event"",""trial"",""time""
""fullscreenenter"",""1"",""8368""
","
","
","""event"",""trial"",""time""
""fullscreenenter"",""1"",""8368""
","
","","","","","","null","<div style=""font-size:60px;"">+</div>","null","","fixation","","","","","","","","",""
"memory-trial","226","498011","0.0-15.0-1.91","2010","2","""event"",""trial"",""time""
""fullscreenenter"",""1"",""8368""
","
","
","""event"",""trial"",""time""
""fullscreenenter"",""1"",""8368""
","
","","","","","","980.5999999046326","images/tree5.png","","","memory_trial","1","definitely_old","","","","","","",""
"html-keyboard-response","227","498512","0.0-15.0-0.92","2010","2","""event"",""trial"",""time""
""fullscreenenter"",""1"",""8368""
","
","
","""event"",""trial"",""time""
""fullscreenenter"",""1"",""8368""
","
","","","","","","null","<div style=""font-size:60px;"">+</div>","null","","fixation","","","","","","","","",""
"memory-trial","228","500699","0.0-15.0-1.92","2010","2","""event"",""trial"",""time""
""fullscreenenter"",""1"",""8368""
","
","
","""event"",""trial"",""time""
""fullscreenenter"",""1"",""8368""
","
","","","","","","1181.9000000953674","images/apple5.png","","","memory_trial","4","definitely_new","","","","","","",""
"html-keyboard-response","229","501201","0.0-15.0-0.93","2010","2","""event"",""trial"",""time""
""fullscreenenter"",""1"",""8368""
","
","
","""event"",""trial"",""time""
""fullscreenenter"",""1"",""8368""
","
","","","","","","null","<div style=""font-size:60px;"">+</div>","null","","fixation","","","","","","","","",""
"memory-trial","230","503993","0.0-15.0-1.93","2010","2","""event"",""trial"",""time""
""fullscreenenter"",""1"",""8368""
","
","
","""event"",""trial"",""time""
""fullscreenenter"",""1"",""8368""
","
","","","","","","1787.7000000476837","images/rodent2.png","","","memory_trial","1","definitely_old","","","","","","",""
"html-keyboard-response","231","504496","0.0-15.0-0.94","2010","2","""event"",""trial"",""time""
""fullscreenenter"",""1"",""8368""
","
","
","""event"",""trial"",""time""
""fullscreenenter"",""1"",""8368""
","
","","","","","","null","<div style=""font-size:60px;"">+</div>","null","","fixation","","","","","","","","",""
"memory-trial","232","506939","0.0-15.0-1.94","2010","2","""event"",""trial"",""time""
""fullscreenenter"",""1"",""8368""
","
","
","""event"",""trial"",""time""
""fullscreenenter"",""1"",""8368""
","
","","","","","","1439.8999998569489","images/banana2.png","","","memory_trial","4","definitely_new","","","","","","",""
"html-keyboard-response","233","507440","0.0-15.0-0.95","2010","2","""event"",""trial"",""time""
""fullscreenenter"",""1"",""8368""
","
","
","""event"",""trial"",""time""
""fullscreenenter"",""1"",""8368""
","
","","","","","","null","<div style=""font-size:60px;"">+</div>","null","","fixation","","","","","","","","",""
"memory-trial","234","510633","0.0-15.0-1.95","2010","2","""event"",""trial"",""time""
""fullscreenenter"",""1"",""8368""
","
","
","""event"",""trial"",""time""
""fullscreenenter"",""1"",""8368""
","
","","","","","","2186.2999999523163","images/cactus3.png","","","memory_trial","4","definitely_new","","","","","","",""
"html-keyboard-response","235","511136","0.0-15.0-0.96","2010","2","""event"",""trial"",""time""
""fullscreenenter"",""1"",""8368""
","
","
","""event"",""trial"",""time""
""fullscreenenter"",""1"",""8368""
","
","","","","","","null","<div style=""font-size:60px;"">+</div>","null","","fixation","","","","","","","","",""
"memory-trial","236","513007","0.0-15.0-1.96","2010","2","""event"",""trial"",""time""
""fullscreenenter"",""1"",""8368""
","
","
","""event"",""trial"",""time""
""fullscreenenter"",""1"",""8368""
","
","","","","","","866.1000001430511","images/train3.png","","","memory_trial","1","definitely_old","","","","","","",""
"html-keyboard-response","237","513510","0.0-15.0-0.97","2010","2","""event"",""trial"",""time""
""fullscreenenter"",""1"",""8368""
","
","
","""event"",""trial"",""time""
""fullscreenenter"",""1"",""8368""
","
","","","","","","null","<div style=""font-size:60px;"">+</div>","null","","fixation","","","","","","","","",""
"memory-trial","238","515777","0.0-15.0-1.97","2010","2","""event"",""trial"",""time""
""fullscreenenter"",""1"",""8368""
","
","
","""event"",""trial"",""time""
""fullscreenenter"",""1"",""8368""
","
","","","","","","1265.4000000953674","images/goat2.png","","","memory_trial","4","definitely_new","","","","","","",""
"html-keyboard-response","239","516283","0.0-15.0-0.98","2010","2","""event"",""trial"",""time""
""fullscreenenter"",""1"",""8368""
","
","
","""event"",""trial"",""time""
""fullscreenenter"",""1"",""8368""
","
","","","","","","null","<div style=""font-size:60px;"">+</div>","null","","fixation","","","","","","","","",""
"memory-trial","240","518357","0.0-15.0-1.98","2010","2","""event"",""trial"",""time""
""fullscreenenter"",""1"",""8368""
","
","
","""event"",""trial"",""time""
""fullscreenenter"",""1"",""8368""
","
","","","","","","1068.3999998569489","images/apple2.png","","","memory_trial","4","definitely_new","","","","","","",""
"html-keyboard-response","241","518861","0.0-15.0-0.99","2010","2","""event"",""trial"",""time""
""fullscreenenter"",""1"",""8368""
","
","
","""event"",""trial"",""time""
""fullscreenenter"",""1"",""8368""
","
","","","","","","null","<div style=""font-size:60px;"">+</div>","null","","fixation","","","","","","","","",""
"memory-trial","242","522411","0.0-15.0-1.99","2010","2","""event"",""trial"",""time""
""fullscreenenter"",""1"",""8368""
","
","
","""event"",""trial"",""time""
""fullscreenenter"",""1"",""8368""
","
","","","","","","2545.2000000476837","images/horse2.png","","","memory_trial","2","maybe_old","","","","","","",""
"html-keyboard-response","243","522912","0.0-15.0-0.100","2010","2","""event"",""trial"",""time""
""fullscreenenter"",""1"",""8368""
","
","
","""event"",""trial"",""time""
""fullscreenenter"",""1"",""8368""
","
","","","","","","null","<div style=""font-size:60px;"">+</div>","null","","fixation","","","","","","","","",""
"memory-trial","244","526316","0.0-15.0-1.100","2010","2","""event"",""trial"",""time""
""fullscreenenter"",""1"",""8368""
","
","
","""event"",""trial"",""time""
""fullscreenenter"",""1"",""8368""
","
","","","","","","2399.5","images/orange5.png","","","memory_trial","3","maybe_new","","","","","","",""
"html-keyboard-response","245","526821","0.0-15.0-0.101","2010","2","""event"",""trial"",""time""
""fullscreenenter"",""1"",""8368""
","
","
","""event"",""trial"",""time""
""fullscreenenter"",""1"",""8368""
","
","","","","","","null","<div style=""font-size:60px;"">+</div>","null","","fixation","","","","","","","","",""
"memory-trial","246","528742","0.0-15.0-1.101","2010","2","""event"",""trial"",""time""
""fullscreenenter"",""1"",""8368""
","
","
","""event"",""trial"",""time""
""fullscreenenter"",""1"",""8368""
","
","","","","","","914.3999998569489","images/cactus1.png","","","memory_trial","1","definitely_old","","","","","","",""
"html-button-response","247","531146","0.0-15.0-2.101-0.101","2010","2","""event"",""trial"",""time""
""fullscreenenter"",""1"",""8368""
","
","
","""event"",""trial"",""time""
""fullscreenenter"",""1"",""8368""
","
","","","","","","2403.2000000476837","<p> Take a break! </p><p> Click the button to continue. </p>","0","","break","","","","","","","","",""
"html-keyboard-response","248","531648","0.0-15.0-0.102","2010","2","""event"",""trial"",""time""
""fullscreenenter"",""1"",""8368""
","
","
","""event"",""trial"",""time""
""fullscreenenter"",""1"",""8368""
","
","","","","","","null","<div style=""font-size:60px;"">+</div>","null","","fixation","","","","","","","","",""
"memory-trial","249","534112","0.0-15.0-1.102","2010","2","""event"",""trial"",""time""
""fullscreenenter"",""1"",""8368""
","
","
","""event"",""trial"",""time""
""fullscreenenter"",""1"",""8368""
","
","","","","","","1461.2999999523163","images/feline5.png","","","memory_trial","4","definitely_new","","","","","","",""
"html-keyboard-response","250","534614","0.0-15.0-0.103","2010","2","""event"",""trial"",""time""
""fullscreenenter"",""1"",""8368""
","
","
","""event"",""trial"",""time""
""fullscreenenter"",""1"",""8368""
","
","","","","","","null","<div style=""font-size:60px;"">+</div>","null","","fixation","","","","","","","","",""
"memory-trial","251","540192","0.0-15.0-1.103","2010","2","""event"",""trial"",""time""
""fullscreenenter"",""1"",""8368""
","
","
","""event"",""trial"",""time""
""fullscreenenter"",""1"",""8368""
","
","","","","","","4571.700000047684","images/straw4.png","","","memory_trial","3","maybe_new","","","","","","",""
"html-keyboard-response","252","540693","0.0-15.0-0.104","2010","2","""event"",""trial"",""time""
""fullscreenenter"",""1"",""8368""
","
","
","""event"",""trial"",""time""
""fullscreenenter"",""1"",""8368""
","
","","","","","","null","<div style=""font-size:60px;"">+</div>","null","","fixation","","","","","","","","",""
"memory-trial","253","543541","0.0-15.0-1.104","2010","2","""event"",""trial"",""time""
""fullscreenenter"",""1"",""8368""
","
","
","""event"",""trial"",""time""
""fullscreenenter"",""1"",""8368""
","
","","","","","","1842.8000001907349","images/horse3.png","","","memory_trial","4","definitely_new","","","","","","",""
"html-keyboard-response","254","544043","0.0-15.0-0.105","2010","2","""event"",""trial"",""time""
""fullscreenenter"",""1"",""8368""
","
","
","""event"",""trial"",""time""
""fullscreenenter"",""1"",""8368""
","
","","","","","","null","<div style=""font-size:60px;"">+</div>","null","","fixation","","","","","","","","",""
"memory-trial","255","545979","0.0-15.0-1.105","2010","2","""event"",""trial"",""time""
""fullscreenenter"",""1"",""8368""
","
","
","""event"",""trial"",""time""
""fullscreenenter"",""1"",""8368""
","
","","","","","","932.0999999046326","images/truck5.png","","","memory_trial","1","definitely_old","","","","","","",""
"html-keyboard-response","256","546480","0.0-15.0-0.106","2010","2","""event"",""trial"",""time""
""fullscreenenter"",""1"",""8368""
","
","
","""event"",""trial"",""time""
""fullscreenenter"",""1"",""8368""
","
","","","","","","null","<div style=""font-size:60px;"">+</div>","null","","fixation","","","","","","","","",""
"memory-trial","257","548592","0.0-15.0-1.106","2010","2","""event"",""trial"",""time""
""fullscreenenter"",""1"",""8368""
","
","
","""event"",""trial"",""time""
""fullscreenenter"",""1"",""8368""
","
","","","","","","1108.7999999523163","images/goat4.png","","","memory_trial","1","definitely_old","","","","","","",""
"html-keyboard-response","258","549093","0.0-15.0-0.107","2010","2","""event"",""trial"",""time""
""fullscreenenter"",""1"",""8368""
","
","
","""event"",""trial"",""time""
""fullscreenenter"",""1"",""8368""
","
","","","","","","null","<div style=""font-size:60px;"">+</div>","null","","fixation","","","","","","","","",""
"memory-trial","259","551259","0.0-15.0-1.107","2010","2","""event"",""trial"",""time""
""fullscreenenter"",""1"",""8368""
","
","
","""event"",""trial"",""time""
""fullscreenenter"",""1"",""8368""
","
","","","","","","1159.8000001907349","images/rodent3.png","","","memory_trial","4","definitely_new","","","","","","",""
"html-keyboard-response","260","551760","0.0-15.0-0.108","2010","2","""event"",""trial"",""time""
""fullscreenenter"",""1"",""8368""
","
","
","""event"",""trial"",""time""
""fullscreenenter"",""1"",""8368""
","
","","","","","","null","<div style=""font-size:60px;"">+</div>","null","","fixation","","","","","","","","",""
"memory-trial","261","554528","0.0-15.0-1.108","2010","2","""event"",""trial"",""time""
""fullscreenenter"",""1"",""8368""
","
","
","""event"",""trial"",""time""
""fullscreenenter"",""1"",""8368""
","
","","","","","","1762","images/orange4.png","","","memory_trial","4","definitely_new","","","","","","",""
"html-keyboard-response","262","555029","0.0-15.0-0.109","2010","2","""event"",""trial"",""time""
""fullscreenenter"",""1"",""8368""
","
","
","""event"",""trial"",""time""
""fullscreenenter"",""1"",""8368""
","
","","","","","","null","<div style=""font-size:60px;"">+</div>","null","","fixation","","","","","","","","",""
"memory-trial","263","557787","0.0-15.0-1.109","2010","2","""event"",""trial"",""time""
""fullscreenenter"",""1"",""8368""
","
","
","""event"",""trial"",""time""
""fullscreenenter"",""1"",""8368""
","
","","","","","","1750.2999999523163","images/sheep1.png","","","memory_trial","3","maybe_new","","","","","","",""
"html-keyboard-response","264","558288","0.0-15.0-0.110","2010","2","""event"",""trial"",""time""
""fullscreenenter"",""1"",""8368""
","
","
","""event"",""trial"",""time""
""fullscreenenter"",""1"",""8368""
","
","","","","","","null","<div style=""font-size:60px;"">+</div>","null","","fixation","","","","","","","","",""
"memory-trial","265","560517","0.0-15.0-1.110","2010","2","""event"",""trial"",""time""
""fullscreenenter"",""1"",""8368""
","
","
","""event"",""trial"",""time""
""fullscreenenter"",""1"",""8368""
","
","","","","","","1223.3999998569489","images/boat4.png","","","memory_trial","1","definitely_old","","","","","","",""
"html-keyboard-response","266","561019","0.0-15.0-0.111","2010","2","""event"",""trial"",""time""
""fullscreenenter"",""1"",""8368""
","
","
","""event"",""trial"",""time""
""fullscreenenter"",""1"",""8368""
","
","","","","","","null","<div style=""font-size:60px;"">+</div>","null","","fixation","","","","","","","","",""
"memory-trial","267","563520","0.0-15.0-1.111","2010","2","""event"",""trial"",""time""
""fullscreenenter"",""1"",""8368""
","
","
","""event"",""trial"",""time""
""fullscreenenter"",""1"",""8368""
","
","","","","","","1499.2999999523163","images/straw5.png","","","memory_trial","4","definitely_new","","","","","","",""
"html-keyboard-response","268","564021","0.0-15.0-0.112","2010","2","""event"",""trial"",""time""
""fullscreenenter"",""1"",""8368""
","
","
","""event"",""trial"",""time""
""fullscreenenter"",""1"",""8368""
","
","","","","","","null","<div style=""font-size:60px;"">+</div>","null","","fixation","","","","","","","","",""
"memory-trial","269","567189","0.0-15.0-1.112","2010","2","""event"",""trial"",""time""
""fullscreenenter"",""1"",""8368""
","
","
","""event"",""trial"",""time""
""fullscreenenter"",""1"",""8368""
","
","","","","","","2162.2999999523163","images/truck1.png","","","memory_trial","2","maybe_old","","","","","","",""
"html-keyboard-response","270","567691","0.0-15.0-0.113","2010","2","""event"",""trial"",""time""
""fullscreenenter"",""1"",""8368""
","
","
","""event"",""trial"",""time""
""fullscreenenter"",""1"",""8368""
","
","","","","","","null","<div style=""font-size:60px;"">+</div>","null","","fixation","","","","","","","","",""
"memory-trial","271","572373","0.0-15.0-1.113","2010","2","""event"",""trial"",""time""
""fullscreenenter"",""1"",""8368""
","
","
","""event"",""trial"",""time""
""fullscreenenter"",""1"",""8368""
","
","","","","","","3675.7000000476837","images/sheep3.png","","","memory_trial","3","maybe_new","","","","","","",""
"html-keyboard-response","272","572874","0.0-15.0-0.114","2010","2","""event"",""trial"",""time""
""fullscreenenter"",""1"",""8368""
","
","
","""event"",""trial"",""time""
""fullscreenenter"",""1"",""8368""
","
","","","","","","null","<div style=""font-size:60px;"">+</div>","null","","fixation","","","","","","","","",""
"memory-trial","273","574874","0.0-15.0-1.114","2010","2","""event"",""trial"",""time""
""fullscreenenter"",""1"",""8368""
","
","
","""event"",""trial"",""time""
""fullscreenenter"",""1"",""8368""
","
","","","","","","994.6999998092651","images/train5.png","","","memory_trial","1","definitely_old","","","","","","",""
"html-keyboard-response","274","575376","0.0-15.0-0.115","2010","2","""event"",""trial"",""time""
""fullscreenenter"",""1"",""8368""
","
","
","""event"",""trial"",""time""
""fullscreenenter"",""1"",""8368""
","
","","","","","","null","<div style=""font-size:60px;"">+</div>","null","","fixation","","","","","","","","",""
"memory-trial","275","577450","0.0-15.0-1.115","2010","2","""event"",""trial"",""time""
""fullscreenenter"",""1"",""8368""
","
","
","""event"",""trial"",""time""
""fullscreenenter"",""1"",""8368""
","
","","","","","","1068.7000000476837","images/truck4.png","","","memory_trial","4","definitely_new","","","","","","",""
"html-keyboard-response","276","577952","0.0-15.0-0.116","2010","2","""event"",""trial"",""time""
""fullscreenenter"",""1"",""8368""
","
","
","""event"",""trial"",""time""
""fullscreenenter"",""1"",""8368""
","
","","","","","","null","<div style=""font-size:60px;"">+</div>","null","","fixation","","","","","","","","",""
"memory-trial","277","581152","0.0-15.0-1.116","2010","2","""event"",""trial"",""time""
""fullscreenenter"",""1"",""8368""
","
","
","""event"",""trial"",""time""
""fullscreenenter"",""1"",""8368""
","
","","","","","","2194.7999999523163","images/tree1.png","","","memory_trial","4","definitely_new","","","","","","",""
"html-keyboard-response","278","581653","0.0-15.0-0.117","2010","2","""event"",""trial"",""time""
""fullscreenenter"",""1"",""8368""
","
","
","""event"",""trial"",""time""
""fullscreenenter"",""1"",""8368""
","
","","","","","","null","<div style=""font-size:60px;"">+</div>","null","","fixation","","","","","","","","",""
"memory-trial","279","584848","0.0-15.0-1.117","2010","2","""event"",""trial"",""time""
""fullscreenenter"",""1"",""8368""
","
","
","""event"",""trial"",""time""
""fullscreenenter"",""1"",""8368""
","
","","","","","","2190.300000190735","images/rodent4.png","","","memory_trial","1","definitely_old","","","","","","",""
"html-keyboard-response","280","585349","0.0-15.0-0.118","2010","2","""event"",""trial"",""time""
""fullscreenenter"",""1"",""8368""
","
","
","""event"",""trial"",""time""
""fullscreenenter"",""1"",""8368""
","
","","","","","","null","<div style=""font-size:60px;"">+</div>","null","","fixation","","","","","","","","",""
"memory-trial","281","587653","0.0-15.0-1.118","2010","2","""event"",""trial"",""time""
""fullscreenenter"",""1"",""8368""
","
","
","""event"",""trial"",""time""
""fullscreenenter"",""1"",""8368""
","
","","","","","","1297.2000000476837","images/boat5.png","","","memory_trial","1","definitely_old","","","","","","",""
"html-keyboard-response","282","588154","0.0-15.0-0.119","2010","2","""event"",""trial"",""time""
""fullscreenenter"",""1"",""8368""
","
","
","""event"",""trial"",""time""
""fullscreenenter"",""1"",""8368""
","
","","","","","","null","<div style=""font-size:60px;"">+</div>","null","","fixation","","","","","","","","",""
"memory-trial","283","590133","0.0-15.0-1.119","2010","2","""event"",""trial"",""time""
""fullscreenenter"",""1"",""8368""
","
","
","""event"",""trial"",""time""
""fullscreenenter"",""1"",""8368""
","
","","","","","","973.7000000476837","images/plane1.png","","","memory_trial","4","definitely_new","","","","","","",""
"preload","284","598369","0.0-16.0","2010","2","""event"",""trial"",""time""
""fullscreenenter"",""1"",""8368""
","
","
","""event"",""trial"",""time""
""fullscreenenter"",""1"",""8368""
","
","true","false","[]","[]","[]","","","","","","","","","","","","","",""
"learning-instructions","285","603750","0.0-17.0-0.0-0.0-0.0","2010","2","""event"",""trial"",""time""
""fullscreenenter"",""1"",""8368""
","
","
","""event"",""trial"",""time""
""fullscreenenter"",""1"",""8368""
","
","","","","","","2027","<p> We're now going to ask you to deliver furniture again. </p>","","0","instructions","","","","","","","","",""
"learning-instructions","286","611146","0.0-17.0-0.0-0.0-0.1","2010","2","""event"",""trial"",""time""
""fullscreenenter"",""1"",""8368""
","
","
","""event"",""trial"",""time""
""fullscreenenter"",""1"",""8368""
","
","","","","","","1103","<p> On each trial, you will see a furniture item. Select the building where you think the furniture item belongs. </p>","","0","instructions","","","","","","","","",""
"learning-instructions","287","618923","0.0-17.0-0.0-0.0-0.2","2010","2","""event"",""trial"",""time""
""fullscreenenter"",""1"",""8368""
","
","
","""event"",""trial"",""time""
""fullscreenenter"",""1"",""8368""
","
","","","","","","714.6999998092651","<p> To make your selection, think about what you learned last week. You will NOT receive any feedback about your choice. </p>","","0","instructions","","","","","","","","",""
"learning-instructions","288","627693","0.0-17.0-0.0-0.0-0.3","2010","2","""event"",""trial"",""time""
""fullscreenenter"",""1"",""8368""
","
","
","""event"",""trial"",""time""
""fullscreenenter"",""1"",""8368""
","
","","","","","","481.40000009536743","<p> You should use the 1 key to select the building on the left, the 2 key to select the building in the middle, and the 3 key to select the building on the right. </p><br><div class=""choice-mem-instructions-grid""> <div class=""choice-mem-option""><img src=""images/furniture_choice1.png"" class=""choice-mem-option-img"" stage=""instructions"" position=""0"" ><div class=""choice-mem-option-text""> Press ""1."" </div></div><div class=""choice-mem-option""><img src=""images/furniture_choice2.png"" class=""choice-mem-option-img"" stage=""instructions"" position=""1"" ><div class=""choice-mem-option-text""> Press ""2."" </div></div><div class=""choice-mem-option""><img src=""images/furniture_choice3.png"" class=""choice-mem-option-img"" stage=""instructions"" position=""2"" ><div class=""choice-mem-option-text""> Press ""3."" </div></div></div>","","0","instructions","","","","","","","","",""
"learning-instructions","289","636114","0.0-17.0-0.0-0.0-0.4","2010","2","""event"",""trial"",""time""
""fullscreenenter"",""1"",""8368""
","
","
","""event"",""trial"",""time""
""fullscreenenter"",""1"",""8368""
","
","","","","","","2151.4000000953674","<p> You will have 10 seconds to make each selection. Try to respond before time runs out! </p>","","0","instructions","","","","","","","","",""
"learning-instructions","290","648650","0.0-17.0-0.0-1.0","2010","2","""event"",""trial"",""time""
""fullscreenenter"",""1"",""8368""
","
","
","""event"",""trial"",""time""
""fullscreenenter"",""1"",""8368""
","
","","","","","","10474.799999952316","<p> You are now ready to begin the game. </p>","","0","instructions","","","","","","","","",""
"html-keyboard-response","291","649253","0.0-17.0-0.0-2.0-0.0","2010","2","""event"",""trial"",""time""
""fullscreenenter"",""1"",""8368""
","
","
","""event"",""trial"",""time""
""fullscreenenter"",""1"",""8368""
","
","","","","","","null","<div style=""font-size:60px;"">+</div>","null","","fixation","","","","","","","","",""
