"trial_type","trial_index","time_elapsed","internal_node_id","subject_id","task_version","interactions","blur_events","focus_events","fullscreenenter_events","fullscreenexit_events","success","timeout","failed_images","failed_audio","failed_video","rt","stimulus","response","button_pressed","task_part","key_press","answer","correct","left_choice","middle_choice","right_choice","choice_positions","option_selected","block"
"pavlovia","0","3","0.0-0.0","1919","2","""event"",""trial"",""time""
""blur"",""1"",""10845""
""focus"",""1"",""227103""
""fullscreenenter"",""1"",""228202""
","""event"",""trial"",""time""
""blur"",""1"",""10845""
","""event"",""trial"",""time""
""focus"",""1"",""227103""
","""event"",""trial"",""time""
""fullscreenenter"",""1"",""228202""
","
","","","","","","","","","","","","","","","","","","",""
"fullscreen","1","229174","0.0-1.0","1919","2","""event"",""trial"",""time""
""blur"",""1"",""10845""
""focus"",""1"",""227103""
""fullscreenenter"",""1"",""228202""
","""event"",""trial"",""time""
""blur"",""1"",""10845""
","""event"",""trial"",""time""
""focus"",""1"",""227103""
","""event"",""trial"",""time""
""fullscreenenter"",""1"",""228202""
","
","true","","","","","","","","","","","","","","","","","",""
"preload","2","230469","0.0-2.0","1919","2","""event"",""trial"",""time""
""blur"",""1"",""10845""
""focus"",""1"",""227103""
""fullscreenenter"",""1"",""228202""
","""event"",""trial"",""time""
""blur"",""1"",""10845""
","""event"",""trial"",""time""
""focus"",""1"",""227103""
","""event"",""trial"",""time""
""fullscreenenter"",""1"",""228202""
","
","true","false","[]","[]","[]","","","","","","","","","","","","","",""
"audio-keyboard-response","3","233752","0.0-3.0","1919","2","""event"",""trial"",""time""
""blur"",""1"",""10845""
""focus"",""1"",""227103""
""fullscreenenter"",""1"",""228202""
","""event"",""trial"",""time""
""blur"",""1"",""10845""
","""event"",""trial"",""time""
""focus"",""1"",""227103""
","""event"",""trial"",""time""
""fullscreenenter"",""1"",""228202""
","
","","","","","","3279.8185941043084","audio/beep_loop.wav"," ","","","","","","","","","","",""
"audio-button-response","4","235289","0.0-4.0","1919","2","""event"",""trial"",""time""
""blur"",""1"",""10845""
""focus"",""1"",""227103""
""fullscreenenter"",""1"",""228202""
","""event"",""trial"",""time""
""blur"",""1"",""10845""
","""event"",""trial"",""time""
""focus"",""1"",""227103""
","""event"",""trial"",""time""
""fullscreenenter"",""1"",""228202""
","
","","","","","","1538","audio/turtle.wav","3","","","","","","","","","","",""
"audio-button-response","5","238009","0.0-5.0","1919","2","""event"",""trial"",""time""
""blur"",""1"",""10845""
""focus"",""1"",""227103""
""fullscreenenter"",""1"",""228202""
","""event"",""trial"",""time""
""blur"",""1"",""10845""
","""event"",""trial"",""time""
""focus"",""1"",""227103""
","""event"",""trial"",""time""
""fullscreenenter"",""1"",""228202""
","
","","","","","","1712","audio/shark.wav","2","","","","","","","","","","",""
"preload","6","244893","0.0-6.0","1919","2","""event"",""trial"",""time""
""blur"",""1"",""10845""
""focus"",""1"",""227103""
""fullscreenenter"",""1"",""228202""
","""event"",""trial"",""time""
""blur"",""1"",""10845""
","""event"",""trial"",""time""
""focus"",""1"",""227103""
","""event"",""trial"",""time""
""fullscreenenter"",""1"",""228202""
","
","true","false","[]","[]","[]","","","","","","","","","","","","","",""
"learning-instructions","7","250866","0.0-7.0-0.0","1919","2","""event"",""trial"",""time""
""blur"",""1"",""10845""
""focus"",""1"",""227103""
""fullscreenenter"",""1"",""228202""
","""event"",""trial"",""time""
""blur"",""1"",""10845""
","""event"",""trial"",""time""
""focus"",""1"",""227103""
","""event"",""trial"",""time""
""fullscreenenter"",""1"",""228202""
","
","","","","","","1166","<p> Welcome back! </p><p> Last week, you had to make choices about lots of different items.  </p>","","0","instructions","","","","","","","","",""
"learning-instructions","8","257410","0.0-7.0-0.1","1919","2","""event"",""trial"",""time""
""blur"",""1"",""10845""
""focus"",""1"",""227103""
""fullscreenenter"",""1"",""228202""
","""event"",""trial"",""time""
""blur"",""1"",""10845""
","""event"",""trial"",""time""
""focus"",""1"",""227103""
","""event"",""trial"",""time""
""fullscreenenter"",""1"",""228202""
","
","","","","","","2247.3000000044703","<p> Today, we are going to ask you to try to remember all the items. </p>","","0","instructions","","","","","","","","",""
"learning-instructions","9","656887","0.0-7.0-0.2","1919","2","""event"",""trial"",""time""
""blur"",""1"",""10845""
""focus"",""1"",""227103""
""fullscreenenter"",""1"",""228202""
","""event"",""trial"",""time""
""blur"",""1"",""10845""
","""event"",""trial"",""time""
""focus"",""1"",""227103""
","""event"",""trial"",""time""
""fullscreenenter"",""1"",""228202""
","
","","","","","","389353.5","<p> On every trial, you will see an image. </p><p> The image may be an OLD image you saw during the games last week or it may be a NEW image that was not presented. </p>","","0","instructions","","","","","","","","",""
"learning-instructions","10","667352","0.0-7.0-0.3","1919","2","""event"",""trial"",""time""
""blur"",""1"",""10845""
""focus"",""1"",""227103""
""fullscreenenter"",""1"",""228202""
","""event"",""trial"",""time""
""blur"",""1"",""10845""
","""event"",""trial"",""time""
""focus"",""1"",""227103""
","""event"",""trial"",""time""
""fullscreenenter"",""1"",""228202""
","
","","","","","","1867.3999999985099","<p> You need to select whether the image is:  </p><p>  'Definitely old', 'Maybe old', 'Maybe new', or 'Definitely new.'  </p><div class=""mem-choice-instructions-grid""><div class=""choice-option"" id=""choice-option-1"" ><img src=""images/definitely_old_1.png"" id=""choice-option-img-1"" class=""choice-option-img"" stage=""1""></div><div class=""choice-option"" id=""choice-option-2"" ><img src=""images/maybe_old_1.png"" id=""choice-option-img-2"" class=""choice-option-img"" stage=""1""></div><div class=""choice-option"" id=""choice-option-3"" ><img src=""images/maybe_new_1.png"" id=""choice-option-img-3"" class=""choice-option-img"" stage=""1""></div><div class=""choice-option"" id=""choice-option-4"" > <img src=""images/definitely_new_1.png"" id=""choice-option-img-4"" class=""choice-option-img"" stage=""1""></div></div>","","0","instructions","","","","","","","","",""
"learning-instructions","11","674680","0.0-7.0-0.4","1919","2","""event"",""trial"",""time""
""blur"",""1"",""10845""
""focus"",""1"",""227103""
""fullscreenenter"",""1"",""228202""
","""event"",""trial"",""time""
""blur"",""1"",""10845""
","""event"",""trial"",""time""
""focus"",""1"",""227103""
","""event"",""trial"",""time""
""fullscreenenter"",""1"",""228202""
","
","","","","","","640.2999999970198","<p> You should use the 1, 2, 3, and 4 keys to make your responses.  </p><div class=""mem-choice-instructions-grid""><div class=""choice-option"" id=""choice-option-1"" ><img src=""images/definitely_old.png"" id=""choice-option-img-1"" class=""choice-option-img"" stage=""1""></div><div class=""choice-option"" id=""choice-option-2"" ><img src=""images/maybe_old.png"" id=""choice-option-img-2"" class=""choice-option-img"" stage=""1""></div><div class=""choice-option"" id=""choice-option-3"" ><img src=""images/maybe_new.png"" id=""choice-option-img-3"" class=""choice-option-img"" stage=""1""></div><div class=""choice-option"" id=""choice-option-4"" > <img src=""images/definitely_new.png"" id=""choice-option-img-4"" class=""choice-option-img"" stage=""1""></div></div>","","0","instructions","","","","","","","","",""
"learning-instructions","12","682089","0.0-7.0-0.5","1919","2","""event"",""trial"",""time""
""blur"",""1"",""10845""
""focus"",""1"",""227103""
""fullscreenenter"",""1"",""228202""
","""event"",""trial"",""time""
""blur"",""1"",""10845""
","""event"",""trial"",""time""
""focus"",""1"",""227103""
","""event"",""trial"",""time""
""fullscreenenter"",""1"",""228202""
","
","","","","","","654.7999999970198","<p> You will have 10 seconds to make each response.  </p><p>  Make sure to respond before time runs out! </p>","","0","instructions","","","","","","","","",""
"learning-instructions","13","690594","0.0-7.0-0.6","1919","2","""event"",""trial"",""time""
""blur"",""1"",""10845""
""focus"",""1"",""227103""
""fullscreenenter"",""1"",""228202""
","""event"",""trial"",""time""
""blur"",""1"",""10845""
","""event"",""trial"",""time""
""focus"",""1"",""227103""
","""event"",""trial"",""time""
""fullscreenenter"",""1"",""228202""
","
","","","","","","928.1000000014901","<p> Today, you will see each image ONCE only.  </p><p>  That means none of the images will repeat. </p>","","0","instructions","","","","","","","","",""
"learning-instructions","14","744004","0.0-7.0-0.7","1919","2","""event"",""trial"",""time""
""blur"",""1"",""10845""
""focus"",""1"",""227103""
""fullscreenenter"",""1"",""228202""
","""event"",""trial"",""time""
""blur"",""1"",""10845""
","""event"",""trial"",""time""
""focus"",""1"",""227103""
","""event"",""trial"",""time""
""fullscreenenter"",""1"",""228202""
","
","","","","","","40750.69999999553","<p> Before you play the real game, it is time to practice. </p><p>  Just like in the real game, some of the images in the practice will be ones you have seen before. </p><p>  Others will be entirely new. </p>","","0","instructions","","","","","","","","",""
"html-button-response","15","745537","0.0-8.0","1919","2","""event"",""trial"",""time""
""blur"",""1"",""10845""
""focus"",""1"",""227103""
""fullscreenenter"",""1"",""228202""
","""event"",""trial"",""time""
""blur"",""1"",""10845""
","""event"",""trial"",""time""
""focus"",""1"",""227103""
","""event"",""trial"",""time""
""fullscreenenter"",""1"",""228202""
","
","","","","","","1431.5","<p> Ready to practice? </p><p> Remember, use the 1, 2, 3, and 4 keys to make your responses. </p>","0","","instructions","","","","","","","","",""
"html-keyboard-response","16","746141","0.0-9.0-0.0","1919","2","""event"",""trial"",""time""
""blur"",""1"",""10845""
""focus"",""1"",""227103""
""fullscreenenter"",""1"",""228202""
","""event"",""trial"",""time""
""blur"",""1"",""10845""
","""event"",""trial"",""time""
""focus"",""1"",""227103""
","""event"",""trial"",""time""
""fullscreenenter"",""1"",""228202""
","
","","","","","","null","<div style=""font-size:60px;"">+</div>","null","","fixation","","","","","","","","",""
"memory-trial","17","748498","0.0-9.0-1.0","1919","2","""event"",""trial"",""time""
""blur"",""1"",""10845""
""focus"",""1"",""227103""
""fullscreenenter"",""1"",""228202""
","""event"",""trial"",""time""
""blur"",""1"",""10845""
","""event"",""trial"",""time""
""focus"",""1"",""227103""
","""event"",""trial"",""time""
""fullscreenenter"",""1"",""228202""
","
","","","","","","1350.5","images/racket2.png","","","practice","1","definitely_old","","","","","","",""
"html-keyboard-response","18","749002","0.0-9.0-0.1","1919","2","""event"",""trial"",""time""
""blur"",""1"",""10845""
""focus"",""1"",""227103""
""fullscreenenter"",""1"",""228202""
","""event"",""trial"",""time""
""blur"",""1"",""10845""
","""event"",""trial"",""time""
""focus"",""1"",""227103""
","""event"",""trial"",""time""
""fullscreenenter"",""1"",""228202""
","
","","","","","","null","<div style=""font-size:60px;"">+</div>","null","","fixation","","","","","","","","",""
"memory-trial","19","751410","0.0-9.0-1.1","1919","2","""event"",""trial"",""time""
""blur"",""1"",""10845""
""focus"",""1"",""227103""
""fullscreenenter"",""1"",""228202""
","""event"",""trial"",""time""
""blur"",""1"",""10845""
","""event"",""trial"",""time""
""focus"",""1"",""227103""
","""event"",""trial"",""time""
""fullscreenenter"",""1"",""228202""
","
","","","","","","1402.2999999970198","images/ball3.png","","","practice","2","maybe_old","","","","","","",""
"html-keyboard-response","20","751915","0.0-9.0-0.2","1919","2","""event"",""trial"",""time""
""blur"",""1"",""10845""
""focus"",""1"",""227103""
""fullscreenenter"",""1"",""228202""
","""event"",""trial"",""time""
""blur"",""1"",""10845""
","""event"",""trial"",""time""
""focus"",""1"",""227103""
","""event"",""trial"",""time""
""fullscreenenter"",""1"",""228202""
","
","","","","","","null","<div style=""font-size:60px;"">+</div>","null","","fixation","","","","","","","","",""
"memory-trial","21","754569","0.0-9.0-1.2","1919","2","""event"",""trial"",""time""
""blur"",""1"",""10845""
""focus"",""1"",""227103""
""fullscreenenter"",""1"",""228202""
","""event"",""trial"",""time""
""blur"",""1"",""10845""
","""event"",""trial"",""time""
""focus"",""1"",""227103""
","""event"",""trial"",""time""
""fullscreenenter"",""1"",""228202""
","
","","","","","","1649.6000000014901","images/racket1.png","","","practice","3","maybe_new","","","","","","",""
"html-keyboard-response","22","755074","0.0-9.0-0.3","1919","2","""event"",""trial"",""time""
""blur"",""1"",""10845""
""focus"",""1"",""227103""
""fullscreenenter"",""1"",""228202""
","""event"",""trial"",""time""
""blur"",""1"",""10845""
","""event"",""trial"",""time""
""focus"",""1"",""227103""
","""event"",""trial"",""time""
""fullscreenenter"",""1"",""228202""
","
","","","","","","null","<div style=""font-size:60px;"">+</div>","null","","fixation","","","","","","","","",""
"memory-trial","23","757402","0.0-9.0-1.3","1919","2","""event"",""trial"",""time""
""blur"",""1"",""10845""
""focus"",""1"",""227103""
""fullscreenenter"",""1"",""228202""
","""event"",""trial"",""time""
""blur"",""1"",""10845""
","""event"",""trial"",""time""
""focus"",""1"",""227103""
","""event"",""trial"",""time""
""fullscreenenter"",""1"",""228202""
","
","","","","","","1321.5999999940395","images/ball2.png","","","practice","1","definitely_old","","","","","","",""
"html-keyboard-response","24","757907","0.0-9.0-0.4","1919","2","""event"",""trial"",""time""
""blur"",""1"",""10845""
""focus"",""1"",""227103""
""fullscreenenter"",""1"",""228202""
","""event"",""trial"",""time""
""blur"",""1"",""10845""
","""event"",""trial"",""time""
""focus"",""1"",""227103""
","""event"",""trial"",""time""
""fullscreenenter"",""1"",""228202""
","
","","","","","","null","<div style=""font-size:60px;"">+</div>","null","","fixation","","","","","","","","",""
"memory-trial","25","759840","0.0-9.0-1.4","1919","2","""event"",""trial"",""time""
""blur"",""1"",""10845""
""focus"",""1"",""227103""
""fullscreenenter"",""1"",""228202""
","""event"",""trial"",""time""
""blur"",""1"",""10845""
","""event"",""trial"",""time""
""focus"",""1"",""227103""
","""event"",""trial"",""time""
""fullscreenenter"",""1"",""228202""
","
","","","","","","929.3000000044703","images/ball1.png","","","practice","1","definitely_old","","","","","","",""
"html-keyboard-response","26","760345","0.0-9.0-0.5","1919","2","""event"",""trial"",""time""
""blur"",""1"",""10845""
""focus"",""1"",""227103""
""fullscreenenter"",""1"",""228202""
","""event"",""trial"",""time""
""blur"",""1"",""10845""
","""event"",""trial"",""time""
""focus"",""1"",""227103""
","""event"",""trial"",""time""
""fullscreenenter"",""1"",""228202""
","
","","","","","","null","<div style=""font-size:60px;"">+</div>","null","","fixation","","","","","","","","",""
"memory-trial","27","763143","0.0-9.0-1.5","1919","2","""event"",""trial"",""time""
""blur"",""1"",""10845""
""focus"",""1"",""227103""
""fullscreenenter"",""1"",""228202""
","""event"",""trial"",""time""
""blur"",""1"",""10845""
","""event"",""trial"",""time""
""focus"",""1"",""227103""
","""event"",""trial"",""time""
""fullscreenenter"",""1"",""228202""
","
","","","","","","1794.3999999985099","images/racket3.png","","","practice","4","definitely_new","","","","","","",""
"html-keyboard-response","28","763648","0.0-9.0-0.6","1919","2","""event"",""trial"",""time""
""blur"",""1"",""10845""
""focus"",""1"",""227103""
""fullscreenenter"",""1"",""228202""
","""event"",""trial"",""time""
""blur"",""1"",""10845""
","""event"",""trial"",""time""
""focus"",""1"",""227103""
","""event"",""trial"",""time""
""fullscreenenter"",""1"",""228202""
","
","","","","","","null","<div style=""font-size:60px;"">+</div>","null","","fixation","","","","","","","","",""
"memory-trial","29","765953","0.0-9.0-1.6","1919","2","""event"",""trial"",""time""
""blur"",""1"",""10845""
""focus"",""1"",""227103""
""fullscreenenter"",""1"",""228202""
","""event"",""trial"",""time""
""blur"",""1"",""10845""
","""event"",""trial"",""time""
""focus"",""1"",""227103""
","""event"",""trial"",""time""
""fullscreenenter"",""1"",""228202""
","
","","","","","","1299.8999999985099","images/racket4.png","","","practice","3","maybe_new","","","","","","",""
"html-keyboard-response","30","766458","0.0-9.0-0.7","1919","2","""event"",""trial"",""time""
""blur"",""1"",""10845""
""focus"",""1"",""227103""
""fullscreenenter"",""1"",""228202""
","""event"",""trial"",""time""
""blur"",""1"",""10845""
","""event"",""trial"",""time""
""focus"",""1"",""227103""
","""event"",""trial"",""time""
""fullscreenenter"",""1"",""228202""
","
","","","","","","null","<div style=""font-size:60px;"">+</div>","null","","fixation","","","","","","","","",""
"memory-trial","31","768866","0.0-9.0-1.7","1919","2","""event"",""trial"",""time""
""blur"",""1"",""10845""
""focus"",""1"",""227103""
""fullscreenenter"",""1"",""228202""
","""event"",""trial"",""time""
""blur"",""1"",""10845""
","""event"",""trial"",""time""
""focus"",""1"",""227103""
","""event"",""trial"",""time""
""fullscreenenter"",""1"",""228202""
","
","","","","","","1402.1000000014901","images/ball4.png","","","practice","2","maybe_old","","","","","","",""
"learning-instructions","32","860817","0.0-10.0-0.0","1919","2","""event"",""trial"",""time""
""blur"",""1"",""10845""
""focus"",""1"",""227103""
""fullscreenenter"",""1"",""228202""
","""event"",""trial"",""time""
""blur"",""1"",""10845""
","""event"",""trial"",""time""
""focus"",""1"",""227103""
","""event"",""trial"",""time""
""fullscreenenter"",""1"",""228202""
","
","","","","","","83896.89999999851","<p> Great! You have completed the practice. </p><p> Before you start, we're going to ask you a few questions about how the game works.  </p>","","0","instructions","","","","","","","","",""
"preload","33","866643","0.0-11.0","1919","2","""event"",""trial"",""time""
""blur"",""1"",""10845""
""focus"",""1"",""227103""
""fullscreenenter"",""1"",""228202""
","""event"",""trial"",""time""
""blur"",""1"",""10845""
","""event"",""trial"",""time""
""focus"",""1"",""227103""
","""event"",""trial"",""time""
""fullscreenenter"",""1"",""228202""
","
","true","false","[]","[]","[]","","","","","","","","","","","","","",""
"comp-q","34","873777","0.0-12.0-0.0","1919","2","""event"",""trial"",""time""
""blur"",""1"",""10845""
""focus"",""1"",""227103""
""fullscreenenter"",""1"",""228202""
","""event"",""trial"",""time""
""blur"",""1"",""10845""
","""event"",""trial"",""time""
""focus"",""1"",""227103""
","""event"",""trial"",""time""
""fullscreenenter"",""1"",""228202""
","
","","","","","","1200.2999999970198","<p> <b> True or False? </b> </p><p> In this game, you will only see each image once. </p>","","0","comp_question","","","true","","","","","",""
"comp-q","35","985475","0.0-12.0-1.0","1919","2","""event"",""trial"",""time""
""blur"",""1"",""10845""
""focus"",""1"",""227103""
""fullscreenenter"",""1"",""228202""
","""event"",""trial"",""time""
""blur"",""1"",""10845""
","""event"",""trial"",""time""
""focus"",""1"",""227103""
","""event"",""trial"",""time""
""fullscreenenter"",""1"",""228202""
","
","","","","","","105366.39999999851","<p> <b> That's right! </b> You will see many different images <i> one time each </i> in this game. </p>","","0","comp_answer","","","","","","","","",""
"comp-q","36","992091","0.0-12.0-0.1","1919","2","""event"",""trial"",""time""
""blur"",""1"",""10845""
""focus"",""1"",""227103""
""fullscreenenter"",""1"",""228202""
","""event"",""trial"",""time""
""blur"",""1"",""10845""
","""event"",""trial"",""time""
""focus"",""1"",""227103""
","""event"",""trial"",""time""
""fullscreenenter"",""1"",""228202""
","
","","","","","","716.5999999940395","<p> <b> True or False? </b> </p><p> You should use the mouse and click to make your response. </p>","","1","comp_question","","","true","","","","","",""
"comp-q","37","1000975","0.0-12.0-1.1","1919","2","""event"",""trial"",""time""
""blur"",""1"",""10845""
""focus"",""1"",""227103""
""fullscreenenter"",""1"",""228202""
","""event"",""trial"",""time""
""blur"",""1"",""10845""
","""event"",""trial"",""time""
""focus"",""1"",""227103""
","""event"",""trial"",""time""
""fullscreenenter"",""1"",""228202""
","
","","","","","","1537.4000000059605","<p><b> That's right! </b> You should use the '1', '2', '3', and '4' keys to make your response. </p>","","0","comp_answer","","","","","","","","",""
"comp-q","38","1007584","0.0-12.0-0.2","1919","2","""event"",""trial"",""time""
""blur"",""1"",""10845""
""focus"",""1"",""227103""
""fullscreenenter"",""1"",""228202""
","""event"",""trial"",""time""
""blur"",""1"",""10845""
","""event"",""trial"",""time""
""focus"",""1"",""227103""
","""event"",""trial"",""time""
""fullscreenenter"",""1"",""228202""
","
","","","","","","617.9000000059605","<p> <b> True or False? </b> </p><p> You will have as much time as you want to make each choice. </p>","","1","comp_question","","","true","","","","","",""
"comp-q","39","1014080","0.0-12.0-1.2","1919","2","""event"",""trial"",""time""
""blur"",""1"",""10845""
""focus"",""1"",""227103""
""fullscreenenter"",""1"",""228202""
","""event"",""trial"",""time""
""blur"",""1"",""10845""
","""event"",""trial"",""time""
""focus"",""1"",""227103""
","""event"",""trial"",""time""
""fullscreenenter"",""1"",""228202""
","
","","","","","","1105.7000000029802","<p> <b> That's right! </b> You will only have 10 seconds to make each choice. </p>","","0","comp_answer","","","","","","","","",""
"learning-instructions","40","1024447","0.0-13.0","1919","2","""event"",""trial"",""time""
""blur"",""1"",""10845""
""focus"",""1"",""227103""
""fullscreenenter"",""1"",""228202""
","""event"",""trial"",""time""
""blur"",""1"",""10845""
","""event"",""trial"",""time""
""focus"",""1"",""227103""
","""event"",""trial"",""time""
""fullscreenenter"",""1"",""228202""
","
","","","","","","1696.7999999970198","<p> Great! You are now ready to begin the game. </p><p> Remember, use the 1, 2, 3, and 4 keys to make your responses. </p>","","0","instructions","","","","","","","","",""
"preload","41","1038035","0.0-14.0","1919","2","""event"",""trial"",""time""
""blur"",""1"",""10845""
""focus"",""1"",""227103""
""fullscreenenter"",""1"",""228202""
","""event"",""trial"",""time""
""blur"",""1"",""10845""
","""event"",""trial"",""time""
""focus"",""1"",""227103""
","""event"",""trial"",""time""
""fullscreenenter"",""1"",""228202""
","
","true","false","[]","[]","[]","","","","","","","","","","","","","",""
"html-keyboard-response","42","1038538","0.0-15.0-0.0","1919","2","""event"",""trial"",""time""
""blur"",""1"",""10845""
""focus"",""1"",""227103""
""fullscreenenter"",""1"",""228202""
","""event"",""trial"",""time""
""blur"",""1"",""10845""
","""event"",""trial"",""time""
""focus"",""1"",""227103""
","""event"",""trial"",""time""
""fullscreenenter"",""1"",""228202""
","
","","","","","","null","<div style=""font-size:60px;"">+</div>","null","","fixation","","","","","","","","",""
"memory-trial","43","1042642","0.0-15.0-1.0","1919","2","""event"",""trial"",""time""
""blur"",""1"",""10845""
""focus"",""1"",""227103""
""fullscreenenter"",""1"",""228202""
","""event"",""trial"",""time""
""blur"",""1"",""10845""
","""event"",""trial"",""time""
""focus"",""1"",""227103""
","""event"",""trial"",""time""
""fullscreenenter"",""1"",""228202""
","
","","","","","","3098.8000000044703","images/flower5.png","","","memory_trial","4","definitely_new","","","","","","",""
"html-keyboard-response","44","1043146","0.0-15.0-0.1","1919","2","""event"",""trial"",""time""
""blur"",""1"",""10845""
""focus"",""1"",""227103""
""fullscreenenter"",""1"",""228202""
","""event"",""trial"",""time""
""blur"",""1"",""10845""
","""event"",""trial"",""time""
""focus"",""1"",""227103""
","""event"",""trial"",""time""
""fullscreenenter"",""1"",""228202""
","
","","","","","","null","<div style=""font-size:60px;"">+</div>","null","","fixation","","","","","","","","",""
"memory-trial","45","1045794","0.0-15.0-1.1","1919","2","""event"",""trial"",""time""
""blur"",""1"",""10845""
""focus"",""1"",""227103""
""fullscreenenter"",""1"",""228202""
","""event"",""trial"",""time""
""blur"",""1"",""10845""
","""event"",""trial"",""time""
""focus"",""1"",""227103""
","""event"",""trial"",""time""
""fullscreenenter"",""1"",""228202""
","
","","","","","","1641.7999999970198","images/goat1.png","","","memory_trial","4","definitely_new","","","","","","",""
"html-keyboard-response","46","1046298","0.0-15.0-0.2","1919","2","""event"",""trial"",""time""
""blur"",""1"",""10845""
""focus"",""1"",""227103""
""fullscreenenter"",""1"",""228202""
","""event"",""trial"",""time""
""blur"",""1"",""10845""
","""event"",""trial"",""time""
""focus"",""1"",""227103""
","""event"",""trial"",""time""
""fullscreenenter"",""1"",""228202""
","
","","","","","","null","<div style=""font-size:60px;"">+</div>","null","","fixation","","","","","","","","",""
"memory-trial","47","1050641","0.0-15.0-1.2","1919","2","""event"",""trial"",""time""
""blur"",""1"",""10845""
""focus"",""1"",""227103""
""fullscreenenter"",""1"",""228202""
","""event"",""trial"",""time""
""blur"",""1"",""10845""
","""event"",""trial"",""time""
""focus"",""1"",""227103""
","""event"",""trial"",""time""
""fullscreenenter"",""1"",""228202""
","
","","","","","","3338.7999999970198","images/cow1.png","","","memory_trial","1","definitely_old","","","","","","",""
"html-keyboard-response","48","1051146","0.0-15.0-0.3","1919","2","""event"",""trial"",""time""
""blur"",""1"",""10845""
""focus"",""1"",""227103""
""fullscreenenter"",""1"",""228202""
","""event"",""trial"",""time""
""blur"",""1"",""10845""
","""event"",""trial"",""time""
""focus"",""1"",""227103""
","""event"",""trial"",""time""
""fullscreenenter"",""1"",""228202""
","
","","","","","","null","<div style=""font-size:60px;"">+</div>","null","","fixation","","","","","","","","",""
"memory-trial","49","1054136","0.0-15.0-1.3","1919","2","""event"",""trial"",""time""
""blur"",""1"",""10845""
""focus"",""1"",""227103""
""fullscreenenter"",""1"",""228202""
","""event"",""trial"",""time""
""blur"",""1"",""10845""
","""event"",""trial"",""time""
""focus"",""1"",""227103""
","""event"",""trial"",""time""
""fullscreenenter"",""1"",""228202""
","
","","","","","","1985.8999999985099","images/straw2.png","","","memory_trial","3","maybe_new","","","","","","",""
"html-keyboard-response","50","1054641","0.0-15.0-0.4","1919","2","""event"",""trial"",""time""
""blur"",""1"",""10845""
""focus"",""1"",""227103""
""fullscreenenter"",""1"",""228202""
","""event"",""trial"",""time""
""blur"",""1"",""10845""
","""event"",""trial"",""time""
""focus"",""1"",""227103""
","""event"",""trial"",""time""
""fullscreenenter"",""1"",""228202""
","
","","","","","","null","<div style=""font-size:60px;"">+</div>","null","","fixation","","","","","","","","",""
"memory-trial","51","1057968","0.0-15.0-1.4","1919","2","""event"",""trial"",""time""
""blur"",""1"",""10845""
""focus"",""1"",""227103""
""fullscreenenter"",""1"",""228202""
","""event"",""trial"",""time""
""blur"",""1"",""10845""
","""event"",""trial"",""time""
""focus"",""1"",""227103""
","""event"",""trial"",""time""
""fullscreenenter"",""1"",""228202""
","
","","","","","","2322.2000000029802","images/tree3.png","","","memory_trial","1","definitely_old","","","","","","",""
"html-keyboard-response","52","1058469","0.0-15.0-0.5","1919","2","""event"",""trial"",""time""
""blur"",""1"",""10845""
""focus"",""1"",""227103""
""fullscreenenter"",""1"",""228202""
","""event"",""trial"",""time""
""blur"",""1"",""10845""
","""event"",""trial"",""time""
""focus"",""1"",""227103""
","""event"",""trial"",""time""
""fullscreenenter"",""1"",""228202""
","
","","","","","","null","<div style=""font-size:60px;"">+</div>","null","","fixation","","","","","","","","",""
"memory-trial","53","1060208","0.0-15.0-1.5","1919","2","""event"",""trial"",""time""
""blur"",""1"",""10845""
""focus"",""1"",""227103""
""fullscreenenter"",""1"",""228202""
","""event"",""trial"",""time""
""blur"",""1"",""10845""
","""event"",""trial"",""time""
""focus"",""1"",""227103""
","""event"",""trial"",""time""
""fullscreenenter"",""1"",""228202""
","
","","","","","","735.5","images/banana1.png","","","memory_trial","1","definitely_old","","","","","","",""
"html-keyboard-response","54","1060714","0.0-15.0-0.6","1919","2","""event"",""trial"",""time""
""blur"",""1"",""10845""
""focus"",""1"",""227103""
""fullscreenenter"",""1"",""228202""
","""event"",""trial"",""time""
""blur"",""1"",""10845""
","""event"",""trial"",""time""
""focus"",""1"",""227103""
","""event"",""trial"",""time""
""fullscreenenter"",""1"",""228202""
","
","","","","","","null","<div style=""font-size:60px;"">+</div>","null","","fixation","","","","","","","","",""
"memory-trial","55","1063506","0.0-15.0-1.6","1919","2","""event"",""trial"",""time""
""blur"",""1"",""10845""
""focus"",""1"",""227103""
""fullscreenenter"",""1"",""228202""
","""event"",""trial"",""time""
""blur"",""1"",""10845""
","""event"",""trial"",""time""
""focus"",""1"",""227103""
","""event"",""trial"",""time""
""fullscreenenter"",""1"",""228202""
","
","","","","","","1785.8999999985099","images/cow5.png","","","memory_trial","2","maybe_old","","","","","","",""
"html-keyboard-response","56","1064011","0.0-15.0-0.7","1919","2","""event"",""trial"",""time""
""blur"",""1"",""10845""
""focus"",""1"",""227103""
""fullscreenenter"",""1"",""228202""
","""event"",""trial"",""time""
""blur"",""1"",""10845""
","""event"",""trial"",""time""
""focus"",""1"",""227103""
","""event"",""trial"",""time""
""fullscreenenter"",""1"",""228202""
","
","","","","","","null","<div style=""font-size:60px;"">+</div>","null","","fixation","","","","","","","","",""
"memory-trial","57","1065926","0.0-15.0-1.7","1919","2","""event"",""trial"",""time""
""blur"",""1"",""10845""
""focus"",""1"",""227103""
""fullscreenenter"",""1"",""228202""
","""event"",""trial"",""time""
""blur"",""1"",""10845""
","""event"",""trial"",""time""
""focus"",""1"",""227103""
","""event"",""trial"",""time""
""fullscreenenter"",""1"",""228202""
","
","","","","","","913.6000000014901","images/feline5.png","","","memory_trial","3","maybe_new","","","","","","",""
"html-keyboard-response","58","1066431","0.0-15.0-0.8","1919","2","""event"",""trial"",""time""
""blur"",""1"",""10845""
""focus"",""1"",""227103""
""fullscreenenter"",""1"",""228202""
","""event"",""trial"",""time""
""blur"",""1"",""10845""
","""event"",""trial"",""time""
""focus"",""1"",""227103""
","""event"",""trial"",""time""
""fullscreenenter"",""1"",""228202""
","
","","","","","","null","<div style=""font-size:60px;"">+</div>","null","","fixation","","","","","","","","",""
"memory-trial","59","1069647","0.0-15.0-1.8","1919","2","""event"",""trial"",""time""
""blur"",""1"",""10845""
""focus"",""1"",""227103""
""fullscreenenter"",""1"",""228202""
","""event"",""trial"",""time""
""blur"",""1"",""10845""
","""event"",""trial"",""time""
""focus"",""1"",""227103""
","""event"",""trial"",""time""
""fullscreenenter"",""1"",""228202""
","
","","","","","","2212.60000000149","images/table3.png","","","memory_trial","2","maybe_old","","","","","","",""
"html-keyboard-response","60","1070152","0.0-15.0-0.9","1919","2","""event"",""trial"",""time""
""blur"",""1"",""10845""
""focus"",""1"",""227103""
""fullscreenenter"",""1"",""228202""
","""event"",""trial"",""time""
""blur"",""1"",""10845""
","""event"",""trial"",""time""
""focus"",""1"",""227103""
","""event"",""trial"",""time""
""fullscreenenter"",""1"",""228202""
","
","","","","","","null","<div style=""font-size:60px;"">+</div>","null","","fixation","","","","","","","","",""
"memory-trial","61","1072335","0.0-15.0-1.9","1919","2","""event"",""trial"",""time""
""blur"",""1"",""10845""
""focus"",""1"",""227103""
""fullscreenenter"",""1"",""228202""
","""event"",""trial"",""time""
""blur"",""1"",""10845""
","""event"",""trial"",""time""
""focus"",""1"",""227103""
","""event"",""trial"",""time""
""fullscreenenter"",""1"",""228202""
","
","","","","","","1179.2000000029802","images/feline1.png","","","memory_trial","3","maybe_new","","","","","","",""
"html-keyboard-response","62","1072840","0.0-15.0-0.10","1919","2","""event"",""trial"",""time""
""blur"",""1"",""10845""
""focus"",""1"",""227103""
""fullscreenenter"",""1"",""228202""
","""event"",""trial"",""time""
""blur"",""1"",""10845""
","""event"",""trial"",""time""
""focus"",""1"",""227103""
","""event"",""trial"",""time""
""fullscreenenter"",""1"",""228202""
","
","","","","","","null","<div style=""font-size:60px;"">+</div>","null","","fixation","","","","","","","","",""
"memory-trial","63","1074825","0.0-15.0-1.10","1919","2","""event"",""trial"",""time""
""blur"",""1"",""10845""
""focus"",""1"",""227103""
""fullscreenenter"",""1"",""228202""
","""event"",""trial"",""time""
""blur"",""1"",""10845""
","""event"",""trial"",""time""
""focus"",""1"",""227103""
","""event"",""trial"",""time""
""fullscreenenter"",""1"",""228202""
","
","","","","","","979.7000000029802","images/orange4.png","","","memory_trial","3","maybe_new","","","","","","",""
"html-keyboard-response","64","1075330","0.0-15.0-0.11","1919","2","""event"",""trial"",""time""
""blur"",""1"",""10845""
""focus"",""1"",""227103""
""fullscreenenter"",""1"",""228202""
","""event"",""trial"",""time""
""blur"",""1"",""10845""
","""event"",""trial"",""time""
""focus"",""1"",""227103""
","""event"",""trial"",""time""
""fullscreenenter"",""1"",""228202""
","
","","","","","","null","<div style=""font-size:60px;"">+</div>","null","","fixation","","","","","","","","",""
"memory-trial","65","1077495","0.0-15.0-1.11","1919","2","""event"",""trial"",""time""
""blur"",""1"",""10845""
""focus"",""1"",""227103""
""fullscreenenter"",""1"",""228202""
","""event"",""trial"",""time""
""blur"",""1"",""10845""
","""event"",""trial"",""time""
""focus"",""1"",""227103""
","""event"",""trial"",""time""
""fullscreenenter"",""1"",""228202""
","
","","","","","","1161.8999999985099","images/straw3.png","","","memory_trial","2","maybe_old","","","","","","",""
"html-keyboard-response","66","1078000","0.0-15.0-0.12","1919","2","""event"",""trial"",""time""
""blur"",""1"",""10845""
""focus"",""1"",""227103""
""fullscreenenter"",""1"",""228202""
","""event"",""trial"",""time""
""blur"",""1"",""10845""
","""event"",""trial"",""time""
""focus"",""1"",""227103""
","""event"",""trial"",""time""
""fullscreenenter"",""1"",""228202""
","
","","","","","","null","<div style=""font-size:60px;"">+</div>","null","","fixation","","","","","","","","",""
"memory-trial","67","1080920","0.0-15.0-1.12","1919","2","""event"",""trial"",""time""
""blur"",""1"",""10845""
""focus"",""1"",""227103""
""fullscreenenter"",""1"",""228202""
","""event"",""trial"",""time""
""blur"",""1"",""10845""
","""event"",""trial"",""time""
""focus"",""1"",""227103""
","""event"",""trial"",""time""
""fullscreenenter"",""1"",""228202""
","
","","","","","","1915.3000000044703","images/cactus3.png","","","memory_trial","3","maybe_new","","","","","","",""
"html-keyboard-response","68","1081425","0.0-15.0-0.13","1919","2","""event"",""trial"",""time""
""blur"",""1"",""10845""
""focus"",""1"",""227103""
""fullscreenenter"",""1"",""228202""
","""event"",""trial"",""time""
""blur"",""1"",""10845""
","""event"",""trial"",""time""
""focus"",""1"",""227103""
","""event"",""trial"",""time""
""fullscreenenter"",""1"",""228202""
","
","","","","","","null","<div style=""font-size:60px;"">+</div>","null","","fixation","","","","","","","","",""
"memory-trial","69","1083648","0.0-15.0-1.13","1919","2","""event"",""trial"",""time""
""blur"",""1"",""10845""
""focus"",""1"",""227103""
""fullscreenenter"",""1"",""228202""
","""event"",""trial"",""time""
""blur"",""1"",""10845""
","""event"",""trial"",""time""
""focus"",""1"",""227103""
","""event"",""trial"",""time""
""fullscreenenter"",""1"",""228202""
","
","","","","","","1218","images/sheep1.png","","","memory_trial","2","maybe_old","","","","","","",""
"html-keyboard-response","70","1084153","0.0-15.0-0.14","1919","2","""event"",""trial"",""time""
""blur"",""1"",""10845""
""focus"",""1"",""227103""
""fullscreenenter"",""1"",""228202""
","""event"",""trial"",""time""
""blur"",""1"",""10845""
","""event"",""trial"",""time""
""focus"",""1"",""227103""
","""event"",""trial"",""time""
""fullscreenenter"",""1"",""228202""
","
","","","","","","null","<div style=""font-size:60px;"">+</div>","null","","fixation","","","","","","","","",""
"memory-trial","71","1086121","0.0-15.0-1.14","1919","2","""event"",""trial"",""time""
""blur"",""1"",""10845""
""focus"",""1"",""227103""
""fullscreenenter"",""1"",""228202""
","""event"",""trial"",""time""
""blur"",""1"",""10845""
","""event"",""trial"",""time""
""focus"",""1"",""227103""
","""event"",""trial"",""time""
""fullscreenenter"",""1"",""228202""
","
","","","","","","962.2000000029802","images/goat2.png","","","memory_trial","2","maybe_old","","","","","","",""
"html-keyboard-response","72","1086626","0.0-15.0-0.15","1919","2","""event"",""trial"",""time""
""blur"",""1"",""10845""
""focus"",""1"",""227103""
""fullscreenenter"",""1"",""228202""
","""event"",""trial"",""time""
""blur"",""1"",""10845""
","""event"",""trial"",""time""
""focus"",""1"",""227103""
","""event"",""trial"",""time""
""fullscreenenter"",""1"",""228202""
","
","","","","","","null","<div style=""font-size:60px;"">+</div>","null","","fixation","","","","","","","","",""
"memory-trial","73","1089286","0.0-15.0-1.15","1919","2","""event"",""trial"",""time""
""blur"",""1"",""10845""
""focus"",""1"",""227103""
""fullscreenenter"",""1"",""228202""
","""event"",""trial"",""time""
""blur"",""1"",""10845""
","""event"",""trial"",""time""
""focus"",""1"",""227103""
","""event"",""trial"",""time""
""fullscreenenter"",""1"",""228202""
","
","","","","","","1656.8999999985099","images/truck2.png","","","memory_trial","1","definitely_old","","","","","","",""
"html-keyboard-response","74","1089790","0.0-15.0-0.16","1919","2","""event"",""trial"",""time""
""blur"",""1"",""10845""
""focus"",""1"",""227103""
""fullscreenenter"",""1"",""228202""
","""event"",""trial"",""time""
""blur"",""1"",""10845""
","""event"",""trial"",""time""
""focus"",""1"",""227103""
","""event"",""trial"",""time""
""fullscreenenter"",""1"",""228202""
","
","","","","","","null","<div style=""font-size:60px;"">+</div>","null","","fixation","","","","","","","","",""
"memory-trial","75","1092382","0.0-15.0-1.16","1919","2","""event"",""trial"",""time""
""blur"",""1"",""10845""
""focus"",""1"",""227103""
""fullscreenenter"",""1"",""228202""
","""event"",""trial"",""time""
""blur"",""1"",""10845""
","""event"",""trial"",""time""
""focus"",""1"",""227103""
","""event"",""trial"",""time""
""fullscreenenter"",""1"",""228202""
","
","","","","","","1589.4000000059605","images/apple4.png","","","memory_trial","1","definitely_old","","","","","","",""
"html-keyboard-response","76","1092884","0.0-15.0-0.17","1919","2","""event"",""trial"",""time""
""blur"",""1"",""10845""
""focus"",""1"",""227103""
""fullscreenenter"",""1"",""228202""
","""event"",""trial"",""time""
""blur"",""1"",""10845""
","""event"",""trial"",""time""
""focus"",""1"",""227103""
","""event"",""trial"",""time""
""fullscreenenter"",""1"",""228202""
","
","","","","","","null","<div style=""font-size:60px;"">+</div>","null","","fixation","","","","","","","","",""
"memory-trial","77","1094991","0.0-15.0-1.17","1919","2","""event"",""trial"",""time""
""blur"",""1"",""10845""
""focus"",""1"",""227103""
""fullscreenenter"",""1"",""228202""
","""event"",""trial"",""time""
""blur"",""1"",""10845""
","""event"",""trial"",""time""
""focus"",""1"",""227103""
","""event"",""trial"",""time""
""fullscreenenter"",""1"",""228202""
","
","","","","","","1102.8999999985099","images/plane5.png","","","memory_trial","3","maybe_new","","","","","","",""
"html-keyboard-response","78","1095496","0.0-15.0-0.18","1919","2","""event"",""trial"",""time""
""blur"",""1"",""10845""
""focus"",""1"",""227103""
""fullscreenenter"",""1"",""228202""
","""event"",""trial"",""time""
""blur"",""1"",""10845""
","""event"",""trial"",""time""
""focus"",""1"",""227103""
","""event"",""trial"",""time""
""fullscreenenter"",""1"",""228202""
","
","","","","","","null","<div style=""font-size:60px;"">+</div>","null","","fixation","","","","","","","","",""
"memory-trial","79","1097359","0.0-15.0-1.18","1919","2","""event"",""trial"",""time""
""blur"",""1"",""10845""
""focus"",""1"",""227103""
""fullscreenenter"",""1"",""228202""
","""event"",""trial"",""time""
""blur"",""1"",""10845""
","""event"",""trial"",""time""
""focus"",""1"",""227103""
","""event"",""trial"",""time""
""fullscreenenter"",""1"",""228202""
","
","","","","","","859.1000000014901","images/banana2.png","","","memory_trial","2","maybe_old","","","","","","",""
"html-keyboard-response","80","1097864","0.0-15.0-0.19","1919","2","""event"",""trial"",""time""
""blur"",""1"",""10845""
""focus"",""1"",""227103""
""fullscreenenter"",""1"",""228202""
","""event"",""trial"",""time""
""blur"",""1"",""10845""
","""event"",""trial"",""time""
""focus"",""1"",""227103""
","""event"",""trial"",""time""
""fullscreenenter"",""1"",""228202""
","
","","","","","","null","<div style=""font-size:60px;"">+</div>","null","","fixation","","","","","","","","",""
"memory-trial","81","1099888","0.0-15.0-1.19","1919","2","""event"",""trial"",""time""
""blur"",""1"",""10845""
""focus"",""1"",""227103""
""fullscreenenter"",""1"",""228202""
","""event"",""trial"",""time""
""blur"",""1"",""10845""
","""event"",""trial"",""time""
""focus"",""1"",""227103""
","""event"",""trial"",""time""
""fullscreenenter"",""1"",""228202""
","
","","","","","","1019.0999999940395","images/rabbit2.png","","","memory_trial","2","maybe_old","","","","","","",""
"html-keyboard-response","82","1100390","0.0-15.0-0.20","1919","2","""event"",""trial"",""time""
""blur"",""1"",""10845""
""focus"",""1"",""227103""
""fullscreenenter"",""1"",""228202""
","""event"",""trial"",""time""
""blur"",""1"",""10845""
","""event"",""trial"",""time""
""focus"",""1"",""227103""
","""event"",""trial"",""time""
""fullscreenenter"",""1"",""228202""
","
","","","","","","null","<div style=""font-size:60px;"">+</div>","null","","fixation","","","","","","","","",""
"memory-trial","83","1102469","0.0-15.0-1.20","1919","2","""event"",""trial"",""time""
""blur"",""1"",""10845""
""focus"",""1"",""227103""
""fullscreenenter"",""1"",""228202""
","""event"",""trial"",""time""
""blur"",""1"",""10845""
","""event"",""trial"",""time""
""focus"",""1"",""227103""
","""event"",""trial"",""time""
""fullscreenenter"",""1"",""228202""
","
","","","","","","1077.2999999970198","images/rodent4.png","","","memory_trial","3","maybe_new","","","","","","",""
"html-keyboard-response","84","1102970","0.0-15.0-0.21","1919","2","""event"",""trial"",""time""
""blur"",""1"",""10845""
""focus"",""1"",""227103""
""fullscreenenter"",""1"",""228202""
","""event"",""trial"",""time""
""blur"",""1"",""10845""
","""event"",""trial"",""time""
""focus"",""1"",""227103""
","""event"",""trial"",""time""
""fullscreenenter"",""1"",""228202""
","
","","","","","","null","<div style=""font-size:60px;"">+</div>","null","","fixation","","","","","","","","",""
"memory-trial","85","1104935","0.0-15.0-1.21","1919","2","""event"",""trial"",""time""
""blur"",""1"",""10845""
""focus"",""1"",""227103""
""fullscreenenter"",""1"",""228202""
","""event"",""trial"",""time""
""blur"",""1"",""10845""
","""event"",""trial"",""time""
""focus"",""1"",""227103""
","""event"",""trial"",""time""
""fullscreenenter"",""1"",""228202""
","
","","","","","","960.8000000044703","images/sofa4.png","","","memory_trial","2","maybe_old","","","","","","",""
"html-keyboard-response","86","1105440","0.0-15.0-0.22","1919","2","""event"",""trial"",""time""
""blur"",""1"",""10845""
""focus"",""1"",""227103""
""fullscreenenter"",""1"",""228202""
","""event"",""trial"",""time""
""blur"",""1"",""10845""
","""event"",""trial"",""time""
""focus"",""1"",""227103""
","""event"",""trial"",""time""
""fullscreenenter"",""1"",""228202""
","
","","","","","","null","<div style=""font-size:60px;"">+</div>","null","","fixation","","","","","","","","",""
"memory-trial","87","1107733","0.0-15.0-1.22","1919","2","""event"",""trial"",""time""
""blur"",""1"",""10845""
""focus"",""1"",""227103""
""fullscreenenter"",""1"",""228202""
","""event"",""trial"",""time""
""blur"",""1"",""10845""
","""event"",""trial"",""time""
""focus"",""1"",""227103""
","""event"",""trial"",""time""
""fullscreenenter"",""1"",""228202""
","
","","","","","","1291.2999999970198","images/orange1.png","","","memory_trial","1","definitely_old","","","","","","",""
"html-keyboard-response","88","1108238","0.0-15.0-0.23","1919","2","""event"",""trial"",""time""
""blur"",""1"",""10845""
""focus"",""1"",""227103""
""fullscreenenter"",""1"",""228202""
","""event"",""trial"",""time""
""blur"",""1"",""10845""
","""event"",""trial"",""time""
""focus"",""1"",""227103""
","""event"",""trial"",""time""
""fullscreenenter"",""1"",""228202""
","
","","","","","","null","<div style=""font-size:60px;"">+</div>","null","","fixation","","","","","","","","",""
"memory-trial","89","1110469","0.0-15.0-1.23","1919","2","""event"",""trial"",""time""
""blur"",""1"",""10845""
""focus"",""1"",""227103""
""fullscreenenter"",""1"",""228202""
","""event"",""trial"",""time""
""blur"",""1"",""10845""
","""event"",""trial"",""time""
""focus"",""1"",""227103""
","""event"",""trial"",""time""
""fullscreenenter"",""1"",""228202""
","
","","","","","","1229.3999999985099","images/orange3.png","","","memory_trial","2","maybe_old","","","","","","",""
"html-keyboard-response","90","1110970","0.0-15.0-0.24","1919","2","""event"",""trial"",""time""
""blur"",""1"",""10845""
""focus"",""1"",""227103""
""fullscreenenter"",""1"",""228202""
","""event"",""trial"",""time""
""blur"",""1"",""10845""
","""event"",""trial"",""time""
""focus"",""1"",""227103""
","""event"",""trial"",""time""
""fullscreenenter"",""1"",""228202""
","
","","","","","","null","<div style=""font-size:60px;"">+</div>","null","","fixation","","","","","","","","",""
"memory-trial","91","1113288","0.0-15.0-1.24","1919","2","""event"",""trial"",""time""
""blur"",""1"",""10845""
""focus"",""1"",""227103""
""fullscreenenter"",""1"",""228202""
","""event"",""trial"",""time""
""blur"",""1"",""10845""
","""event"",""trial"",""time""
""focus"",""1"",""227103""
","""event"",""trial"",""time""
""fullscreenenter"",""1"",""228202""
","
","","","","","","1312.3999999985099","images/train5.png","","","memory_trial","1","definitely_old","","","","","","",""
"html-keyboard-response","92","1113793","0.0-15.0-0.25","1919","2","""event"",""trial"",""time""
""blur"",""1"",""10845""
""focus"",""1"",""227103""
""fullscreenenter"",""1"",""228202""
","""event"",""trial"",""time""
""blur"",""1"",""10845""
","""event"",""trial"",""time""
""focus"",""1"",""227103""
","""event"",""trial"",""time""
""fullscreenenter"",""1"",""228202""
","
","","","","","","null","<div style=""font-size:60px;"">+</div>","null","","fixation","","","","","","","","",""
"memory-trial","93","1115912","0.0-15.0-1.25","1919","2","""event"",""trial"",""time""
""blur"",""1"",""10845""
""focus"",""1"",""227103""
""fullscreenenter"",""1"",""228202""
","""event"",""trial"",""time""
""blur"",""1"",""10845""
","""event"",""trial"",""time""
""focus"",""1"",""227103""
","""event"",""trial"",""time""
""fullscreenenter"",""1"",""228202""
","
","","","","","","1113.8000000044703","images/sheep5.png","","","memory_trial","2","maybe_old","","","","","","",""
"html-keyboard-response","94","1116416","0.0-15.0-0.26","1919","2","""event"",""trial"",""time""
""blur"",""1"",""10845""
""focus"",""1"",""227103""
""fullscreenenter"",""1"",""228202""
","""event"",""trial"",""time""
""blur"",""1"",""10845""
","""event"",""trial"",""time""
""focus"",""1"",""227103""
","""event"",""trial"",""time""
""fullscreenenter"",""1"",""228202""
","
","","","","","","null","<div style=""font-size:60px;"">+</div>","null","","fixation","","","","","","","","",""
"memory-trial","95","1118645","0.0-15.0-1.26","1919","2","""event"",""trial"",""time""
""blur"",""1"",""10845""
""focus"",""1"",""227103""
""fullscreenenter"",""1"",""228202""
","""event"",""trial"",""time""
""blur"",""1"",""10845""
","""event"",""trial"",""time""
""focus"",""1"",""227103""
","""event"",""trial"",""time""
""fullscreenenter"",""1"",""228202""
","
","","","","","","1227","images/rabbit5.png","","","memory_trial","4","definitely_new","","","","","","",""
"html-keyboard-response","96","1119151","0.0-15.0-0.27","1919","2","""event"",""trial"",""time""
""blur"",""1"",""10845""
""focus"",""1"",""227103""
""fullscreenenter"",""1"",""228202""
","""event"",""trial"",""time""
""blur"",""1"",""10845""
","""event"",""trial"",""time""
""focus"",""1"",""227103""
","""event"",""trial"",""time""
""fullscreenenter"",""1"",""228202""
","
","","","","","","null","<div style=""font-size:60px;"">+</div>","null","","fixation","","","","","","","","",""
"memory-trial","97","1121101","0.0-15.0-1.27","1919","2","""event"",""trial"",""time""
""blur"",""1"",""10845""
""focus"",""1"",""227103""
""fullscreenenter"",""1"",""228202""
","""event"",""trial"",""time""
""blur"",""1"",""10845""
","""event"",""trial"",""time""
""focus"",""1"",""227103""
","""event"",""trial"",""time""
""fullscreenenter"",""1"",""228202""
","
","","","","","","947.7999999970198","images/train1.png","","","memory_trial","2","maybe_old","","","","","","",""
"html-keyboard-response","98","1121606","0.0-15.0-0.28","1919","2","""event"",""trial"",""time""
""blur"",""1"",""10845""
""focus"",""1"",""227103""
""fullscreenenter"",""1"",""228202""
","""event"",""trial"",""time""
""blur"",""1"",""10845""
","""event"",""trial"",""time""
""focus"",""1"",""227103""
","""event"",""trial"",""time""
""fullscreenenter"",""1"",""228202""
","
","","","","","","null","<div style=""font-size:60px;"">+</div>","null","","fixation","","","","","","","","",""
"memory-trial","99","1123556","0.0-15.0-1.28","1919","2","""event"",""trial"",""time""
""blur"",""1"",""10845""
""focus"",""1"",""227103""
""fullscreenenter"",""1"",""228202""
","""event"",""trial"",""time""
""blur"",""1"",""10845""
","""event"",""trial"",""time""
""focus"",""1"",""227103""
","""event"",""trial"",""time""
""fullscreenenter"",""1"",""228202""
","
","","","","","","948","images/sheep3.png","","","memory_trial","3","maybe_new","","","","","","",""
"html-keyboard-response","100","1124062","0.0-15.0-0.29","1919","2","""event"",""trial"",""time""
""blur"",""1"",""10845""
""focus"",""1"",""227103""
""fullscreenenter"",""1"",""228202""
","""event"",""trial"",""time""
""blur"",""1"",""10845""
","""event"",""trial"",""time""
""focus"",""1"",""227103""
","""event"",""trial"",""time""
""fullscreenenter"",""1"",""228202""
","
","","","","","","null","<div style=""font-size:60px;"">+</div>","null","","fixation","","","","","","","","",""
"memory-trial","101","1126104","0.0-15.0-1.29","1919","2","""event"",""trial"",""time""
""blur"",""1"",""10845""
""focus"",""1"",""227103""
""fullscreenenter"",""1"",""228202""
","""event"",""trial"",""time""
""blur"",""1"",""10845""
","""event"",""trial"",""time""
""focus"",""1"",""227103""
","""event"",""trial"",""time""
""fullscreenenter"",""1"",""228202""
","
","","","","","","1036.6000000014901","images/banana4.png","","","memory_trial","2","maybe_old","","","","","","",""
"html-keyboard-response","102","1126606","0.0-15.0-0.30","1919","2","""event"",""trial"",""time""
""blur"",""1"",""10845""
""focus"",""1"",""227103""
""fullscreenenter"",""1"",""228202""
","""event"",""trial"",""time""
""blur"",""1"",""10845""
","""event"",""trial"",""time""
""focus"",""1"",""227103""
","""event"",""trial"",""time""
""fullscreenenter"",""1"",""228202""
","
","","","","","","null","<div style=""font-size:60px;"">+</div>","null","","fixation","","","","","","","","",""
"memory-trial","103","1128526","0.0-15.0-1.30","1919","2","""event"",""trial"",""time""
""blur"",""1"",""10845""
""focus"",""1"",""227103""
""fullscreenenter"",""1"",""228202""
","""event"",""trial"",""time""
""blur"",""1"",""10845""
","""event"",""trial"",""time""
""focus"",""1"",""227103""
","""event"",""trial"",""time""
""fullscreenenter"",""1"",""228202""
","
","","","","","","916.7000000029802","images/bush3.png","","","memory_trial","3","maybe_new","","","","","","",""
"html-keyboard-response","104","1129030","0.0-15.0-0.31","1919","2","""event"",""trial"",""time""
""blur"",""1"",""10845""
""focus"",""1"",""227103""
""fullscreenenter"",""1"",""228202""
","""event"",""trial"",""time""
""blur"",""1"",""10845""
","""event"",""trial"",""time""
""focus"",""1"",""227103""
","""event"",""trial"",""time""
""fullscreenenter"",""1"",""228202""
","
","","","","","","null","<div style=""font-size:60px;"">+</div>","null","","fixation","","","","","","","","",""
"memory-trial","105","1131440","0.0-15.0-1.31","1919","2","""event"",""trial"",""time""
""blur"",""1"",""10845""
""focus"",""1"",""227103""
""fullscreenenter"",""1"",""228202""
","""event"",""trial"",""time""
""blur"",""1"",""10845""
","""event"",""trial"",""time""
""focus"",""1"",""227103""
","""event"",""trial"",""time""
""fullscreenenter"",""1"",""228202""
","
","","","","","","1403.7999999970198","images/horse4.png","","","memory_trial","4","definitely_new","","","","","","",""
"html-keyboard-response","106","1131945","0.0-15.0-0.32","1919","2","""event"",""trial"",""time""
""blur"",""1"",""10845""
""focus"",""1"",""227103""
""fullscreenenter"",""1"",""228202""
","""event"",""trial"",""time""
""blur"",""1"",""10845""
","""event"",""trial"",""time""
""focus"",""1"",""227103""
","""event"",""trial"",""time""
""fullscreenenter"",""1"",""228202""
","
","","","","","","null","<div style=""font-size:60px;"">+</div>","null","","fixation","","","","","","","","",""
"memory-trial","107","1134232","0.0-15.0-1.32","1919","2","""event"",""trial"",""time""
""blur"",""1"",""10845""
""focus"",""1"",""227103""
""fullscreenenter"",""1"",""228202""
","""event"",""trial"",""time""
""blur"",""1"",""10845""
","""event"",""trial"",""time""
""focus"",""1"",""227103""
","""event"",""trial"",""time""
""fullscreenenter"",""1"",""228202""
","
","","","","","","1281.5","images/dog4.png","","","memory_trial","2","maybe_old","","","","","","",""
"html-keyboard-response","108","1134736","0.0-15.0-0.33","1919","2","""event"",""trial"",""time""
""blur"",""1"",""10845""
""focus"",""1"",""227103""
""fullscreenenter"",""1"",""228202""
","""event"",""trial"",""time""
""blur"",""1"",""10845""
","""event"",""trial"",""time""
""focus"",""1"",""227103""
","""event"",""trial"",""time""
""fullscreenenter"",""1"",""228202""
","
","","","","","","null","<div style=""font-size:60px;"">+</div>","null","","fixation","","","","","","","","",""
"memory-trial","109","1137268","0.0-15.0-1.33","1919","2","""event"",""trial"",""time""
""blur"",""1"",""10845""
""focus"",""1"",""227103""
""fullscreenenter"",""1"",""228202""
","""event"",""trial"",""time""
""blur"",""1"",""10845""
","""event"",""trial"",""time""
""focus"",""1"",""227103""
","""event"",""trial"",""time""
""fullscreenenter"",""1"",""228202""
","
","","","","","","1530","images/sofa1.png","","","memory_trial","2","maybe_old","","","","","","",""
"html-keyboard-response","110","1137769","0.0-15.0-0.34","1919","2","""event"",""trial"",""time""
""blur"",""1"",""10845""
""focus"",""1"",""227103""
""fullscreenenter"",""1"",""228202""
","""event"",""trial"",""time""
""blur"",""1"",""10845""
","""event"",""trial"",""time""
""focus"",""1"",""227103""
","""event"",""trial"",""time""
""fullscreenenter"",""1"",""228202""
","
","","","","","","null","<div style=""font-size:60px;"">+</div>","null","","fixation","","","","","","","","",""
"memory-trial","111","1140502","0.0-15.0-1.34","1919","2","""event"",""trial"",""time""
""blur"",""1"",""10845""
""focus"",""1"",""227103""
""fullscreenenter"",""1"",""228202""
","""event"",""trial"",""time""
""blur"",""1"",""10845""
","""event"",""trial"",""time""
""focus"",""1"",""227103""
","""event"",""trial"",""time""
""fullscreenenter"",""1"",""228202""
","
","","","","","","1729","images/train2.png","","","memory_trial","1","definitely_old","","","","","","",""
"html-keyboard-response","112","1141006","0.0-15.0-0.35","1919","2","""event"",""trial"",""time""
""blur"",""1"",""10845""
""focus"",""1"",""227103""
""fullscreenenter"",""1"",""228202""
","""event"",""trial"",""time""
""blur"",""1"",""10845""
","""event"",""trial"",""time""
""focus"",""1"",""227103""
","""event"",""trial"",""time""
""fullscreenenter"",""1"",""228202""
","
","","","","","","null","<div style=""font-size:60px;"">+</div>","null","","fixation","","","","","","","","",""
"memory-trial","113","1142991","0.0-15.0-1.35","1919","2","""event"",""trial"",""time""
""blur"",""1"",""10845""
""focus"",""1"",""227103""
""fullscreenenter"",""1"",""228202""
","""event"",""trial"",""time""
""blur"",""1"",""10845""
","""event"",""trial"",""time""
""focus"",""1"",""227103""
","""event"",""trial"",""time""
""fullscreenenter"",""1"",""228202""
","
","","","","","","979.8999999985099","images/goat5.png","","","memory_trial","3","maybe_new","","","","","","",""
"html-keyboard-response","114","1143496","0.0-15.0-0.36","1919","2","""event"",""trial"",""time""
""blur"",""1"",""10845""
""focus"",""1"",""227103""
""fullscreenenter"",""1"",""228202""
","""event"",""trial"",""time""
""blur"",""1"",""10845""
","""event"",""trial"",""time""
""focus"",""1"",""227103""
","""event"",""trial"",""time""
""fullscreenenter"",""1"",""228202""
","
","","","","","","null","<div style=""font-size:60px;"">+</div>","null","","fixation","","","","","","","","",""
"memory-trial","115","1145951","0.0-15.0-1.36","1919","2","""event"",""trial"",""time""
""blur"",""1"",""10845""
""focus"",""1"",""227103""
""fullscreenenter"",""1"",""228202""
","""event"",""trial"",""time""
""blur"",""1"",""10845""
","""event"",""trial"",""time""
""focus"",""1"",""227103""
","""event"",""trial"",""time""
""fullscreenenter"",""1"",""228202""
","
","","","","","","1448.2999999970198","images/truck3.png","","","memory_trial","3","maybe_new","","","","","","",""
"html-keyboard-response","116","1146457","0.0-15.0-0.37","1919","2","""event"",""trial"",""time""
""blur"",""1"",""10845""
""focus"",""1"",""227103""
""fullscreenenter"",""1"",""228202""
","""event"",""trial"",""time""
""blur"",""1"",""10845""
","""event"",""trial"",""time""
""focus"",""1"",""227103""
","""event"",""trial"",""time""
""fullscreenenter"",""1"",""228202""
","
","","","","","","null","<div style=""font-size:60px;"">+</div>","null","","fixation","","","","","","","","",""
"memory-trial","117","1148837","0.0-15.0-1.37","1919","2","""event"",""trial"",""time""
""blur"",""1"",""10845""
""focus"",""1"",""227103""
""fullscreenenter"",""1"",""228202""
","""event"",""trial"",""time""
""blur"",""1"",""10845""
","""event"",""trial"",""time""
""focus"",""1"",""227103""
","""event"",""trial"",""time""
""fullscreenenter"",""1"",""228202""
","
","","","","","","1377.2000000029802","images/cactus5.png","","","memory_trial","3","maybe_new","","","","","","",""
"html-keyboard-response","118","1149342","0.0-15.0-0.38","1919","2","""event"",""trial"",""time""
""blur"",""1"",""10845""
""focus"",""1"",""227103""
""fullscreenenter"",""1"",""228202""
","""event"",""trial"",""time""
""blur"",""1"",""10845""
","""event"",""trial"",""time""
""focus"",""1"",""227103""
","""event"",""trial"",""time""
""fullscreenenter"",""1"",""228202""
","
","","","","","","null","<div style=""font-size:60px;"">+</div>","null","","fixation","","","","","","","","",""
"memory-trial","119","1151373","0.0-15.0-1.38","1919","2","""event"",""trial"",""time""
""blur"",""1"",""10845""
""focus"",""1"",""227103""
""fullscreenenter"",""1"",""228202""
","""event"",""trial"",""time""
""blur"",""1"",""10845""
","""event"",""trial"",""time""
""focus"",""1"",""227103""
","""event"",""trial"",""time""
""fullscreenenter"",""1"",""228202""
","
","","","","","","1027.2999999970198","images/feline4.png","","","memory_trial","3","maybe_new","","","","","","",""
"html-keyboard-response","120","1151875","0.0-15.0-0.39","1919","2","""event"",""trial"",""time""
""blur"",""1"",""10845""
""focus"",""1"",""227103""
""fullscreenenter"",""1"",""228202""
","""event"",""trial"",""time""
""blur"",""1"",""10845""
","""event"",""trial"",""time""
""focus"",""1"",""227103""
","""event"",""trial"",""time""
""fullscreenenter"",""1"",""228202""
","
","","","","","","null","<div style=""font-size:60px;"">+</div>","null","","fixation","","","","","","","","",""
"memory-trial","121","1154288","0.0-15.0-1.39","1919","2","""event"",""trial"",""time""
""blur"",""1"",""10845""
""focus"",""1"",""227103""
""fullscreenenter"",""1"",""228202""
","""event"",""trial"",""time""
""blur"",""1"",""10845""
","""event"",""trial"",""time""
""focus"",""1"",""227103""
","""event"",""trial"",""time""
""fullscreenenter"",""1"",""228202""
","
","","","","","","1407.3999999985099","images/flower2.png","","","memory_trial","1","definitely_old","","","","","","",""
"html-keyboard-response","122","1154792","0.0-15.0-0.40","1919","2","""event"",""trial"",""time""
""blur"",""1"",""10845""
""focus"",""1"",""227103""
""fullscreenenter"",""1"",""228202""
","""event"",""trial"",""time""
""blur"",""1"",""10845""
","""event"",""trial"",""time""
""focus"",""1"",""227103""
","""event"",""trial"",""time""
""fullscreenenter"",""1"",""228202""
","
","","","","","","null","<div style=""font-size:60px;"">+</div>","null","","fixation","","","","","","","","",""
"memory-trial","123","1156789","0.0-15.0-1.40","1919","2","""event"",""trial"",""time""
""blur"",""1"",""10845""
""focus"",""1"",""227103""
""fullscreenenter"",""1"",""228202""
","""event"",""trial"",""time""
""blur"",""1"",""10845""
","""event"",""trial"",""time""
""focus"",""1"",""227103""
","""event"",""trial"",""time""
""fullscreenenter"",""1"",""228202""
","
","","","","","","992.8999999985099","images/sofa5.png","","","memory_trial","3","maybe_new","","","","","","",""
"html-keyboard-response","124","1157294","0.0-15.0-0.41","1919","2","""event"",""trial"",""time""
""blur"",""1"",""10845""
""focus"",""1"",""227103""
""fullscreenenter"",""1"",""228202""
","""event"",""trial"",""time""
""blur"",""1"",""10845""
","""event"",""trial"",""time""
""focus"",""1"",""227103""
","""event"",""trial"",""time""
""fullscreenenter"",""1"",""228202""
","
","","","","","","null","<div style=""font-size:60px;"">+</div>","null","","fixation","","","","","","","","",""
"memory-trial","125","1159791","0.0-15.0-1.41","1919","2","""event"",""trial"",""time""
""blur"",""1"",""10845""
""focus"",""1"",""227103""
""fullscreenenter"",""1"",""228202""
","""event"",""trial"",""time""
""blur"",""1"",""10845""
","""event"",""trial"",""time""
""focus"",""1"",""227103""
","""event"",""trial"",""time""
""fullscreenenter"",""1"",""228202""
","
","","","","","","1492","images/truck1.png","","","memory_trial","1","definitely_old","","","","","","",""
"html-keyboard-response","126","1160295","0.0-15.0-0.42","1919","2","""event"",""trial"",""time""
""blur"",""1"",""10845""
""focus"",""1"",""227103""
""fullscreenenter"",""1"",""228202""
","""event"",""trial"",""time""
""blur"",""1"",""10845""
","""event"",""trial"",""time""
""focus"",""1"",""227103""
","""event"",""trial"",""time""
""fullscreenenter"",""1"",""228202""
","
","","","","","","null","<div style=""font-size:60px;"">+</div>","null","","fixation","","","","","","","","",""
"memory-trial","127","1162380","0.0-15.0-1.42","1919","2","""event"",""trial"",""time""
""blur"",""1"",""10845""
""focus"",""1"",""227103""
""fullscreenenter"",""1"",""228202""
","""event"",""trial"",""time""
""blur"",""1"",""10845""
","""event"",""trial"",""time""
""focus"",""1"",""227103""
","""event"",""trial"",""time""
""fullscreenenter"",""1"",""228202""
","
","","","","","","1082.1000000014901","images/rodent5.png","","","memory_trial","1","definitely_old","","","","","","",""
"html-keyboard-response","128","1162882","0.0-15.0-0.43","1919","2","""event"",""trial"",""time""
""blur"",""1"",""10845""
""focus"",""1"",""227103""
""fullscreenenter"",""1"",""228202""
","""event"",""trial"",""time""
""blur"",""1"",""10845""
","""event"",""trial"",""time""
""focus"",""1"",""227103""
","""event"",""trial"",""time""
""fullscreenenter"",""1"",""228202""
","
","","","","","","null","<div style=""font-size:60px;"">+</div>","null","","fixation","","","","","","","","",""
"memory-trial","129","1165134","0.0-15.0-1.43","1919","2","""event"",""trial"",""time""
""blur"",""1"",""10845""
""focus"",""1"",""227103""
""fullscreenenter"",""1"",""228202""
","""event"",""trial"",""time""
""blur"",""1"",""10845""
","""event"",""trial"",""time""
""focus"",""1"",""227103""
","""event"",""trial"",""time""
""fullscreenenter"",""1"",""228202""
","
","","","","","","1246.8999999985099","images/truck5.png","","","memory_trial","2","maybe_old","","","","","","",""
"html-keyboard-response","130","1165636","0.0-15.0-0.44","1919","2","""event"",""trial"",""time""
""blur"",""1"",""10845""
""focus"",""1"",""227103""
""fullscreenenter"",""1"",""228202""
","""event"",""trial"",""time""
""blur"",""1"",""10845""
","""event"",""trial"",""time""
""focus"",""1"",""227103""
","""event"",""trial"",""time""
""fullscreenenter"",""1"",""228202""
","
","","","","","","null","<div style=""font-size:60px;"">+</div>","null","","fixation","","","","","","","","",""
"memory-trial","131","1168276","0.0-15.0-1.44","1919","2","""event"",""trial"",""time""
""blur"",""1"",""10845""
""focus"",""1"",""227103""
""fullscreenenter"",""1"",""228202""
","""event"",""trial"",""time""
""blur"",""1"",""10845""
","""event"",""trial"",""time""
""focus"",""1"",""227103""
","""event"",""trial"",""time""
""fullscreenenter"",""1"",""228202""
","
","","","","","","1637.2999999970198","images/apple5.png","","","memory_trial","3","maybe_new","","","","","","",""
"html-keyboard-response","132","1168779","0.0-15.0-0.45","1919","2","""event"",""trial"",""time""
""blur"",""1"",""10845""
""focus"",""1"",""227103""
""fullscreenenter"",""1"",""228202""
","""event"",""trial"",""time""
""blur"",""1"",""10845""
","""event"",""trial"",""time""
""focus"",""1"",""227103""
","""event"",""trial"",""time""
""fullscreenenter"",""1"",""228202""
","
","","","","","","null","<div style=""font-size:60px;"">+</div>","null","","fixation","","","","","","","","",""
"memory-trial","133","1170943","0.0-15.0-1.45","1919","2","""event"",""trial"",""time""
""blur"",""1"",""10845""
""focus"",""1"",""227103""
""fullscreenenter"",""1"",""228202""
","""event"",""trial"",""time""
""blur"",""1"",""10845""
","""event"",""trial"",""time""
""focus"",""1"",""227103""
","""event"",""trial"",""time""
""fullscreenenter"",""1"",""228202""
","
","","","","","","1157.6000000014901","images/orange2.png","","","memory_trial","2","maybe_old","","","","","","",""
"html-keyboard-response","134","1171447","0.0-15.0-0.46","1919","2","""event"",""trial"",""time""
""blur"",""1"",""10845""
""focus"",""1"",""227103""
""fullscreenenter"",""1"",""228202""
","""event"",""trial"",""time""
""blur"",""1"",""10845""
","""event"",""trial"",""time""
""focus"",""1"",""227103""
","""event"",""trial"",""time""
""fullscreenenter"",""1"",""228202""
","
","","","","","","null","<div style=""font-size:60px;"">+</div>","null","","fixation","","","","","","","","",""
"memory-trial","135","1173790","0.0-15.0-1.46","1919","2","""event"",""trial"",""time""
""blur"",""1"",""10845""
""focus"",""1"",""227103""
""fullscreenenter"",""1"",""228202""
","""event"",""trial"",""time""
""blur"",""1"",""10845""
","""event"",""trial"",""time""
""focus"",""1"",""227103""
","""event"",""trial"",""time""
""fullscreenenter"",""1"",""228202""
","
","","","","","","1338.6000000014901","images/flower4.png","","","memory_trial","1","definitely_old","","","","","","",""
"html-button-response","136","1493311","0.0-15.0-2.46-0.46","1919","2","""event"",""trial"",""time""
""blur"",""1"",""10845""
""focus"",""1"",""227103""
""fullscreenenter"",""1"",""228202""
","""event"",""trial"",""time""
""blur"",""1"",""10845""
","""event"",""trial"",""time""
""focus"",""1"",""227103""
","""event"",""trial"",""time""
""fullscreenenter"",""1"",""228202""
","
","","","","","","319528.19999999553","<p> Take a break! </p><p> Click the button to continue. </p>","0","","break","","","","","","","","",""
"html-keyboard-response","137","1493812","0.0-15.0-0.47","1919","2","""event"",""trial"",""time""
""blur"",""1"",""10845""
""focus"",""1"",""227103""
""fullscreenenter"",""1"",""228202""
","""event"",""trial"",""time""
""blur"",""1"",""10845""
","""event"",""trial"",""time""
""focus"",""1"",""227103""
","""event"",""trial"",""time""
""fullscreenenter"",""1"",""228202""
","
","","","","","","null","<div style=""font-size:60px;"">+</div>","null","","fixation","","","","","","","","",""
"memory-trial","138","1497259","0.0-15.0-1.47","1919","2","""event"",""trial"",""time""
""blur"",""1"",""10845""
""focus"",""1"",""227103""
""fullscreenenter"",""1"",""228202""
","""event"",""trial"",""time""
""blur"",""1"",""10845""
","""event"",""trial"",""time""
""focus"",""1"",""227103""
","""event"",""trial"",""time""
""fullscreenenter"",""1"",""228202""
","
","","","","","","2443.6000000089407","images/feline2.png","","","memory_trial","3","maybe_new","","","","","","",""
"html-keyboard-response","139","1497759","0.0-15.0-0.48","1919","2","""event"",""trial"",""time""
""blur"",""1"",""10845""
""focus"",""1"",""227103""
""fullscreenenter"",""1"",""228202""
","""event"",""trial"",""time""
""blur"",""1"",""10845""
","""event"",""trial"",""time""
""focus"",""1"",""227103""
","""event"",""trial"",""time""
""fullscreenenter"",""1"",""228202""
","
","","","","","","null","<div style=""font-size:60px;"">+</div>","null","","fixation","","","","","","","","",""
"memory-trial","140","1500058","0.0-15.0-1.48","1919","2","""event"",""trial"",""time""
""blur"",""1"",""10845""
""focus"",""1"",""227103""
""fullscreenenter"",""1"",""228202""
","""event"",""trial"",""time""
""blur"",""1"",""10845""
","""event"",""trial"",""time""
""focus"",""1"",""227103""
","""event"",""trial"",""time""
""fullscreenenter"",""1"",""228202""
","
","","","","","","1296.5999999940395","images/bed5.png","","","memory_trial","1","definitely_old","","","","","","",""
"html-keyboard-response","141","1500560","0.0-15.0-0.49","1919","2","""event"",""trial"",""time""
""blur"",""1"",""10845""
""focus"",""1"",""227103""
""fullscreenenter"",""1"",""228202""
","""event"",""trial"",""time""
""blur"",""1"",""10845""
","""event"",""trial"",""time""
""focus"",""1"",""227103""
","""event"",""trial"",""time""
""fullscreenenter"",""1"",""228202""
","
","","","","","","null","<div style=""font-size:60px;"">+</div>","null","","fixation","","","","","","","","",""
"memory-trial","142","1502763","0.0-15.0-1.49","1919","2","""event"",""trial"",""time""
""blur"",""1"",""10845""
""focus"",""1"",""227103""
""fullscreenenter"",""1"",""228202""
","""event"",""trial"",""time""
""blur"",""1"",""10845""
","""event"",""trial"",""time""
""focus"",""1"",""227103""
","""event"",""trial"",""time""
""fullscreenenter"",""1"",""228202""
","
","","","","","","1200.2999999970198","images/bush1.png","","","memory_trial","1","definitely_old","","","","","","",""
"html-keyboard-response","143","1503265","0.0-15.0-0.50","1919","2","""event"",""trial"",""time""
""blur"",""1"",""10845""
""focus"",""1"",""227103""
""fullscreenenter"",""1"",""228202""
","""event"",""trial"",""time""
""blur"",""1"",""10845""
","""event"",""trial"",""time""
""focus"",""1"",""227103""
","""event"",""trial"",""time""
""fullscreenenter"",""1"",""228202""
","
","","","","","","null","<div style=""font-size:60px;"">+</div>","null","","fixation","","","","","","","","",""
"memory-trial","144","1505213","0.0-15.0-1.50","1919","2","""event"",""trial"",""time""
""blur"",""1"",""10845""
""focus"",""1"",""227103""
""fullscreenenter"",""1"",""228202""
","""event"",""trial"",""time""
""blur"",""1"",""10845""
","""event"",""trial"",""time""
""focus"",""1"",""227103""
","""event"",""trial"",""time""
""fullscreenenter"",""1"",""228202""
","
","","","","","","943.5","images/straw1.png","","","memory_trial","2","maybe_old","","","","","","",""
"html-keyboard-response","145","1505718","0.0-15.0-0.51","1919","2","""event"",""trial"",""time""
""blur"",""1"",""10845""
""focus"",""1"",""227103""
""fullscreenenter"",""1"",""228202""
","""event"",""trial"",""time""
""blur"",""1"",""10845""
","""event"",""trial"",""time""
""focus"",""1"",""227103""
","""event"",""trial"",""time""
""fullscreenenter"",""1"",""228202""
","
","","","","","","null","<div style=""font-size:60px;"">+</div>","null","","fixation","","","","","","","","",""
"memory-trial","146","1508307","0.0-15.0-1.51","1919","2","""event"",""trial"",""time""
""blur"",""1"",""10845""
""focus"",""1"",""227103""
""fullscreenenter"",""1"",""228202""
","""event"",""trial"",""time""
""blur"",""1"",""10845""
","""event"",""trial"",""time""
""focus"",""1"",""227103""
","""event"",""trial"",""time""
""fullscreenenter"",""1"",""228202""
","
","","","","","","1586.4000000059605","images/goat3.png","","","memory_trial","2","maybe_old","","","","","","",""
"html-keyboard-response","147","1508811","0.0-15.0-0.52","1919","2","""event"",""trial"",""time""
""blur"",""1"",""10845""
""focus"",""1"",""227103""
""fullscreenenter"",""1"",""228202""
","""event"",""trial"",""time""
""blur"",""1"",""10845""
","""event"",""trial"",""time""
""focus"",""1"",""227103""
","""event"",""trial"",""time""
""fullscreenenter"",""1"",""228202""
","
","","","","","","null","<div style=""font-size:60px;"">+</div>","null","","fixation","","","","","","","","",""
"memory-trial","148","1510819","0.0-15.0-1.52","1919","2","""event"",""trial"",""time""
""blur"",""1"",""10845""
""focus"",""1"",""227103""
""fullscreenenter"",""1"",""228202""
","""event"",""trial"",""time""
""blur"",""1"",""10845""
","""event"",""trial"",""time""
""focus"",""1"",""227103""
","""event"",""trial"",""time""
""fullscreenenter"",""1"",""228202""
","
","","","","","","1004.2999999970198","images/boat5.png","","","memory_trial","4","definitely_new","","","","","","",""
"html-keyboard-response","149","1511320","0.0-15.0-0.53","1919","2","""event"",""trial"",""time""
""blur"",""1"",""10845""
""focus"",""1"",""227103""
""fullscreenenter"",""1"",""228202""
","""event"",""trial"",""time""
""blur"",""1"",""10845""
","""event"",""trial"",""time""
""focus"",""1"",""227103""
","""event"",""trial"",""time""
""fullscreenenter"",""1"",""228202""
","
","","","","","","null","<div style=""font-size:60px;"">+</div>","null","","fixation","","","","","","","","",""
"memory-trial","150","1513665","0.0-15.0-1.53","1919","2","""event"",""trial"",""time""
""blur"",""1"",""10845""
""focus"",""1"",""227103""
""fullscreenenter"",""1"",""228202""
","""event"",""trial"",""time""
""blur"",""1"",""10845""
","""event"",""trial"",""time""
""focus"",""1"",""227103""
","""event"",""trial"",""time""
""fullscreenenter"",""1"",""228202""
","
","","","","","","1344.0999999940395","images/rodent1.png","","","memory_trial","2","maybe_old","","","","","","",""
"html-keyboard-response","151","1514166","0.0-15.0-0.54","1919","2","""event"",""trial"",""time""
""blur"",""1"",""10845""
""focus"",""1"",""227103""
""fullscreenenter"",""1"",""228202""
","""event"",""trial"",""time""
""blur"",""1"",""10845""
","""event"",""trial"",""time""
""focus"",""1"",""227103""
","""event"",""trial"",""time""
""fullscreenenter"",""1"",""228202""
","
","","","","","","null","<div style=""font-size:60px;"">+</div>","null","","fixation","","","","","","","","",""
"memory-trial","152","1516694","0.0-15.0-1.54","1919","2","""event"",""trial"",""time""
""blur"",""1"",""10845""
""focus"",""1"",""227103""
""fullscreenenter"",""1"",""228202""
","""event"",""trial"",""time""
""blur"",""1"",""10845""
","""event"",""trial"",""time""
""focus"",""1"",""227103""
","""event"",""trial"",""time""
""fullscreenenter"",""1"",""228202""
","
","","","","","","1521.800000011921","images/chair4.png","","","memory_trial","3","maybe_new","","","","","","",""
"html-keyboard-response","153","1517199","0.0-15.0-0.55","1919","2","""event"",""trial"",""time""
""blur"",""1"",""10845""
""focus"",""1"",""227103""
""fullscreenenter"",""1"",""228202""
","""event"",""trial"",""time""
""blur"",""1"",""10845""
","""event"",""trial"",""time""
""focus"",""1"",""227103""
","""event"",""trial"",""time""
""fullscreenenter"",""1"",""228202""
","
","","","","","","null","<div style=""font-size:60px;"">+</div>","null","","fixation","","","","","","","","",""
"memory-trial","154","1519293","0.0-15.0-1.55","1919","2","""event"",""trial"",""time""
""blur"",""1"",""10845""
""focus"",""1"",""227103""
""fullscreenenter"",""1"",""228202""
","""event"",""trial"",""time""
""blur"",""1"",""10845""
","""event"",""trial"",""time""
""focus"",""1"",""227103""
","""event"",""trial"",""time""
""fullscreenenter"",""1"",""228202""
","
","","","","","","1088.7000000029802","images/horse3.png","","","memory_trial","3","maybe_new","","","","","","",""
"html-keyboard-response","155","1519795","0.0-15.0-0.56","1919","2","""event"",""trial"",""time""
""blur"",""1"",""10845""
""focus"",""1"",""227103""
""fullscreenenter"",""1"",""228202""
","""event"",""trial"",""time""
""blur"",""1"",""10845""
","""event"",""trial"",""time""
""focus"",""1"",""227103""
","""event"",""trial"",""time""
""fullscreenenter"",""1"",""228202""
","
","","","","","","null","<div style=""font-size:60px;"">+</div>","null","","fixation","","","","","","","","",""
"memory-trial","156","1521930","0.0-15.0-1.56","1919","2","""event"",""trial"",""time""
""blur"",""1"",""10845""
""focus"",""1"",""227103""
""fullscreenenter"",""1"",""228202""
","""event"",""trial"",""time""
""blur"",""1"",""10845""
","""event"",""trial"",""time""
""focus"",""1"",""227103""
","""event"",""trial"",""time""
""fullscreenenter"",""1"",""228202""
","
","","","","","","1132.9000000059605","images/train4.png","","","memory_trial","1","definitely_old","","","","","","",""
"html-keyboard-response","157","1522436","0.0-15.0-0.57","1919","2","""event"",""trial"",""time""
""blur"",""1"",""10845""
""focus"",""1"",""227103""
""fullscreenenter"",""1"",""228202""
","""event"",""trial"",""time""
""blur"",""1"",""10845""
","""event"",""trial"",""time""
""focus"",""1"",""227103""
","""event"",""trial"",""time""
""fullscreenenter"",""1"",""228202""
","
","","","","","","null","<div style=""font-size:60px;"">+</div>","null","","fixation","","","","","","","","",""
"memory-trial","158","1524909","0.0-15.0-1.57","1919","2","""event"",""trial"",""time""
""blur"",""1"",""10845""
""focus"",""1"",""227103""
""fullscreenenter"",""1"",""228202""
","""event"",""trial"",""time""
""blur"",""1"",""10845""
","""event"",""trial"",""time""
""focus"",""1"",""227103""
","""event"",""trial"",""time""
""fullscreenenter"",""1"",""228202""
","
","","","","","","1467.5999999940395","images/boat4.png","","","memory_trial","3","maybe_new","","","","","","",""
"html-keyboard-response","159","1525413","0.0-15.0-0.58","1919","2","""event"",""trial"",""time""
""blur"",""1"",""10845""
""focus"",""1"",""227103""
""fullscreenenter"",""1"",""228202""
","""event"",""trial"",""time""
""blur"",""1"",""10845""
","""event"",""trial"",""time""
""focus"",""1"",""227103""
","""event"",""trial"",""time""
""fullscreenenter"",""1"",""228202""
","
","","","","","","null","<div style=""font-size:60px;"">+</div>","null","","fixation","","","","","","","","",""
"memory-trial","160","1527397","0.0-15.0-1.58","1919","2","""event"",""trial"",""time""
""blur"",""1"",""10845""
""focus"",""1"",""227103""
""fullscreenenter"",""1"",""228202""
","""event"",""trial"",""time""
""blur"",""1"",""10845""
","""event"",""trial"",""time""
""focus"",""1"",""227103""
","""event"",""trial"",""time""
""fullscreenenter"",""1"",""228202""
","
","","","","","","979","images/bed4.png","","","memory_trial","1","definitely_old","","","","","","",""
"html-keyboard-response","161","1527898","0.0-15.0-0.59","1919","2","""event"",""trial"",""time""
""blur"",""1"",""10845""
""focus"",""1"",""227103""
""fullscreenenter"",""1"",""228202""
","""event"",""trial"",""time""
""blur"",""1"",""10845""
","""event"",""trial"",""time""
""focus"",""1"",""227103""
","""event"",""trial"",""time""
""fullscreenenter"",""1"",""228202""
","
","","","","","","null","<div style=""font-size:60px;"">+</div>","null","","fixation","","","","","","","","",""
"memory-trial","162","1530011","0.0-15.0-1.59","1919","2","""event"",""trial"",""time""
""blur"",""1"",""10845""
""focus"",""1"",""227103""
""fullscreenenter"",""1"",""228202""
","""event"",""trial"",""time""
""blur"",""1"",""10845""
","""event"",""trial"",""time""
""focus"",""1"",""227103""
","""event"",""trial"",""time""
""fullscreenenter"",""1"",""228202""
","
","","","","","","1109","images/cactus1.png","","","memory_trial","1","definitely_old","","","","","","",""
"html-keyboard-response","163","1530516","0.0-15.0-0.60","1919","2","""event"",""trial"",""time""
""blur"",""1"",""10845""
""focus"",""1"",""227103""
""fullscreenenter"",""1"",""228202""
","""event"",""trial"",""time""
""blur"",""1"",""10845""
","""event"",""trial"",""time""
""focus"",""1"",""227103""
","""event"",""trial"",""time""
""fullscreenenter"",""1"",""228202""
","
","","","","","","null","<div style=""font-size:60px;"">+</div>","null","","fixation","","","","","","","","",""
"memory-trial","164","1533581","0.0-15.0-1.60","1919","2","""event"",""trial"",""time""
""blur"",""1"",""10845""
""focus"",""1"",""227103""
""fullscreenenter"",""1"",""228202""
","""event"",""trial"",""time""
""blur"",""1"",""10845""
","""event"",""trial"",""time""
""focus"",""1"",""227103""
","""event"",""trial"",""time""
""fullscreenenter"",""1"",""228202""
","
","","","","","","2059.4000000059605","images/plane3.png","","","memory_trial","4","definitely_new","","","","","","",""
"html-keyboard-response","165","1534086","0.0-15.0-0.61","1919","2","""event"",""trial"",""time""
""blur"",""1"",""10845""
""focus"",""1"",""227103""
""fullscreenenter"",""1"",""228202""
","""event"",""trial"",""time""
""blur"",""1"",""10845""
","""event"",""trial"",""time""
""focus"",""1"",""227103""
","""event"",""trial"",""time""
""fullscreenenter"",""1"",""228202""
","
","","","","","","null","<div style=""font-size:60px;"">+</div>","null","","fixation","","","","","","","","",""
"memory-trial","166","1536437","0.0-15.0-1.61","1919","2","""event"",""trial"",""time""
""blur"",""1"",""10845""
""focus"",""1"",""227103""
""fullscreenenter"",""1"",""228202""
","""event"",""trial"",""time""
""blur"",""1"",""10845""
","""event"",""trial"",""time""
""focus"",""1"",""227103""
","""event"",""trial"",""time""
""fullscreenenter"",""1"",""228202""
","
","","","","","","1344.8999999910593","images/table1.png","","","memory_trial","1","definitely_old","","","","","","",""
"html-keyboard-response","167","1536942","0.0-15.0-0.62","1919","2","""event"",""trial"",""time""
""blur"",""1"",""10845""
""focus"",""1"",""227103""
""fullscreenenter"",""1"",""228202""
","""event"",""trial"",""time""
""blur"",""1"",""10845""
","""event"",""trial"",""time""
""focus"",""1"",""227103""
","""event"",""trial"",""time""
""fullscreenenter"",""1"",""228202""
","
","","","","","","null","<div style=""font-size:60px;"">+</div>","null","","fixation","","","","","","","","",""
"memory-trial","168","1539606","0.0-15.0-1.62","1919","2","""event"",""trial"",""time""
""blur"",""1"",""10845""
""focus"",""1"",""227103""
""fullscreenenter"",""1"",""228202""
","""event"",""trial"",""time""
""blur"",""1"",""10845""
","""event"",""trial"",""time""
""focus"",""1"",""227103""
","""event"",""trial"",""time""
""fullscreenenter"",""1"",""228202""
","
","","","","","","1658.0999999940395","images/plane1.png","","","memory_trial","3","maybe_new","","","","","","",""
"html-keyboard-response","169","1540112","0.0-15.0-0.63","1919","2","""event"",""trial"",""time""
""blur"",""1"",""10845""
""focus"",""1"",""227103""
""fullscreenenter"",""1"",""228202""
","""event"",""trial"",""time""
""blur"",""1"",""10845""
","""event"",""trial"",""time""
""focus"",""1"",""227103""
","""event"",""trial"",""time""
""fullscreenenter"",""1"",""228202""
","
","","","","","","null","<div style=""font-size:60px;"">+</div>","null","","fixation","","","","","","","","",""
"memory-trial","170","1542265","0.0-15.0-1.63","1919","2","""event"",""trial"",""time""
""blur"",""1"",""10845""
""focus"",""1"",""227103""
""fullscreenenter"",""1"",""228202""
","""event"",""trial"",""time""
""blur"",""1"",""10845""
","""event"",""trial"",""time""
""focus"",""1"",""227103""
","""event"",""trial"",""time""
""fullscreenenter"",""1"",""228202""
","
","","","","","","1151.5","images/tree1.png","","","memory_trial","1","definitely_old","","","","","","",""
"html-keyboard-response","171","1542769","0.0-15.0-0.64","1919","2","""event"",""trial"",""time""
""blur"",""1"",""10845""
""focus"",""1"",""227103""
""fullscreenenter"",""1"",""228202""
","""event"",""trial"",""time""
""blur"",""1"",""10845""
","""event"",""trial"",""time""
""focus"",""1"",""227103""
","""event"",""trial"",""time""
""fullscreenenter"",""1"",""228202""
","
","","","","","","null","<div style=""font-size:60px;"">+</div>","null","","fixation","","","","","","","","",""
"memory-trial","172","1544634","0.0-15.0-1.64","1919","2","""event"",""trial"",""time""
""blur"",""1"",""10845""
""focus"",""1"",""227103""
""fullscreenenter"",""1"",""228202""
","""event"",""trial"",""time""
""blur"",""1"",""10845""
","""event"",""trial"",""time""
""focus"",""1"",""227103""
","""event"",""trial"",""time""
""fullscreenenter"",""1"",""228202""
","
","","","","","","861.6000000089407","images/table2.png","","","memory_trial","1","definitely_old","","","","","","",""
"html-keyboard-response","173","1545139","0.0-15.0-0.65","1919","2","""event"",""trial"",""time""
""blur"",""1"",""10845""
""focus"",""1"",""227103""
""fullscreenenter"",""1"",""228202""
","""event"",""trial"",""time""
""blur"",""1"",""10845""
","""event"",""trial"",""time""
""focus"",""1"",""227103""
","""event"",""trial"",""time""
""fullscreenenter"",""1"",""228202""
","
","","","","","","null","<div style=""font-size:60px;"">+</div>","null","","fixation","","","","","","","","",""
"memory-trial","174","1547170","0.0-15.0-1.65","1919","2","""event"",""trial"",""time""
""blur"",""1"",""10845""
""focus"",""1"",""227103""
""fullscreenenter"",""1"",""228202""
","""event"",""trial"",""time""
""blur"",""1"",""10845""
","""event"",""trial"",""time""
""focus"",""1"",""227103""
","""event"",""trial"",""time""
""fullscreenenter"",""1"",""228202""
","
","","","","","","1028.5","images/tree4.png","","","memory_trial","2","maybe_old","","","","","","",""
"html-keyboard-response","175","1547675","0.0-15.0-0.66","1919","2","""event"",""trial"",""time""
""blur"",""1"",""10845""
""focus"",""1"",""227103""
""fullscreenenter"",""1"",""228202""
","""event"",""trial"",""time""
""blur"",""1"",""10845""
","""event"",""trial"",""time""
""focus"",""1"",""227103""
","""event"",""trial"",""time""
""fullscreenenter"",""1"",""228202""
","
","","","","","","null","<div style=""font-size:60px;"">+</div>","null","","fixation","","","","","","","","",""
"memory-trial","176","1549498","0.0-15.0-1.66","1919","2","""event"",""trial"",""time""
""blur"",""1"",""10845""
""focus"",""1"",""227103""
""fullscreenenter"",""1"",""228202""
","""event"",""trial"",""time""
""blur"",""1"",""10845""
","""event"",""trial"",""time""
""focus"",""1"",""227103""
","""event"",""trial"",""time""
""fullscreenenter"",""1"",""228202""
","
","","","","","","820.5","images/chair2.png","","","memory_trial","1","definitely_old","","","","","","",""
"html-keyboard-response","177","1550003","0.0-15.0-0.67","1919","2","""event"",""trial"",""time""
""blur"",""1"",""10845""
""focus"",""1"",""227103""
""fullscreenenter"",""1"",""228202""
","""event"",""trial"",""time""
""blur"",""1"",""10845""
","""event"",""trial"",""time""
""focus"",""1"",""227103""
","""event"",""trial"",""time""
""fullscreenenter"",""1"",""228202""
","
","","","","","","null","<div style=""font-size:60px;"">+</div>","null","","fixation","","","","","","","","",""
"memory-trial","178","1552006","0.0-15.0-1.67","1919","2","""event"",""trial"",""time""
""blur"",""1"",""10845""
""focus"",""1"",""227103""
""fullscreenenter"",""1"",""228202""
","""event"",""trial"",""time""
""blur"",""1"",""10845""
","""event"",""trial"",""time""
""focus"",""1"",""227103""
","""event"",""trial"",""time""
""fullscreenenter"",""1"",""228202""
","
","","","","","","995.9000000059605","images/boat1.png","","","memory_trial","3","maybe_new","","","","","","",""
"html-keyboard-response","179","1552510","0.0-15.0-0.68","1919","2","""event"",""trial"",""time""
""blur"",""1"",""10845""
""focus"",""1"",""227103""
""fullscreenenter"",""1"",""228202""
","""event"",""trial"",""time""
""blur"",""1"",""10845""
","""event"",""trial"",""time""
""focus"",""1"",""227103""
","""event"",""trial"",""time""
""fullscreenenter"",""1"",""228202""
","
","","","","","","null","<div style=""font-size:60px;"">+</div>","null","","fixation","","","","","","","","",""
"memory-trial","180","1554617","0.0-15.0-1.68","1919","2","""event"",""trial"",""time""
""blur"",""1"",""10845""
""focus"",""1"",""227103""
""fullscreenenter"",""1"",""228202""
","""event"",""trial"",""time""
""blur"",""1"",""10845""
","""event"",""trial"",""time""
""focus"",""1"",""227103""
","""event"",""trial"",""time""
""fullscreenenter"",""1"",""228202""
","
","","","","","","1104.7000000029802","images/bush5.png","","","memory_trial","2","maybe_old","","","","","","",""
"html-keyboard-response","181","1555122","0.0-15.0-0.69","1919","2","""event"",""trial"",""time""
""blur"",""1"",""10845""
""focus"",""1"",""227103""
""fullscreenenter"",""1"",""228202""
","""event"",""trial"",""time""
""blur"",""1"",""10845""
","""event"",""trial"",""time""
""focus"",""1"",""227103""
","""event"",""trial"",""time""
""fullscreenenter"",""1"",""228202""
","
","","","","","","null","<div style=""font-size:60px;"">+</div>","null","","fixation","","","","","","","","",""
"memory-trial","182","1557187","0.0-15.0-1.69","1919","2","""event"",""trial"",""time""
""blur"",""1"",""10845""
""focus"",""1"",""227103""
""fullscreenenter"",""1"",""228202""
","""event"",""trial"",""time""
""blur"",""1"",""10845""
","""event"",""trial"",""time""
""focus"",""1"",""227103""
","""event"",""trial"",""time""
""fullscreenenter"",""1"",""228202""
","
","","","","","","1060.4000000059605","images/rabbit1.png","","","memory_trial","2","maybe_old","","","","","","",""
"html-keyboard-response","183","1557689","0.0-15.0-0.70","1919","2","""event"",""trial"",""time""
""blur"",""1"",""10845""
""focus"",""1"",""227103""
""fullscreenenter"",""1"",""228202""
","""event"",""trial"",""time""
""blur"",""1"",""10845""
","""event"",""trial"",""time""
""focus"",""1"",""227103""
","""event"",""trial"",""time""
""fullscreenenter"",""1"",""228202""
","
","","","","","","null","<div style=""font-size:60px;"">+</div>","null","","fixation","","","","","","","","",""
"memory-trial","184","1560033","0.0-15.0-1.70","1919","2","""event"",""trial"",""time""
""blur"",""1"",""10845""
""focus"",""1"",""227103""
""fullscreenenter"",""1"",""228202""
","""event"",""trial"",""time""
""blur"",""1"",""10845""
","""event"",""trial"",""time""
""focus"",""1"",""227103""
","""event"",""trial"",""time""
""fullscreenenter"",""1"",""228202""
","
","","","","","","1341.9000000059605","images/horse5.png","","","memory_trial","4","definitely_new","","","","","","",""
"html-keyboard-response","185","1560539","0.0-15.0-0.71","1919","2","""event"",""trial"",""time""
""blur"",""1"",""10845""
""focus"",""1"",""227103""
""fullscreenenter"",""1"",""228202""
","""event"",""trial"",""time""
""blur"",""1"",""10845""
","""event"",""trial"",""time""
""focus"",""1"",""227103""
","""event"",""trial"",""time""
""fullscreenenter"",""1"",""228202""
","
","","","","","","null","<div style=""font-size:60px;"">+</div>","null","","fixation","","","","","","","","",""
"memory-trial","186","1562708","0.0-15.0-1.71","1919","2","""event"",""trial"",""time""
""blur"",""1"",""10845""
""focus"",""1"",""227103""
""fullscreenenter"",""1"",""228202""
","""event"",""trial"",""time""
""blur"",""1"",""10845""
","""event"",""trial"",""time""
""focus"",""1"",""227103""
","""event"",""trial"",""time""
""fullscreenenter"",""1"",""228202""
","
","","","","","","1163.6000000089407","images/tree2.png","","","memory_trial","3","maybe_new","","","","","","",""
"html-keyboard-response","187","1563209","0.0-15.0-0.72","1919","2","""event"",""trial"",""time""
""blur"",""1"",""10845""
""focus"",""1"",""227103""
""fullscreenenter"",""1"",""228202""
","""event"",""trial"",""time""
""blur"",""1"",""10845""
","""event"",""trial"",""time""
""focus"",""1"",""227103""
","""event"",""trial"",""time""
""fullscreenenter"",""1"",""228202""
","
","","","","","","null","<div style=""font-size:60px;"">+</div>","null","","fixation","","","","","","","","",""
"memory-trial","188","1565572","0.0-15.0-1.72","1919","2","""event"",""trial"",""time""
""blur"",""1"",""10845""
""focus"",""1"",""227103""
""fullscreenenter"",""1"",""228202""
","""event"",""trial"",""time""
""blur"",""1"",""10845""
","""event"",""trial"",""time""
""focus"",""1"",""227103""
","""event"",""trial"",""time""
""fullscreenenter"",""1"",""228202""
","
","","","","","","1358","images/apple1.png","","","memory_trial","3","maybe_new","","","","","","",""
"html-keyboard-response","189","1566077","0.0-15.0-0.73","1919","2","""event"",""trial"",""time""
""blur"",""1"",""10845""
""focus"",""1"",""227103""
""fullscreenenter"",""1"",""228202""
","""event"",""trial"",""time""
""blur"",""1"",""10845""
","""event"",""trial"",""time""
""focus"",""1"",""227103""
","""event"",""trial"",""time""
""fullscreenenter"",""1"",""228202""
","
","","","","","","null","<div style=""font-size:60px;"">+</div>","null","","fixation","","","","","","","","",""
"memory-trial","190","1568219","0.0-15.0-1.73","1919","2","""event"",""trial"",""time""
""blur"",""1"",""10845""
""focus"",""1"",""227103""
""fullscreenenter"",""1"",""228202""
","""event"",""trial"",""time""
""blur"",""1"",""10845""
","""event"",""trial"",""time""
""focus"",""1"",""227103""
","""event"",""trial"",""time""
""fullscreenenter"",""1"",""228202""
","
","","","","","","1137.2000000029802","images/chair1.png","","","memory_trial","1","definitely_old","","","","","","",""
"html-keyboard-response","191","1568724","0.0-15.0-0.74","1919","2","""event"",""trial"",""time""
""blur"",""1"",""10845""
""focus"",""1"",""227103""
""fullscreenenter"",""1"",""228202""
","""event"",""trial"",""time""
""blur"",""1"",""10845""
","""event"",""trial"",""time""
""focus"",""1"",""227103""
","""event"",""trial"",""time""
""fullscreenenter"",""1"",""228202""
","
","","","","","","null","<div style=""font-size:60px;"">+</div>","null","","fixation","","","","","","","","",""
"memory-trial","192","1570842","0.0-15.0-1.74","1919","2","""event"",""trial"",""time""
""blur"",""1"",""10845""
""focus"",""1"",""227103""
""fullscreenenter"",""1"",""228202""
","""event"",""trial"",""time""
""blur"",""1"",""10845""
","""event"",""trial"",""time""
""focus"",""1"",""227103""
","""event"",""trial"",""time""
""fullscreenenter"",""1"",""228202""
","
","","","","","","1115","images/chair3.png","","","memory_trial","2","maybe_old","","","","","","",""
"html-keyboard-response","193","1571347","0.0-15.0-0.75","1919","2","""event"",""trial"",""time""
""blur"",""1"",""10845""
""focus"",""1"",""227103""
""fullscreenenter"",""1"",""228202""
","""event"",""trial"",""time""
""blur"",""1"",""10845""
","""event"",""trial"",""time""
""focus"",""1"",""227103""
","""event"",""trial"",""time""
""fullscreenenter"",""1"",""228202""
","
","","","","","","null","<div style=""font-size:60px;"">+</div>","null","","fixation","","","","","","","","",""
"memory-trial","194","1573233","0.0-15.0-1.75","1919","2","""event"",""trial"",""time""
""blur"",""1"",""10845""
""focus"",""1"",""227103""
""fullscreenenter"",""1"",""228202""
","""event"",""trial"",""time""
""blur"",""1"",""10845""
","""event"",""trial"",""time""
""focus"",""1"",""227103""
","""event"",""trial"",""time""
""fullscreenenter"",""1"",""228202""
","
","","","","","","883.1000000089407","images/chair5.png","","","memory_trial","1","definitely_old","","","","","","",""
"html-keyboard-response","195","1573739","0.0-15.0-0.76","1919","2","""event"",""trial"",""time""
""blur"",""1"",""10845""
""focus"",""1"",""227103""
""fullscreenenter"",""1"",""228202""
","""event"",""trial"",""time""
""blur"",""1"",""10845""
","""event"",""trial"",""time""
""focus"",""1"",""227103""
","""event"",""trial"",""time""
""fullscreenenter"",""1"",""228202""
","
