"trial_type","trial_index","time_elapsed","internal_node_id","subject_id","task_version","interactions","blur_events","focus_events","fullscreenenter_events","fullscreenexit_events","success","timeout","failed_images","failed_audio","failed_video","rt","stimulus","response","button_pressed","task_part","key_press","answer","correct","left_choice","middle_choice","right_choice","choice_positions","option_selected","block"
"pavlovia","0","1","0.0-0.0","2019","2","""event"",""trial"",""time""
""fullscreenenter"",""1"",""1824""
","
","
","""event"",""trial"",""time""
""fullscreenenter"",""1"",""1824""
","
","","","","","","","","","","","","","","","","","","",""
"fullscreen","1","2812","0.0-1.0","2019","2","""event"",""trial"",""time""
""fullscreenenter"",""1"",""1824""
","
","
","""event"",""trial"",""time""
""fullscreenenter"",""1"",""1824""
","
","true","","","","","","","","","","","","","","","","","",""
"preload","2","3912","0.0-2.0","2019","2","""event"",""trial"",""time""
""fullscreenenter"",""1"",""1824""
","
","
","""event"",""trial"",""time""
""fullscreenenter"",""1"",""1824""
","
","true","false","[]","[]","[]","","","","","","","","","","","","","",""
"audio-keyboard-response","3","6598","0.0-3.0","2019","2","""event"",""trial"",""time""
""fullscreenenter"",""1"",""1824""
","
","
","""event"",""trial"",""time""
""fullscreenenter"",""1"",""1824""
","
","","","","","","2682.6666666666665","audio/beep_loop.wav"," ","","","","","","","","","","",""
"audio-button-response","4","8184","0.0-4.0","2019","2","""event"",""trial"",""time""
""fullscreenenter"",""1"",""1824""
","
","
","""event"",""trial"",""time""
""fullscreenenter"",""1"",""1824""
","
","","","","","","1584","audio/turtle.wav","3","","","","","","","","","","",""
"audio-button-response","5","10249","0.0-5.0","2019","2","""event"",""trial"",""time""
""fullscreenenter"",""1"",""1824""
","
","
","""event"",""trial"",""time""
""fullscreenenter"",""1"",""1824""
","
","","","","","","1061","audio/shark.wav","2","","","","","","","","","","",""
"preload","6","27876","0.0-6.0","2019","2","""event"",""trial"",""time""
""fullscreenenter"",""1"",""1824""
","
","
","""event"",""trial"",""time""
""fullscreenenter"",""1"",""1824""
","
","true","false","[]","[]","[]","","","","","","","","","","","","","",""
"learning-instructions","7","34438","0.0-7.0-0.0","2019","2","""event"",""trial"",""time""
""fullscreenenter"",""1"",""1824""
","
","
","""event"",""trial"",""time""
""fullscreenenter"",""1"",""1824""
","
","","","","","","1757.800000011921","<p> Welcome back! </p><p> Last week, you had to make choices about lots of different items.  </p>","","0","instructions","","","","","","","","",""
"learning-instructions","8","40865","0.0-7.0-0.1","2019","2","""event"",""trial"",""time""
""fullscreenenter"",""1"",""1824""
","
","
","""event"",""trial"",""time""
""fullscreenenter"",""1"",""1824""
","
","","","","","","2126.0999999940395","<p> Today, we are going to ask you to try to remember all the items. </p>","","0","instructions","","","","","","","","",""
"learning-instructions","9","52150","0.0-7.0-0.2","2019","2","""event"",""trial"",""time""
""fullscreenenter"",""1"",""1824""
","
","
","""event"",""trial"",""time""
""fullscreenenter"",""1"",""1824""
","
","","","","","","1150","<p> On every trial, you will see an image. </p><p> The image may be an OLD image you saw during the games last week or it may be a NEW image that was not presented. </p>","","0","instructions","","","","","","","","",""
"learning-instructions","10","62358","0.0-7.0-0.3","2019","2","""event"",""trial"",""time""
""fullscreenenter"",""1"",""1824""
","
","
","""event"",""trial"",""time""
""fullscreenenter"",""1"",""1824""
","
","","","","","","1708.3999999761581","<p> You need to select whether the image is:  </p><p>  'Definitely old', 'Maybe old', 'Maybe new', or 'Definitely new.'  </p><div class=""mem-choice-instructions-grid""><div class=""choice-option"" id=""choice-option-1"" ><img src=""images/definitely_old_1.png"" id=""choice-option-img-1"" class=""choice-option-img"" stage=""1""></div><div class=""choice-option"" id=""choice-option-2"" ><img src=""images/maybe_old_1.png"" id=""choice-option-img-2"" class=""choice-option-img"" stage=""1""></div><div class=""choice-option"" id=""choice-option-3"" ><img src=""images/maybe_new_1.png"" id=""choice-option-img-3"" class=""choice-option-img"" stage=""1""></div><div class=""choice-option"" id=""choice-option-4"" > <img src=""images/definitely_new_1.png"" id=""choice-option-img-4"" class=""choice-option-img"" stage=""1""></div></div>","","0","instructions","","","","","","","","",""
"learning-instructions","11","70297","0.0-7.0-0.4","2019","2","""event"",""trial"",""time""
""fullscreenenter"",""1"",""1824""
","
","
","""event"",""trial"",""time""
""fullscreenenter"",""1"",""1824""
","
","","","","","","1247.7999999821186","<p> You should use the 1, 2, 3, and 4 keys to make your responses.  </p><div class=""mem-choice-instructions-grid""><div class=""choice-option"" id=""choice-option-1"" ><img src=""images/definitely_old.png"" id=""choice-option-img-1"" class=""choice-option-img"" stage=""1""></div><div class=""choice-option"" id=""choice-option-2"" ><img src=""images/maybe_old.png"" id=""choice-option-img-2"" class=""choice-option-img"" stage=""1""></div><div class=""choice-option"" id=""choice-option-3"" ><img src=""images/maybe_new.png"" id=""choice-option-img-3"" class=""choice-option-img"" stage=""1""></div><div class=""choice-option"" id=""choice-option-4"" > <img src=""images/definitely_new.png"" id=""choice-option-img-4"" class=""choice-option-img"" stage=""1""></div></div>","","0","instructions","","","","","","","","",""
"learning-instructions","12","77637","0.0-7.0-0.5","2019","2","""event"",""trial"",""time""
""fullscreenenter"",""1"",""1824""
","
","
","""event"",""trial"",""time""
""fullscreenenter"",""1"",""1824""
","
","","","","","","583.8000000119209","<p> You will have 10 seconds to make each response.  </p><p>  Make sure to respond before time runs out! </p>","","0","instructions","","","","","","","","",""
"learning-instructions","13","85629","0.0-7.0-0.6","2019","2","""event"",""trial"",""time""
""fullscreenenter"",""1"",""1824""
","
","
","""event"",""trial"",""time""
""fullscreenenter"",""1"",""1824""
","
","","","","","","410.59999999403954","<p> Today, you will see each image ONCE only.  </p><p>  That means none of the images will repeat. </p>","","0","instructions","","","","","","","","",""
"learning-instructions","14","99620","0.0-7.0-0.7","2019","2","""event"",""trial"",""time""
""fullscreenenter"",""1"",""1824""
","
","
","""event"",""trial"",""time""
""fullscreenenter"",""1"",""1824""
","
","","","","","","1323.5","<p> Before you play the real game, it is time to practice. </p><p>  Just like in the real game, some of the images in the practice will be ones you have seen before. </p><p>  Others will be entirely new. </p>","","0","instructions","","","","","","","","",""
"html-button-response","15","103279","0.0-8.0","2019","2","""event"",""trial"",""time""
""fullscreenenter"",""1"",""1824""
","
","
","""event"",""trial"",""time""
""fullscreenenter"",""1"",""1824""
","
","","","","","","3557.300000011921","<p> Ready to practice? </p><p> Remember, use the 1, 2, 3, and 4 keys to make your responses. </p>","0","","instructions","","","","","","","","",""
"html-keyboard-response","16","103885","0.0-9.0-0.0","2019","2","""event"",""trial"",""time""
""fullscreenenter"",""1"",""1824""
","
","
","""event"",""trial"",""time""
""fullscreenenter"",""1"",""1824""
","
","","","","","","null","<div style=""font-size:60px;"">+</div>","null","","fixation","","","","","","","","",""
"memory-trial","17","107464","0.0-9.0-1.0","2019","2","""event"",""trial"",""time""
""fullscreenenter"",""1"",""1824""
","
","
","""event"",""trial"",""time""
""fullscreenenter"",""1"",""1824""
","
","","","","","","2572.800000011921","images/ball1.png","","","practice","2","maybe_old","","","","","","",""
"html-keyboard-response","18","107970","0.0-9.0-0.1","2019","2","""event"",""trial"",""time""
""fullscreenenter"",""1"",""1824""
","
","
","""event"",""trial"",""time""
""fullscreenenter"",""1"",""1824""
","
","","","","","","null","<div style=""font-size:60px;"">+</div>","null","","fixation","","","","","","","","",""
"memory-trial","19","110401","0.0-9.0-1.1","2019","2","""event"",""trial"",""time""
""fullscreenenter"",""1"",""1824""
","
","
","""event"",""trial"",""time""
""fullscreenenter"",""1"",""1824""
","
","","","","","","1425.7000000178814","images/racket2.png","","","practice","3","maybe_new","","","","","","",""
"html-keyboard-response","20","110908","0.0-9.0-0.2","2019","2","""event"",""trial"",""time""
""fullscreenenter"",""1"",""1824""
","
","
","""event"",""trial"",""time""
""fullscreenenter"",""1"",""1824""
","
","","","","","","null","<div style=""font-size:60px;"">+</div>","null","","fixation","","","","","","","","",""
"memory-trial","21","113862","0.0-9.0-1.2","2019","2","""event"",""trial"",""time""
""fullscreenenter"",""1"",""1824""
","
","
","""event"",""trial"",""time""
""fullscreenenter"",""1"",""1824""
","
","","","","","","1945.199999988079","images/ball2.png","","","practice","3","maybe_new","","","","","","",""
"html-keyboard-response","22","114364","0.0-9.0-0.3","2019","2","""event"",""trial"",""time""
""fullscreenenter"",""1"",""1824""
","
","
","""event"",""trial"",""time""
""fullscreenenter"",""1"",""1824""
","
","","","","","","null","<div style=""font-size:60px;"">+</div>","null","","fixation","","","","","","","","",""
"memory-trial","23","116925","0.0-9.0-1.3","2019","2","""event"",""trial"",""time""
""fullscreenenter"",""1"",""1824""
","
","
","""event"",""trial"",""time""
""fullscreenenter"",""1"",""1824""
","
","","","","","","1556.5999999940395","images/racket1.png","","","practice","2","maybe_old","","","","","","",""
"html-keyboard-response","24","117431","0.0-9.0-0.4","2019","2","""event"",""trial"",""time""
""fullscreenenter"",""1"",""1824""
","
","
","""event"",""trial"",""time""
""fullscreenenter"",""1"",""1824""
","
","","","","","","null","<div style=""font-size:60px;"">+</div>","null","","fixation","","","","","","","","",""
"memory-trial","25","120124","0.0-9.0-1.4","2019","2","""event"",""trial"",""time""
""fullscreenenter"",""1"",""1824""
","
","
","""event"",""trial"",""time""
""fullscreenenter"",""1"",""1824""
","
","","","","","","1686.5999999940395","images/racket3.png","","","practice","1","definitely_old","","","","","","",""
"html-keyboard-response","26","120631","0.0-9.0-0.5","2019","2","""event"",""trial"",""time""
""fullscreenenter"",""1"",""1824""
","
","
","""event"",""trial"",""time""
""fullscreenenter"",""1"",""1824""
","
","","","","","","null","<div style=""font-size:60px;"">+</div>","null","","fixation","","","","","","","","",""
"memory-trial","27","122837","0.0-9.0-1.5","2019","2","""event"",""trial"",""time""
""fullscreenenter"",""1"",""1824""
","
","
","""event"",""trial"",""time""
""fullscreenenter"",""1"",""1824""
","
","","","","","","1201","images/racket4.png","","","practice","1","definitely_old","","","","","","",""
"html-keyboard-response","28","123342","0.0-9.0-0.6","2019","2","""event"",""trial"",""time""
""fullscreenenter"",""1"",""1824""
","
","
","""event"",""trial"",""time""
""fullscreenenter"",""1"",""1824""
","
","","","","","","null","<div style=""font-size:60px;"">+</div>","null","","fixation","","","","","","","","",""
"memory-trial","29","126823","0.0-9.0-1.6","2019","2","""event"",""trial"",""time""
""fullscreenenter"",""1"",""1824""
","
","
","""event"",""trial"",""time""
""fullscreenenter"",""1"",""1824""
","
","","","","","","2474","images/ball4.png","","","practice","2","maybe_old","","","","","","",""
"html-keyboard-response","30","127329","0.0-9.0-0.7","2019","2","""event"",""trial"",""time""
""fullscreenenter"",""1"",""1824""
","
","
","""event"",""trial"",""time""
""fullscreenenter"",""1"",""1824""
","
","","","","","","null","<div style=""font-size:60px;"">+</div>","null","","fixation","","","","","","","","",""
"memory-trial","31","129991","0.0-9.0-1.7","2019","2","""event"",""trial"",""time""
""fullscreenenter"",""1"",""1824""
","
","
","""event"",""trial"",""time""
""fullscreenenter"",""1"",""1824""
","
","","","","","","1653.4000000059605","images/ball3.png","","","practice","2","maybe_old","","","","","","",""
"learning-instructions","32","139138","0.0-10.0-0.0","2019","2","""event"",""trial"",""time""
""fullscreenenter"",""1"",""1824""
","
","
","""event"",""trial"",""time""
""fullscreenenter"",""1"",""1824""
","
","","","","","","1166.199999988079","<p> Great! You have completed the practice. </p><p> Before you start, we're going to ask you a few questions about how the game works.  </p>","","0","instructions","","","","","","","","",""
"preload","33","154134","0.0-11.0","2019","2","""event"",""trial"",""time""
""fullscreenenter"",""1"",""1824""
","
","
","""event"",""trial"",""time""
""fullscreenenter"",""1"",""1824""
","
","true","false","[]","[]","[]","","","","","","","","","","","","","",""
"comp-q","34","161279","0.0-12.0-0.0","2019","2","""event"",""trial"",""time""
""fullscreenenter"",""1"",""1824""
","
","
","""event"",""trial"",""time""
""fullscreenenter"",""1"",""1824""
","
","","","","","","1312.9000000059605","<p> <b> True or False? </b> </p><p> In this game, you will only see each image once. </p>","","0","comp_question","","","true","","","","","",""
"comp-q","35","169007","0.0-12.0-1.0","2019","2","""event"",""trial"",""time""
""fullscreenenter"",""1"",""1824""
","
","
","""event"",""trial"",""time""
""fullscreenenter"",""1"",""1824""
","
","","","","","","1393.0999999940395","<p> <b> That's right! </b> You will see many different images <i> one time each </i> in this game. </p>","","0","comp_answer","","","","","","","","",""
"comp-q","36","176608","0.0-12.0-0.1","2019","2","""event"",""trial"",""time""
""fullscreenenter"",""1"",""1824""
","
","
","""event"",""trial"",""time""
""fullscreenenter"",""1"",""1824""
","
","","","","","","1798.5999999940395","<p> <b> True or False? </b> </p><p> You should use the mouse and click to make your response. </p>","","1","comp_question","","","true","","","","","",""
"comp-q","37","187621","0.0-12.0-1.1","2019","2","""event"",""trial"",""time""
""fullscreenenter"",""1"",""1824""
","
","
","""event"",""trial"",""time""
""fullscreenenter"",""1"",""1824""
","
","","","","","","3055.2999999821186","<p><b> That's right! </b> You should use the '1', '2', '3', and '4' keys to make your response. </p>","","0","comp_answer","","","","","","","","",""
"comp-q","38","194334","0.0-12.0-0.2","2019","2","""event"",""trial"",""time""
""fullscreenenter"",""1"",""1824""
","
","
","""event"",""trial"",""time""
""fullscreenenter"",""1"",""1824""
","
","","","","","","655.6999999880791","<p> <b> True or False? </b> </p><p> You will have as much time as you want to make each choice. </p>","","1","comp_question","","","true","","","","","",""
"comp-q","39","201706","0.0-12.0-1.2","2019","2","""event"",""trial"",""time""
""fullscreenenter"",""1"",""1824""
","
","
","""event"",""trial"",""time""
""fullscreenenter"",""1"",""1824""
","
","","","","","","1984.3999999761581","<p> <b> That's right! </b> You will only have 10 seconds to make each choice. </p>","","0","comp_answer","","","","","","","","",""
"learning-instructions","40","211725","0.0-13.0","2019","2","""event"",""trial"",""time""
""fullscreenenter"",""1"",""1824""
","
","
","""event"",""trial"",""time""
""fullscreenenter"",""1"",""1824""
","
","","","","","","1352.800000011921","<p> Great! You are now ready to begin the game. </p><p> Remember, use the 1, 2, 3, and 4 keys to make your responses. </p>","","0","instructions","","","","","","","","",""
"preload","41","239906","0.0-14.0","2019","2","""event"",""trial"",""time""
""fullscreenenter"",""1"",""1824""
","
","
","""event"",""trial"",""time""
""fullscreenenter"",""1"",""1824""
","
","true","false","[]","[]","[]","","","","","","","","","","","","","",""
"html-keyboard-response","42","240411","0.0-15.0-0.0","2019","2","""event"",""trial"",""time""
""fullscreenenter"",""1"",""1824""
","
","
","""event"",""trial"",""time""
""fullscreenenter"",""1"",""1824""
","
","","","","","","null","<div style=""font-size:60px;"">+</div>","null","","fixation","","","","","","","","",""
"memory-trial","43","245724","0.0-15.0-1.0","2019","2","""event"",""trial"",""time""
""fullscreenenter"",""1"",""1824""
","
","
","""event"",""trial"",""time""
""fullscreenenter"",""1"",""1824""
","
","","","","","","4303.5","images/cow4.png","","","memory_trial","3","maybe_new","","","","","","",""
"html-keyboard-response","44","246230","0.0-15.0-0.1","2019","2","""event"",""trial"",""time""
""fullscreenenter"",""1"",""1824""
","
","
","""event"",""trial"",""time""
""fullscreenenter"",""1"",""1824""
","
","","","","","","null","<div style=""font-size:60px;"">+</div>","null","","fixation","","","","","","","","",""
"memory-trial","45","248772","0.0-15.0-1.1","2019","2","""event"",""trial"",""time""
""fullscreenenter"",""1"",""1824""
","
","
","""event"",""trial"",""time""
""fullscreenenter"",""1"",""1824""
","
","","","","","","1533.699999988079","images/sofa5.png","","","memory_trial","1","definitely_old","","","","","","",""
"html-keyboard-response","46","249278","0.0-15.0-0.2","2019","2","""event"",""trial"",""time""
""fullscreenenter"",""1"",""1824""
","
","
","""event"",""trial"",""time""
""fullscreenenter"",""1"",""1824""
","
","","","","","","null","<div style=""font-size:60px;"">+</div>","null","","fixation","","","","","","","","",""
"memory-trial","47","251731","0.0-15.0-1.2","2019","2","""event"",""trial"",""time""
""fullscreenenter"",""1"",""1824""
","
","
","""event"",""trial"",""time""
""fullscreenenter"",""1"",""1824""
","
","","","","","","1446","images/plane3.png","","","memory_trial","3","maybe_new","","","","","","",""
"html-keyboard-response","48","252238","0.0-15.0-0.3","2019","2","""event"",""trial"",""time""
""fullscreenenter"",""1"",""1824""
","
","
","""event"",""trial"",""time""
""fullscreenenter"",""1"",""1824""
","
","","","","","","null","<div style=""font-size:60px;"">+</div>","null","","fixation","","","","","","","","",""
"memory-trial","49","254603","0.0-15.0-1.3","2019","2","""event"",""trial"",""time""
""fullscreenenter"",""1"",""1824""
","
","
","""event"",""trial"",""time""
""fullscreenenter"",""1"",""1824""
","
","","","","","","1359.699999988079","images/straw3.png","","","memory_trial","1","definitely_old","","","","","","",""
"html-keyboard-response","50","255109","0.0-15.0-0.4","2019","2","""event"",""trial"",""time""
""fullscreenenter"",""1"",""1824""
","
","
","""event"",""trial"",""time""
""fullscreenenter"",""1"",""1824""
","
","","","","","","null","<div style=""font-size:60px;"">+</div>","null","","fixation","","","","","","","","",""
"memory-trial","51","258027","0.0-15.0-1.4","2019","2","""event"",""trial"",""time""
""fullscreenenter"",""1"",""1824""
","
","
","""event"",""trial"",""time""
""fullscreenenter"",""1"",""1824""
","
","","","","","","1908.8999999761581","images/tree5.png","","","memory_trial","1","definitely_old","","","","","","",""
"html-keyboard-response","52","258534","0.0-15.0-0.5","2019","2","""event"",""trial"",""time""
""fullscreenenter"",""1"",""1824""
","
","
","""event"",""trial"",""time""
""fullscreenenter"",""1"",""1824""
","
","","","","","","null","<div style=""font-size:60px;"">+</div>","null","","fixation","","","","","","","","",""
"memory-trial","53","261302","0.0-15.0-1.5","2019","2","""event"",""trial"",""time""
""fullscreenenter"",""1"",""1824""
","
","
","""event"",""trial"",""time""
""fullscreenenter"",""1"",""1824""
","
","","","","","","1760.4000000059605","images/cow5.png","","","memory_trial","3","maybe_new","","","","","","",""
"html-keyboard-response","54","261808","0.0-15.0-0.6","2019","2","""event"",""trial"",""time""
""fullscreenenter"",""1"",""1824""
","
","
","""event"",""trial"",""time""
""fullscreenenter"",""1"",""1824""
","
","","","","","","null","<div style=""font-size:60px;"">+</div>","null","","fixation","","","","","","","","",""
"memory-trial","55","264485","0.0-15.0-1.6","2019","2","""event"",""trial"",""time""
""fullscreenenter"",""1"",""1824""
","
","
","""event"",""trial"",""time""
""fullscreenenter"",""1"",""1824""
","
","","","","","","1671.6000000238419","images/feline2.png","","","memory_trial","4","definitely_new","","","","","","",""
"html-keyboard-response","56","264992","0.0-15.0-0.7","2019","2","""event"",""trial"",""time""
""fullscreenenter"",""1"",""1824""
","
","
","""event"",""trial"",""time""
""fullscreenenter"",""1"",""1824""
","
","","","","","","null","<div style=""font-size:60px;"">+</div>","null","","fixation","","","","","","","","",""
"memory-trial","57","267520","0.0-15.0-1.7","2019","2","""event"",""trial"",""time""
""fullscreenenter"",""1"",""1824""
","
","
","""event"",""trial"",""time""
""fullscreenenter"",""1"",""1824""
","
","","","","","","1521.300000011921","images/tree2.png","","","memory_trial","2","maybe_old","","","","","","",""
"html-keyboard-response","58","268026","0.0-15.0-0.8","2019","2","""event"",""trial"",""time""
""fullscreenenter"",""1"",""1824""
","
","
","""event"",""trial"",""time""
""fullscreenenter"",""1"",""1824""
","
","","","","","","null","<div style=""font-size:60px;"">+</div>","null","","fixation","","","","","","","","",""
"memory-trial","59","270101","0.0-15.0-1.8","2019","2","""event"",""trial"",""time""
""fullscreenenter"",""1"",""1824""
","
","
","""event"",""trial"",""time""
""fullscreenenter"",""1"",""1824""
","
","","","","","","1068.800000011921","images/plane4.png","","","memory_trial","1","definitely_old","","","","","","",""
"html-keyboard-response","60","270608","0.0-15.0-0.9","2019","2","""event"",""trial"",""time""
""fullscreenenter"",""1"",""1824""
","
","
","""event"",""trial"",""time""
""fullscreenenter"",""1"",""1824""
","
","","","","","","null","<div style=""font-size:60px;"">+</div>","null","","fixation","","","","","","","","",""
"memory-trial","61","273138","0.0-15.0-1.9","2019","2","""event"",""trial"",""time""
""fullscreenenter"",""1"",""1824""
","
","
","""event"",""trial"",""time""
""fullscreenenter"",""1"",""1824""
","
","","","","","","1524.5","images/truck3.png","","","memory_trial","3","maybe_new","","","","","","",""
"html-keyboard-response","62","273642","0.0-15.0-0.10","2019","2","""event"",""trial"",""time""
""fullscreenenter"",""1"",""1824""
","
","
","""event"",""trial"",""time""
""fullscreenenter"",""1"",""1824""
","
","","","","","","null","<div style=""font-size:60px;"">+</div>","null","","fixation","","","","","","","","",""
"memory-trial","63","275752","0.0-15.0-1.10","2019","2","""event"",""trial"",""time""
""fullscreenenter"",""1"",""1824""
","
","
","""event"",""trial"",""time""
""fullscreenenter"",""1"",""1824""
","
","","","","","","1101.9000000059605","images/table2.png","","","memory_trial","2","maybe_old","","","","","","",""
"html-keyboard-response","64","276255","0.0-15.0-0.11","2019","2","""event"",""trial"",""time""
""fullscreenenter"",""1"",""1824""
","
","
","""event"",""trial"",""time""
""fullscreenenter"",""1"",""1824""
","
","","","","","","null","<div style=""font-size:60px;"">+</div>","null","","fixation","","","","","","","","",""
"memory-trial","65","278303","0.0-15.0-1.11","2019","2","""event"",""trial"",""time""
""fullscreenenter"",""1"",""1824""
","
","
","""event"",""trial"",""time""
""fullscreenenter"",""1"",""1824""
","
","","","","","","1040.7000000178814","images/table5.png","","","memory_trial","3","maybe_new","","","","","","",""
"html-keyboard-response","66","278807","0.0-15.0-0.12","2019","2","""event"",""trial"",""time""
""fullscreenenter"",""1"",""1824""
","
","
","""event"",""trial"",""time""
""fullscreenenter"",""1"",""1824""
","
","","","","","","null","<div style=""font-size:60px;"">+</div>","null","","fixation","","","","","","","","",""
"memory-trial","67","280938","0.0-15.0-1.12","2019","2","""event"",""trial"",""time""
""fullscreenenter"",""1"",""1824""
","
","
","""event"",""trial"",""time""
""fullscreenenter"",""1"",""1824""
","
","","","","","","1122.5","images/horse5.png","","","memory_trial","1","definitely_old","","","","","","",""
"html-keyboard-response","68","281444","0.0-15.0-0.13","2019","2","""event"",""trial"",""time""
""fullscreenenter"",""1"",""1824""
","
","
","""event"",""trial"",""time""
""fullscreenenter"",""1"",""1824""
","
","","","","","","null","<div style=""font-size:60px;"">+</div>","null","","fixation","","","","","","","","",""
"memory-trial","69","283630","0.0-15.0-1.13","2019","2","""event"",""trial"",""time""
""fullscreenenter"",""1"",""1824""
","
","
","""event"",""trial"",""time""
""fullscreenenter"",""1"",""1824""
","
","","","","","","1178.6000000238419","images/cactus3.png","","","memory_trial","4","definitely_new","","","","","","",""
"html-keyboard-response","70","284135","0.0-15.0-0.14","2019","2","""event"",""trial"",""time""
""fullscreenenter"",""1"",""1824""
","
","
","""event"",""trial"",""time""
""fullscreenenter"",""1"",""1824""
","
","","","","","","null","<div style=""font-size:60px;"">+</div>","null","","fixation","","","","","","","","",""
"memory-trial","71","287178","0.0-15.0-1.14","2019","2","""event"",""trial"",""time""
""fullscreenenter"",""1"",""1824""
","
","
","""event"",""trial"",""time""
""fullscreenenter"",""1"",""1824""
","
","","","","","","2036.7000000178814","images/boat5.png","","","memory_trial","4","definitely_new","","","","","","",""
"html-keyboard-response","72","287684","0.0-15.0-0.15","2019","2","""event"",""trial"",""time""
""fullscreenenter"",""1"",""1824""
","
","
","""event"",""trial"",""time""
""fullscreenenter"",""1"",""1824""
","
","","","","","","null","<div style=""font-size:60px;"">+</div>","null","","fixation","","","","","","","","",""
"memory-trial","73","289756","0.0-15.0-1.15","2019","2","""event"",""trial"",""time""
""fullscreenenter"",""1"",""1824""
","
","
","""event"",""trial"",""time""
""fullscreenenter"",""1"",""1824""
","
","","","","","","1064.800000011921","images/straw1.png","","","memory_trial","1","definitely_old","","","","","","",""
"html-keyboard-response","74","290260","0.0-15.0-0.16","2019","2","""event"",""trial"",""time""
""fullscreenenter"",""1"",""1824""
","
","
","""event"",""trial"",""time""
""fullscreenenter"",""1"",""1824""
","
","","","","","","null","<div style=""font-size:60px;"">+</div>","null","","fixation","","","","","","","","",""
"memory-trial","75","292312","0.0-15.0-1.16","2019","2","""event"",""trial"",""time""
""fullscreenenter"",""1"",""1824""
","
","
","""event"",""trial"",""time""
""fullscreenenter"",""1"",""1824""
","
","","","","","","1044.5999999940395","images/table3.png","","","memory_trial","4","definitely_new","","","","","","",""
"html-keyboard-response","76","292817","0.0-15.0-0.17","2019","2","""event"",""trial"",""time""
""fullscreenenter"",""1"",""1824""
","
","
","""event"",""trial"",""time""
""fullscreenenter"",""1"",""1824""
","
","","","","","","null","<div style=""font-size:60px;"">+</div>","null","","fixation","","","","","","","","",""
"memory-trial","77","294796","0.0-15.0-1.17","2019","2","""event"",""trial"",""time""
""fullscreenenter"",""1"",""1824""
","
","
","""event"",""trial"",""time""
""fullscreenenter"",""1"",""1824""
","
","","","","","","971.7999999821186","images/rodent4.png","","","memory_trial","1","definitely_old","","","","","","",""
"html-keyboard-response","78","295303","0.0-15.0-0.18","2019","2","""event"",""trial"",""time""
""fullscreenenter"",""1"",""1824""
","
","
","""event"",""trial"",""time""
""fullscreenenter"",""1"",""1824""
","
","","","","","","null","<div style=""font-size:60px;"">+</div>","null","","fixation","","","","","","","","",""
"memory-trial","79","297799","0.0-15.0-1.18","2019","2","""event"",""trial"",""time""
""fullscreenenter"",""1"",""1824""
","
","
","""event"",""trial"",""time""
""fullscreenenter"",""1"",""1824""
","
","","","","","","1490.7000000178814","images/goat3.png","","","memory_trial","3","maybe_new","","","","","","",""
"html-keyboard-response","80","298305","0.0-15.0-0.19","2019","2","""event"",""trial"",""time""
""fullscreenenter"",""1"",""1824""
","
","
","""event"",""trial"",""time""
""fullscreenenter"",""1"",""1824""
","
","","","","","","null","<div style=""font-size:60px;"">+</div>","null","","fixation","","","","","","","","",""
"memory-trial","81","300796","0.0-15.0-1.19","2019","2","""event"",""trial"",""time""
""fullscreenenter"",""1"",""1824""
","
","
","""event"",""trial"",""time""
""fullscreenenter"",""1"",""1824""
","
","","","","","","1485.1000000238419","images/dog2.png","","","memory_trial","2","maybe_old","","","","","","",""
"html-keyboard-response","82","301302","0.0-15.0-0.20","2019","2","""event"",""trial"",""time""
""fullscreenenter"",""1"",""1824""
","
","
","""event"",""trial"",""time""
""fullscreenenter"",""1"",""1824""
","
","","","","","","null","<div style=""font-size:60px;"">+</div>","null","","fixation","","","","","","","","",""
"memory-trial","83","303276","0.0-15.0-1.20","2019","2","""event"",""trial"",""time""
""fullscreenenter"",""1"",""1824""
","
","
","""event"",""trial"",""time""
""fullscreenenter"",""1"",""1824""
","
","","","","","","966.6000000238419","images/chair5.png","","","memory_trial","1","definitely_old","","","","","","",""
"html-keyboard-response","84","303782","0.0-15.0-0.21","2019","2","""event"",""trial"",""time""
""fullscreenenter"",""1"",""1824""
","
","
","""event"",""trial"",""time""
""fullscreenenter"",""1"",""1824""
","
","","","","","","null","<div style=""font-size:60px;"">+</div>","null","","fixation","","","","","","","","",""
"memory-trial","85","305798","0.0-15.0-1.21","2019","2","""event"",""trial"",""time""
""fullscreenenter"",""1"",""1824""
","
","
","""event"",""trial"",""time""
""fullscreenenter"",""1"",""1824""
","
","","","","","","1012.6999999880791","images/apple1.png","","","memory_trial","1","definitely_old","","","","","","",""
"html-keyboard-response","86","306305","0.0-15.0-0.22","2019","2","""event"",""trial"",""time""
""fullscreenenter"",""1"",""1824""
","
","
","""event"",""trial"",""time""
""fullscreenenter"",""1"",""1824""
","
","","","","","","null","<div style=""font-size:60px;"">+</div>","null","","fixation","","","","","","","","",""
"memory-trial","87","308579","0.0-15.0-1.22","2019","2","""event"",""trial"",""time""
""fullscreenenter"",""1"",""1824""
","
","
","""event"",""trial"",""time""
""fullscreenenter"",""1"",""1824""
","
","","","","","","1268.699999988079","images/feline5.png","","","memory_trial","3","maybe_new","","","","","","",""
"html-keyboard-response","88","309086","0.0-15.0-0.23","2019","2","""event"",""trial"",""time""
""fullscreenenter"",""1"",""1824""
","
","
","""event"",""trial"",""time""
""fullscreenenter"",""1"",""1824""
","
","","","","","","null","<div style=""font-size:60px;"">+</div>","null","","fixation","","","","","","","","",""
"memory-trial","89","311017","0.0-15.0-1.23","2019","2","""event"",""trial"",""time""
""fullscreenenter"",""1"",""1824""
","
","
","""event"",""trial"",""time""
""fullscreenenter"",""1"",""1824""
","
","","","","","","924.5999999940395","images/bush1.png","","","memory_trial","1","definitely_old","","","","","","",""
"html-keyboard-response","90","311523","0.0-15.0-0.24","2019","2","""event"",""trial"",""time""
""fullscreenenter"",""1"",""1824""
","
","
","""event"",""trial"",""time""
""fullscreenenter"",""1"",""1824""
","
","","","","","","null","<div style=""font-size:60px;"">+</div>","null","","fixation","","","","","","","","",""
"memory-trial","91","313375","0.0-15.0-1.24","2019","2","""event"",""trial"",""time""
""fullscreenenter"",""1"",""1824""
","
","
","""event"",""trial"",""time""
""fullscreenenter"",""1"",""1824""
","
","","","","","","844.1000000238419","images/train5.png","","","memory_trial","4","definitely_new","","","","","","",""
"html-keyboard-response","92","313880","0.0-15.0-0.25","2019","2","""event"",""trial"",""time""
""fullscreenenter"",""1"",""1824""
","
","
","""event"",""trial"",""time""
""fullscreenenter"",""1"",""1824""
","
","","","","","","null","<div style=""font-size:60px;"">+</div>","null","","fixation","","","","","","","","",""
"memory-trial","93","316104","0.0-15.0-1.25","2019","2","""event"",""trial"",""time""
""fullscreenenter"",""1"",""1824""
","
","
","""event"",""trial"",""time""
""fullscreenenter"",""1"",""1824""
","
","","","","","","1216.7000000178814","images/orange4.png","","","memory_trial","2","maybe_old","","","","","","",""
"html-keyboard-response","94","316611","0.0-15.0-0.26","2019","2","""event"",""trial"",""time""
""fullscreenenter"",""1"",""1824""
","
","
","""event"",""trial"",""time""
""fullscreenenter"",""1"",""1824""
","
","","","","","","null","<div style=""font-size:60px;"">+</div>","null","","fixation","","","","","","","","",""
"memory-trial","95","319176","0.0-15.0-1.26","2019","2","""event"",""trial"",""time""
""fullscreenenter"",""1"",""1824""
","
","
","""event"",""trial"",""time""
""fullscreenenter"",""1"",""1824""
","
","","","","","","1559.300000011921","images/goat1.png","","","memory_trial","2","maybe_old","","","","","","",""
"html-keyboard-response","96","319681","0.0-15.0-0.27","2019","2","""event"",""trial"",""time""
""fullscreenenter"",""1"",""1824""
","
","
","""event"",""trial"",""time""
""fullscreenenter"",""1"",""1824""
","
","","","","","","null","<div style=""font-size:60px;"">+</div>","null","","fixation","","","","","","","","",""
"memory-trial","97","321915","0.0-15.0-1.27","2019","2","""event"",""trial"",""time""
""fullscreenenter"",""1"",""1824""
","
","
","""event"",""trial"",""time""
""fullscreenenter"",""1"",""1824""
","
","","","","","","1226","images/chair1.png","","","memory_trial","4","definitely_new","","","","","","",""
"html-keyboard-response","98","322421","0.0-15.0-0.28","2019","2","""event"",""trial"",""time""
""fullscreenenter"",""1"",""1824""
","
","
","""event"",""trial"",""time""
""fullscreenenter"",""1"",""1824""
","
","","","","","","null","<div style=""font-size:60px;"">+</div>","null","","fixation","","","","","","","","",""
"memory-trial","99","324389","0.0-15.0-1.28","2019","2","""event"",""trial"",""time""
""fullscreenenter"",""1"",""1824""
","
","
","""event"",""trial"",""time""
""fullscreenenter"",""1"",""1824""
","
","","","","","","962.4000000059605","images/sheep5.png","","","memory_trial","1","definitely_old","","","","","","",""
"html-keyboard-response","100","324896","0.0-15.0-0.29","2019","2","""event"",""trial"",""time""
""fullscreenenter"",""1"",""1824""
","
","
","""event"",""trial"",""time""
""fullscreenenter"",""1"",""1824""
","
","","","","","","null","<div style=""font-size:60px;"">+</div>","null","","fixation","","","","","","","","",""
"memory-trial","101","326954","0.0-15.0-1.29","2019","2","""event"",""trial"",""time""
""fullscreenenter"",""1"",""1824""
","
","
","""event"",""trial"",""time""
""fullscreenenter"",""1"",""1824""
","
","","","","","","1052.0999999940395","images/feline1.png","","","memory_trial","4","definitely_new","","","","","","",""
"html-keyboard-response","102","327458","0.0-15.0-0.30","2019","2","""event"",""trial"",""time""
""fullscreenenter"",""1"",""1824""
","
","
","""event"",""trial"",""time""
""fullscreenenter"",""1"",""1824""
","
","","","","","","null","<div style=""font-size:60px;"">+</div>","null","","fixation","","","","","","","","",""
"memory-trial","103","329341","0.0-15.0-1.30","2019","2","""event"",""trial"",""time""
""fullscreenenter"",""1"",""1824""
","
","
","""event"",""trial"",""time""
""fullscreenenter"",""1"",""1824""
","
","","","","","","876.1999999880791","images/flower2.png","","","memory_trial","1","definitely_old","","","","","","",""
"html-keyboard-response","104","329847","0.0-15.0-0.31","2019","2","""event"",""trial"",""time""
""fullscreenenter"",""1"",""1824""
","
","
","""event"",""trial"",""time""
""fullscreenenter"",""1"",""1824""
","
","","","","","","null","<div style=""font-size:60px;"">+</div>","null","","fixation","","","","","","","","",""
"memory-trial","105","331893","0.0-15.0-1.31","2019","2","""event"",""trial"",""time""
""fullscreenenter"",""1"",""1824""
","
","
","""event"",""trial"",""time""
""fullscreenenter"",""1"",""1824""
","
","","","","","","1039.2000000178814","images/orange2.png","","","memory_trial","4","definitely_new","","","","","","",""
"html-keyboard-response","106","332399","0.0-15.0-0.32","2019","2","""event"",""trial"",""time""
""fullscreenenter"",""1"",""1824""
","
","
","""event"",""trial"",""time""
""fullscreenenter"",""1"",""1824""
","
","","","","","","null","<div style=""font-size:60px;"">+</div>","null","","fixation","","","","","","","","",""
"memory-trial","107","334394","0.0-15.0-1.32","2019","2","""event"",""trial"",""time""
""fullscreenenter"",""1"",""1824""
","
","
","""event"",""trial"",""time""
""fullscreenenter"",""1"",""1824""
","
","","","","","","989","images/apple2.png","","","memory_trial","3","maybe_new","","","","","","",""
"html-keyboard-response","108","334901","0.0-15.0-0.33","2019","2","""event"",""trial"",""time""
""fullscreenenter"",""1"",""1824""
","
","
","""event"",""trial"",""time""
""fullscreenenter"",""1"",""1824""
","
","","","","","","null","<div style=""font-size:60px;"">+</div>","null","","fixation","","","","","","","","",""
"memory-trial","109","336591","0.0-15.0-1.33","2019","2","""event"",""trial"",""time""
""fullscreenenter"",""1"",""1824""
","
","
","""event"",""trial"",""time""
""fullscreenenter"",""1"",""1824""
","
","","","","","","683.5","images/banana5.png","","","memory_trial","3","maybe_new","","","","","","",""
"html-keyboard-response","110","337100","0.0-15.0-0.34","2019","2","""event"",""trial"",""time""
""fullscreenenter"",""1"",""1824""
","
","
","""event"",""trial"",""time""
""fullscreenenter"",""1"",""1824""
","
","","","","","","null","<div style=""font-size:60px;"">+</div>","null","","fixation","","","","","","","","",""
"memory-trial","111","339132","0.0-15.0-1.34","2019","2","""event"",""trial"",""time""
""fullscreenenter"",""1"",""1824""
","
","
","""event"",""trial"",""time""
""fullscreenenter"",""1"",""1824""
","
","","","","","","1026.699999988079","images/apple4.png","","","memory_trial","1","definitely_old","","","","","","",""
"html-keyboard-response","112","339636","0.0-15.0-0.35","2019","2","""event"",""trial"",""time""
""fullscreenenter"",""1"",""1824""
","
","
","""event"",""trial"",""time""
""fullscreenenter"",""1"",""1824""
","
","","","","","","null","<div style=""font-size:60px;"">+</div>","null","","fixation","","","","","","","","",""
"memory-trial","113","341605","0.0-15.0-1.35","2019","2","""event"",""trial"",""time""
""fullscreenenter"",""1"",""1824""
","
","
","""event"",""trial"",""time""
""fullscreenenter"",""1"",""1824""
","
","","","","","","960.1999999880791","images/tree4.png","","","memory_trial","4","definitely_new","","","","","","",""
"html-keyboard-response","114","342111","0.0-15.0-0.36","2019","2","""event"",""trial"",""time""
""fullscreenenter"",""1"",""1824""
","
","
","""event"",""trial"",""time""
""fullscreenenter"",""1"",""1824""
","
","","","","","","null","<div style=""font-size:60px;"">+</div>","null","","fixation","","","","","","","","",""
"memory-trial","115","344514","0.0-15.0-1.36","2019","2","""event"",""trial"",""time""
""fullscreenenter"",""1"",""1824""
","
","
","""event"",""trial"",""time""
""fullscreenenter"",""1"",""1824""
","
","","","","","","1396.699999988079","images/truck5.png","","","memory_trial","3","maybe_new","","","","","","",""
"html-keyboard-response","116","345020","0.0-15.0-0.37","2019","2","""event"",""trial"",""time""
""fullscreenenter"",""1"",""1824""
","
","
","""event"",""trial"",""time""
""fullscreenenter"",""1"",""1824""
","
","","","","","","null","<div style=""font-size:60px;"">+</div>","null","","fixation","","","","","","","","",""
"memory-trial","117","346956","0.0-15.0-1.37","2019","2","""event"",""trial"",""time""
""fullscreenenter"",""1"",""1824""
","
","
","""event"",""trial"",""time""
""fullscreenenter"",""1"",""1824""
","
","","","","","","929","images/rodent2.png","","","memory_trial","2","maybe_old","","","","","","",""
"html-keyboard-response","118","347463","0.0-15.0-0.38","2019","2","""event"",""trial"",""time""
""fullscreenenter"",""1"",""1824""
","
","
","""event"",""trial"",""time""
""fullscreenenter"",""1"",""1824""
","
","","","","","","null","<div style=""font-size:60px;"">+</div>","null","","fixation","","","","","","","","",""
"memory-trial","119","349452","0.0-15.0-1.38","2019","2","""event"",""trial"",""time""
""fullscreenenter"",""1"",""1824""
","
","
","""event"",""trial"",""time""
""fullscreenenter"",""1"",""1824""
","
","","","","","","983.1000000238419","images/flower3.png","","","memory_trial","1","definitely_old","","","","","","",""
"html-keyboard-response","120","349956","0.0-15.0-0.39","2019","2","""event"",""trial"",""time""
""fullscreenenter"",""1"",""1824""
","
","
","""event"",""trial"",""time""
""fullscreenenter"",""1"",""1824""
","
","","","","","","null","<div style=""font-size:60px;"">+</div>","null","","fixation","","","","","","","","",""
"memory-trial","121","351719","0.0-15.0-1.39","2019","2","""event"",""trial"",""time""
""fullscreenenter"",""1"",""1824""
","
","
","""event"",""trial"",""time""
""fullscreenenter"",""1"",""1824""
","
","","","","","","755.2000000178814","images/rodent3.png","","","memory_trial","1","definitely_old","","","","","","",""
"html-keyboard-response","122","352225","0.0-15.0-0.40","2019","2","""event"",""trial"",""time""
""fullscreenenter"",""1"",""1824""
","
","
","""event"",""trial"",""time""
""fullscreenenter"",""1"",""1824""
","
","","","","","","null","<div style=""font-size:60px;"">+</div>","null","","fixation","","","","","","","","",""
"memory-trial","123","354204","0.0-15.0-1.40","2019","2","""event"",""trial"",""time""
""fullscreenenter"",""1"",""1824""
","
","
","""event"",""trial"",""time""
""fullscreenenter"",""1"",""1824""
","
","","","","","","971.4000000059605","images/dog3.png","","","memory_trial","2","maybe_old","","","","","","",""
"html-keyboard-response","124","354710","0.0-15.0-0.41","2019","2","""event"",""trial"",""time""
""fullscreenenter"",""1"",""1824""
","
","
","""event"",""trial"",""time""
""fullscreenenter"",""1"",""1824""
","
","","","","","","null","<div style=""font-size:60px;"">+</div>","null","","fixation","","","","","","","","",""
"memory-trial","125","356764","0.0-15.0-1.41","2019","2","""event"",""trial"",""time""
""fullscreenenter"",""1"",""1824""
","
","
","""event"",""trial"",""time""
""fullscreenenter"",""1"",""1824""
","
","","","","","","1045.3999999761581","images/chair3.png","","","memory_trial","2","maybe_old","","","","","","",""
"html-keyboard-response","126","357270","0.0-15.0-0.42","2019","2","""event"",""trial"",""time""
""fullscreenenter"",""1"",""1824""
","
","
","""event"",""trial"",""time""
""fullscreenenter"",""1"",""1824""
","
","","","","","","null","<div style=""font-size:60px;"">+</div>","null","","fixation","","","","","","","","",""
"memory-trial","127","359561","0.0-15.0-1.42","2019","2","""event"",""trial"",""time""
""fullscreenenter"",""1"",""1824""
","
","
","""event"",""trial"",""time""
""fullscreenenter"",""1"",""1824""
","
","","","","","","1282.7000000178814","images/rodent1.png","","","memory_trial","3","maybe_new","","","","","","",""
"html-keyboard-response","128","360065","0.0-15.0-0.43","2019","2","""event"",""trial"",""time""
""fullscreenenter"",""1"",""1824""
","
","
","""event"",""trial"",""time""
""fullscreenenter"",""1"",""1824""
","
","","","","","","null","<div style=""font-size:60px;"">+</div>","null","","fixation","","","","","","","","",""
"memory-trial","129","362068","0.0-15.0-1.43","2019","2","""event"",""trial"",""time""
""fullscreenenter"",""1"",""1824""
","
","
","""event"",""trial"",""time""
""fullscreenenter"",""1"",""1824""
","
","","","","","","996.2000000178814","images/banana3.png","","","memory_trial","2","maybe_old","","","","","","",""
"html-keyboard-response","130","362571","0.0-15.0-0.44","2019","2","""event"",""trial"",""time""
""fullscreenenter"",""1"",""1824""
","
","
","""event"",""trial"",""time""
""fullscreenenter"",""1"",""1824""
","
","","","","","","null","<div style=""font-size:60px;"">+</div>","null","","fixation","","","","","","","","",""
"memory-trial","131","364537","0.0-15.0-1.44","2019","2","""event"",""trial"",""time""
""fullscreenenter"",""1"",""1824""
","
","
","""event"",""trial"",""time""
""fullscreenenter"",""1"",""1824""
","
","","","","","","959.8000000119209","images/orange5.png","","","memory_trial","4","definitely_new","","","","","","",""
"html-keyboard-response","132","365043","0.0-15.0-0.45","2019","2","""event"",""trial"",""time""
""fullscreenenter"",""1"",""1824""
","
","
","""event"",""trial"",""time""
""fullscreenenter"",""1"",""1824""
","
","","","","","","null","<div style=""font-size:60px;"">+</div>","null","","fixation","","","","","","","","",""
"memory-trial","133","366995","0.0-15.0-1.45","2019","2","""event"",""trial"",""time""
""fullscreenenter"",""1"",""1824""
","
","
","""event"",""trial"",""time""
""fullscreenenter"",""1"",""1824""
","
","","","","","","943.5999999940395","images/flower4.png","","","memory_trial","4","definitely_new","","","","","","",""
"html-keyboard-response","134","367499","0.0-15.0-0.46","2019","2","""event"",""trial"",""time""
""fullscreenenter"",""1"",""1824""
","
","
","""event"",""trial"",""time""
""fullscreenenter"",""1"",""1824""
","
","","","","","","null","<div style=""font-size:60px;"">+</div>","null","","fixation","","","","","","","","",""
"memory-trial","135","369961","0.0-15.0-1.46","2019","2","""event"",""trial"",""time""
""fullscreenenter"",""1"",""1824""
","
","
","""event"",""trial"",""time""
""fullscreenenter"",""1"",""1824""
","
","","","","","","1455.2000000178814","images/horse3.png","","","memory_trial","1","definitely_old","","","","","","",""
"html-button-response","136","372286","0.0-15.0-2.46-0.46","2019","2","""event"",""trial"",""time""
""fullscreenenter"",""1"",""1824""
","
","
","""event"",""trial"",""time""
""fullscreenenter"",""1"",""1824""
","
","","","","","","2323.300000011921","<p> Take a break! </p><p> Click the button to continue. </p>","0","","break","","","","","","","","",""
"html-keyboard-response","137","372790","0.0-15.0-0.47","2019","2","""event"",""trial"",""time""
""fullscreenenter"",""1"",""1824""
","
","
","""event"",""trial"",""time""
""fullscreenenter"",""1"",""1824""
","
","","","","","","null","<div style=""font-size:60px;"">+</div>","null","","fixation","","","","","","","","",""
"memory-trial","138","375350","0.0-15.0-1.47","2019","2","""event"",""trial"",""time""
""fullscreenenter"",""1"",""1824""
","
","
","""event"",""trial"",""time""
""fullscreenenter"",""1"",""1824""
","
","","","","","","1553.800000011921","images/boat4.png","","","memory_trial","3","maybe_new","","","","","","",""
"html-keyboard-response","139","375856","0.0-15.0-0.48","2019","2","""event"",""trial"",""time""
""fullscreenenter"",""1"",""1824""
","
","
","""event"",""trial"",""time""
""fullscreenenter"",""1"",""1824""
","
","","","","","","null","<div style=""font-size:60px;"">+</div>","null","","fixation","","","","","","","","",""
"memory-trial","140","377819","0.0-15.0-1.48","2019","2","""event"",""trial"",""time""
""fullscreenenter"",""1"",""1824""
","
","
","""event"",""trial"",""time""
""fullscreenenter"",""1"",""1824""
","
","","","","","","955.5","images/sofa2.png","","","memory_trial","3","maybe_new","","","","","","",""
"html-keyboard-response","141","378325","0.0-15.0-0.49","2019","2","""event"",""trial"",""time""
""fullscreenenter"",""1"",""1824""
","
","
","""event"",""trial"",""time""
""fullscreenenter"",""1"",""1824""
","
","","","","","","null","<div style=""font-size:60px;"">+</div>","null","","fixation","","","","","","","","",""
"memory-trial","142","380155","0.0-15.0-1.49","2019","2","""event"",""trial"",""time""
""fullscreenenter"",""1"",""1824""
","
","
","""event"",""trial"",""time""
""fullscreenenter"",""1"",""1824""
","
","","","","","","822.2999999821186","images/boat3.png","","","memory_trial","3","maybe_new","","","","","","",""
"html-keyboard-response","143","380661","0.0-15.0-0.50","2019","2","""event"",""trial"",""time""
""fullscreenenter"",""1"",""1824""
","
","
","""event"",""trial"",""time""
""fullscreenenter"",""1"",""1824""
","
","","","","","","null","<div style=""font-size:60px;"">+</div>","null","","fixation","","","","","","","","",""
"memory-trial","144","382869","0.0-15.0-1.50","2019","2","""event"",""trial"",""time""
""fullscreenenter"",""1"",""1824""
","
","
","""event"",""trial"",""time""
""fullscreenenter"",""1"",""1824""
","
","","","","","","1200.2999999821186","images/straw2.png","","","memory_trial","2","maybe_old","","","","","","",""
"html-keyboard-response","145","383373","0.0-15.0-0.51","2019","2","""event"",""trial"",""time""
""fullscreenenter"",""1"",""1824""
","
","
","""event"",""trial"",""time""
""fullscreenenter"",""1"",""1824""
","
","","","","","","null","<div style=""font-size:60px;"">+</div>","null","","fixation","","","","","","","","",""
"memory-trial","146","385834","0.0-15.0-1.51","2019","2","""event"",""trial"",""time""
""fullscreenenter"",""1"",""1824""
","
","
","""event"",""trial"",""time""
""fullscreenenter"",""1"",""1824""
","
","","","","","","1453.5999999940395","images/sofa4.png","","","memory_trial","3","maybe_new","","","","","","",""
"html-keyboard-response","147","386341","0.0-15.0-0.52","2019","2","""event"",""trial"",""time""
""fullscreenenter"",""1"",""1824""
","
","
","""event"",""trial"",""time""
""fullscreenenter"",""1"",""1824""
","
","","","","","","null","<div style=""font-size:60px;"">+</div>","null","","fixation","","","","","","","","",""
"memory-trial","148","388906","0.0-15.0-1.52","2019","2","""event"",""trial"",""time""
""fullscreenenter"",""1"",""1824""
","
","
","""event"",""trial"",""time""
""fullscreenenter"",""1"",""1824""
","
","","","","","","1558.8999999761581","images/feline3.png","","","memory_trial","2","maybe_old","","","","","","",""
"html-keyboard-response","149","389413","0.0-15.0-0.53","2019","2","""event"",""trial"",""time""
""fullscreenenter"",""1"",""1824""
","
","
","""event"",""trial"",""time""
""fullscreenenter"",""1"",""1824""
","
","","","","","","null","<div style=""font-size:60px;"">+</div>","null","","fixation","","","","","","","","",""
"memory-trial","150","391512","0.0-15.0-1.53","2019","2","""event"",""trial"",""time""
""fullscreenenter"",""1"",""1824""
","
","
","""event"",""trial"",""time""
""fullscreenenter"",""1"",""1824""
","
","","","","","","1091.0999999940395","images/bush2.png","","","memory_trial","3","maybe_new","","","","","","",""
"html-keyboard-response","151","392018","0.0-15.0-0.54","2019","2","""event"",""trial"",""time""
""fullscreenenter"",""1"",""1824""
","
","
","""event"",""trial"",""time""
""fullscreenenter"",""1"",""1824""
","
","","","","","","null","<div style=""font-size:60px;"">+</div>","null","","fixation","","","","","","","","",""
"memory-trial","152","394028","0.0-15.0-1.54","2019","2","""event"",""trial"",""time""
""fullscreenenter"",""1"",""1824""
","
","
","""event"",""trial"",""time""
""fullscreenenter"",""1"",""1824""
","
","","","","","","1002.4000000059605","images/cactus2.png","","","memory_trial","4","definitely_new","","","","","","",""
"html-keyboard-response","153","394530","0.0-15.0-0.55","2019","2","""event"",""trial"",""time""
""fullscreenenter"",""1"",""1824""
","
","
","""event"",""trial"",""time""
""fullscreenenter"",""1"",""1824""
","
","","","","","","null","<div style=""font-size:60px;"">+</div>","null","","fixation","","","","","","","","",""
"memory-trial","154","396791","0.0-15.0-1.55","2019","2","""event"",""trial"",""time""
""fullscreenenter"",""1"",""1824""
","
","
","""event"",""trial"",""time""
""fullscreenenter"",""1"",""1824""
","
","","","","","","1253.699999988079","images/tree3.png","","","memory_trial","1","definitely_old","","","","","","",""
"html-keyboard-response","155","397295","0.0-15.0-0.56","2019","2","""event"",""trial"",""time""
""fullscreenenter"",""1"",""1824""
","
","
","""event"",""trial"",""time""
""fullscreenenter"",""1"",""1824""
","
","","","","","","null","<div style=""font-size:60px;"">+</div>","null","","fixation","","","","","","","","",""
"memory-trial","156","399711","0.0-15.0-1.56","2019","2","""event"",""trial"",""time""
""fullscreenenter"",""1"",""1824""
","
","
","""event"",""trial"",""time""
""fullscreenenter"",""1"",""1824""
","
","","","","","","1408.7999999821186","images/flower1.png","","","memory_trial","2","maybe_old","","","","","","",""
"html-keyboard-response","157","400218","0.0-15.0-0.57","2019","2","""event"",""trial"",""time""
""fullscreenenter"",""1"",""1824""
","
","
","""event"",""trial"",""time""
""fullscreenenter"",""1"",""1824""
","
","","","","","","null","<div style=""font-size:60px;"">+</div>","null","","fixation","","","","","","","","",""
"memory-trial","158","402082","0.0-15.0-1.57","2019","2","""event"",""trial"",""time""
""fullscreenenter"",""1"",""1824""
","
","
","""event"",""trial"",""time""
""fullscreenenter"",""1"",""1824""
","
","","","","","","856.3000000119209","images/cactus5.png","","","memory_trial","4","definitely_new","","","","","","",""
"html-keyboard-response","159","402588","0.0-15.0-0.58","2019","2","""event"",""trial"",""time""
""fullscreenenter"",""1"",""1824""
","
","
","""event"",""trial"",""time""
""fullscreenenter"",""1"",""1824""
","
","","","","","","null","<div style=""font-size:60px;"">+</div>","null","","fixation","","","","","","","","",""
"memory-trial","160","404673","0.0-15.0-1.58","2019","2","""event"",""trial"",""time""
""fullscreenenter"",""1"",""1824""
","
","
","""event"",""trial"",""time""
""fullscreenenter"",""1"",""1824""
","
","","","","","","1080.2000000178814","images/chair2.png","","","memory_trial","2","maybe_old","","","","","","",""
"html-keyboard-response","161","405177","0.0-15.0-0.59","2019","2","""event"",""trial"",""time""
""fullscreenenter"",""1"",""1824""
","
","
","""event"",""trial"",""time""
""fullscreenenter"",""1"",""1824""
","
","","","","","","null","<div style=""font-size:60px;"">+</div>","null","","fixation","","","","","","","","",""
"memory-trial","162","406914","0.0-15.0-1.59","2019","2","""event"",""trial"",""time""
""fullscreenenter"",""1"",""1824""
","
","
","""event"",""trial"",""time""
""fullscreenenter"",""1"",""1824""
","
","","","","","","729.5","images/plane5.png","","","memory_trial","1","definitely_old","","","","","","",""
"html-keyboard-response","163","407420","0.0-15.0-0.60","2019","2","""event"",""trial"",""time""
""fullscreenenter"",""1"",""1824""
","
","
","""event"",""trial"",""time""
""fullscreenenter"",""1"",""1824""
","
","","","","","","null","<div style=""font-size:60px;"">+</div>","null","","fixation","","","","","","","","",""
"memory-trial","164","409788","0.0-15.0-1.60","2019","2","""event"",""trial"",""time""
""fullscreenenter"",""1"",""1824""
","
","
","""event"",""trial"",""time""
""fullscreenenter"",""1"",""1824""
","
","","","","","","1362","images/rabbit1.png","","","memory_trial","1","definitely_old","","","","","","",""
"html-keyboard-response","165","410294","0.0-15.0-0.61","2019","2","""event"",""trial"",""time""
""fullscreenenter"",""1"",""1824""
","
","
","""event"",""trial"",""time""
""fullscreenenter"",""1"",""1824""
","
","","","","","","null","<div style=""font-size:60px;"">+</div>","null","","fixation","","","","","","","","",""
"memory-trial","166","412388","0.0-15.0-1.61","2019","2","""event"",""trial"",""time""
""fullscreenenter"",""1"",""1824""
","
","
","""event"",""trial"",""time""
""fullscreenenter"",""1"",""1824""
","
","","","","","","1084.2999999821186","images/horse1.png","","","memory_trial","1","definitely_old","","","","","","",""
"html-keyboard-response","167","412894","0.0-15.0-0.62","2019","2","""event"",""trial"",""time""
""fullscreenenter"",""1"",""1824""
","
","
","""event"",""trial"",""time""
""fullscreenenter"",""1"",""1824""
","
","","","","","","null","<div style=""font-size:60px;"">+</div>","null","","fixation","","","","","","","","",""
"memory-trial","168","414681","0.0-15.0-1.62","2019","2","""event"",""trial"",""time""
""fullscreenenter"",""1"",""1824""
","
","
","""event"",""trial"",""time""
""fullscreenenter"",""1"",""1824""
","
","","","","","","778.9000000059605","images/horse4.png","","","memory_trial","1","definitely_old","","","","","","",""
"html-keyboard-response","169","415188","0.0-15.0-0.63","2019","2","""event"",""trial"",""time""
""fullscreenenter"",""1"",""1824""
","
","
","""event"",""trial"",""time""
""fullscreenenter"",""1"",""1824""
","
","","","","","","null","<div style=""font-size:60px;"">+</div>","null","","fixation","","","","","","","","",""
"memory-trial","170","417260","0.0-15.0-1.63","2019","2","""event"",""trial"",""time""
""fullscreenenter"",""1"",""1824""
","
","
","""event"",""trial"",""time""
""fullscreenenter"",""1"",""1824""
","
","","","","","","1063.5999999940395","images/cow2.png","","","memory_trial","3","maybe_new","","","","","","",""
"html-keyboard-response","171","417766","0.0-15.0-0.64","2019","2","""event"",""trial"",""time""
""fullscreenenter"",""1"",""1824""
","
","
","""event"",""trial"",""time""
""fullscreenenter"",""1"",""1824""
","
","","","","","","null","<div style=""font-size:60px;"">+</div>","null","","fixation","","","","","","","","",""
"memory-trial","172","419809","0.0-15.0-1.64","2019","2","""event"",""trial"",""time""
""fullscreenenter"",""1"",""1824""
","
","
","""event"",""trial"",""time""
""fullscreenenter"",""1"",""1824""
","
","","","","","","1037.300000011921","images/boat1.png","","","memory_trial","2","maybe_old","","","","","","",""
"html-keyboard-response","173","420315","0.0-15.0-0.65","2019","2","""event"",""trial"",""time""
""fullscreenenter"",""1"",""1824""
","
","
","""event"",""trial"",""time""
""fullscreenenter"",""1"",""1824""
","
","","","","","","null","<div style=""font-size:60px;"">+</div>","null","","fixation","","","","","","","","",""
"memory-trial","174","422233","0.0-15.0-1.65","2019","2","""event"",""trial"",""time""
""fullscreenenter"",""1"",""1824""
","
","
","""event"",""trial"",""time""
""fullscreenenter"",""1"",""1824""
","
","","","","","","909.2999999821186","images/table4.png","","","memory_trial","4","definitely_new","","","","","","",""
"html-keyboard-response","175","422739","0.0-15.0-0.66","2019","2","""event"",""trial"",""time""
""fullscreenenter"",""1"",""1824""
","
","
","""event"",""trial"",""time""
""fullscreenenter"",""1"",""1824""
","
","","","","","","null","<div style=""font-size:60px;"">+</div>","null","","fixation","","","","","","","","",""
"memory-trial","176","424393","0.0-15.0-1.66","2019","2","""event"",""trial"",""time""
""fullscreenenter"",""1"",""1824""
","
","
","""event"",""trial"",""time""
""fullscreenenter"",""1"",""1824""
","
","","","","","","645.5999999940395","images/goat5.png","","","memory_trial","1","definitely_old","","","","","","",""
"html-keyboard-response","177","424899","0.0-15.0-0.67","2019","2","""event"",""trial"",""time""
""fullscreenenter"",""1"",""1824""
","
","
","""event"",""trial"",""time""
""fullscreenenter"",""1"",""1824""
","
","","","","","","null","<div style=""font-size:60px;"">+</div>","null","","fixation","","","","","","","","",""
"memory-trial","178","426921","0.0-15.0-1.67","2019","2","""event"",""trial"",""time""
""fullscreenenter"",""1"",""1824""
","
","
","""event"",""trial"",""time""
""fullscreenenter"",""1"",""1824""
","
","","","","","","1017.5","images/boat2.png","","","memory_trial","4","definitely_new","","","","","","",""
"html-keyboard-response","179","427427","0.0-15.0-0.68","2019","2","""event"",""trial"",""time""
""fullscreenenter"",""1"",""1824""
","
","
","""event"",""trial"",""time""
""fullscreenenter"",""1"",""1824""
","
","","","","","","null","<div style=""font-size:60px;"">+</div>","null","","fixation","","","","","","","","",""
"memory-trial","180","429024","0.0-15.0-1.68","2019","2","""event"",""trial"",""time""
""fullscreenenter"",""1"",""1824""
","
","
","""event"",""trial"",""time""
""fullscreenenter"",""1"",""1824""
","
","","","","","","590.2000000178814","images/goat2.png","","","memory_trial","1","definitely_old","","","","","","",""
"html-keyboard-response","181","429531","0.0-15.0-0.69","2019","2","""event"",""trial"",""time""
""fullscreenenter"",""1"",""1824""
","
","
","""event"",""trial"",""time""
""fullscreenenter"",""1"",""1824""
","
","","","","","","null","<div style=""font-size:60px;"">+</div>","null","","fixation","","","","","","","","",""
"memory-trial","182","431395","0.0-15.0-1.69","2019","2","""event"",""trial"",""time""
""fullscreenenter"",""1"",""1824""
","
","
","""event"",""trial"",""time""
""fullscreenenter"",""1"",""1824""
","
","","","","","","856.2999999821186","images/cow1.png","","","memory_trial","1","definitely_old","","","","","","",""
"html-keyboard-response","183","431901","0.0-15.0-0.70","2019","2","""event"",""trial"",""time""
""fullscreenenter"",""1"",""1824""
","
","
","""event"",""trial"",""time""
""fullscreenenter"",""1"",""1824""
","
","","","","","","null","<div style=""font-size:60px;"">+</div>","null","","fixation","","","","","","","","",""
"memory-trial","184","433496","0.0-15.0-1.70","2019","2","""event"",""trial"",""time""
""fullscreenenter"",""1"",""1824""
","
","
","""event"",""trial"",""time""
""fullscreenenter"",""1"",""1824""
","
","","","","","","587.2000000178814","images/cactus4.png","","","memory_trial","4","definitely_new","","","","","","",""
"html-keyboard-response","185","434003","0.0-15.0-0.71","2019","2","""event"",""trial"",""time""
""fullscreenenter"",""1"",""1824""
","
","
","""event"",""trial"",""time""
""fullscreenenter"",""1"",""1824""
","
","","","","","","null","<div style=""font-size:60px;"">+</div>","null","","fixation","","","","","","","","",""
"memory-trial","186","435528","0.0-15.0-1.71","2019","2","""event"",""trial"",""time""
""fullscreenenter"",""1"",""1824""
","
","
","""event"",""trial"",""time""
""fullscreenenter"",""1"",""1824""
","
","","","","","","516.9000000059605","images/cactus1.png","","","memory_trial","4","definitely_new","","","","","","",""
"html-keyboard-response","187","436032","0.0-15.0-0.72","2019","2","""event"",""trial"",""time""
""fullscreenenter"",""1"",""1824""
","
","
","""event"",""trial"",""time""
""fullscreenenter"",""1"",""1824""
","
","","","","","","null","<div style=""font-size:60px;"">+</div>","null","","fixation","","","","","","","","",""
"memory-trial","188","437677","0.0-15.0-1.72","2019","2","""event"",""trial"",""time""
""fullscreenenter"",""1"",""1824""
","
","
","""event"",""trial"",""time""
""fullscreenenter"",""1"",""1824""
","
","","","","","","639.9000000059605","images/orange3.png","","","memory_trial","4","definitely_new","","","","","","",""
"html-keyboard-response","189","438184","0.0-15.0-0.73","2019","2","""event"",""trial"",""time""
""fullscreenenter"",""1"",""1824""
","
","
","""event"",""trial"",""time""
""fullscreenenter"",""1"",""1824""
","
","","","","","","null","<div style=""font-size:60px;"">+</div>","null","","fixation","","","","","","","","",""
"memory-trial","190","440608","0.0-15.0-1.73","2019","2","""event"",""trial"",""time""
""fullscreenenter"",""1"",""1824""
","
","
","""event"",""trial"",""time""
""fullscreenenter"",""1"",""1824""
","
","","","","","","1418.5999999940395","images/truck1.png","","","memory_trial","2","maybe_old","","","","","","",""
"html-keyboard-response","191","441114","0.0-15.0-0.74","2019","2","""event"",""trial"",""time""
""fullscreenenter"",""1"",""1824""
","
","
","""event"",""trial"",""time""
""fullscreenenter"",""1"",""1824""
","
","","","","","","null","<div style=""font-size:60px;"">+</div>","null","","fixation","","","","","","","","",""
"memory-trial","192","444197","0.0-15.0-1.74","2019","2","""event"",""trial"",""time""
""fullscreenenter"",""1"",""1824""
","
","
","""event"",""trial"",""time""
""fullscreenenter"",""1"",""1824""
","
","","","","","","2075","images/straw5.png","","","memory_trial","2","maybe_old","","","","","","",""
"html-keyboard-response","193","444701","0.0-15.0-0.75","2019","2","""event"",""trial"",""time""
""fullscreenenter"",""1"",""1824""
","
","
","""event"",""trial"",""time""
""fullscreenenter"",""1"",""1824""
","
","","","","","","null","<div style=""font-size:60px;"">+</div>","null","","fixation","","","","","","","","",""
"memory-trial","194","446698","0.0-15.0-1.75","2019","2","""event"",""trial"",""time""
""fullscreenenter"",""1"",""1824""
","
","
","""event"",""trial"",""time""
""fullscreenenter"",""1"",""1824""
","
","","","","","","990.5","images/train3.png","","","memory_trial","1","definitely_old","","","","","","",""
"html-keyboard-response","195","447205","0.0-15.0-0.76","2019","2","""event"",""trial"",""time""
""fullscreenenter"",""1"",""1824""
","
","
","""event"",""trial"",""time""
""fullscreenenter"",""1"",""1824""
","
","","","","","","null","<div style=""font-size:60px;"">+</div>","null","","fixation","","","","","","","","",""
"memory-trial","196","449330","0.0-15.0-1.76","2019","2","""event"",""trial"",""time""
""fullscreenenter"",""1"",""1824""
","
","
","""event"",""trial"",""time""
""fullscreenenter"",""1"",""1824""
","
","","","","","","1118","images/plane2.png","","","memory_trial","1","definitely_old","","","","","","",""
"html-keyboard-response","197","449834","0.0-15.0-0.77","2019","2","""event"",""trial"",""time""
""fullscreenenter"",""1"",""1824""
","
","
","""event"",""trial"",""time""
""fullscreenenter"",""1"",""1824""
","
","","","","","","null","<div style=""font-size:60px;"">+</div>","null","","fixation","","","","","","","","",""
"memory-trial","198","451900","0.0-15.0-1.77","2019","2","""event"",""trial"",""time""
""fullscreenenter"",""1"",""1824""
","
","
","""event"",""trial"",""time""
""fullscreenenter"",""1"",""1824""
","
","","","","","","1059.4000000059605","images/rabbit3.png","","","memory_trial","4","definitely_new","","","","","","",""
"html-keyboard-response","199","452404","0.0-15.0-0.78","2019","2","""event"",""trial"",""time""
""fullscreenenter"",""1"",""1824""
","
","
","""event"",""trial"",""time""
""fullscreenenter"",""1"",""1824""
","
","","","","","","null","<div style=""font-size:60px;"">+</div>","null","","fixation","","","","","","","","",""
"memory-trial","200","454556","0.0-15.0-1.78","2019","2","""event"",""trial"",""time""
""fullscreenenter"",""1"",""1824""
","
","
","""event"",""trial"",""time""
""fullscreenenter"",""1"",""1824""
","
","","","","","","1145.800000011921","images/sheep3.png","","","memory_trial","3","maybe_new","","","","","","",""
"html-keyboard-response","201","455063","0.0-15.0-0.79","2019","2","""event"",""trial"",""time""
""fullscreenenter"",""1"",""1824""
","
","
","""event"",""trial"",""time""
""fullscreenenter"",""1"",""1824""
","
","","","","","","null","<div style=""font-size:60px;"">+</div>","null","","fixation","","","","","","","","",""
"memory-trial","202","457175","0.0-15.0-1.79","2019","2","""event"",""trial"",""time""
""fullscreenenter"",""1"",""1824""
","
","
","""event"",""trial"",""time""
""fullscreenenter"",""1"",""1824""
","
","","","","","","1105","images/truck2.png","","","memory_trial","1","definitely_old","","","","","","",""
"html-keyboard-response","203","457676","0.0-15.0-0.80","2019","2","""event"",""trial"",""time""
""fullscreenenter"",""1"",""1824""
","
","
","""event"",""trial"",""time""
""fullscreenenter"",""1"",""1824""
","
","","","","","","null","<div style=""font-size:60px;"">+</div>","null","","fixation","","","","","","","","",""
"memory-trial","204","459860","0.0-15.0-1.80","2019","2","""event"",""trial"",""time""
""fullscreenenter"",""1"",""1824""
","
","
","""event"",""trial"",""time""
""fullscreenenter"",""1"",""1824""
","
","","","","","","1177.0999999940395","images/sheep2.png","","","memory_trial","1","definitely_old","","","","","","",""
"html-keyboard-response","205","460366","0.0-15.0-0.81","2019","2","""event"",""trial"",""time""
""fullscreenenter"",""1"",""1824""
","
","
","""event"",""trial"",""time""
""fullscreenenter"",""1"",""1824""
","
","","","","","","null","<div style=""font-size:60px;"">+</div>","null","","fixation","","","","","","","","",""
"memory-trial","206","462671","0.0-15.0-1.81","2019","2","""event"",""trial"",""time""
""fullscreenenter"",""1"",""1824""
","
","
","""event"",""trial"",""time""
""fullscreenenter"",""1"",""1824""
","
","","","","","","1298.5","images/chair4.png","","","memory_trial","3","maybe_new","","","","","","",""
"html-keyboard-response","207","463177","0.0-15.0-0.82","2019","2","""event"",""trial"",""time""
""fullscreenenter"",""1"",""1824""
","
","
","""event"",""trial"",""time""
""fullscreenenter"",""1"",""1824""
","
","","","","","","null","<div style=""font-size:60px;"">+</div>","null","","fixation","","","","","","","","",""
"memory-trial","208","465425","0.0-15.0-1.82","2019","2","""event"",""trial"",""time""
""fullscreenenter"",""1"",""1824""
","
","
","""event"",""trial"",""time""
""fullscreenenter"",""1"",""1824""
","
","","","","","","1241.5999999940395","images/bed4.png","","","memory_trial","1","definitely_old","","","","","","",""
"html-keyboard-response","209","465931","0.0-15.0-0.83","2019","2","""event"",""trial"",""time""
""fullscreenenter"",""1"",""1824""
","
","
","""event"",""trial"",""time""
""fullscreenenter"",""1"",""1824""
","
","","","","","","null","<div style=""font-size:60px;"">+</div>","null","","fixation","","","","","","","","",""
"memory-trial","210","468065","0.0-15.0-1.83","2019","2","""event"",""trial"",""time""
""fullscreenenter"",""1"",""1824""
","
","
","""event"",""trial"",""time""
""fullscreenenter"",""1"",""1824""
","
","","","","","","1126.2000000178814","images/bush4.png","","","memory_trial","2","maybe_old","","","","","","",""
"html-keyboard-response","211","468572","0.0-15.0-0.84","2019","2","""event"",""trial"",""time""
""fullscreenenter"",""1"",""1824""
","
","
","""event"",""trial"",""time""
""fullscreenenter"",""1"",""1824""
","
","","","","","","null","<div style=""font-size:60px;"">+</div>","null","","fixation","","","","","","","","",""
"memory-trial","212","470584","0.0-15.0-1.84","2019","2","""event"",""trial"",""time""
""fullscreenenter"",""1"",""1824""
","
","
","""event"",""trial"",""time""
""fullscreenenter"",""1"",""1824""
","
","","","","","","1009.2000000178814","images/apple3.png","","","memory_trial","4","definitely_new","","","","","","",""
"html-keyboard-response","213","471088","0.0-15.0-0.85","2019","2","""event"",""trial"",""time""
""fullscreenenter"",""1"",""1824""
","
","
","""event"",""trial"",""time""
""fullscreenenter"",""1"",""1824""
","
","","","","","","null","<div style=""font-size:60px;"">+</div>","null","","fixation","","","","","","","","",""
"memory-trial","214","473419","0.0-15.0-1.85","2019","2","""event"",""trial"",""time""
""fullscreenenter"",""1"",""1824""
","
","
","""event"",""trial"",""time""
""fullscreenenter"",""1"",""1824""
","
","","","","","","1326.1000000238419","images/sofa3.png","","","memory_trial","3","maybe_new","","","","","","",""
"html-keyboard-response","215","473925","0.0-15.0-0.86","2019","2","""event"",""trial"",""time""
""fullscreenenter"",""1"",""1824""
","
","
","""event"",""trial"",""time""
""fullscreenenter"",""1"",""1824""
","
","","","","","","null","<div style=""font-size:60px;"">+</div>","null","","fixation","","","","","","","","",""
"memory-trial","216","475846","0.0-15.0-1.86","2019","2","""event"",""trial"",""time""
""fullscreenenter"",""1"",""1824""
","
","
","""event"",""trial"",""time""
""fullscreenenter"",""1"",""1824""
","
","","","","","","912.8999999761581","images/cow3.png","","","memory_trial","2","maybe_old","","","","","","",""
"html-keyboard-response","217","476352","0.0-15.0-0.87","2019","2","""event"",""trial"",""time""
""fullscreenenter"",""1"",""1824""
","
","
","""event"",""trial"",""time""
""fullscreenenter"",""1"",""1824""
","
","","","","","","null","<div style=""font-size:60px;"">+</div>","null","","fixation","","","","","","","","",""
"memory-trial","218","478315","0.0-15.0-1.87","2019","2","""event"",""trial"",""time""
""fullscreenenter"",""1"",""1824""
","
","
","""event"",""trial"",""time""
""fullscreenenter"",""1"",""1824""
","
","","","","","","956.8999999761581","images/rabbit4.png","","","memory_trial","3","maybe_new","","","","","","",""
"html-keyboard-response","219","478820","0.0-15.0-0.88","2019","2","""event"",""trial"",""time""
""fullscreenenter"",""1"",""1824""
","
","
","""event"",""trial"",""time""
""fullscreenenter"",""1"",""1824""
","
","","","","","","null","<div style=""font-size:60px;"">+</div>","null","","fixation","","","","","","","","",""
"memory-trial","220","480704","0.0-15.0-1.88","2019","2","""event"",""trial"",""time""
""fullscreenenter"",""1"",""1824""
","
","
","""event"",""trial"",""time""
""fullscreenenter"",""1"",""1824""
","
","","","","","","877.2999999821186","images/goat4.png","","","memory_trial","1","definitely_old","","","","","","",""
"html-keyboard-response","221","481210","0.0-15.0-0.89","2019","2","""event"",""trial"",""time""
""fullscreenenter"",""1"",""1824""
","
","
","""event"",""trial"",""time""
""fullscreenenter"",""1"",""1824""
","
","","","","","","null","<div style=""font-size:60px;"">+</div>","null","","fixation","","","","","","","","",""
"memory-trial","222","482957","0.0-15.0-1.89","2019","2","""event"",""trial"",""time""
""fullscreenenter"",""1"",""1824""
","
","
","""event"",""trial"",""time""
""fullscreenenter"",""1"",""1824""
","
","","","","","","741.0999999940395","images/orange1.png","","","memory_trial","4","definitely_new","","","","","","",""
"html-keyboard-response","223","483461","0.0-15.0-0.90","2019","2","""event"",""trial"",""time""
""fullscreenenter"",""1"",""1824""
","
","
","""event"",""trial"",""time""
""fullscreenenter"",""1"",""1824""
","
","","","","","","null","<div style=""font-size:60px;"">+</div>","null","","fixation","","","","","","","","",""
"memory-trial","224","485442","0.0-15.0-1.90","2019","2","""event"",""trial"",""time""
""fullscreenenter"",""1"",""1824""
","
","
","""event"",""trial"",""time""
""fullscreenenter"",""1"",""1824""
","
","","","","","","972.4000000059605","images/table1.png","","","memory_trial","4","definitely_new","","","","","","",""
"html-keyboard-response","225","485947","0.0-15.0-0.91","2019","2","""event"",""trial"",""time""
""fullscreenenter"",""1"",""1824""
","
","
","""event"",""trial"",""time""
""fullscreenenter"",""1"",""1824""
","
","","","","","","null","<div style=""font-size:60px;"">+</div>","null","","fixation","","","","","","","","",""
"memory-trial","226","487819","0.0-15.0-1.91","2019","2","""event"",""trial"",""time""
""fullscreenenter"",""1"",""1824""
","
","
","""event"",""trial"",""time""
""fullscreenenter"",""1"",""1824""
","
","","","","","","865.1000000238419","images/feline4.png","","","memory_trial","2","maybe_old","","","","","","",""
"html-keyboard-response","227","488325","0.0-15.0-0.92","2019","2","""event"",""trial"",""time""
""fullscreenenter"",""1"",""1824""
","
","
","""event"",""trial"",""time""
""fullscreenenter"",""1"",""1824""
","
","","","","","","null","<div style=""font-size:60px;"">+</div>","null","","fixation","","","","","","","","",""
"memory-trial","228","490555","0.0-15.0-1.92","2019","2","""event"",""trial"",""time""
""fullscreenenter"",""1"",""1824""
","
","
","""event"",""trial"",""time""
""fullscreenenter"",""1"",""1824""
","
","","","","","","1223.4000000059605","images/banana2.png","","","memory_trial","3","maybe_new","","","","","","",""
"html-keyboard-response","229","491061","0.0-15.0-0.93","2019","2","""event"",""trial"",""time""
""fullscreenenter"",""1"",""1824""
","
","
","""event"",""trial"",""time""
""fullscreenenter"",""1"",""1824""
","
","","","","","","null","<div style=""font-size:60px;"">+</div>","null","","fixation","","","","","","","","",""
"memory-trial","230","492867","0.0-15.0-1.93","2019","2","""event"",""trial"",""time""
""fullscreenenter"",""1"",""1824""
","
","
","""event"",""trial"",""time""
""fullscreenenter"",""1"",""1824""
","
","","","","","","798.0999999940395","images/sheep1.png","","","memory_trial","1","definitely_old","","","","","","",""
"html-keyboard-response","231","493373","0.0-15.0-0.94","2019","2","""event"",""trial"",""time""
""fullscreenenter"",""1"",""1824""
","
","
","""event"",""trial"",""time""
""fullscreenenter"",""1"",""1824""
","
","","","","","","null","<div style=""font-size:60px;"">+</div>","null","","fixation","","","","","","","","",""
"memory-trial","232","495474","0.0-15.0-1.94","2019","2","""event"",""trial"",""time""
""fullscreenenter"",""1"",""1824""
","
","
","""event"",""trial"",""time""
""fullscreenenter"",""1"",""1824""
","
","","","","","","1095.199999988079","images/bush5.png","","","memory_trial","4","definitely_new","","","","","","",""
"html-keyboard-response","233","495981","0.0-15.0-0.95","2019","2","""event"",""trial"",""time""
""fullscreenenter"",""1"",""1824""
","
","
","""event"",""trial"",""time""
""fullscreenenter"",""1"",""1824""
","
","","","","","","null","<div style=""font-size:60px;"">+</div>","null","","fixation","","","","","","","","",""
"memory-trial","234","498010","0.0-15.0-1.95","2019","2","""event"",""trial"",""time""
""fullscreenenter"",""1"",""1824""
","
","
","""event"",""trial"",""time""
""fullscreenenter"",""1"",""1824""
","
","","","","","","1024.5999999940395","images/sheep4.png","","","memory_trial","3","maybe_new","","","","","","",""
"html-keyboard-response","235","498517","0.0-15.0-0.96","2019","2","""event"",""trial"",""time""
""fullscreenenter"",""1"",""1824""
","
","
","""event"",""trial"",""time""
""fullscreenenter"",""1"",""1824""
","
","","","","","","null","<div style=""font-size:60px;"">+</div>","null","","fixation","","","","","","","","",""
"memory-trial","236","500250","0.0-15.0-1.96","2019","2","""event"",""trial"",""time""
""fullscreenenter"",""1"",""1824""
","
","
","""event"",""trial"",""time""
""fullscreenenter"",""1"",""1824""
","
","","","","","","727.6999999880791","images/flower5.png","","","memory_trial","4","definitely_new","","","","","","",""
"html-keyboard-response","237","500757","0.0-15.0-0.97","2019","2","""event"",""trial"",""time""
""fullscreenenter"",""1"",""1824""
","
","
","""event"",""trial"",""time""
""fullscreenenter"",""1"",""1824""
","
","","","","","","null","<div style=""font-size:60px;"">+</div>","null","","fixation","","","","","","","","",""
"memory-trial","238","502493","0.0-15.0-1.97","2019","2","""event"",""trial"",""time""
""fullscreenenter"",""1"",""1824""
","
","
","""event"",""trial"",""time""
""fullscreenenter"",""1"",""1824""
","
","","","","","","728.6999999880791","images/tree1.png","","","memory_trial","1","definitely_old","","","","","","",""
"html-keyboard-response","239","502999","0.0-15.0-0.98","2019","2","""event"",""trial"",""time""
""fullscreenenter"",""1"",""1824""
","
","
","""event"",""trial"",""time""
""fullscreenenter"",""1"",""1824""
","
","","","","","","null","<div style=""font-size:60px;"">+</div>","null","","fixation","","","","","","","","",""
"memory-trial","240","505554","0.0-15.0-1.98","2019","2","""event"",""trial"",""time""
""fullscreenenter"",""1"",""1824""
","
","
","""event"",""trial"",""time""
""fullscreenenter"",""1"",""1824""
","
","","","","","","1547.199999988079","images/sofa1.png","","","memory_trial","3","maybe_new","","","","","","",""
"html-keyboard-response","241","506060","0.0-15.0-0.99","2019","2","""event"",""trial"",""time""
""fullscreenenter"",""1"",""1824""
","
","
","""event"",""trial"",""time""
""fullscreenenter"",""1"",""1824""
","
","","","","","","null","<div style=""font-size:60px;"">+</div>","null","","fixation","","","","","","","","",""
"memory-trial","242","507837","0.0-15.0-1.99","2019","2","""event"",""trial"",""time""
""fullscreenenter"",""1"",""1824""
","
","
","""event"",""trial"",""time""
""fullscreenenter"",""1"",""1824""
","
","","","","","","768.3000000119209","images/bed2.png","","","memory_trial","4","definitely_new","","","","","","",""
"html-keyboard-response","243","508343","0.0-15.0-0.100","2019","2","""event"",""trial"",""time""
""fullscreenenter"",""1"",""1824""
","
","
","""event"",""trial"",""time""
""fullscreenenter"",""1"",""1824""
","
","","","","","","null","<div style=""font-size:60px;"">+</div>","null","","fixation","","","","","","","","",""
"memory-trial","244","510164","0.0-15.0-1.100","2019","2","""event"",""trial"",""time""
""fullscreenenter"",""1"",""1824""
","
","
","""event"",""trial"",""time""
""fullscreenenter"",""1"",""1824""
","
","","","","","","814.9000000059605","images/dog5.png","","","memory_trial","4","definitely_new","","","","","","",""
"html-keyboard-response","245","510668","0.0-15.0-0.101","2019","2","""event"",""trial"",""time""
""fullscreenenter"",""1"",""1824""
","
","
","""event"",""trial"",""time""
""fullscreenenter"",""1"",""1824""
","
","","","","","","null","<div style=""font-size:60px;"">+</div>","null","","fixation","","","","","","","","",""
"memory-trial","246","512444","0.0-15.0-1.101","2019","2","""event"",""trial"",""time""
""fullscreenenter"",""1"",""1824""
","
","
","""event"",""trial"",""time""
""fullscreenenter"",""1"",""1824""
","
","","","","","","770.7000000178814","images/rodent5.png","","","memory_trial","1","definitely_old","","","","","","",""
"html-button-response","247","515250","0.0-15.0-2.101-0.101","2019","2","""event"",""trial"",""time""
""fullscreenenter"",""1"",""1824""
","
","
","""event"",""trial"",""time""
""fullscreenenter"",""1"",""1824""
","
","","","","","","2804.300000011921","<p> Take a break! </p><p> Click the button to continue. </p>","0","","break","","","","","","","","",""
"html-keyboard-response","248","515753","0.0-15.0-0.102","2019","2","""event"",""trial"",""time""
""fullscreenenter"",""1"",""1824""
","
","
","""event"",""trial"",""time""
""fullscreenenter"",""1"",""1824""
","
","","","","","","null","<div style=""font-size:60px;"">+</div>","null","","fixation","","","","","","","","",""
"memory-trial","249","518673","0.0-15.0-1.102","2019","2","""event"",""trial"",""time""
""fullscreenenter"",""1"",""1824""
","
","
","""event"",""trial"",""time""
""fullscreenenter"",""1"",""1824""
","
","","","","","","1913.1000000238419","images/banana1.png","","","memory_trial","2","maybe_old","","","","","","",""
"html-keyboard-response","250","519180","0.0-15.0-0.103","2019","2","""event"",""trial"",""time""
""fullscreenenter"",""1"",""1824""
","
","
","""event"",""trial"",""time""
""fullscreenenter"",""1"",""1824""
","
","","","","","","null","<div style=""font-size:60px;"">+</div>","null","","fixation","","","","","","","","",""
"memory-trial","251","521423","0.0-15.0-1.103","2019","2","""event"",""trial"",""time""
""fullscreenenter"",""1"",""1824""
","
","
","""event"",""trial"",""time""
""fullscreenenter"",""1"",""1824""
","
","","","","","","1235.300000011921","images/bed5.png","","","memory_trial","2","maybe_old","","","","","","",""
"html-keyboard-response","252","521928","0.0-15.0-0.104","2019","2","""event"",""trial"",""time""
""fullscreenenter"",""1"",""1824""
","
","
","""event"",""trial"",""time""
""fullscreenenter"",""1"",""1824""
","
","","","","","","null","<div style=""font-size:60px;"">+</div>","null","","fixation","","","","","","","","",""
"memory-trial","253","523657","0.0-15.0-1.104","2019","2","""event"",""trial"",""time""
""fullscreenenter"",""1"",""1824""
","
","
","""event"",""trial"",""time""
""fullscreenenter"",""1"",""1824""
","
","","","","","","723.2000000178814","images/train2.png","","","memory_trial","1","definitely_old","","","","","","",""
"html-keyboard-response","254","524161","0.0-15.0-0.105","2019","2","""event"",""trial"",""time""
""fullscreenenter"",""1"",""1824""
","
","
","""event"",""trial"",""time""
""fullscreenenter"",""1"",""1824""
","
","","","","","","null","<div style=""font-size:60px;"">+</div>","null","","fixation","","","","","","","","",""
"memory-trial","255","526195","0.0-15.0-1.105","2019","2","""event"",""trial"",""time""
""fullscreenenter"",""1"",""1824""
","
","
","""event"",""trial"",""time""
""fullscreenenter"",""1"",""1824""
","
","","","","","","1031.0999999940395","images/dog4.png","","","memory_trial","1","definitely_old","","","","","","",""
"html-keyboard-response","256","526700","0.0-15.0-0.106","2019","2","""event"",""trial"",""time""
""fullscreenenter"",""1"",""1824""
","
","
","""event"",""trial"",""time""
""fullscreenenter"",""1"",""1824""
","
","","","","","","null","<div style=""font-size:60px;"">+</div>","null","","fixation","","","","","","","","",""
"memory-trial","257","529084","0.0-15.0-1.106","2019","2","""event"",""trial"",""time""
""fullscreenenter"",""1"",""1824""
","
","
","""event"",""trial"",""time""
""fullscreenenter"",""1"",""1824""
","
","","","","","","1376.0999999940395","images/horse2.png","","","memory_trial","4","definitely_new","","","","","","",""
"html-keyboard-response","258","529587","0.0-15.0-0.107","2019","2","""event"",""trial"",""time""
""fullscreenenter"",""1"",""1824""
","
","
","""event"",""trial"",""time""
""fullscreenenter"",""1"",""1824""
","
","","","","","","null","<div style=""font-size:60px;"">+</div>","null","","fixation","","","","","","","","",""
"memory-trial","259","531643","0.0-15.0-1.107","2019","2","""event"",""trial"",""time""
""fullscreenenter"",""1"",""1824""
","
","
","""event"",""trial"",""time""
""fullscreenenter"",""1"",""1824""
","
","","","","","","1048.199999988079","images/straw4.png","","","memory_trial","4","definitely_new","","","","","","",""
"html-keyboard-response","260","532150","0.0-15.0-0.108","2019","2","""event"",""trial"",""time""
""fullscreenenter"",""1"",""1824""
","
","
","""event"",""trial"",""time""
""fullscreenenter"",""1"",""1824""
","
","","","","","","null","<div style=""font-size:60px;"">+</div>","null","","fixation","","","","","","","","",""
"memory-trial","261","534635","0.0-15.0-1.108","2019","2","""event"",""trial"",""time""
""fullscreenenter"",""1"",""1824""
","
","
","""event"",""trial"",""time""
""fullscreenenter"",""1"",""1824""
","
","","","","","","1478.699999988079","images/truck4.png","","","memory_trial","2","maybe_old","","","","","","",""
"html-keyboard-response","262","535139","0.0-15.0-0.109","2019","2","""event"",""trial"",""time""
""fullscreenenter"",""1"",""1824""
","
","
","""event"",""trial"",""time""
""fullscreenenter"",""1"",""1824""
","
","","","","","","null","<div style=""font-size:60px;"">+</div>","null","","fixation","","","","","","","","",""
"memory-trial","263","537200","0.0-15.0-1.109","2019","2","""event"",""trial"",""time""
""fullscreenenter"",""1"",""1824""
","
","
","""event"",""trial"",""time""
""fullscreenenter"",""1"",""1824""
","
","","","","","","1054.2000000178814","images/train4.png","","","memory_trial","4","definitely_new","","","","","","",""
"html-keyboard-response","264","537707","0.0-15.0-0.110","2019","2","""event"",""trial"",""time""
""fullscreenenter"",""1"",""1824""
","
","
","""event"",""trial"",""time""
""fullscreenenter"",""1"",""1824""
","
","","","","","","null","<div style=""font-size:60px;"">+</div>","null","","fixation","","","","","","","","",""
"memory-trial","265","541944","0.0-15.0-1.110","2019","2","""event"",""trial"",""time""
""fullscreenenter"",""1"",""1824""
","
","
","""event"",""trial"",""time""
""fullscreenenter"",""1"",""1824""
","
","","","","","","3229.5","images/rabbit5.png","","","memory_trial","2","maybe_old","","","","","","",""
"html-keyboard-response","266","542451","0.0-15.0-0.111","2019","2","""event"",""trial"",""time""
""fullscreenenter"",""1"",""1824""
","
","
","""event"",""trial"",""time""
""fullscreenenter"",""1"",""1824""
","
","","","","","","null","<div style=""font-size:60px;"">+</div>","null","","fixation","","","","","","","","",""
"memory-trial","267","544283","0.0-15.0-1.111","2019","2","""event"",""trial"",""time""
""fullscreenenter"",""1"",""1824""
","
","
","""event"",""trial"",""time""
""fullscreenenter"",""1"",""1824""
","
","","","","","","826.0999999940395","images/apple5.png","","","memory_trial","4","definitely_new","","","","","","",""
"html-keyboard-response","268","544789","0.0-15.0-0.112","2019","2","""event"",""trial"",""time""
""fullscreenenter"",""1"",""1824""
","
","
","""event"",""trial"",""time""
""fullscreenenter"",""1"",""1824""
","
","","","","","","null","<div style=""font-size:60px;"">+</div>","null","","fixation","","","","","","","","",""
"memory-trial","269","546862","0.0-15.0-1.112","2019","2","""event"",""trial"",""time""
""fullscreenenter"",""1"",""1824""
","
","
","""event"",""trial"",""time""
""fullscreenenter"",""1"",""1824""
","
","","","","","","1065.7000000178814","images/train1.png","","","memory_trial","1","definitely_old","","","","","","",""
"html-keyboard-response","270","547368","0.0-15.0-0.113","2019","2","""event"",""trial"",""time""
""fullscreenenter"",""1"",""1824""
","
","
","""event"",""trial"",""time""
""fullscreenenter"",""1"",""1824""
","
","","","","","","null","<div style=""font-size:60px;"">+</div>","null","","fixation","","","","","","","","",""
"memory-trial","271","550059","0.0-15.0-1.113","2019","2","""event"",""trial"",""time""
""fullscreenenter"",""1"",""1824""
","
","
","""event"",""trial"",""time""
""fullscreenenter"",""1"",""1824""
","
","","","","","","1682.699999988079","images/bush3.png","","","memory_trial","1","definitely_old","","","","","","",""
"html-keyboard-response","272","550565","0.0-15.0-0.114","2019","2","""event"",""trial"",""time""
""fullscreenenter"",""1"",""1824""
","
","
","""event"",""trial"",""time""
""fullscreenenter"",""1"",""1824""
","
","","","","","","null","<div style=""font-size:60px;"">+</div>","null","","fixation","","","","","","","","",""
"memory-trial","273","552620","0.0-15.0-1.114","2019","2","""event"",""trial"",""time""
""fullscreenenter"",""1"",""1824""
","
","
","""event"",""trial"",""time""
""fullscreenenter"",""1"",""1824""
","
","","","","","","1050.0999999940395","images/dog1.png","","","memory_trial","3","maybe_new","","","","","","",""
"html-keyboard-response","274","553125","0.0-15.0-0.115","2019","2","""event"",""trial"",""time""
""fullscreenenter"",""1"",""1824""
","
","
","""event"",""trial"",""time""
""fullscreenenter"",""1"",""1824""
","
","","","","","","null","<div style=""font-size:60px;"">+</div>","null","","fixation","","","","","","","","",""
"memory-trial","275","555426","0.0-15.0-1.115","2019","2","""event"",""trial"",""time""
""fullscreenenter"",""1"",""1824""
","
","
","""event"",""trial"",""time""
""fullscreenenter"",""1"",""1824""
","
","","","","","","1295.5999999940395","images/plane1.png","","","memory_trial","4","definitely_new","","","","","","",""
"html-keyboard-response","276","555933","0.0-15.0-0.116","2019","2","""event"",""trial"",""time""
""fullscreenenter"",""1"",""1824""
","
","
","""event"",""trial"",""time""
""fullscreenenter"",""1"",""1824""
","
","","","","","","null","<div style=""font-size:60px;"">+</div>","null","","fixation","","","","","","","","",""
"memory-trial","277","557872","0.0-15.0-1.116","2019","2","""event"",""trial"",""time""
""fullscreenenter"",""1"",""1824""
","
","
","""event"",""trial"",""time""
""fullscreenenter"",""1"",""1824""
","
","","","","","","932.1999999880791","images/bed1.png","","","memory_trial","2","maybe_old","","","","","","",""
"html-keyboard-response","278","558378","0.0-15.0-0.117","2019","2","""event"",""trial"",""time""
""fullscreenenter"",""1"",""1824""
","
","
","""event"",""trial"",""time""
""fullscreenenter"",""1"",""1824""
","
","","","","","","null","<div style=""font-size:60px;"">+</div>","null","","fixation","","","","","","","","",""
"memory-trial","279","560359","0.0-15.0-1.117","2019","2","""event"",""trial"",""time""
""fullscreenenter"",""1"",""1824""
","
","
","""event"",""trial"",""time""
""fullscreenenter"",""1"",""1824""
","
","","","","","","974.6999999880791","images/rabbit2.png","","","memory_trial","1","definitely_old","","","","","","",""
"html-keyboard-response","280","560866","0.0-15.0-0.118","2019","2","""event"",""trial"",""time""
""fullscreenenter"",""1"",""1824""
","
","
","""event"",""trial"",""time""
""fullscreenenter"",""1"",""1824""
","
","","","","","","null","<div style=""font-size:60px;"">+</div>","null","","fixation","","","","","","","","",""
"memory-trial","281","562578","0.0-15.0-1.118","2019","2","""event"",""trial"",""time""
""fullscreenenter"",""1"",""1824""
","
","
","""event"",""trial"",""time""
""fullscreenenter"",""1"",""1824""
","
","","","","","","706.5","images/bed3.png","","","memory_trial","4","definitely_new","","","","","","",""
"html-keyboard-response","282","563084","0.0-15.0-0.119","2019","2","""event"",""trial"",""time""
""fullscreenenter"",""1"",""1824""
","
","
","""event"",""trial"",""time""
""fullscreenenter"",""1"",""1824""
","
","","","","","","null","<div style=""font-size:60px;"">+</div>","null","","fixation","","","","","","","","",""
"memory-trial","283","564674","0.0-15.0-1.119","2019","2","""event"",""trial"",""time""
""fullscreenenter"",""1"",""1824""
","
","
","""event"",""trial"",""time""
""fullscreenenter"",""1"",""1824""
","
","","","","","","581.3000000119209","images/banana4.png","","","memory_trial","4","definitely_new","","","","","","",""
"preload","284","569986","0.0-16.0","2019","2","""event"",""trial"",""time""
""fullscreenenter"",""1"",""1824""
","
","
","""event"",""trial"",""time""
""fullscreenenter"",""1"",""1824""
","
","true","false","[]","[]","[]","","","","","","","","","","","","","",""
"learning-instructions","285","575772","0.0-17.0-0.0-0.0-0.0","2019","2","""event"",""trial"",""time""
""fullscreenenter"",""1"",""1824""
","
","
","""event"",""trial"",""time""
""fullscreenenter"",""1"",""1824""
","
","","","","","","2876","<p> We're now going to ask you to feed your pets again. </p>","","0","instructions","","","","","","","","",""
"learning-instructions","286","587219","0.0-17.0-0.0-0.0-0.1","2019","2","""event"",""trial"",""time""
""fullscreenenter"",""1"",""1824""
","
","
","""event"",""trial"",""time""
""fullscreenenter"",""1"",""1824""
","
","","","","","","5304.5999999940395","<p> On each trial, you will see a pet. Select the food that you think is most likely to make the pet happy. </p>","","0","instructions","","","","","","","","",""
"learning-instructions","287","594598","0.0-17.0-0.0-0.0-0.2","2019","2","""event"",""trial"",""time""
""fullscreenenter"",""1"",""1824""
","
","
","""event"",""trial"",""time""
""fullscreenenter"",""1"",""1824""
","
","","","","","","315.90000000596046","<p> To make your selection, think about what you learned last week. You will NOT receive any feedback about your choice. </p>","","0","instructions","","","","","","","","",""
"learning-instructions","288","602998","0.0-17.0-0.0-0.0-0.3","2019","2","""event"",""trial"",""time""
""fullscreenenter"",""1"",""1824""
","
","
","""event"",""trial"",""time""
""fullscreenenter"",""1"",""1824""
","
","","","","","","773.4000000059605","<p> You should use the 1 key to select the food on the left, the 2 key to select the food in the middle, and the 3 key to select the food on the right. </p><br><div class=""choice-mem-instructions-grid""> <div class=""choice-mem-option""><img src=""images/pets_choice1.png"" class=""choice-mem-option-img"" stage=""instructions"" position=""0"" ><div class=""choice-mem-option-text""> Press ""1."" </div></div><div class=""choice-mem-option""><img src=""images/pets_choice2.png"" class=""choice-mem-option-img"" stage=""instructions"" position=""1"" ><div class=""choice-mem-option-text""> Press ""2."" </div></div><div class=""choice-mem-option""><img src=""images/pets_choice3.png"" class=""choice-mem-option-img"" stage=""instructions"" position=""2"" ><div class=""choice-mem-option-text""> Press ""3."" </div></div></div>","","0","instructions","","","","","","","","",""
"learning-instructions","289","609633","0.0-17.0-0.0-0.0-0.4","2019","2","""event"",""trial"",""time""
""fullscreenenter"",""1"",""1824""
","
","
","""event"",""trial"",""time""
""fullscreenenter"",""1"",""1824""
","
","","","","","","369.2000000178814","<p> You will have 10 seconds to make each selection. Try to respond before time runs out! </p>","","0","instructions","","","","","","","","",""
"learning-instructions","290","612185","0.0-17.0-0.0-1.0","2019","2","""event"",""trial"",""time""
""fullscreenenter"",""1"",""1824""
","
","
","""event"",""trial"",""time""
""fullscreenenter"",""1"",""1824""
","
","","","","","","495","<p> You are now ready to begin the game. </p>","","0","instructions","","","","","","","","",""
"html-keyboard-response","291","612789","0.0-17.0-0.0-2.0-0.0","2019","2","""event"",""trial"",""time""
""fullscreenenter"",""1"",""1824""
","
","
","""event"",""trial"",""time""
""fullscreenenter"",""1"",""1824""
","
","","","","","","null","<div style=""font-size:60px;"">+</div>","null","","fixation","","","","","","","","",""
"choice-memory-trial","292","615307","0.0-17.0-0.0-2.0-1.0","2019","2","""event"",""trial"",""time""
""fullscreenenter"",""1"",""1824""
","
","
","""event"",""trial"",""time""
""fullscreenenter"",""1"",""1824""
","
