"trial_type","trial_index","time_elapsed","internal_node_id","subject_id","task_version","interactions","blur_events","focus_events","fullscreenenter_events","fullscreenexit_events","success","timeout","failed_images","failed_audio","failed_video","rt","stimulus","response","button_pressed","task_part","key_press","answer","correct","left_choice","middle_choice","right_choice","choice_positions","option_selected","block"
"pavlovia","0","27","0.0-0.0","1973","2","""event"",""trial"",""time""
""fullscreenenter"",""1"",""2824""
","
","
","""event"",""trial"",""time""
""fullscreenenter"",""1"",""2824""
","
","","","","","","","","","","","","","","","","","","",""
"fullscreen","1","3416","0.0-1.0","1973","2","""event"",""trial"",""time""
""fullscreenenter"",""1"",""2824""
","
","
","""event"",""trial"",""time""
""fullscreenenter"",""1"",""2824""
","
","true","","","","","","","","","","","","","","","","","",""
"preload","2","6063","0.0-2.0","1973","2","""event"",""trial"",""time""
""fullscreenenter"",""1"",""2824""
","
","
","""event"",""trial"",""time""
""fullscreenenter"",""1"",""2824""
","
","true","false","[]","[]","[]","","","","","","","","","","","","","",""
"audio-keyboard-response","3","11164","0.0-3.0","1973","2","""event"",""trial"",""time""
""fullscreenenter"",""1"",""2824""
","
","
","""event"",""trial"",""time""
""fullscreenenter"",""1"",""2824""
","
","","","","","","5088","audio/beep_loop.wav"," ","","","","","","","","","","",""
"audio-button-response","4","14413","0.0-4.0","1973","2","""event"",""trial"",""time""
""fullscreenenter"",""1"",""2824""
","
","
","""event"",""trial"",""time""
""fullscreenenter"",""1"",""2824""
","
","","","","","","3240","audio/turtle.wav","3","","","","","","","","","","",""
"audio-button-response","5","17910","0.0-5.0","1973","2","""event"",""trial"",""time""
""fullscreenenter"",""1"",""2824""
","
","
","""event"",""trial"",""time""
""fullscreenenter"",""1"",""2824""
","
","","","","","","2480","audio/shark.wav","2","","","","","","","","","","",""
"preload","6","31257","0.0-6.0","1973","2","""event"",""trial"",""time""
""fullscreenenter"",""1"",""2824""
","
","
","""event"",""trial"",""time""
""fullscreenenter"",""1"",""2824""
","
","true","false","[]","[]","[]","","","","","","","","","","","","","",""
"learning-instructions","7","38731","0.0-7.0-0.0","1973","2","""event"",""trial"",""time""
""fullscreenenter"",""1"",""2824""
","
","
","""event"",""trial"",""time""
""fullscreenenter"",""1"",""2824""
","
","","","","","","2663","<p> Welcome back! </p><p> Last week, you had to make choices about lots of different items.  </p>","","0","instructions","","","","","","","","",""
"learning-instructions","8","44420","0.0-7.0-0.1","1973","2","""event"",""trial"",""time""
""fullscreenenter"",""1"",""2824""
","
","
","""event"",""trial"",""time""
""fullscreenenter"",""1"",""2824""
","
","","","","","","1382.7999999999884","<p> Today, we are going to ask you to try to remember all the items. </p>","","0","instructions","","","","","","","","",""
"learning-instructions","9","55448","0.0-7.0-0.2","1973","2","""event"",""trial"",""time""
""fullscreenenter"",""1"",""2824""
","
","
","""event"",""trial"",""time""
""fullscreenenter"",""1"",""2824""
","
","","","","","","890.7999999999884","<p> On every trial, you will see an image. </p><p> The image may be an OLD image you saw during the games last week or it may be a NEW image that was not presented. </p>","","0","instructions","","","","","","","","",""
"learning-instructions","10","65029","0.0-7.0-0.3","1973","2","""event"",""trial"",""time""
""fullscreenenter"",""1"",""2824""
","
","
","""event"",""trial"",""time""
""fullscreenenter"",""1"",""2824""
","
","","","","","","1069.8000000000466","<p> You need to select whether the image is:  </p><p>  'Definitely old', 'Maybe old', 'Maybe new', or 'Definitely new.'  </p><div class=""mem-choice-instructions-grid""><div class=""choice-option"" id=""choice-option-1"" ><img src=""images/definitely_old_1.png"" id=""choice-option-img-1"" class=""choice-option-img"" stage=""1""></div><div class=""choice-option"" id=""choice-option-2"" ><img src=""images/maybe_old_1.png"" id=""choice-option-img-2"" class=""choice-option-img"" stage=""1""></div><div class=""choice-option"" id=""choice-option-3"" ><img src=""images/maybe_new_1.png"" id=""choice-option-img-3"" class=""choice-option-img"" stage=""1""></div><div class=""choice-option"" id=""choice-option-4"" > <img src=""images/definitely_new_1.png"" id=""choice-option-img-4"" class=""choice-option-img"" stage=""1""></div></div>","","0","instructions","","","","","","","","",""
"learning-instructions","11","72324","0.0-7.0-0.4","1973","2","""event"",""trial"",""time""
""fullscreenenter"",""1"",""2824""
","
","
","""event"",""trial"",""time""
""fullscreenenter"",""1"",""2824""
","
","","","","","","600.2000000000116","<p> You should use the 1, 2, 3, and 4 keys to make your responses.  </p><div class=""mem-choice-instructions-grid""><div class=""choice-option"" id=""choice-option-1"" ><img src=""images/definitely_old.png"" id=""choice-option-img-1"" class=""choice-option-img"" stage=""1""></div><div class=""choice-option"" id=""choice-option-2"" ><img src=""images/maybe_old.png"" id=""choice-option-img-2"" class=""choice-option-img"" stage=""1""></div><div class=""choice-option"" id=""choice-option-3"" ><img src=""images/maybe_new.png"" id=""choice-option-img-3"" class=""choice-option-img"" stage=""1""></div><div class=""choice-option"" id=""choice-option-4"" > <img src=""images/definitely_new.png"" id=""choice-option-img-4"" class=""choice-option-img"" stage=""1""></div></div>","","0","instructions","","","","","","","","",""
"learning-instructions","12","80026","0.0-7.0-0.5","1973","2","""event"",""trial"",""time""
""fullscreenenter"",""1"",""2824""
","
","
","""event"",""trial"",""time""
""fullscreenenter"",""1"",""2824""
","
","","","","","","930.5","<p> You will have 10 seconds to make each response.  </p><p>  Make sure to respond before time runs out! </p>","","0","instructions","","","","","","","","",""
"learning-instructions","13","88181","0.0-7.0-0.6","1973","2","""event"",""trial"",""time""
""fullscreenenter"",""1"",""2824""
","
","
","""event"",""trial"",""time""
""fullscreenenter"",""1"",""2824""
","
","","","","","","519.7000000000116","<p> Today, you will see each image ONCE only.  </p><p>  That means none of the images will repeat. </p>","","0","instructions","","","","","","","","",""
"learning-instructions","14","101343","0.0-7.0-0.7","1973","2","""event"",""trial"",""time""
""fullscreenenter"",""1"",""2824""
","
","
","""event"",""trial"",""time""
""fullscreenenter"",""1"",""2824""
","
","","","","","","481.30000000004657","<p> Before you play the real game, it is time to practice. </p><p>  Just like in the real game, some of the images in the practice will be ones you have seen before. </p><p>  Others will be entirely new. </p>","","0","instructions","","","","","","","","",""
"html-button-response","15","103292","0.0-8.0","1973","2","""event"",""trial"",""time""
""fullscreenenter"",""1"",""2824""
","
","
","""event"",""trial"",""time""
""fullscreenenter"",""1"",""2824""
","
","","","","","","1844.4000000000233","<p> Ready to practice? </p><p> Remember, use the 1, 2, 3, and 4 keys to make your responses. </p>","0","","instructions","","","","","","","","",""
"html-keyboard-response","16","103897","0.0-9.0-0.0","1973","2","""event"",""trial"",""time""
""fullscreenenter"",""1"",""2824""
","
","
","""event"",""trial"",""time""
""fullscreenenter"",""1"",""2824""
","
","","","","","","null","<div style=""font-size:60px;"">+</div>","null","","fixation","","","","","","","","",""
"memory-trial","17","107520","0.0-9.0-1.0","1973","2","""event"",""trial"",""time""
""fullscreenenter"",""1"",""2824""
","
","
","""event"",""trial"",""time""
""fullscreenenter"",""1"",""2824""
","
","","","","","","2612.5999999999767","images/ball2.png","","","practice","4","definitely_new","","","","","","",""
"html-keyboard-response","18","108022","0.0-9.0-0.1","1973","2","""event"",""trial"",""time""
""fullscreenenter"",""1"",""2824""
","
","
","""event"",""trial"",""time""
""fullscreenenter"",""1"",""2824""
","
","","","","","","null","<div style=""font-size:60px;"">+</div>","null","","fixation","","","","","","","","",""
"memory-trial","19","110959","0.0-9.0-1.1","1973","2","""event"",""trial"",""time""
""fullscreenenter"",""1"",""2824""
","
","
","""event"",""trial"",""time""
""fullscreenenter"",""1"",""2824""
","
","","","","","","1928.5999999999767","images/racket1.png","","","practice","1","definitely_old","","","","","","",""
"html-keyboard-response","20","111462","0.0-9.0-0.2","1973","2","""event"",""trial"",""time""
""fullscreenenter"",""1"",""2824""
","
","
","""event"",""trial"",""time""
""fullscreenenter"",""1"",""2824""
","
","","","","","","null","<div style=""font-size:60px;"">+</div>","null","","fixation","","","","","","","","",""
"memory-trial","21","114335","0.0-9.0-1.2","1973","2","""event"",""trial"",""time""
""fullscreenenter"",""1"",""2824""
","
","
","""event"",""trial"",""time""
""fullscreenenter"",""1"",""2824""
","
","","","","","","1867.5999999999767","images/ball1.png","","","practice","1","definitely_old","","","","","","",""
"html-keyboard-response","22","114838","0.0-9.0-0.3","1973","2","""event"",""trial"",""time""
""fullscreenenter"",""1"",""2824""
","
","
","""event"",""trial"",""time""
""fullscreenenter"",""1"",""2824""
","
","","","","","","null","<div style=""font-size:60px;"">+</div>","null","","fixation","","","","","","","","",""
"memory-trial","23","117573","0.0-9.0-1.3","1973","2","""event"",""trial"",""time""
""fullscreenenter"",""1"",""2824""
","
","
","""event"",""trial"",""time""
""fullscreenenter"",""1"",""2824""
","
","","","","","","1728.4000000000233","images/ball3.png","","","practice","4","definitely_new","","","","","","",""
"html-keyboard-response","24","118076","0.0-9.0-0.4","1973","2","""event"",""trial"",""time""
""fullscreenenter"",""1"",""2824""
","
","
","""event"",""trial"",""time""
""fullscreenenter"",""1"",""2824""
","
","","","","","","null","<div style=""font-size:60px;"">+</div>","null","","fixation","","","","","","","","",""
"memory-trial","25","121882","0.0-9.0-1.4","1973","2","""event"",""trial"",""time""
""fullscreenenter"",""1"",""2824""
","
","
","""event"",""trial"",""time""
""fullscreenenter"",""1"",""2824""
","
","","","","","","2792.0999999999767","images/racket2.png","","","practice","3","maybe_new","","","","","","",""
"html-keyboard-response","26","122387","0.0-9.0-0.5","1973","2","""event"",""trial"",""time""
""fullscreenenter"",""1"",""2824""
","
","
","""event"",""trial"",""time""
""fullscreenenter"",""1"",""2824""
","
","","","","","","null","<div style=""font-size:60px;"">+</div>","null","","fixation","","","","","","","","",""
"memory-trial","27","124310","0.0-9.0-1.5","1973","2","""event"",""trial"",""time""
""fullscreenenter"",""1"",""2824""
","
","
","""event"",""trial"",""time""
""fullscreenenter"",""1"",""2824""
","
","","","","","","902.9000000000233","images/ball4.png","","","practice","1","definitely_old","","","","","","",""
"html-keyboard-response","28","124815","0.0-9.0-0.6","1973","2","""event"",""trial"",""time""
""fullscreenenter"",""1"",""2824""
","
","
","""event"",""trial"",""time""
""fullscreenenter"",""1"",""2824""
","
","","","","","","null","<div style=""font-size:60px;"">+</div>","null","","fixation","","","","","","","","",""
"memory-trial","29","127660","0.0-9.0-1.6","1973","2","""event"",""trial"",""time""
""fullscreenenter"",""1"",""2824""
","
","
","""event"",""trial"",""time""
""fullscreenenter"",""1"",""2824""
","
","","","","","","1834.1999999999534","images/racket4.png","","","practice","1","definitely_old","","","","","","",""
"html-keyboard-response","30","128170","0.0-9.0-0.7","1973","2","""event"",""trial"",""time""
""fullscreenenter"",""1"",""2824""
","
","
","""event"",""trial"",""time""
""fullscreenenter"",""1"",""2824""
","
","","","","","","null","<div style=""font-size:60px;"">+</div>","null","","fixation","","","","","","","","",""
"memory-trial","31","132052","0.0-9.0-1.7","1973","2","""event"",""trial"",""time""
""fullscreenenter"",""1"",""2824""
","
","
","""event"",""trial"",""time""
""fullscreenenter"",""1"",""2824""
","
","","","","","","2867.3000000000466","images/racket3.png","","","practice","3","maybe_new","","","","","","",""
"learning-instructions","32","141910","0.0-10.0-0.0","1973","2","""event"",""trial"",""time""
""fullscreenenter"",""1"",""2824""
","
","
","""event"",""trial"",""time""
""fullscreenenter"",""1"",""2824""
","
","","","","","","1903.3000000000466","<p> Great! You have completed the practice. </p><p> Before you start, we're going to ask you a few questions about how the game works.  </p>","","0","instructions","","","","","","","","",""
"preload","33","150315","0.0-11.0","1973","2","""event"",""trial"",""time""
""fullscreenenter"",""1"",""2824""
","
","
","""event"",""trial"",""time""
""fullscreenenter"",""1"",""2824""
","
","true","false","[]","[]","[]","","","","","","","","","","","","","",""
"comp-q","34","158321","0.0-12.0-0.0","1973","2","""event"",""trial"",""time""
""fullscreenenter"",""1"",""2824""
","
","
","""event"",""trial"",""time""
""fullscreenenter"",""1"",""2824""
","
","","","","","","2173.3000000000466","<p> <b> True or False? </b> </p><p> In this game, you will only see each image once. </p>","","0","comp_question","","","true","","","","","",""
"comp-q","35","165800","0.0-12.0-1.0","1973","2","""event"",""trial"",""time""
""fullscreenenter"",""1"",""2824""
","
","
","""event"",""trial"",""time""
""fullscreenenter"",""1"",""2824""
","
","","","","","","1131.6999999999534","<p> <b> That's right! </b> You will see many different images <i> one time each </i> in this game. </p>","","0","comp_answer","","","","","","","","",""
"comp-q","36","172821","0.0-12.0-0.1","1973","2","""event"",""trial"",""time""
""fullscreenenter"",""1"",""2824""
","
","
","""event"",""trial"",""time""
""fullscreenenter"",""1"",""2824""
","
","","","","","","1213.2999999999302","<p> <b> True or False? </b> </p><p> You should use the mouse and click to make your response. </p>","","1","comp_question","","","true","","","","","",""
"comp-q","37","181158","0.0-12.0-1.1","1973","2","""event"",""trial"",""time""
""fullscreenenter"",""1"",""2824""
","
","
","""event"",""trial"",""time""
""fullscreenenter"",""1"",""2824""
","
","","","","","","970.8000000000466","<p><b> That's right! </b> You should use the '1', '2', '3', and '4' keys to make your response. </p>","","0","comp_answer","","","","","","","","",""
"comp-q","38","188370","0.0-12.0-0.2","1973","2","""event"",""trial"",""time""
""fullscreenenter"",""1"",""2824""
","
","
","""event"",""trial"",""time""
""fullscreenenter"",""1"",""2824""
","
","","","","","","1212.4000000000233","<p> <b> True or False? </b> </p><p> You will have as much time as you want to make each choice. </p>","","1","comp_question","","","true","","","","","",""
"comp-q","39","195207","0.0-12.0-1.2","1973","2","""event"",""trial"",""time""
""fullscreenenter"",""1"",""2824""
","
","
","""event"",""trial"",""time""
""fullscreenenter"",""1"",""2824""
","
","","","","","","1431.6999999999534","<p> <b> That's right! </b> You will only have 10 seconds to make each choice. </p>","","0","comp_answer","","","","","","","","",""
"learning-instructions","40","205858","0.0-13.0","1973","2","""event"",""trial"",""time""
""fullscreenenter"",""1"",""2824""
","
","
","""event"",""trial"",""time""
""fullscreenenter"",""1"",""2824""
","
","","","","","","1969.5","<p> Great! You are now ready to begin the game. </p><p> Remember, use the 1, 2, 3, and 4 keys to make your responses. </p>","","0","instructions","","","","","","","","",""
"preload","41","226820","0.0-14.0","1973","2","""event"",""trial"",""time""
""fullscreenenter"",""1"",""2824""
","
","
","""event"",""trial"",""time""
""fullscreenenter"",""1"",""2824""
","
","true","false","[]","[]","[]","","","","","","","","","","","","","",""
"html-keyboard-response","42","227328","0.0-15.0-0.0","1973","2","""event"",""trial"",""time""
""fullscreenenter"",""1"",""2824""
","
","
","""event"",""trial"",""time""
""fullscreenenter"",""1"",""2824""
","
","","","","","","null","<div style=""font-size:60px;"">+</div>","null","","fixation","","","","","","","","",""
"memory-trial","43","231202","0.0-15.0-1.0","1973","2","""event"",""trial"",""time""
""fullscreenenter"",""1"",""2824""
","
","
","""event"",""trial"",""time""
""fullscreenenter"",""1"",""2824""
","
","","","","","","2859.9000000000233","images/horse3.png","","","memory_trial","2","maybe_old","","","","","","",""
"html-keyboard-response","44","231707","0.0-15.0-0.1","1973","2","""event"",""trial"",""time""
""fullscreenenter"",""1"",""2824""
","
","
","""event"",""trial"",""time""
""fullscreenenter"",""1"",""2824""
","
","","","","","","null","<div style=""font-size:60px;"">+</div>","null","","fixation","","","","","","","","",""
"memory-trial","45","234447","0.0-15.0-1.1","1973","2","""event"",""trial"",""time""
""fullscreenenter"",""1"",""2824""
","
","
","""event"",""trial"",""time""
""fullscreenenter"",""1"",""2824""
","
","","","","","","1730.8000000000466","images/plane2.png","","","memory_trial","1","definitely_old","","","","","","",""
"html-keyboard-response","46","234954","0.0-15.0-0.2","1973","2","""event"",""trial"",""time""
""fullscreenenter"",""1"",""2824""
","
","
","""event"",""trial"",""time""
""fullscreenenter"",""1"",""2824""
","
","","","","","","null","<div style=""font-size:60px;"">+</div>","null","","fixation","","","","","","","","",""
"memory-trial","47","238127","0.0-15.0-1.2","1973","2","""event"",""trial"",""time""
""fullscreenenter"",""1"",""2824""
","
","
","""event"",""trial"",""time""
""fullscreenenter"",""1"",""2824""
","
","","","","","","2165.1999999999534","images/feline2.png","","","memory_trial","3","maybe_new","","","","","","",""
"html-keyboard-response","48","238632","0.0-15.0-0.3","1973","2","""event"",""trial"",""time""
""fullscreenenter"",""1"",""2824""
","
","
","""event"",""trial"",""time""
""fullscreenenter"",""1"",""2824""
","
","","","","","","null","<div style=""font-size:60px;"">+</div>","null","","fixation","","","","","","","","",""
"memory-trial","49","241660","0.0-15.0-1.3","1973","2","""event"",""trial"",""time""
""fullscreenenter"",""1"",""2824""
","
","
","""event"",""trial"",""time""
""fullscreenenter"",""1"",""2824""
","
","","","","","","2018","images/tree2.png","","","memory_trial","1","definitely_old","","","","","","",""
"html-keyboard-response","50","242165","0.0-15.0-0.4","1973","2","""event"",""trial"",""time""
""fullscreenenter"",""1"",""2824""
","
","
","""event"",""trial"",""time""
""fullscreenenter"",""1"",""2824""
","
","","","","","","null","<div style=""font-size:60px;"">+</div>","null","","fixation","","","","","","","","",""
"memory-trial","51","245487","0.0-15.0-1.4","1973","2","""event"",""trial"",""time""
""fullscreenenter"",""1"",""2824""
","
","
","""event"",""trial"",""time""
""fullscreenenter"",""1"",""2824""
","
","","","","","","2316.4000000000233","images/table5.png","","","memory_trial","3","maybe_new","","","","","","",""
"html-keyboard-response","52","245992","0.0-15.0-0.5","1973","2","""event"",""trial"",""time""
""fullscreenenter"",""1"",""2824""
","
","
","""event"",""trial"",""time""
""fullscreenenter"",""1"",""2824""
","
","","","","","","null","<div style=""font-size:60px;"">+</div>","null","","fixation","","","","","","","","",""
"memory-trial","53","248165","0.0-15.0-1.5","1973","2","""event"",""trial"",""time""
""fullscreenenter"",""1"",""2824""
","
","
","""event"",""trial"",""time""
""fullscreenenter"",""1"",""2824""
","
","","","","","","1163.5999999999767","images/truck4.png","","","memory_trial","1","definitely_old","","","","","","",""
"html-keyboard-response","54","248700","0.0-15.0-0.6","1973","2","""event"",""trial"",""time""
""fullscreenenter"",""1"",""2824""
","
","
","""event"",""trial"",""time""
""fullscreenenter"",""1"",""2824""
","
","","","","","","null","<div style=""font-size:60px;"">+</div>","null","","fixation","","","","","","","","",""
"memory-trial","55","252175","0.0-15.0-1.6","1973","2","""event"",""trial"",""time""
""fullscreenenter"",""1"",""2824""
","
","
","""event"",""trial"",""time""
""fullscreenenter"",""1"",""2824""
","
","","","","","","2466.3000000000466","images/orange1.png","","","memory_trial","4","definitely_new","","","","","","",""
"html-keyboard-response","56","252681","0.0-15.0-0.7","1973","2","""event"",""trial"",""time""
""fullscreenenter"",""1"",""2824""
","
","
","""event"",""trial"",""time""
""fullscreenenter"",""1"",""2824""
","
","","","","","","null","<div style=""font-size:60px;"">+</div>","null","","fixation","","","","","","","","",""
"memory-trial","57","254927","0.0-15.0-1.7","1973","2","""event"",""trial"",""time""
""fullscreenenter"",""1"",""2824""
","
","
","""event"",""trial"",""time""
""fullscreenenter"",""1"",""2824""
","
","","","","","","1237.4000000000233","images/sofa5.png","","","memory_trial","4","definitely_new","","","","","","",""
"html-keyboard-response","58","255432","0.0-15.0-0.8","1973","2","""event"",""trial"",""time""
""fullscreenenter"",""1"",""2824""
","
","
","""event"",""trial"",""time""
""fullscreenenter"",""1"",""2824""
","
","","","","","","null","<div style=""font-size:60px;"">+</div>","null","","fixation","","","","","","","","",""
"memory-trial","59","258268","0.0-15.0-1.8","1973","2","""event"",""trial"",""time""
""fullscreenenter"",""1"",""2824""
","
","
","""event"",""trial"",""time""
""fullscreenenter"",""1"",""2824""
","
","","","","","","1827.3000000000466","images/straw3.png","","","memory_trial","4","definitely_new","","","","","","",""
"html-keyboard-response","60","258776","0.0-15.0-0.9","1973","2","""event"",""trial"",""time""
""fullscreenenter"",""1"",""2824""
","
","
","""event"",""trial"",""time""
""fullscreenenter"",""1"",""2824""
","
","","","","","","null","<div style=""font-size:60px;"">+</div>","null","","fixation","","","","","","","","",""
"memory-trial","61","261069","0.0-15.0-1.9","1973","2","""event"",""trial"",""time""
""fullscreenenter"",""1"",""2824""
","
","
","""event"",""trial"",""time""
""fullscreenenter"",""1"",""2824""
","
","","","","","","1281.5","images/cow3.png","","","memory_trial","1","definitely_old","","","","","","",""
"html-keyboard-response","62","261572","0.0-15.0-0.10","1973","2","""event"",""trial"",""time""
""fullscreenenter"",""1"",""2824""
","
","
","""event"",""trial"",""time""
""fullscreenenter"",""1"",""2824""
","
","","","","","","null","<div style=""font-size:60px;"">+</div>","null","","fixation","","","","","","","","",""
"memory-trial","63","264468","0.0-15.0-1.10","1973","2","""event"",""trial"",""time""
""fullscreenenter"",""1"",""2824""
","
","
","""event"",""trial"",""time""
""fullscreenenter"",""1"",""2824""
","
","","","","","","1888.8000000000466","images/apple2.png","","","memory_trial","2","maybe_old","","","","","","",""
"html-keyboard-response","64","264973","0.0-15.0-0.11","1973","2","""event"",""trial"",""time""
""fullscreenenter"",""1"",""2824""
","
","
","""event"",""trial"",""time""
""fullscreenenter"",""1"",""2824""
","
","","","","","","null","<div style=""font-size:60px;"">+</div>","null","","fixation","","","","","","","","",""
"memory-trial","65","267633","0.0-15.0-1.11","1973","2","""event"",""trial"",""time""
""fullscreenenter"",""1"",""2824""
","
","
","""event"",""trial"",""time""
""fullscreenenter"",""1"",""2824""
","
","","","","","","1652.0999999999767","images/bed5.png","","","memory_trial","1","definitely_old","","","","","","",""
"html-keyboard-response","66","268139","0.0-15.0-0.12","1973","2","""event"",""trial"",""time""
""fullscreenenter"",""1"",""2824""
","
","
","""event"",""trial"",""time""
""fullscreenenter"",""1"",""2824""
","
","","","","","","null","<div style=""font-size:60px;"">+</div>","null","","fixation","","","","","","","","",""
"memory-trial","67","270563","0.0-15.0-1.12","1973","2","""event"",""trial"",""time""
""fullscreenenter"",""1"",""2824""
","
","
","""event"",""trial"",""time""
""fullscreenenter"",""1"",""2824""
","
","","","","","","1416.8000000000466","images/banana3.png","","","memory_trial","1","definitely_old","","","","","","",""
"html-keyboard-response","68","271067","0.0-15.0-0.13","1973","2","""event"",""trial"",""time""
""fullscreenenter"",""1"",""2824""
","
","
","""event"",""trial"",""time""
""fullscreenenter"",""1"",""2824""
","
","","","","","","null","<div style=""font-size:60px;"">+</div>","null","","fixation","","","","","","","","",""
"memory-trial","69","273290","0.0-15.0-1.13","1973","2","""event"",""trial"",""time""
""fullscreenenter"",""1"",""2824""
","
","
","""event"",""trial"",""time""
""fullscreenenter"",""1"",""2824""
","
","","","","","","1217","images/bush4.png","","","memory_trial","4","definitely_new","","","","","","",""
"html-keyboard-response","70","273795","0.0-15.0-0.14","1973","2","""event"",""trial"",""time""
""fullscreenenter"",""1"",""2824""
","
","
","""event"",""trial"",""time""
""fullscreenenter"",""1"",""2824""
","
","","","","","","null","<div style=""font-size:60px;"">+</div>","null","","fixation","","","","","","","","",""
"memory-trial","71","276496","0.0-15.0-1.14","1973","2","""event"",""trial"",""time""
""fullscreenenter"",""1"",""2824""
","
","
","""event"",""trial"",""time""
""fullscreenenter"",""1"",""2824""
","
","","","","","","1689.6000000000931","images/goat3.png","","","memory_trial","4","definitely_new","","","","","","",""
"html-keyboard-response","72","277000","0.0-15.0-0.15","1973","2","""event"",""trial"",""time""
""fullscreenenter"",""1"",""2824""
","
","
","""event"",""trial"",""time""
""fullscreenenter"",""1"",""2824""
","
","","","","","","null","<div style=""font-size:60px;"">+</div>","null","","fixation","","","","","","","","",""
"memory-trial","73","279197","0.0-15.0-1.15","1973","2","""event"",""trial"",""time""
""fullscreenenter"",""1"",""2824""
","
","
","""event"",""trial"",""time""
""fullscreenenter"",""1"",""2824""
","
","","","","","","1189.5","images/truck5.png","","","memory_trial","1","definitely_old","","","","","","",""
"html-keyboard-response","74","279702","0.0-15.0-0.16","1973","2","""event"",""trial"",""time""
""fullscreenenter"",""1"",""2824""
","
","
","""event"",""trial"",""time""
""fullscreenenter"",""1"",""2824""
","
","","","","","","null","<div style=""font-size:60px;"">+</div>","null","","fixation","","","","","","","","",""
"memory-trial","75","281883","0.0-15.0-1.16","1973","2","""event"",""trial"",""time""
""fullscreenenter"",""1"",""2824""
","
","
","""event"",""trial"",""time""
""fullscreenenter"",""1"",""2824""
","
","","","","","","1170.7000000000698","images/sheep3.png","","","memory_trial","4","definitely_new","","","","","","",""
"html-keyboard-response","76","282392","0.0-15.0-0.17","1973","2","""event"",""trial"",""time""
""fullscreenenter"",""1"",""2824""
","
","
","""event"",""trial"",""time""
""fullscreenenter"",""1"",""2824""
","
","","","","","","null","<div style=""font-size:60px;"">+</div>","null","","fixation","","","","","","","","",""
"memory-trial","77","285761","0.0-15.0-1.17","1973","2","""event"",""trial"",""time""
""fullscreenenter"",""1"",""2824""
","
","
","""event"",""trial"",""time""
""fullscreenenter"",""1"",""2824""
","
","","","","","","2362.6999999999534","images/tree4.png","","","memory_trial","4","definitely_new","","","","","","",""
"html-keyboard-response","78","286266","0.0-15.0-0.18","1973","2","""event"",""trial"",""time""
""fullscreenenter"",""1"",""2824""
","
","
","""event"",""trial"",""time""
""fullscreenenter"",""1"",""2824""
","
","","","","","","null","<div style=""font-size:60px;"">+</div>","null","","fixation","","","","","","","","",""
"memory-trial","79","288603","0.0-15.0-1.18","1973","2","""event"",""trial"",""time""
""fullscreenenter"",""1"",""2824""
","
","
","""event"",""trial"",""time""
""fullscreenenter"",""1"",""2824""
","
","","","","","","1327.7000000000698","images/sheep5.png","","","memory_trial","3","maybe_new","","","","","","",""
"html-keyboard-response","80","289107","0.0-15.0-0.19","1973","2","""event"",""trial"",""time""
""fullscreenenter"",""1"",""2824""
","
","
","""event"",""trial"",""time""
""fullscreenenter"",""1"",""2824""
","
","","","","","","null","<div style=""font-size:60px;"">+</div>","null","","fixation","","","","","","","","",""
"memory-trial","81","291449","0.0-15.0-1.19","1973","2","""event"",""trial"",""time""
""fullscreenenter"",""1"",""2824""
","
","
","""event"",""trial"",""time""
""fullscreenenter"",""1"",""2824""
","
","","","","","","1336.1999999999534","images/train5.png","","","memory_trial","2","maybe_old","","","","","","",""
"html-keyboard-response","82","291955","0.0-15.0-0.20","1973","2","""event"",""trial"",""time""
""fullscreenenter"",""1"",""2824""
","
","
","""event"",""trial"",""time""
""fullscreenenter"",""1"",""2824""
","
","","","","","","null","<div style=""font-size:60px;"">+</div>","null","","fixation","","","","","","","","",""
"memory-trial","83","294841","0.0-15.0-1.20","1973","2","""event"",""trial"",""time""
""fullscreenenter"",""1"",""2824""
","
","
","""event"",""trial"",""time""
""fullscreenenter"",""1"",""2824""
","
","","","","","","1878.2999999999302","images/rabbit1.png","","","memory_trial","4","definitely_new","","","","","","",""
"html-keyboard-response","84","295345","0.0-15.0-0.21","1973","2","""event"",""trial"",""time""
""fullscreenenter"",""1"",""2824""
","
","
","""event"",""trial"",""time""
""fullscreenenter"",""1"",""2824""
","
","","","","","","null","<div style=""font-size:60px;"">+</div>","null","","fixation","","","","","","","","",""
"memory-trial","85","297722","0.0-15.0-1.21","1973","2","""event"",""trial"",""time""
""fullscreenenter"",""1"",""2824""
","
","
","""event"",""trial"",""time""
""fullscreenenter"",""1"",""2824""
","
","","","","","","1370.4000000000233","images/horse4.png","","","memory_trial","4","definitely_new","","","","","","",""
"html-keyboard-response","86","298226","0.0-15.0-0.22","1973","2","""event"",""trial"",""time""
""fullscreenenter"",""1"",""2824""
","
","
","""event"",""trial"",""time""
""fullscreenenter"",""1"",""2824""
","
","","","","","","null","<div style=""font-size:60px;"">+</div>","null","","fixation","","","","","","","","",""
"memory-trial","87","300584","0.0-15.0-1.22","1973","2","""event"",""trial"",""time""
""fullscreenenter"",""1"",""2824""
","
","
","""event"",""trial"",""time""
""fullscreenenter"",""1"",""2824""
","
","","","","","","1350","images/table4.png","","","memory_trial","1","definitely_old","","","","","","",""
"html-keyboard-response","88","301090","0.0-15.0-0.23","1973","2","""event"",""trial"",""time""
""fullscreenenter"",""1"",""2824""
","
","
","""event"",""trial"",""time""
""fullscreenenter"",""1"",""2824""
","
","","","","","","null","<div style=""font-size:60px;"">+</div>","null","","fixation","","","","","","","","",""
"memory-trial","89","304933","0.0-15.0-1.23","1973","2","""event"",""trial"",""time""
""fullscreenenter"",""1"",""2824""
","
","
","""event"",""trial"",""time""
""fullscreenenter"",""1"",""2824""
","
","","","","","","2836","images/plane3.png","","","memory_trial","2","maybe_old","","","","","","",""
"html-keyboard-response","90","305439","0.0-15.0-0.24","1973","2","""event"",""trial"",""time""
""fullscreenenter"",""1"",""2824""
","
","
","""event"",""trial"",""time""
""fullscreenenter"",""1"",""2824""
","
","","","","","","null","<div style=""font-size:60px;"">+</div>","null","","fixation","","","","","","","","",""
"memory-trial","91","308647","0.0-15.0-1.24","1973","2","""event"",""trial"",""time""
""fullscreenenter"",""1"",""2824""
","
","
","""event"",""trial"",""time""
""fullscreenenter"",""1"",""2824""
","
","","","","","","2199.4000000000233","images/boat5.png","","","memory_trial","1","definitely_old","","","","","","",""
"html-keyboard-response","92","309151","0.0-15.0-0.25","1973","2","""event"",""trial"",""time""
""fullscreenenter"",""1"",""2824""
","
","
","""event"",""trial"",""time""
""fullscreenenter"",""1"",""2824""
","
","","","","","","null","<div style=""font-size:60px;"">+</div>","null","","fixation","","","","","","","","",""
"memory-trial","93","311099","0.0-15.0-1.25","1973","2","""event"",""trial"",""time""
""fullscreenenter"",""1"",""2824""
","
","
","""event"",""trial"",""time""
""fullscreenenter"",""1"",""2824""
","
","","","","","","938.5","images/chair1.png","","","memory_trial","3","maybe_new","","","","","","",""
"html-keyboard-response","94","311603","0.0-15.0-0.26","1973","2","""event"",""trial"",""time""
""fullscreenenter"",""1"",""2824""
","
","
","""event"",""trial"",""time""
""fullscreenenter"",""1"",""2824""
","
","","","","","","null","<div style=""font-size:60px;"">+</div>","null","","fixation","","","","","","","","",""
"memory-trial","95","314274","0.0-15.0-1.26","1973","2","""event"",""trial"",""time""
""fullscreenenter"",""1"",""2824""
","
","
","""event"",""trial"",""time""
""fullscreenenter"",""1"",""2824""
","
","","","","","","1661.5","images/rodent4.png","","","memory_trial","1","definitely_old","","","","","","",""
"html-keyboard-response","96","314777","0.0-15.0-0.27","1973","2","""event"",""trial"",""time""
""fullscreenenter"",""1"",""2824""
","
","
","""event"",""trial"",""time""
""fullscreenenter"",""1"",""2824""
","
","","","","","","null","<div style=""font-size:60px;"">+</div>","null","","fixation","","","","","","","","",""
"memory-trial","97","316820","0.0-15.0-1.27","1973","2","""event"",""trial"",""time""
""fullscreenenter"",""1"",""2824""
","
","
","""event"",""trial"",""time""
""fullscreenenter"",""1"",""2824""
","
","","","","","","1035","images/cactus5.png","","","memory_trial","4","definitely_new","","","","","","",""
"html-keyboard-response","98","317325","0.0-15.0-0.28","1973","2","""event"",""trial"",""time""
""fullscreenenter"",""1"",""2824""
","
","
","""event"",""trial"",""time""
""fullscreenenter"",""1"",""2824""
","
","","","","","","null","<div style=""font-size:60px;"">+</div>","null","","fixation","","","","","","","","",""
"memory-trial","99","319868","0.0-15.0-1.28","1973","2","""event"",""trial"",""time""
""fullscreenenter"",""1"",""2824""
","
","
","""event"",""trial"",""time""
""fullscreenenter"",""1"",""2824""
","
","","","","","","1533.6999999999534","images/cow5.png","","","memory_trial","1","definitely_old","","","","","","",""
"html-keyboard-response","100","320373","0.0-15.0-0.29","1973","2","""event"",""trial"",""time""
""fullscreenenter"",""1"",""2824""
","
","
","""event"",""trial"",""time""
""fullscreenenter"",""1"",""2824""
","
","","","","","","null","<div style=""font-size:60px;"">+</div>","null","","fixation","","","","","","","","",""
"memory-trial","101","323493","0.0-15.0-1.29","1973","2","""event"",""trial"",""time""
""fullscreenenter"",""1"",""2824""
","
","
","""event"",""trial"",""time""
""fullscreenenter"",""1"",""2824""
","
","","","","","","2112.399999999907","images/banana1.png","","","memory_trial","2","maybe_old","","","","","","",""
"html-keyboard-response","102","323999","0.0-15.0-0.30","1973","2","""event"",""trial"",""time""
""fullscreenenter"",""1"",""2824""
","
","
","""event"",""trial"",""time""
""fullscreenenter"",""1"",""2824""
","
","","","","","","null","<div style=""font-size:60px;"">+</div>","null","","fixation","","","","","","","","",""
"memory-trial","103","326869","0.0-15.0-1.30","1973","2","""event"",""trial"",""time""
""fullscreenenter"",""1"",""2824""
","
","
","""event"",""trial"",""time""
""fullscreenenter"",""1"",""2824""
","
","","","","","","1860.3999999999069","images/chair5.png","","","memory_trial","3","maybe_new","","","","","","",""
"html-keyboard-response","104","327374","0.0-15.0-0.31","1973","2","""event"",""trial"",""time""
""fullscreenenter"",""1"",""2824""
","
","
","""event"",""trial"",""time""
""fullscreenenter"",""1"",""2824""
","
","","","","","","null","<div style=""font-size:60px;"">+</div>","null","","fixation","","","","","","","","",""
"memory-trial","105","329594","0.0-15.0-1.31","1973","2","""event"",""trial"",""time""
""fullscreenenter"",""1"",""2824""
","
","
","""event"",""trial"",""time""
""fullscreenenter"",""1"",""2824""
","
","","","","","","1111.1000000000931","images/sofa3.png","","","memory_trial","4","definitely_new","","","","","","",""
"html-keyboard-response","106","330112","0.0-15.0-0.32","1973","2","""event"",""trial"",""time""
""fullscreenenter"",""1"",""2824""
","
","
","""event"",""trial"",""time""
""fullscreenenter"",""1"",""2824""
","
","","","","","","null","<div style=""font-size:60px;"">+</div>","null","","fixation","","","","","","","","",""
"memory-trial","107","332132","0.0-15.0-1.32","1973","2","""event"",""trial"",""time""
""fullscreenenter"",""1"",""2824""
","
","
","""event"",""trial"",""time""
""fullscreenenter"",""1"",""2824""
","
","","","","","","1012.5","images/apple5.png","","","memory_trial","1","definitely_old","","","","","","",""
"html-keyboard-response","108","332634","0.0-15.0-0.33","1973","2","""event"",""trial"",""time""
""fullscreenenter"",""1"",""2824""
","
","
","""event"",""trial"",""time""
""fullscreenenter"",""1"",""2824""
","
","","","","","","null","<div style=""font-size:60px;"">+</div>","null","","fixation","","","","","","","","",""
"memory-trial","109","335191","0.0-15.0-1.33","1973","2","""event"",""trial"",""time""
""fullscreenenter"",""1"",""2824""
","
","
","""event"",""trial"",""time""
""fullscreenenter"",""1"",""2824""
","
","","","","","","1546.2000000000698","images/cow2.png","","","memory_trial","4","definitely_new","","","","","","",""
"html-keyboard-response","110","335696","0.0-15.0-0.34","1973","2","""event"",""trial"",""time""
""fullscreenenter"",""1"",""2824""
","
","
","""event"",""trial"",""time""
""fullscreenenter"",""1"",""2824""
","
","","","","","","null","<div style=""font-size:60px;"">+</div>","null","","fixation","","","","","","","","",""
"memory-trial","111","337926","0.0-15.0-1.34","1973","2","""event"",""trial"",""time""
""fullscreenenter"",""1"",""2824""
","
","
","""event"",""trial"",""time""
""fullscreenenter"",""1"",""2824""
","
","","","","","","1221.1999999999534","images/feline5.png","","","memory_trial","3","maybe_new","","","","","","",""
"html-keyboard-response","112","338432","0.0-15.0-0.35","1973","2","""event"",""trial"",""time""
""fullscreenenter"",""1"",""2824""
","
","
","""event"",""trial"",""time""
""fullscreenenter"",""1"",""2824""
","
","","","","","","null","<div style=""font-size:60px;"">+</div>","null","","fixation","","","","","","","","",""
"memory-trial","113","341598","0.0-15.0-1.35","1973","2","""event"",""trial"",""time""
""fullscreenenter"",""1"",""2824""
","
","
","""event"",""trial"",""time""
""fullscreenenter"",""1"",""2824""
","
","","","","","","2160.0999999999767","images/flower2.png","","","memory_trial","1","definitely_old","","","","","","",""
"html-keyboard-response","114","342100","0.0-15.0-0.36","1973","2","""event"",""trial"",""time""
""fullscreenenter"",""1"",""2824""
","
","
","""event"",""trial"",""time""
""fullscreenenter"",""1"",""2824""
","
","","","","","","null","<div style=""font-size:60px;"">+</div>","null","","fixation","","","","","","","","",""
"memory-trial","115","346012","0.0-15.0-1.36","1973","2","""event"",""trial"",""time""
""fullscreenenter"",""1"",""2824""
","
","
","""event"",""trial"",""time""
""fullscreenenter"",""1"",""2824""
","
","","","","","","2903.8000000000466","images/boat2.png","","","memory_trial","2","maybe_old","","","","","","",""
"html-keyboard-response","116","346517","0.0-15.0-0.37","1973","2","""event"",""trial"",""time""
""fullscreenenter"",""1"",""2824""
","
","
","""event"",""trial"",""time""
""fullscreenenter"",""1"",""2824""
","
","","","","","","null","<div style=""font-size:60px;"">+</div>","null","","fixation","","","","","","","","",""
"memory-trial","117","348993","0.0-15.0-1.37","1973","2","""event"",""trial"",""time""
""fullscreenenter"",""1"",""2824""
","
","
","""event"",""trial"",""time""
""fullscreenenter"",""1"",""2824""
","
","","","","","","1466.1000000000931","images/cow1.png","","","memory_trial","1","definitely_old","","","","","","",""
"html-keyboard-response","118","349502","0.0-15.0-0.38","1973","2","""event"",""trial"",""time""
""fullscreenenter"",""1"",""2824""
","
","
","""event"",""trial"",""time""
""fullscreenenter"",""1"",""2824""
","
","","","","","","null","<div style=""font-size:60px;"">+</div>","null","","fixation","","","","","","","","",""
"memory-trial","119","352602","0.0-15.0-1.38","1973","2","""event"",""trial"",""time""
""fullscreenenter"",""1"",""2824""
","
","
","""event"",""trial"",""time""
""fullscreenenter"",""1"",""2824""
","
","","","","","","2091.1999999999534","images/straw4.png","","","memory_trial","3","maybe_new","","","","","","",""
"html-keyboard-response","120","353106","0.0-15.0-0.39","1973","2","""event"",""trial"",""time""
""fullscreenenter"",""1"",""2824""
","
","
","""event"",""trial"",""time""
""fullscreenenter"",""1"",""2824""
","
","","","","","","null","<div style=""font-size:60px;"">+</div>","null","","fixation","","","","","","","","",""
"memory-trial","121","356866","0.0-15.0-1.39","1973","2","""event"",""trial"",""time""
""fullscreenenter"",""1"",""2824""
","
","
","""event"",""trial"",""time""
""fullscreenenter"",""1"",""2824""
","
","","","","","","2747.70000000007","images/feline4.png","","","memory_trial","1","definitely_old","","","","","","",""
"html-keyboard-response","122","357374","0.0-15.0-0.40","1973","2","""event"",""trial"",""time""
""fullscreenenter"",""1"",""2824""
","
","
","""event"",""trial"",""time""
""fullscreenenter"",""1"",""2824""
","
","","","","","","null","<div style=""font-size:60px;"">+</div>","null","","fixation","","","","","","","","",""
"memory-trial","123","359651","0.0-15.0-1.40","1973","2","""event"",""trial"",""time""
""fullscreenenter"",""1"",""2824""
","
","
","""event"",""trial"",""time""
""fullscreenenter"",""1"",""2824""
","
","","","","","","1267.6999999999534","images/straw2.png","","","memory_trial","1","definitely_old","","","","","","",""
"html-keyboard-response","124","360154","0.0-15.0-0.41","1973","2","""event"",""trial"",""time""
""fullscreenenter"",""1"",""2824""
","
","
","""event"",""trial"",""time""
""fullscreenenter"",""1"",""2824""
","
","","","","","","null","<div style=""font-size:60px;"">+</div>","null","","fixation","","","","","","","","",""
"memory-trial","125","362767","0.0-15.0-1.41","1973","2","""event"",""trial"",""time""
""fullscreenenter"",""1"",""2824""
","
","
","""event"",""trial"",""time""
""fullscreenenter"",""1"",""2824""
","
","","","","","","1604.5","images/plane4.png","","","memory_trial","4","definitely_new","","","","","","",""
"html-keyboard-response","126","363272","0.0-15.0-0.42","1973","2","""event"",""trial"",""time""
""fullscreenenter"",""1"",""2824""
","
","
","""event"",""trial"",""time""
""fullscreenenter"",""1"",""2824""
","
","","","","","","null","<div style=""font-size:60px;"">+</div>","null","","fixation","","","","","","","","",""
"memory-trial","127","365584","0.0-15.0-1.42","1973","2","""event"",""trial"",""time""
""fullscreenenter"",""1"",""2824""
","
","
","""event"",""trial"",""time""
""fullscreenenter"",""1"",""2824""
","
","","","","","","1303.1999999999534","images/train2.png","","","memory_trial","4","definitely_new","","","","","","",""
"html-keyboard-response","128","366090","0.0-15.0-0.43","1973","2","""event"",""trial"",""time""
""fullscreenenter"",""1"",""2824""
","
","
","""event"",""trial"",""time""
""fullscreenenter"",""1"",""2824""
","
","","","","","","null","<div style=""font-size:60px;"">+</div>","null","","fixation","","","","","","","","",""
"memory-trial","129","368433","0.0-15.0-1.43","1973","2","""event"",""trial"",""time""
""fullscreenenter"",""1"",""2824""
","
","
","""event"",""trial"",""time""
""fullscreenenter"",""1"",""2824""
","
","","","","","","1334.1999999999534","images/rodent1.png","","","memory_trial","2","maybe_old","","","","","","",""
"html-keyboard-response","130","368938","0.0-15.0-0.44","1973","2","""event"",""trial"",""time""
""fullscreenenter"",""1"",""2824""
","
","
","""event"",""trial"",""time""
""fullscreenenter"",""1"",""2824""
","
","","","","","","null","<div style=""font-size:60px;"">+</div>","null","","fixation","","","","","","","","",""
"memory-trial","131","371394","0.0-15.0-1.44","1973","2","""event"",""trial"",""time""
""fullscreenenter"",""1"",""2824""
","
","
","""event"",""trial"",""time""
""fullscreenenter"",""1"",""2824""
","
","","","","","","1450.6000000000931","images/apple4.png","","","memory_trial","4","definitely_new","","","","","","",""
"html-keyboard-response","132","371898","0.0-15.0-0.45","1973","2","""event"",""trial"",""time""
""fullscreenenter"",""1"",""2824""
","
","
","""event"",""trial"",""time""
""fullscreenenter"",""1"",""2824""
","
","","","","","","null","<div style=""font-size:60px;"">+</div>","null","","fixation","","","","","","","","",""
"memory-trial","133","374549","0.0-15.0-1.45","1973","2","""event"",""trial"",""time""
""fullscreenenter"",""1"",""2824""
","
","
","""event"",""trial"",""time""
""fullscreenenter"",""1"",""2824""
","
","","","","","","1639.5999999999767","images/sofa4.png","","","memory_trial","4","definitely_new","","","","","","",""
"html-keyboard-response","134","375054","0.0-15.0-0.46","1973","2","""event"",""trial"",""time""
""fullscreenenter"",""1"",""2824""
","
","
","""event"",""trial"",""time""
""fullscreenenter"",""1"",""2824""
","
","","","","","","null","<div style=""font-size:60px;"">+</div>","null","","fixation","","","","","","","","",""
"memory-trial","135","377261","0.0-15.0-1.46","1973","2","""event"",""trial"",""time""
""fullscreenenter"",""1"",""2824""
","
","
","""event"",""trial"",""time""
""fullscreenenter"",""1"",""2824""
","
","","","","","","1195.5999999999767","images/table2.png","","","memory_trial","4","definitely_new","","","","","","",""
"html-button-response","136","383363","0.0-15.0-2.46-0.46","1973","2","""event"",""trial"",""time""
""fullscreenenter"",""1"",""2824""
","
","
","""event"",""trial"",""time""
""fullscreenenter"",""1"",""2824""
","
","","","","","","6098.20000000007","<p> Take a break! </p><p> Click the button to continue. </p>","0","","break","","","","","","","","",""
"html-keyboard-response","137","383869","0.0-15.0-0.47","1973","2","""event"",""trial"",""time""
""fullscreenenter"",""1"",""2824""
","
","
","""event"",""trial"",""time""
""fullscreenenter"",""1"",""2824""
","
","","","","","","null","<div style=""font-size:60px;"">+</div>","null","","fixation","","","","","","","","",""
"memory-trial","138","386148","0.0-15.0-1.47","1973","2","""event"",""trial"",""time""
""fullscreenenter"",""1"",""2824""
","
","
","""event"",""trial"",""time""
""fullscreenenter"",""1"",""2824""
","
","","","","","","1272.2000000000698","images/tree1.png","","","memory_trial","1","definitely_old","","","","","","",""
"html-keyboard-response","139","386650","0.0-15.0-0.48","1973","2","""event"",""trial"",""time""
""fullscreenenter"",""1"",""2824""
","
","
","""event"",""trial"",""time""
""fullscreenenter"",""1"",""2824""
","
","","","","","","null","<div style=""font-size:60px;"">+</div>","null","","fixation","","","","","","","","",""
"memory-trial","140","389098","0.0-15.0-1.48","1973","2","""event"",""trial"",""time""
""fullscreenenter"",""1"",""2824""
","
","
","""event"",""trial"",""time""
""fullscreenenter"",""1"",""2824""
","
","","","","","","1442.9000000000233","images/boat4.png","","","memory_trial","3","maybe_new","","","","","","",""
"html-keyboard-response","141","389603","0.0-15.0-0.49","1973","2","""event"",""trial"",""time""
""fullscreenenter"",""1"",""2824""
","
","
","""event"",""trial"",""time""
""fullscreenenter"",""1"",""2824""
","
","","","","","","null","<div style=""font-size:60px;"">+</div>","null","","fixation","","","","","","","","",""
"memory-trial","142","391747","0.0-15.0-1.49","1973","2","""event"",""trial"",""time""
""fullscreenenter"",""1"",""2824""
","
","
","""event"",""trial"",""time""
""fullscreenenter"",""1"",""2824""
","
","","","","","","1140","images/horse2.png","","","memory_trial","1","definitely_old","","","","","","",""
"html-keyboard-response","143","392249","0.0-15.0-0.50","1973","2","""event"",""trial"",""time""
""fullscreenenter"",""1"",""2824""
","
","
","""event"",""trial"",""time""
""fullscreenenter"",""1"",""2824""
","
","","","","","","null","<div style=""font-size:60px;"">+</div>","null","","fixation","","","","","","","","",""
"memory-trial","144","394770","0.0-15.0-1.50","1973","2","""event"",""trial"",""time""
""fullscreenenter"",""1"",""2824""
","
","
","""event"",""trial"",""time""
""fullscreenenter"",""1"",""2824""
","
","","","","","","1513.5999999999767","images/boat3.png","","","memory_trial","4","definitely_new","","","","","","",""
"html-keyboard-response","145","395275","0.0-15.0-0.51","1973","2","""event"",""trial"",""time""
""fullscreenenter"",""1"",""2824""
","
","
","""event"",""trial"",""time""
""fullscreenenter"",""1"",""2824""
","
","","","","","","null","<div style=""font-size:60px;"">+</div>","null","","fixation","","","","","","","","",""
"memory-trial","146","397596","0.0-15.0-1.51","1973","2","""event"",""trial"",""time""
""fullscreenenter"",""1"",""2824""
","
","
","""event"",""trial"",""time""
""fullscreenenter"",""1"",""2824""
","
","","","","","","1314.6999999999534","images/bush1.png","","","memory_trial","2","maybe_old","","","","","","",""
"html-keyboard-response","147","398100","0.0-15.0-0.52","1973","2","""event"",""trial"",""time""
""fullscreenenter"",""1"",""2824""
","
","
","""event"",""trial"",""time""
""fullscreenenter"",""1"",""2824""
","
","","","","","","null","<div style=""font-size:60px;"">+</div>","null","","fixation","","","","","","","","",""
"memory-trial","148","400145","0.0-15.0-1.52","1973","2","""event"",""trial"",""time""
""fullscreenenter"",""1"",""2824""
","
","
","""event"",""trial"",""time""
""fullscreenenter"",""1"",""2824""
","
","","","","","","1038.6999999999534","images/bed2.png","","","memory_trial","4","definitely_new","","","","","","",""
"html-keyboard-response","149","400650","0.0-15.0-0.53","1973","2","""event"",""trial"",""time""
""fullscreenenter"",""1"",""2824""
","
","
","""event"",""trial"",""time""
""fullscreenenter"",""1"",""2824""
","
","","","","","","null","<div style=""font-size:60px;"">+</div>","null","","fixation","","","","","","","","",""
"memory-trial","150","402961","0.0-15.0-1.53","1973","2","""event"",""trial"",""time""
""fullscreenenter"",""1"",""2824""
","
","
","""event"",""trial"",""time""
""fullscreenenter"",""1"",""2824""
","
","","","","","","1304.8000000000466","images/banana5.png","","","memory_trial","3","maybe_new","","","","","","",""
"html-keyboard-response","151","403465","0.0-15.0-0.54","1973","2","""event"",""trial"",""time""
""fullscreenenter"",""1"",""2824""
","
","
","""event"",""trial"",""time""
""fullscreenenter"",""1"",""2824""
","
","","","","","","null","<div style=""font-size:60px;"">+</div>","null","","fixation","","","","","","","","",""
"memory-trial","152","405940","0.0-15.0-1.54","1973","2","""event"",""trial"",""time""
""fullscreenenter"",""1"",""2824""
","
","
","""event"",""trial"",""time""
""fullscreenenter"",""1"",""2824""
","
","","","","","","1469.6999999999534","images/cactus2.png","","","memory_trial","4","definitely_new","","","","","","",""
"html-keyboard-response","153","406456","0.0-15.0-0.55","1973","2","""event"",""trial"",""time""
""fullscreenenter"",""1"",""2824""
","
","
","""event"",""trial"",""time""
""fullscreenenter"",""1"",""2824""
","
","","","","","","null","<div style=""font-size:60px;"">+</div>","null","","fixation","","","","","","","","",""
"memory-trial","154","409017","0.0-15.0-1.55","1973","2","""event"",""trial"",""time""
""fullscreenenter"",""1"",""2824""
","
","
","""event"",""trial"",""time""
""fullscreenenter"",""1"",""2824""
","
","","","","","","1553.0999999999767","images/dog3.png","","","memory_trial","4","definitely_new","","","","","","",""
"html-keyboard-response","155","409521","0.0-15.0-0.56","1973","2","""event"",""trial"",""time""
""fullscreenenter"",""1"",""2824""
","
","
","""event"",""trial"",""time""
""fullscreenenter"",""1"",""2824""
","
","","","","","","null","<div style=""font-size:60px;"">+</div>","null","","fixation","","","","","","","","",""
"memory-trial","156","412106","0.0-15.0-1.56","1973","2","""event"",""trial"",""time""
""fullscreenenter"",""1"",""2824""
","
","
","""event"",""trial"",""time""
""fullscreenenter"",""1"",""2824""
","
","","","","","","1578.2000000000698","images/cactus4.png","","","memory_trial","3","maybe_new","","","","","","",""
"html-keyboard-response","157","412612","0.0-15.0-0.57","1973","2","""event"",""trial"",""time""
""fullscreenenter"",""1"",""2824""
","
","
","""event"",""trial"",""time""
""fullscreenenter"",""1"",""2824""
","
","","","","","","null","<div style=""font-size:60px;"">+</div>","null","","fixation","","","","","","","","",""
"memory-trial","158","415051","0.0-15.0-1.57","1973","2","""event"",""trial"",""time""
""fullscreenenter"",""1"",""2824""
","
","
","""event"",""trial"",""time""
""fullscreenenter"",""1"",""2824""
","
","","","","","","1433.7999999999302","images/bed4.png","","","memory_trial","1","definitely_old","","","","","","",""
"html-keyboard-response","159","415557","0.0-15.0-0.58","1973","2","""event"",""trial"",""time""
""fullscreenenter"",""1"",""2824""
","
","
","""event"",""trial"",""time""
""fullscreenenter"",""1"",""2824""
","
","","","","","","null","<div style=""font-size:60px;"">+</div>","null","","fixation","","","","","","","","",""
"memory-trial","160","418411","0.0-15.0-1.58","1973","2","""event"",""trial"",""time""
""fullscreenenter"",""1"",""2824""
","
","
","""event"",""trial"",""time""
""fullscreenenter"",""1"",""2824""
","
","","","","","","1846.9000000000233","images/cow4.png","","","memory_trial","1","definitely_old","","","","","","",""
"html-keyboard-response","161","418916","0.0-15.0-0.59","1973","2","""event"",""trial"",""time""
""fullscreenenter"",""1"",""2824""
","
","
","""event"",""trial"",""time""
""fullscreenenter"",""1"",""2824""
","
","","","","","","null","<div style=""font-size:60px;"">+</div>","null","","fixation","","","","","","","","",""
"memory-trial","162","421315","0.0-15.0-1.59","1973","2","""event"",""trial"",""time""
""fullscreenenter"",""1"",""2824""
","
","
","""event"",""trial"",""time""
""fullscreenenter"",""1"",""2824""
","
","","","","","","1388.5999999999767","images/cactus3.png","","","memory_trial","2","maybe_old","","","","","","",""
"html-keyboard-response","163","421820","0.0-15.0-0.60","1973","2","""event"",""trial"",""time""
""fullscreenenter"",""1"",""2824""
","
","
","""event"",""trial"",""time""
""fullscreenenter"",""1"",""2824""
","
","","","","","","null","<div style=""font-size:60px;"">+</div>","null","","fixation","","","","","","","","",""
"memory-trial","164","424235","0.0-15.0-1.60","1973","2","""event"",""trial"",""time""
""fullscreenenter"",""1"",""2824""
","
","
","""event"",""trial"",""time""
""fullscreenenter"",""1"",""2824""
","
","","","","","","1409.7000000000698","images/truck3.png","","","memory_trial","4","definitely_new","","","","","","",""
"html-keyboard-response","165","424740","0.0-15.0-0.61","1973","2","""event"",""trial"",""time""
""fullscreenenter"",""1"",""2824""
","
","
","""event"",""trial"",""time""
""fullscreenenter"",""1"",""2824""
","
","","","","","","null","<div style=""font-size:60px;"">+</div>","null","","fixation","","","","","","","","",""
"memory-trial","166","426955","0.0-15.0-1.61","1973","2","""event"",""trial"",""time""
""fullscreenenter"",""1"",""2824""
","
","
","""event"",""trial"",""time""
""fullscreenenter"",""1"",""2824""
","
","","","","","","1206.0999999999767","images/truck2.png","","","memory_trial","4","definitely_new","","","","","","",""
"html-keyboard-response","167","427460","0.0-15.0-0.62","1973","2","""event"",""trial"",""time""
""fullscreenenter"",""1"",""2824""
","
","
","""event"",""trial"",""time""
""fullscreenenter"",""1"",""2824""
","
","","","","","","null","<div style=""font-size:60px;"">+</div>","null","","fixation","","","","","","","","",""
"memory-trial","168","429868","0.0-15.0-1.62","1973","2","""event"",""trial"",""time""
""fullscreenenter"",""1"",""2824""
","
","
","""event"",""trial"",""time""
""fullscreenenter"",""1"",""2824""
","
","","","","","","1402.5999999999767","images/flower5.png","","","memory_trial","2","maybe_old","","","","","","",""
"html-keyboard-response","169","430374","0.0-15.0-0.63","1973","2","""event"",""trial"",""time""
""fullscreenenter"",""1"",""2824""
","
","
","""event"",""trial"",""time""
""fullscreenenter"",""1"",""2824""
","
","","","","","","null","<div style=""font-size:60px;"">+</div>","null","","fixation","","","","","","","","",""
"memory-trial","170","432159","0.0-15.0-1.63","1973","2","""event"",""trial"",""time""
""fullscreenenter"",""1"",""2824""
","
","
","""event"",""trial"",""time""
""fullscreenenter"",""1"",""2824""
","
","","","","","","778.8000000000466","images/feline1.png","","","memory_trial","1","definitely_old","","","","","","",""
"html-keyboard-response","171","432664","0.0-15.0-0.64","1973","2","""event"",""trial"",""time""
""fullscreenenter"",""1"",""2824""
","
","
","""event"",""trial"",""time""
""fullscreenenter"",""1"",""2824""
","
","","","","","","null","<div style=""font-size:60px;"">+</div>","null","","fixation","","","","","","","","",""
"memory-trial","172","434793","0.0-15.0-1.64","1973","2","""event"",""trial"",""time""
""fullscreenenter"",""1"",""2824""
","
","
","""event"",""trial"",""time""
""fullscreenenter"",""1"",""2824""
","
","","","","","","1124.2000000000698","images/straw1.png","","","memory_trial","1","definitely_old","","","","","","",""
"html-keyboard-response","173","435298","0.0-15.0-0.65","1973","2","""event"",""trial"",""time""
""fullscreenenter"",""1"",""2824""
","
","
","""event"",""trial"",""time""
""fullscreenenter"",""1"",""2824""
","
","","","","","","null","<div style=""font-size:60px;"">+</div>","null","","fixation","","","","","","","","",""
"memory-trial","174","437413","0.0-15.0-1.65","1973","2","""event"",""trial"",""time""
""fullscreenenter"",""1"",""2824""
","
","
","""event"",""trial"",""time""
""fullscreenenter"",""1"",""2824""
","
","","","","","","1107.1000000000931","images/bed1.png","","","memory_trial","4","definitely_new","","","","","","",""
"html-keyboard-response","175","437918","0.0-15.0-0.66","1973","2","""event"",""trial"",""time""
""fullscreenenter"",""1"",""2824""
","
","
","""event"",""trial"",""time""
""fullscreenenter"",""1"",""2824""
","
","","","","","","null","<div style=""font-size:60px;"">+</div>","null","","fixation","","","","","","","","",""
"memory-trial","176","440980","0.0-15.0-1.66","1973","2","""event"",""trial"",""time""
""fullscreenenter"",""1"",""2824""
","
","
","""event"",""trial"",""time""
""fullscreenenter"",""1"",""2824""
","
","","","","","","2056.5","images/orange5.png","","","memory_trial","3","maybe_new","","","","","","",""
"html-keyboard-response","177","441487","0.0-15.0-0.67","1973","2","""event"",""trial"",""time""
""fullscreenenter"",""1"",""2824""
","
","
","""event"",""trial"",""time""
""fullscreenenter"",""1"",""2824""
","
","","","","","","null","<div style=""font-size:60px;"">+</div>","null","","fixation","","","","","","","","",""
"memory-trial","178","445743","0.0-15.0-1.67","1973","2","""event"",""trial"",""time""
""fullscreenenter"",""1"",""2824""
","
","
","""event"",""trial"",""time""
""fullscreenenter"",""1"",""2824""
","
","","","","","","3251.0999999999767","images/orange3.png","","","memory_trial","4","definitely_new","","","","","","",""
"html-keyboard-response","179","446250","0.0-15.0-0.68","1973","2","""event"",""trial"",""time""
""fullscreenenter"",""1"",""2824""
","
","
","""event"",""trial"",""time""
""fullscreenenter"",""1"",""2824""
","
","","","","","","null","<div style=""font-size:60px;"">+</div>","null","","fixation","","","","","","","","",""
"memory-trial","180","448377","0.0-15.0-1.68","1973","2","""event"",""trial"",""time""
""fullscreenenter"",""1"",""2824""
","
","
","""event"",""trial"",""time""
""fullscreenenter"",""1"",""2824""
","
","","","","","","1110.4000000000233","images/goat1.png","","","memory_trial","1","definitely_old","","","","","","",""
"html-keyboard-response","181","448885","0.0-15.0-0.69","1973","2","""event"",""trial"",""time""
""fullscreenenter"",""1"",""2824""
","
","
","""event"",""trial"",""time""
""fullscreenenter"",""1"",""2824""
","
","","","","","","null","<div style=""font-size:60px;"">+</div>","null","","fixation","","","","","","","","",""
"memory-trial","182","451287","0.0-15.0-1.69","1973","2","""event"",""trial"",""time""
""fullscreenenter"",""1"",""2824""
","
","
","""event"",""trial"",""time""
""fullscreenenter"",""1"",""2824""
","
","","","","","","1392.9000000000233","images/rabbit2.png","","","memory_trial","2","maybe_old","","","","","","",""
"html-keyboard-response","183","451792","0.0-15.0-0.70","1973","2","""event"",""trial"",""time""
""fullscreenenter"",""1"",""2824""
","
","
","""event"",""trial"",""time""
""fullscreenenter"",""1"",""2824""
","
","","","","","","null","<div style=""font-size:60px;"">+</div>","null","","fixation","","","","","","","","",""
"memory-trial","184","455512","0.0-15.0-1.70","1973","2","""event"",""trial"",""time""
""fullscreenenter"",""1"",""2824""
","
","
","""event"",""trial"",""time""
""fullscreenenter"",""1"",""2824""
","
","","","","","","2712.5999999999767","images/flower4.png","","","memory_trial","4","definitely_new","","","","","","",""
"html-keyboard-response","185","456017","0.0-15.0-0.71","1973","2","""event"",""trial"",""time""
""fullscreenenter"",""1"",""2824""
","
","
","""event"",""trial"",""time""
""fullscreenenter"",""1"",""2824""
","
","","","","","","null","<div style=""font-size:60px;"">+</div>","null","","fixation","","","","","","","","",""
"memory-trial","186","457994","0.0-15.0-1.71","1973","2","""event"",""trial"",""time""
""fullscreenenter"",""1"",""2824""
","
","
","""event"",""trial"",""time""
""fullscreenenter"",""1"",""2824""
","
","","","","","","921","images/cactus1.png","","","memory_trial","3","maybe_new","","","","","","",""
"html-keyboard-response","187","458498","0.0-15.0-0.72","1973","2","""event"",""trial"",""time""
""fullscreenenter"",""1"",""2824""
","
","
","""event"",""trial"",""time""
""fullscreenenter"",""1"",""2824""
","
","","","","","","null","<div style=""font-size:60px;"">+</div>","null","","fixation","","","","","","","","",""
"memory-trial","188","460370","0.0-15.0-1.72","1973","2","""event"",""trial"",""time""
""fullscreenenter"",""1"",""2824""
","
","
","""event"",""trial"",""time""
""fullscreenenter"",""1"",""2824""
","
","","","","","","857.3999999999069","images/tree5.png","","","memory_trial","4","definitely_new","","","","","","",""
"html-keyboard-response","189","460874","0.0-15.0-0.73","1973","2","""event"",""trial"",""time""
""fullscreenenter"",""1"",""2824""
","
","
","""event"",""trial"",""time""
""fullscreenenter"",""1"",""2824""
","
","","","","","","null","<div style=""font-size:60px;"">+</div>","null","","fixation","","","","","","","","",""
"memory-trial","190","463209","0.0-15.0-1.73","1973","2","""event"",""trial"",""time""
""fullscreenenter"",""1"",""2824""
","
","
","""event"",""trial"",""time""
""fullscreenenter"",""1"",""2824""
","
","","","","","","1326.7000000000698","images/sofa2.png","","","memory_trial","4","definitely_new","","","","","","",""
"html-keyboard-response","191","463716","0.0-15.0-0.74","1973","2","""event"",""trial"",""time""
""fullscreenenter"",""1"",""2824""
","
","
","""event"",""trial"",""time""
""fullscreenenter"",""1"",""2824""
","
","","","","","","null","<div style=""font-size:60px;"">+</div>","null","","fixation","","","","","","","","",""
"memory-trial","192","466131","0.0-15.0-1.74","1973","2","""event"",""trial"",""time""
""fullscreenenter"",""1"",""2824""
","
","
","""event"",""trial"",""time""
""fullscreenenter"",""1"",""2824""
","
","","","","","","1405.9000000000233","images/train1.png","","","memory_trial","3","maybe_new","","","","","","",""
"html-keyboard-response","193","466644","0.0-15.0-0.75","1973","2","""event"",""trial"",""time""
""fullscreenenter"",""1"",""2824""
","
","
","""event"",""trial"",""time""
""fullscreenenter"",""1"",""2824""
","
","","","","","","null","<div style=""font-size:60px;"">+</div>","null","","fixation","","","","","","","","",""
"memory-trial","194","469084","0.0-15.0-1.75","1973","2","""event"",""trial"",""time""
""fullscreenenter"",""1"",""2824""
","
","
","""event"",""trial"",""time""
""fullscreenenter"",""1"",""2824""
","
","","","","","","1430.4000000000233","images/rabbit5.png","","","memory_trial","1","definitely_old","","","","","","",""
"html-keyboard-response","195","469589","0.0-15.0-0.76","1973","2","""event"",""trial"",""time""
""fullscreenenter"",""1"",""2824""
","
","
","""event"",""trial"",""time""
""fullscreenenter"",""1"",""2824""
","
","","","","","","null","<div style=""font-size:60px;"">+</div>","null","","fixation","","","","","","","","",""
"memory-trial","196","472713","0.0-15.0-1.76","1973","2","""event"",""trial"",""time""
""fullscreenenter"",""1"",""2824""
","
","
","""event"",""trial"",""time""
""fullscreenenter"",""1"",""2824""
","
","","","","","","2114","images/sheep2.png","","","memory_trial","2","maybe_old","","","","","","",""
"html-keyboard-response","197","473218","0.0-15.0-0.77","1973","2","""event"",""trial"",""time""
""fullscreenenter"",""1"",""2824""
","
","
","""event"",""trial"",""time""
""fullscreenenter"",""1"",""2824""
","
","","","","","","null","<div style=""font-size:60px;"">+</div>","null","","fixation","","","","","","","","",""
"memory-trial","198","475304","0.0-15.0-1.77","1973","2","""event"",""trial"",""time""
""fullscreenenter"",""1"",""2824""
","
","
","""event"",""trial"",""time""
""fullscreenenter"",""1"",""2824""
","
","","","","","","1076.0999999999767","images/banana2.png","","","memory_trial","4","definitely_new","","","","","","",""
"html-keyboard-response","199","475809","0.0-15.0-0.78","1973","2","""event"",""trial"",""time""
""fullscreenenter"",""1"",""2824""
","
","
","""event"",""trial"",""time""
""fullscreenenter"",""1"",""2824""
","
","","","","","","null","<div style=""font-size:60px;"">+</div>","null","","fixation","","","","","","","","",""
"memory-trial","200","477858","0.0-15.0-1.78","1973","2","""event"",""trial"",""time""
""fullscreenenter"",""1"",""2824""
","
","
","""event"",""trial"",""time""
""fullscreenenter"",""1"",""2824""
","
","","","","","","1038.7999999999302","images/train3.png","","","memory_trial","3","maybe_new","","","","","","",""
"html-keyboard-response","201","478366","0.0-15.0-0.79","1973","2","""event"",""trial"",""time""
""fullscreenenter"",""1"",""2824""
","
","
","""event"",""trial"",""time""
""fullscreenenter"",""1"",""2824""
","
","","","","","","null","<div style=""font-size:60px;"">+</div>","null","","fixation","","","","","","","","",""
"memory-trial","202","480375","0.0-15.0-1.79","1973","2","""event"",""trial"",""time""
""fullscreenenter"",""1"",""2824""
","
","
","""event"",""trial"",""time""
""fullscreenenter"",""1"",""2824""
","
","","","","","","996.5","images/train4.png","","","memory_trial","4","definitely_new","","","","","","",""
"html-keyboard-response","203","480888","0.0-15.0-0.80","1973","2","""event"",""trial"",""time""
""fullscreenenter"",""1"",""2824""
","
","
","""event"",""trial"",""time""
""fullscreenenter"",""1"",""2824""
","
","","","","","","null","<div style=""font-size:60px;"">+</div>","null","","fixation","","","","","","","","",""
"memory-trial","204","482885","0.0-15.0-1.80","1973","2","""event"",""trial"",""time""
""fullscreenenter"",""1"",""2824""
","
","
","""event"",""trial"",""time""
""fullscreenenter"",""1"",""2824""
","
","","","","","","990.8000000000466","images/rabbit3.png","","","memory_trial","1","definitely_old","","","","","","",""
"html-keyboard-response","205","483388","0.0-15.0-0.81","1973","2","""event"",""trial"",""time""
""fullscreenenter"",""1"",""2824""
","
","
","""event"",""trial"",""time""
""fullscreenenter"",""1"",""2824""
","
","","","","","","null","<div style=""font-size:60px;"">+</div>","null","","fixation","","","","","","","","",""
"memory-trial","206","485447","0.0-15.0-1.81","1973","2","""event"",""trial"",""time""
""fullscreenenter"",""1"",""2824""
","
","
","""event"",""trial"",""time""
""fullscreenenter"",""1"",""2824""
","
","","","","","","1051.5999999999767","images/horse5.png","","","memory_trial","2","maybe_old","","","","","","",""
"html-keyboard-response","207","485951","0.0-15.0-0.82","1973","2","""event"",""trial"",""time""
""fullscreenenter"",""1"",""2824""
","
","
","""event"",""trial"",""time""
""fullscreenenter"",""1"",""2824""
","
","","","","","","null","<div style=""font-size:60px;"">+</div>","null","","fixation","","","","","","","","",""
"memory-trial","208","488517","0.0-15.0-1.82","1973","2","""event"",""trial"",""time""
""fullscreenenter"",""1"",""2824""
","
","
","""event"",""trial"",""time""
""fullscreenenter"",""1"",""2824""
","
","","","","","","1556.6000000000931","images/table3.png","","","memory_trial","4","definitely_new","","","","","","",""
"html-keyboard-response","209","489020","0.0-15.0-0.83","1973","2","""event"",""trial"",""time""
""fullscreenenter"",""1"",""2824""
","
","
","""event"",""trial"",""time""
""fullscreenenter"",""1"",""2824""
","
","","","","","","null","<div style=""font-size:60px;"">+</div>","null","","fixation","","","","","","","","",""
"memory-trial","210","491473","0.0-15.0-1.83","1973","2","""event"",""trial"",""time""
""fullscreenenter"",""1"",""2824""
","
","
","""event"",""trial"",""time""
""fullscreenenter"",""1"",""2824""
","
","","","","","","1445.3999999999069","images/rodent2.png","","","memory_trial","3","maybe_new","","","","","","",""
"html-keyboard-response","211","491980","0.0-15.0-0.84","1973","2","""event"",""trial"",""time""
""fullscreenenter"",""1"",""2824""
","
","
","""event"",""trial"",""time""
""fullscreenenter"",""1"",""2824""
","
","","","","","","null","<div style=""font-size:60px;"">+</div>","null","","fixation","","","","","","","","",""
"memory-trial","212","494899","0.0-15.0-1.84","1973","2","""event"",""trial"",""time""
""fullscreenenter"",""1"",""2824""
","
","
","""event"",""trial"",""time""
""fullscreenenter"",""1"",""2824""
","
","","","","","","1913.5","images/orange4.png","","","memory_trial","4","definitely_new","","","","","","",""
"html-keyboard-response","213","495404","0.0-15.0-0.85","1973","2","""event"",""trial"",""time""
""fullscreenenter"",""1"",""2824""
","
","
","""event"",""trial"",""time""
""fullscreenenter"",""1"",""2824""
","
","","","","","","null","<div style=""font-size:60px;"">+</div>","null","","fixation","","","","","","","","",""
"memory-trial","214","498783","0.0-15.0-1.85","1973","2","""event"",""trial"",""time""
""fullscreenenter"",""1"",""2824""
","
","
","""event"",""trial"",""time""
""fullscreenenter"",""1"",""2824""
","
","","","","","","2372.4000000000233","images/bush5.png","","","memory_trial","1","definitely_old","","","","","","",""
"html-keyboard-response","215","499288","0.0-15.0-0.86","1973","2","""event"",""trial"",""time""
""fullscreenenter"",""1"",""2824""
","
","
","""event"",""trial"",""time""
""fullscreenenter"",""1"",""2824""
","
","","","","","","null","<div style=""font-size:60px;"">+</div>","null","","fixation","","","","","","","","",""
"memory-trial","216","501576","0.0-15.0-1.86","1973","2","""event"",""trial"",""time""
""fullscreenenter"",""1"",""2824""
","
","
","""event"",""trial"",""time""
""fullscreenenter"",""1"",""2824""
","
","","","","","","1273.0999999999767","images/horse1.png","","","memory_trial","4","definitely_new","","","","","","",""
"html-keyboard-response","217","502087","0.0-15.0-0.87","1973","2","""event"",""trial"",""time""
""fullscreenenter"",""1"",""2824""
","
","
","""event"",""trial"",""time""
""fullscreenenter"",""1"",""2824""
","
","","","","","","null","<div style=""font-size:60px;"">+</div>","null","","fixation","","","","","","","","",""
"memory-trial","218","504656","0.0-15.0-1.87","1973","2","""event"",""trial"",""time""
""fullscreenenter"",""1"",""2824""
","
","
","""event"",""trial"",""time""
""fullscreenenter"",""1"",""2824""
","
","","","","","","1554.1999999999534","images/dog5.png","","","memory_trial","4","definitely_new","","","","","","",""
"html-keyboard-response","219","505161","0.0-15.0-0.88","1973","2","""event"",""trial"",""time""
""fullscreenenter"",""1"",""2824""
","
","
","""event"",""trial"",""time""
""fullscreenenter"",""1"",""2824""
","
","","","","","","null","<div style=""font-size:60px;"">+</div>","null","","fixation","","","","","","","","",""
"memory-trial","220","509745","0.0-15.0-1.88","1973","2","""event"",""trial"",""time""
""fullscreenenter"",""1"",""2824""
","
","
","""event"",""trial"",""time""
""fullscreenenter"",""1"",""2824""
","
","","","","","","3576.79999999993","images/plane1.png","","","memory_trial","4","definitely_new","","","","","","",""
"html-keyboard-response","221","510250","0.0-15.0-0.89","1973","2","""event"",""trial"",""time""
""fullscreenenter"",""1"",""2824""
","
","
","""event"",""trial"",""time""
""fullscreenenter"",""1"",""2824""
","
","","","","","","null","<div style=""font-size:60px;"">+</div>","null","","fixation","","","","","","","","",""
"memory-trial","222","513562","0.0-15.0-1.89","1973","2","""event"",""trial"",""time""
""fullscreenenter"",""1"",""2824""
","
","
","""event"",""trial"",""time""
""fullscreenenter"",""1"",""2824""
","
","","","","","","2302.5","images/apple3.png","","","memory_trial","1","definitely_old","","","","","","",""
"html-keyboard-response","223","514066","0.0-15.0-0.90","1973","2","""event"",""trial"",""time""
""fullscreenenter"",""1"",""2824""
","
","
","""event"",""trial"",""time""
""fullscreenenter"",""1"",""2824""
","
","","","","","","null","<div style=""font-size:60px;"">+</div>","null","","fixation","","","","","","","","",""
"memory-trial","224","517632","0.0-15.0-1.90","1973","2","""event"",""trial"",""time""
""fullscreenenter"",""1"",""2824""
","
","
","""event"",""trial"",""time""
""fullscreenenter"",""1"",""2824""
","
","","","","","","2557.1999999999534","images/orange2.png","","","memory_trial","4","definitely_new","","","","","","",""
"html-keyboard-response","225","518135","0.0-15.0-0.91","1973","2","""event"",""trial"",""time""
""fullscreenenter"",""1"",""2824""
","
","
","""event"",""trial"",""time""
""fullscreenenter"",""1"",""2824""
","
","","","","","","null","<div style=""font-size:60px;"">+</div>","null","","fixation","","","","","","","","",""
"memory-trial","226","521027","0.0-15.0-1.91","1973","2","""event"",""trial"",""time""
""fullscreenenter"",""1"",""2824""
","
","
","""event"",""trial"",""time""
""fullscreenenter"",""1"",""2824""
","
","","","","","","1883.4000000000233","images/sofa1.png","","","memory_trial","3","maybe_new","","","","","","",""
"html-keyboard-response","227","521533","0.0-15.0-0.92","1973","2","""event"",""trial"",""time""
""fullscreenenter"",""1"",""2824""
","
","
","""event"",""trial"",""time""
""fullscreenenter"",""1"",""2824""
","
","","","","","","null","<div style=""font-size:60px;"">+</div>","null","","fixation","","","","","","","","",""
"memory-trial","228","525789","0.0-15.0-1.92","1973","2","""event"",""trial"",""time""
""fullscreenenter"",""1"",""2824""
","
","
","""event"",""trial"",""time""
""fullscreenenter"",""1"",""2824""
","
","","","","","","3249.20000000007","images/bush2.png","","","memory_trial","4","definitely_new","","","","","","",""
"html-keyboard-response","229","526294","0.0-15.0-0.93","1973","2","""event"",""trial"",""time""
""fullscreenenter"",""1"",""2824""
","
","
","""event"",""trial"",""time""
""fullscreenenter"",""1"",""2824""
","
","","","","","","null","<div style=""font-size:60px;"">+</div>","null","","fixation","","","","","","","","",""
"memory-trial","230","528222","0.0-15.0-1.93","1973","2","""event"",""trial"",""time""
""fullscreenenter"",""1"",""2824""
","
","
","""event"",""trial"",""time""
""fullscreenenter"",""1"",""2824""
","
","","","","","","920.4000000000233","images/goat4.png","","","memory_trial","1","definitely_old","","","","","","",""
"html-keyboard-response","231","528728","0.0-15.0-0.94","1973","2","""event"",""trial"",""time""
""fullscreenenter"",""1"",""2824""
","
","
","""event"",""trial"",""time""
""fullscreenenter"",""1"",""2824""
","
","","","","","","null","<div style=""font-size:60px;"">+</div>","null","","fixation","","","","","","","","",""
"memory-trial","232","531018","0.0-15.0-1.94","1973","2","""event"",""trial"",""time""
""fullscreenenter"",""1"",""2824""
","
","
","""event"",""trial"",""time""
""fullscreenenter"",""1"",""2824""
","
","","","","","","1282","images/sheep4.png","","","memory_trial","2","maybe_old","","","","","","",""
"html-keyboard-response","233","531523","0.0-15.0-0.95","1973","2","""event"",""trial"",""time""
""fullscreenenter"",""1"",""2824""
","
","
","""event"",""trial"",""time""
""fullscreenenter"",""1"",""2824""
","
","","","","","","null","<div style=""font-size:60px;"">+</div>","null","","fixation","","","","","","","","",""
"memory-trial","234","533453","0.0-15.0-1.95","1973","2","""event"",""trial"",""time""
""fullscreenenter"",""1"",""2824""
","
","
","""event"",""trial"",""time""
""fullscreenenter"",""1"",""2824""
","
","","","","","","921","images/goat5.png","","","memory_trial","1","definitely_old","","","","","","",""
"html-keyboard-response","235","533982","0.0-15.0-0.96","1973","2","""event"",""trial"",""time""
""fullscreenenter"",""1"",""2824""
","
","
","""event"",""trial"",""time""
""fullscreenenter"",""1"",""2824""
","
","","","","","","null","<div style=""font-size:60px;"">+</div>","null","","fixation","","","","","","","","",""
"memory-trial","236","536597","0.0-15.0-1.96","1973","2","""event"",""trial"",""time""
""fullscreenenter"",""1"",""2824""
","
","
","""event"",""trial"",""time""
""fullscreenenter"",""1"",""2824""
","
","","","","","","1609.6000000000931","images/dog4.png","","","memory_trial","4","definitely_new","","","","","","",""
"html-keyboard-response","237","537102","0.0-15.0-0.97","1973","2","""event"",""trial"",""time""
""fullscreenenter"",""1"",""2824""
","
","
","""event"",""trial"",""time""
""fullscreenenter"",""1"",""2824""
","
","","","","","","null","<div style=""font-size:60px;"">+</div>","null","","fixation","","","","","","","","",""
"memory-trial","238","539948","0.0-15.0-1.97","1973","2","""event"",""trial"",""time""
""fullscreenenter"",""1"",""2824""
","
","
","""event"",""trial"",""time""
""fullscreenenter"",""1"",""2824""
","
","","","","","","1838.1999999999534","images/plane5.png","","","memory_trial","4","definitely_new","","","","","","",""
"html-keyboard-response","239","540452","0.0-15.0-0.98","1973","2","""event"",""trial"",""time""
""fullscreenenter"",""1"",""2824""
","
","
","""event"",""trial"",""time""
""fullscreenenter"",""1"",""2824""
","
","","","","","","null","<div style=""font-size:60px;"">+</div>","null","","fixation","","","","","","","","",""
"memory-trial","240","544528","0.0-15.0-1.98","1973","2","""event"",""trial"",""time""
""fullscreenenter"",""1"",""2824""
","
","
","""event"",""trial"",""time""
""fullscreenenter"",""1"",""2824""
","
","","","","","","3064.79999999993","images/goat2.png","","","memory_trial","3","maybe_new","","","","","","",""
"html-keyboard-response","241","545032","0.0-15.0-0.99","1973","2","""event"",""trial"",""time""
""fullscreenenter"",""1"",""2824""
","
","
","""event"",""trial"",""time""
""fullscreenenter"",""1"",""2824""
","
","","","","","","null","<div style=""font-size:60px;"">+</div>","null","","fixation","","","","","","","","",""
"memory-trial","242","547123","0.0-15.0-1.99","1973","2","""event"",""trial"",""time""
""fullscreenenter"",""1"",""2824""
","
","
","""event"",""trial"",""time""
""fullscreenenter"",""1"",""2824""
","
","","","","","","1084.2999999999302","images/bed3.png","","","memory_trial","4","definitely_new","","","","","","",""
"html-keyboard-response","243","547627","0.0-15.0-0.100","1973","2","""event"",""trial"",""time""
""fullscreenenter"",""1"",""2824""
","
","
","""event"",""trial"",""time""
""fullscreenenter"",""1"",""2824""
","
","","","","","","null","<div style=""font-size:60px;"">+</div>","null","","fixation","","","","","","","","",""
"memory-trial","244","549870","0.0-15.0-1.100","1973","2","""event"",""trial"",""time""
""fullscreenenter"",""1"",""2824""
","
","
","""event"",""trial"",""time""
""fullscreenenter"",""1"",""2824""
","
","","","","","","1235.5","images/banana4.png","","","memory_trial","4","definitely_new","","","","","","",""
"html-keyboard-response","245","550375","0.0-15.0-0.101","1973","2","""event"",""trial"",""time""
""fullscreenenter"",""1"",""2824""
","
","
","""event"",""trial"",""time""
""fullscreenenter"",""1"",""2824""
","
","","","","","","null","<div style=""font-size:60px;"">+</div>","null","","fixation","","","","","","","","",""
"memory-trial","246","553040","0.0-15.0-1.101","1973","2","""event"",""trial"",""time""
""fullscreenenter"",""1"",""2824""
","
","
","""event"",""trial"",""time""
""fullscreenenter"",""1"",""2824""
","
","","","","","","1654.5999999999767","images/rodent3.png","","","memory_trial","2","maybe_old","","","","","","",""
"html-button-response","247","592664","0.0-15.0-2.101-0.101","1973","2","""event"",""trial"",""time""
""fullscreenenter"",""1"",""2824""
","
","
","""event"",""trial"",""time""
""fullscreenenter"",""1"",""2824""
","
","","","","","","39620.5","<p> Take a break! </p><p> Click the button to continue. </p>","0","","break","","","","","","","","",""
"html-keyboard-response","248","593167","0.0-15.0-0.102","1973","2","""event"",""trial"",""time""
""fullscreenenter"",""1"",""2824""
","
","
","""event"",""trial"",""time""
""fullscreenenter"",""1"",""2824""
","
","","","","","","null","<div style=""font-size:60px;"">+</div>","null","","fixation","","","","","","","","",""
"memory-trial","249","595447","0.0-15.0-1.102","1973","2","""event"",""trial"",""time""
""fullscreenenter"",""1"",""2824""
","
","
","""event"",""trial"",""time""
""fullscreenenter"",""1"",""2824""
","
","","","","","","1273.3000000000466","images/truck1.png","","","memory_trial","4","definitely_new","","","","","","",""
"html-keyboard-response","250","595952","0.0-15.0-0.103","1973","2","""event"",""trial"",""time""
""fullscreenenter"",""1"",""2824""
","
","
","""event"",""trial"",""time""
""fullscreenenter"",""1"",""2824""
","
","","","","","","null","<div style=""font-size:60px;"">+</div>","null","","fixation","","","","","","","","",""
"memory-trial","251","598792","0.0-15.0-1.103","1973","2","""event"",""trial"",""time""
""fullscreenenter"",""1"",""2824""
","
","
","""event"",""trial"",""time""
""fullscreenenter"",""1"",""2824""
","
","","","","","","1835.7000000000698","images/sheep1.png","","","memory_trial","3","maybe_new","","","","","","",""
"html-keyboard-response","252","599297","0.0-15.0-0.104","1973","2","""event"",""trial"",""time""
""fullscreenenter"",""1"",""2824""
","
","
","""event"",""trial"",""time""
""fullscreenenter"",""1"",""2824""
","
","","","","","","null","<div style=""font-size:60px;"">+</div>","null","","fixation","","","","","","","","",""
"memory-trial","253","601222","0.0-15.0-1.104","1973","2","""event"",""trial"",""time""
""fullscreenenter"",""1"",""2824""
","
","
","""event"",""trial"",""time""
""fullscreenenter"",""1"",""2824""
","
","","","","","","917.7999999999302","images/feline3.png","","","memory_trial","1","definitely_old","","","","","","",""
"html-keyboard-response","254","601727","0.0-15.0-0.105","1973","2","""event"",""trial"",""time""
""fullscreenenter"",""1"",""2824""
","
","
","""event"",""trial"",""time""
""fullscreenenter"",""1"",""2824""
","
","","","","","","null","<div style=""font-size:60px;"">+</div>","null","","fixation","","","","","","","","",""
"memory-trial","255","604477","0.0-15.0-1.105","1973","2","""event"",""trial"",""time""
""fullscreenenter"",""1"",""2824""
","
","
","""event"",""trial"",""time""
""fullscreenenter"",""1"",""2824""
","
","","","","","","1739.3000000000466","images/boat1.png","","","memory_trial","4","definitely_new","","","","","","",""
"html-keyboard-response","256","604981","0.0-15.0-0.106","1973","2","""event"",""trial"",""time""
""fullscreenenter"",""1"",""2824""
","
","
","""event"",""trial"",""time""
""fullscreenenter"",""1"",""2824""
","
","","","","","","null","<div style=""font-size:60px;"">+</div>","null","","fixation","","","","","","","","",""
"memory-trial","257","608194","0.0-15.0-1.106","1973","2","""event"",""trial"",""time""
""fullscreenenter"",""1"",""2824""
","
","
","""event"",""trial"",""time""
""fullscreenenter"",""1"",""2824""
","
","","","","","","2204.5999999999767","images/bush3.png","","","memory_trial","1","definitely_old","","","","","","",""
"html-keyboard-response","258","608699","0.0-15.0-0.107","1973","2","""event"",""trial"",""time""
""fullscreenenter"",""1"",""2824""
","
","
","""event"",""trial"",""time""
""fullscreenenter"",""1"",""2824""
","
","","","","","","null","<div style=""font-size:60px;"">+</div>","null","","fixation","","","","","","","","",""
"memory-trial","259","610775","0.0-15.0-1.107","1973","2","""event"",""trial"",""time""
""fullscreenenter"",""1"",""2824""
","
","
","""event"",""trial"",""time""
""fullscreenenter"",""1"",""2824""
","
","","","","","","1068.2000000000698","images/dog1.png","","","memory_trial","4","definitely_new","","","","","","",""
"html-keyboard-response","260","611280","0.0-15.0-0.108","1973","2","""event"",""trial"",""time""
""fullscreenenter"",""1"",""2824""
","
","
","""event"",""trial"",""time""
""fullscreenenter"",""1"",""2824""
","
","","","","","","null","<div style=""font-size:60px;"">+</div>","null","","fixation","","","","","","","","",""
"memory-trial","261","613796","0.0-15.0-1.108","1973","2","""event"",""trial"",""time""
""fullscreenenter"",""1"",""2824""
","
","
","""event"",""trial"",""time""
""fullscreenenter"",""1"",""2824""
","
","","","","","","1511.5","images/apple1.png","","","memory_trial","1","definitely_old","","","","","","",""
"html-keyboard-response","262","614301","0.0-15.0-0.109","1973","2","""event"",""trial"",""time""
""fullscreenenter"",""1"",""2824""
","
","
","""event"",""trial"",""time""
""fullscreenenter"",""1"",""2824""
","
","","","","","","null","<div style=""font-size:60px;"">+</div>","null","","fixation","","","","","","","","",""
"memory-trial","263","616172","0.0-15.0-1.109","1973","2","""event"",""trial"",""time""
""fullscreenenter"",""1"",""2824""
","
","
","""event"",""trial"",""time""
""fullscreenenter"",""1"",""2824""
","
","","","","","","865","images/rodent5.png","","","memory_trial","1","definitely_old","","","","","","",""
"html-keyboard-response","264","616677","0.0-15.0-0.110","1973","2","""event"",""trial"",""time""
""fullscreenenter"",""1"",""2824""
","
","
","""event"",""trial"",""time""
""fullscreenenter"",""1"",""2824""
","
","","","","","","null","<div style=""font-size:60px;"">+</div>","null","","fixation","","","","","","","","",""
"memory-trial","265","618457","0.0-15.0-1.110","1973","2","""event"",""trial"",""time""
""fullscreenenter"",""1"",""2824""
","
","
","""event"",""trial"",""time""
""fullscreenenter"",""1"",""2824""
","
","","","","","","773.3000000000466","images/chair2.png","","","memory_trial","4","definitely_new","","","","","","",""
"html-keyboard-response","266","618962","0.0-15.0-0.111","1973","2","""event"",""trial"",""time""
""fullscreenenter"",""1"",""2824""
","
","
","""event"",""trial"",""time""
""fullscreenenter"",""1"",""2824""
","
","","","","","","null","<div style=""font-size:60px;"">+</div>","null","","fixation","","","","","","","","",""
"memory-trial","267","621617","0.0-15.0-1.111","1973","2","""event"",""trial"",""time""
""fullscreenenter"",""1"",""2824""
","
","
","""event"",""trial"",""time""
""fullscreenenter"",""1"",""2824""
","
","","","","","","1649.8000000000466","images/table1.png","","","memory_trial","3","maybe_new","","","","","","",""
"html-keyboard-response","268","622122","0.0-15.0-0.112","1973","2","""event"",""trial"",""time""
""fullscreenenter"",""1"",""2824""
","
","
","""event"",""trial"",""time""
""fullscreenenter"",""1"",""2824""
","
","","","","","","null","<div style=""font-size:60px;"">+</div>","null","","fixation","","","","","","","","",""
"memory-trial","269","624193","0.0-15.0-1.112","1973","2","""event"",""trial"",""time""
""fullscreenenter"",""1"",""2824""
","
","
","""event"",""trial"",""time""
""fullscreenenter"",""1"",""2824""
","
","","","","","","1059.8999999999069","images/chair4.png","","","memory_trial","4","definitely_new","","","","","","",""
"html-keyboard-response","270","624697","0.0-15.0-0.113","1973","2","""event"",""trial"",""time""
""fullscreenenter"",""1"",""2824""
","
","
","""event"",""trial"",""time""
""fullscreenenter"",""1"",""2824""
","
","","","","","","null","<div style=""font-size:60px;"">+</div>","null","","fixation","","","","","","","","",""
"memory-trial","271","627332","0.0-15.0-1.113","1973","2","""event"",""trial"",""time""
""fullscreenenter"",""1"",""2824""
","
","
","""event"",""trial"",""time""
""fullscreenenter"",""1"",""2824""
","
","","","","","","1627.3999999999069","images/rabbit4.png","","","memory_trial","4","definitely_new","","","","","","",""
"html-keyboard-response","272","627837","0.0-15.0-0.114","1973","2","""event"",""trial"",""time""
""fullscreenenter"",""1"",""2824""
","
","
","""event"",""trial"",""time""
""fullscreenenter"",""1"",""2824""
","
","","","","","","null","<div style=""font-size:60px;"">+</div>","null","","fixation","","","","","","","","",""
"memory-trial","273","629662","0.0-15.0-1.114","1973","2","""event"",""trial"",""time""
""fullscreenenter"",""1"",""2824""
","
","
","""event"",""trial"",""time""
""fullscreenenter"",""1"",""2824""
","
","","","","","","817.5999999998603","images/dog2.png","","","memory_trial","4","definitely_new","","","","","","",""
"html-keyboard-response","274","630168","0.0-15.0-0.115","1973","2","""event"",""trial"",""time""
""fullscreenenter"",""1"",""2824""
","
","
","""event"",""trial"",""time""
""fullscreenenter"",""1"",""2824""
","
","","","","","","null","<div style=""font-size:60px;"">+</div>","null","","fixation","","","","","","","","",""
"memory-trial","275","632683","0.0-15.0-1.115","1973","2","""event"",""trial"",""time""
""fullscreenenter"",""1"",""2824""
","
","
","""event"",""trial"",""time""
""fullscreenenter"",""1"",""2824""
","
","","","","","","1510.4000000001397","images/straw5.png","","","memory_trial","1","definitely_old","","","","","","",""
"html-keyboard-response","276","633188","0.0-15.0-0.116","1973","2","""event"",""trial"",""time""
""fullscreenenter"",""1"",""2824""
","
","
","""event"",""trial"",""time""
""fullscreenenter"",""1"",""2824""
","
","","","","","","null","<div style=""font-size:60px;"">+</div>","null","","fixation","","","","","","","","",""
"memory-trial","277","635603","0.0-15.0-1.116","1973","2","""event"",""trial"",""time""
""fullscreenenter"",""1"",""2824""
","
","
","""event"",""trial"",""time""
""fullscreenenter"",""1"",""2824""
","
","","","","","","1411","images/flower1.png","","","memory_trial","2","maybe_old","","","","","","",""
"html-keyboard-response","278","636108","0.0-15.0-0.117","1973","2","""event"",""trial"",""time""
""fullscreenenter"",""1"",""2824""
","
","
","""event"",""trial"",""time""
""fullscreenenter"",""1"",""2824""
","
","","","","","","null","<div style=""font-size:60px;"">+</div>","null","","fixation","","","","","","","","",""
"memory-trial","279","638243","0.0-15.0-1.117","1973","2","""event"",""trial"",""time""
""fullscreenenter"",""1"",""2824""
","
","
","""event"",""trial"",""time""
""fullscreenenter"",""1"",""2824""
","
","","","","","","1125.1999999999534","images/chair3.png","","","memory_trial","4","definitely_new","","","","","","",""
"html-keyboard-response","280","638748","0.0-15.0-0.118","1973","2","""event"",""trial"",""time""
""fullscreenenter"",""1"",""2824""
","
","
","""event"",""trial"",""time""
""fullscreenenter"",""1"",""2824""
","
","","","","","","null","<div style=""font-size:60px;"">+</div>","null","","fixation","","","","","","","","",""
"memory-trial","281","641050","0.0-15.0-1.118","1973","2","""event"",""trial"",""time""
""fullscreenenter"",""1"",""2824""
","
","
","""event"",""trial"",""time""
""fullscreenenter"",""1"",""2824""
","
","","","","","","1293.5","images/tree3.png","","","memory_trial","4","definitely_new","","","","","","",""
"html-keyboard-response","282","641555","0.0-15.0-0.119","1973","2","""event"",""trial"",""time""
""fullscreenenter"",""1"",""2824""
","
","
","""event"",""trial"",""time""
""fullscreenenter"",""1"",""2824""
","
","","","","","","null","<div style=""font-size:60px;"">+</div>","null","","fixation","","","","","","","","",""
"memory-trial","283","643978","0.0-15.0-1.119","1973","2","""event"",""trial"",""time""
""fullscreenenter"",""1"",""2824""
","
","
","""event"",""trial"",""time""
""fullscreenenter"",""1"",""2824""
","
","","","","","","1414.6999999999534","images/flower3.png","","","memory_trial","4","definitely_new","","","","","","",""
"preload","284","666518","0.0-16.0","1973","2","""event"",""trial"",""time""
""fullscreenenter"",""1"",""2824""
","
","
","""event"",""trial"",""time""
""fullscreenenter"",""1"",""2824""
","
","true","false","[]","[]","[]","","","","","","","","","","","","","",""
"learning-instructions","285","672824","0.0-17.0-0.0-0.0-0.0","1973","2","""event"",""trial"",""time""
""fullscreenenter"",""1"",""2824""
","
","
","""event"",""trial"",""time""
""fullscreenenter"",""1"",""2824""
","
","","","","","","2927.3000000000466","<p> We're now going to ask you to buy fruit again. </p>","","0","instructions","","","","","","","","",""
"learning-instructions","286","678885","0.0-17.0-0.0-0.0-0.1","1973","2","""event"",""trial"",""time""
""fullscreenenter"",""1"",""2824""
","
","
","""event"",""trial"",""time""
""fullscreenenter"",""1"",""2824""
","
","","","","","","1208.6999999999534","<p> On each trial, you will see a fruit. Select the store where you think you can buy the fruit. </p>","","0","instructions","","","","","","","","",""
"learning-instructions","287","686710","0.0-17.0-0.0-0.0-0.2","1973","2","""event"",""trial"",""time""
""fullscreenenter"",""1"",""2824""
","
","
","""event"",""trial"",""time""
""fullscreenenter"",""1"",""2824""
","
","","","","","","762.6999999999534","<p> To make your selection, think about what you learned last week. You will NOT receive any feedback about your choice. </p>","","0","instructions","","","","","","","","",""
"learning-instructions","288","694977","0.0-17.0-0.0-0.0-0.3","1973","2","""event"",""trial"",""time""
""fullscreenenter"",""1"",""2824""
","
","
","""event"",""trial"",""time""
""fullscreenenter"",""1"",""2824""
","
","","","","","","664.7000000001863","<p> You should use the 1 key to select the store on the left, the 2 key to select the store in the middle, and the 3 key to select the store on the right. </p><br><div class=""choice-mem-instructions-grid""> <div class=""choice-mem-option""><img src=""images/fruit_choice1.png"" class=""choice-mem-option-img"" stage=""instructions"" position=""0"" ><div class=""choice-mem-option-text""> Press ""1."" </div></div><div class=""choice-mem-option""><img src=""images/fruit_choice2.png"" class=""choice-mem-option-img"" stage=""instructions"" position=""1"" ><div class=""choice-mem-option-text""> Press ""2."" </div></div><div class=""choice-mem-option""><img src=""images/fruit_choice3.png"" class=""choice-mem-option-img"" stage=""instructions"" position=""2"" ><div class=""choice-mem-option-text""> Press ""3."" </div></div></div>","","0","instructions","","","","","","","","",""
"learning-instructions","289","702046","0.0-17.0-0.0-0.0-0.4","1973","2","""event"",""trial"",""time""
""fullscreenenter"",""1"",""2824""
","
","
","""event"",""trial"",""time""
""fullscreenenter"",""1"",""2824""
","
","","","","","","800.3000000000466","<p> You will have 10 seconds to make each selection. Try to respond before time runs out! </p>","","0","instructions","","","","","","","","",""
"learning-instructions","290","705176","0.0-17.0-0.0-1.0","1973","2","""event"",""trial"",""time""
""fullscreenenter"",""1"",""2824""
","
","
","""event"",""trial"",""time""
""fullscreenenter"",""1"",""2824""
","
","","","","","","1060.0999999998603","<p> You are now ready to begin the game. </p>","","0","instructions","","","","","","","","",""
"html-keyboard-response","291","705791","0.0-17.0-0.0-2.0-0.0","1973","2","""event"",""trial"",""time""
""fullscreenenter"",""1"",""2824""
","
","
","""event"",""trial"",""time""
""fullscreenenter"",""1"",""2824""
","
","","","","","","null","<div style=""font-size:60px;"">+</div>","null","","fixation","","","","","","","","",""
"choice-memory-trial","292","707791","0.0-17.0-0.0-2.0-1.0","1973","2","""event"",""trial"",""time""
""fullscreenenter"",""1"",""2824""
","
","
","""event"",""trial"",""time""
""fullscreenenter"",""1"",""2824""
","
