"trial_type","trial_index","time_elapsed","internal_node_id","subject_id","task_version","interactions","blur_events","focus_events","fullscreenenter_events","fullscreenexit_events","success"
"pavlovia","0","2","0.0-0.0","1696","2","""event"",""trial"",""time""
""fullscreenenter"",""1"",""1448""
","
","
","""event"",""trial"",""time""
""fullscreenenter"",""1"",""1448""
","
",""
"fullscreen","1","2436","0.0-1.0","1696","2","""event"",""trial"",""time""
""fullscreenenter"",""1"",""1448""
""fullscreenexit"",""2"",""78393""
""blur"",""2"",""80969""
""focus"",""2"",""86298""
""blur"",""2"",""88109""
""focus"",""2"",""95094""
""blur"",""2"",""96487""
""focus"",""2"",""202472""
""blur"",""2"",""203156""
""focus"",""2"",""208428""
""blur"",""2"",""209918""
""focus"",""2"",""212354""
""blur"",""2"",""213526""
""focus"",""2"",""224605""
""blur"",""2"",""247452""
""focus"",""2"",""250042""
""blur"",""2"",""252084""
""focus"",""2"",""276523""
""blur"",""2"",""277538""
""focus"",""2"",""322706""
""blur"",""2"",""323915""
""focus"",""2"",""329259""
""blur"",""2"",""330449""
""focus"",""2"",""347450""
""blur"",""2"",""348313""
""focus"",""2"",""350991""
""blur"",""2"",""352664""
""focus"",""2"",""358418""
""blur"",""2"",""360061""
""focus"",""2"",""382142""
""blur"",""2"",""383144""
""focus"",""2"",""405787""
""blur"",""2"",""406851""
""focus"",""2"",""412646""
""blur"",""2"",""413780""
""focus"",""2"",""433037""
""blur"",""2"",""436497""
""focus"",""2"",""436504""
","""event"",""trial"",""time""
""blur"",""2"",""80969""
""blur"",""2"",""88109""
""blur"",""2"",""96487""
""blur"",""2"",""203156""
""blur"",""2"",""209918""
""blur"",""2"",""213526""
""blur"",""2"",""247452""
""blur"",""2"",""252084""
""blur"",""2"",""277538""
""blur"",""2"",""323915""
""blur"",""2"",""330449""
""blur"",""2"",""348313""
""blur"",""2"",""352664""
""blur"",""2"",""360061""
""blur"",""2"",""383144""
""blur"",""2"",""406851""
""blur"",""2"",""413780""
""blur"",""2"",""436497""
","""event"",""trial"",""time""
""focus"",""2"",""86298""
""focus"",""2"",""95094""
""focus"",""2"",""202472""
""focus"",""2"",""208428""
""focus"",""2"",""212354""
""focus"",""2"",""224605""
""focus"",""2"",""250042""
""focus"",""2"",""276523""
""focus"",""2"",""322706""
""focus"",""2"",""329259""
""focus"",""2"",""347450""
""focus"",""2"",""350991""
""focus"",""2"",""358418""
""focus"",""2"",""382142""
""focus"",""2"",""405787""
""focus"",""2"",""412646""
""focus"",""2"",""433037""
""focus"",""2"",""436504""
","""event"",""trial"",""time""
""fullscreenenter"",""1"",""1448""
","""event"",""trial"",""time""
""fullscreenexit"",""2"",""78393""
","true"
