"trial_type","trial_index","time_elapsed","internal_node_id","subject_id","task_version","interactions","blur_events","focus_events","fullscreenenter_events","fullscreenexit_events","success","timeout","failed_images","failed_audio","failed_video","rt","stimulus","response","button_pressed","task_part","key_press","answer","correct","left_choice","middle_choice","right_choice","choice_positions","option_selected","block"
"pavlovia","0","2","0.0-0.0","1656","2","""event"",""trial"",""time""
""blur"",""1"",""11328""
""focus"",""1"",""13291""
""blur"",""1"",""14363""
""focus"",""1"",""25597""
""blur"",""1"",""121046""
""focus"",""1"",""170804""
""blur"",""1"",""173729""
""focus"",""1"",""293413""
""fullscreenenter"",""1"",""316650""
","""event"",""trial"",""time""
""blur"",""1"",""11328""
""blur"",""1"",""14363""
""blur"",""1"",""121046""
""blur"",""1"",""173729""
","""event"",""trial"",""time""
""focus"",""1"",""13291""
""focus"",""1"",""25597""
""focus"",""1"",""170804""
""focus"",""1"",""293413""
","""event"",""trial"",""time""
""fullscreenenter"",""1"",""316650""
","
","","","","","","","","","","","","","","","","","","",""
"fullscreen","1","317633","0.0-1.0","1656","2","""event"",""trial"",""time""
""blur"",""1"",""11328""
""focus"",""1"",""13291""
""blur"",""1"",""14363""
""focus"",""1"",""25597""
""blur"",""1"",""121046""
""focus"",""1"",""170804""
""blur"",""1"",""173729""
""focus"",""1"",""293413""
""fullscreenenter"",""1"",""316650""
","""event"",""trial"",""time""
""blur"",""1"",""11328""
""blur"",""1"",""14363""
""blur"",""1"",""121046""
""blur"",""1"",""173729""
","""event"",""trial"",""time""
""focus"",""1"",""13291""
""focus"",""1"",""25597""
""focus"",""1"",""170804""
""focus"",""1"",""293413""
","""event"",""trial"",""time""
""fullscreenenter"",""1"",""316650""
","
","true","","","","","","","","","","","","","","","","","",""
"preload","2","318707","0.0-2.0","1656","2","""event"",""trial"",""time""
""blur"",""1"",""11328""
""focus"",""1"",""13291""
""blur"",""1"",""14363""
""focus"",""1"",""25597""
""blur"",""1"",""121046""
""focus"",""1"",""170804""
""blur"",""1"",""173729""
""focus"",""1"",""293413""
""fullscreenenter"",""1"",""316650""
","""event"",""trial"",""time""
""blur"",""1"",""11328""
""blur"",""1"",""14363""
""blur"",""1"",""121046""
""blur"",""1"",""173729""
","""event"",""trial"",""time""
""focus"",""1"",""13291""
""focus"",""1"",""25597""
""focus"",""1"",""170804""
""focus"",""1"",""293413""
","""event"",""trial"",""time""
""fullscreenenter"",""1"",""316650""
","
","true","false","[]","[]","[]","","","","","","","","","","","","","",""
"audio-keyboard-response","3","322832","0.0-3.0","1656","2","""event"",""trial"",""time""
""blur"",""1"",""11328""
""focus"",""1"",""13291""
""blur"",""1"",""14363""
""focus"",""1"",""25597""
""blur"",""1"",""121046""
""focus"",""1"",""170804""
""blur"",""1"",""173729""
""focus"",""1"",""293413""
""fullscreenenter"",""1"",""316650""
","""event"",""trial"",""time""
""blur"",""1"",""11328""
""blur"",""1"",""14363""
""blur"",""1"",""121046""
""blur"",""1"",""173729""
","""event"",""trial"",""time""
""focus"",""1"",""13291""
""focus"",""1"",""25597""
""focus"",""1"",""170804""
""focus"",""1"",""293413""
","""event"",""trial"",""time""
""fullscreenenter"",""1"",""316650""
","
","","","","","","4128","audio/beep_loop.wav"," ","","","","","","","","","","",""
"audio-button-response","4","324286","0.0-4.0","1656","2","""event"",""trial"",""time""
""blur"",""1"",""11328""
""focus"",""1"",""13291""
""blur"",""1"",""14363""
""focus"",""1"",""25597""
""blur"",""1"",""121046""
""focus"",""1"",""170804""
""blur"",""1"",""173729""
""focus"",""1"",""293413""
""fullscreenenter"",""1"",""316650""
","""event"",""trial"",""time""
""blur"",""1"",""11328""
""blur"",""1"",""14363""
""blur"",""1"",""121046""
""blur"",""1"",""173729""
","""event"",""trial"",""time""
""focus"",""1"",""13291""
""focus"",""1"",""25597""
""focus"",""1"",""170804""
""focus"",""1"",""293413""
","""event"",""trial"",""time""
""fullscreenenter"",""1"",""316650""
","
","","","","","","1451","audio/turtle.wav","3","","","","","","","","","","",""
"audio-button-response","5","326384","0.0-5.0","1656","2","""event"",""trial"",""time""
""blur"",""1"",""11328""
""focus"",""1"",""13291""
""blur"",""1"",""14363""
""focus"",""1"",""25597""
""blur"",""1"",""121046""
""focus"",""1"",""170804""
""blur"",""1"",""173729""
""focus"",""1"",""293413""
""fullscreenenter"",""1"",""316650""
","""event"",""trial"",""time""
""blur"",""1"",""11328""
""blur"",""1"",""14363""
""blur"",""1"",""121046""
""blur"",""1"",""173729""
","""event"",""trial"",""time""
""focus"",""1"",""13291""
""focus"",""1"",""25597""
""focus"",""1"",""170804""
""focus"",""1"",""293413""
","""event"",""trial"",""time""
""fullscreenenter"",""1"",""316650""
","
","","","","","","1091","audio/shark.wav","2","","","","","","","","","","",""
"preload","6","331153","0.0-6.0","1656","2","""event"",""trial"",""time""
""blur"",""1"",""11328""
""focus"",""1"",""13291""
""blur"",""1"",""14363""
""focus"",""1"",""25597""
""blur"",""1"",""121046""
""focus"",""1"",""170804""
""blur"",""1"",""173729""
""focus"",""1"",""293413""
""fullscreenenter"",""1"",""316650""
","""event"",""trial"",""time""
""blur"",""1"",""11328""
""blur"",""1"",""14363""
""blur"",""1"",""121046""
""blur"",""1"",""173729""
","""event"",""trial"",""time""
""focus"",""1"",""13291""
""focus"",""1"",""25597""
""focus"",""1"",""170804""
""focus"",""1"",""293413""
","""event"",""trial"",""time""
""fullscreenenter"",""1"",""316650""
","
","true","false","[]","[]","[]","","","","","","","","","","","","","",""
"learning-instructions","7","337043","0.0-7.0-0.0","1656","2","""event"",""trial"",""time""
""blur"",""1"",""11328""
""focus"",""1"",""13291""
""blur"",""1"",""14363""
""focus"",""1"",""25597""
""blur"",""1"",""121046""
""focus"",""1"",""170804""
""blur"",""1"",""173729""
""focus"",""1"",""293413""
""fullscreenenter"",""1"",""316650""
","""event"",""trial"",""time""
""blur"",""1"",""11328""
""blur"",""1"",""14363""
""blur"",""1"",""121046""
""blur"",""1"",""173729""
","""event"",""trial"",""time""
""focus"",""1"",""13291""
""focus"",""1"",""25597""
""focus"",""1"",""170804""
""focus"",""1"",""293413""
","""event"",""trial"",""time""
""fullscreenenter"",""1"",""316650""
","
","","","","","","1083.7999999821186","<p> Welcome back! </p><p> Last week, you had to make choices about lots of different items.  </p>","","0","instructions","","","","","","","","",""
"learning-instructions","8","343224","0.0-7.0-0.1","1656","2","""event"",""trial"",""time""
""blur"",""1"",""11328""
""focus"",""1"",""13291""
""blur"",""1"",""14363""
""focus"",""1"",""25597""
""blur"",""1"",""121046""
""focus"",""1"",""170804""
""blur"",""1"",""173729""
""focus"",""1"",""293413""
""fullscreenenter"",""1"",""316650""
","""event"",""trial"",""time""
""blur"",""1"",""11328""
""blur"",""1"",""14363""
""blur"",""1"",""121046""
""blur"",""1"",""173729""
","""event"",""trial"",""time""
""focus"",""1"",""13291""
""focus"",""1"",""25597""
""focus"",""1"",""170804""
""focus"",""1"",""293413""
","""event"",""trial"",""time""
""fullscreenenter"",""1"",""316650""
","
","","","","","","1875","<p> Today, we are going to ask you to try to remember all the items. </p>","","0","instructions","","","","","","","","",""
"learning-instructions","9","354914","0.0-7.0-0.2","1656","2","""event"",""trial"",""time""
""blur"",""1"",""11328""
""focus"",""1"",""13291""
""blur"",""1"",""14363""
""focus"",""1"",""25597""
""blur"",""1"",""121046""
""focus"",""1"",""170804""
""blur"",""1"",""173729""
""focus"",""1"",""293413""
""fullscreenenter"",""1"",""316650""
","""event"",""trial"",""time""
""blur"",""1"",""11328""
""blur"",""1"",""14363""
""blur"",""1"",""121046""
""blur"",""1"",""173729""
","""event"",""trial"",""time""
""focus"",""1"",""13291""
""focus"",""1"",""25597""
""focus"",""1"",""170804""
""focus"",""1"",""293413""
","""event"",""trial"",""time""
""fullscreenenter"",""1"",""316650""
","
","","","","","","1565.3999999761581","<p> On every trial, you will see an image. </p><p> The image may be an OLD image you saw during the games last week or it may be a NEW image that was not presented. </p>","","0","instructions","","","","","","","","",""
"learning-instructions","10","363790","0.0-7.0-0.3","1656","2","""event"",""trial"",""time""
""blur"",""1"",""11328""
""focus"",""1"",""13291""
""blur"",""1"",""14363""
""focus"",""1"",""25597""
""blur"",""1"",""121046""
""focus"",""1"",""170804""
""blur"",""1"",""173729""
""focus"",""1"",""293413""
""fullscreenenter"",""1"",""316650""
","""event"",""trial"",""time""
""blur"",""1"",""11328""
""blur"",""1"",""14363""
""blur"",""1"",""121046""
""blur"",""1"",""173729""
","""event"",""trial"",""time""
""focus"",""1"",""13291""
""focus"",""1"",""25597""
""focus"",""1"",""170804""
""focus"",""1"",""293413""
","""event"",""trial"",""time""
""fullscreenenter"",""1"",""316650""
","
","","","","","","370.80000001192093","<p> You need to select whether the image is:  </p><p>  'Definitely old', 'Maybe old', 'Maybe new', or 'Definitely new.'  </p><div class=""mem-choice-instructions-grid""><div class=""choice-option"" id=""choice-option-1"" ><img src=""images/definitely_old_1.png"" id=""choice-option-img-1"" class=""choice-option-img"" stage=""1""></div><div class=""choice-option"" id=""choice-option-2"" ><img src=""images/maybe_old_1.png"" id=""choice-option-img-2"" class=""choice-option-img"" stage=""1""></div><div class=""choice-option"" id=""choice-option-3"" ><img src=""images/maybe_new_1.png"" id=""choice-option-img-3"" class=""choice-option-img"" stage=""1""></div><div class=""choice-option"" id=""choice-option-4"" > <img src=""images/definitely_new_1.png"" id=""choice-option-img-4"" class=""choice-option-img"" stage=""1""></div></div>","","0","instructions","","","","","","","","",""
"learning-instructions","11","370813","0.0-7.0-0.4","1656","2","""event"",""trial"",""time""
""blur"",""1"",""11328""
""focus"",""1"",""13291""
""blur"",""1"",""14363""
""focus"",""1"",""25597""
""blur"",""1"",""121046""
""focus"",""1"",""170804""
""blur"",""1"",""173729""
""focus"",""1"",""293413""
""fullscreenenter"",""1"",""316650""
","""event"",""trial"",""time""
""blur"",""1"",""11328""
""blur"",""1"",""14363""
""blur"",""1"",""121046""
""blur"",""1"",""173729""
","""event"",""trial"",""time""
""focus"",""1"",""13291""
""focus"",""1"",""25597""
""focus"",""1"",""170804""
""focus"",""1"",""293413""
","""event"",""trial"",""time""
""fullscreenenter"",""1"",""316650""
","
","","","","","","333.80000001192093","<p> You should use the 1, 2, 3, and 4 keys to make your responses.  </p><div class=""mem-choice-instructions-grid""><div class=""choice-option"" id=""choice-option-1"" ><img src=""images/definitely_old.png"" id=""choice-option-img-1"" class=""choice-option-img"" stage=""1""></div><div class=""choice-option"" id=""choice-option-2"" ><img src=""images/maybe_old.png"" id=""choice-option-img-2"" class=""choice-option-img"" stage=""1""></div><div class=""choice-option"" id=""choice-option-3"" ><img src=""images/maybe_new.png"" id=""choice-option-img-3"" class=""choice-option-img"" stage=""1""></div><div class=""choice-option"" id=""choice-option-4"" > <img src=""images/definitely_new.png"" id=""choice-option-img-4"" class=""choice-option-img"" stage=""1""></div></div>","","0","instructions","","","","","","","","",""
"learning-instructions","12","382254","0.0-7.0-0.5","1656","2","""event"",""trial"",""time""
""blur"",""1"",""11328""
""focus"",""1"",""13291""
""blur"",""1"",""14363""
""focus"",""1"",""25597""
""blur"",""1"",""121046""
""focus"",""1"",""170804""
""blur"",""1"",""173729""
""focus"",""1"",""293413""
""fullscreenenter"",""1"",""316650""
","""event"",""trial"",""time""
""blur"",""1"",""11328""
""blur"",""1"",""14363""
""blur"",""1"",""121046""
""blur"",""1"",""173729""
","""event"",""trial"",""time""
""focus"",""1"",""13291""
""focus"",""1"",""25597""
""focus"",""1"",""170804""
""focus"",""1"",""293413""
","""event"",""trial"",""time""
""fullscreenenter"",""1"",""316650""
","
","","","","","","4674.5","<p> You will have 10 seconds to make each response.  </p><p>  Make sure to respond before time runs out! </p>","","0","instructions","","","","","","","","",""
"learning-instructions","13","396246","0.0-7.0-0.6","1656","2","""event"",""trial"",""time""
""blur"",""1"",""11328""
""focus"",""1"",""13291""
""blur"",""1"",""14363""
""focus"",""1"",""25597""
""blur"",""1"",""121046""
""focus"",""1"",""170804""
""blur"",""1"",""173729""
""focus"",""1"",""293413""
""fullscreenenter"",""1"",""316650""
","""event"",""trial"",""time""
""blur"",""1"",""11328""
""blur"",""1"",""14363""
""blur"",""1"",""121046""
""blur"",""1"",""173729""
","""event"",""trial"",""time""
""focus"",""1"",""13291""
""focus"",""1"",""25597""
""focus"",""1"",""170804""
""focus"",""1"",""293413""
","""event"",""trial"",""time""
""fullscreenenter"",""1"",""316650""
","
","","","","","","6416.699999988079","<p> Today, you will see each image ONCE only.  </p><p>  That means none of the images will repeat. </p>","","0","instructions","","","","","","","","",""
"learning-instructions","14","412643","0.0-7.0-0.7","1656","2","""event"",""trial"",""time""
""blur"",""1"",""11328""
""focus"",""1"",""13291""
""blur"",""1"",""14363""
""focus"",""1"",""25597""
""blur"",""1"",""121046""
""focus"",""1"",""170804""
""blur"",""1"",""173729""
""focus"",""1"",""293413""
""fullscreenenter"",""1"",""316650""
","""event"",""trial"",""time""
""blur"",""1"",""11328""
""blur"",""1"",""14363""
""blur"",""1"",""121046""
""blur"",""1"",""173729""
","""event"",""trial"",""time""
""focus"",""1"",""13291""
""focus"",""1"",""25597""
""focus"",""1"",""170804""
""focus"",""1"",""293413""
","""event"",""trial"",""time""
""fullscreenenter"",""1"",""316650""
","
","","","","","","3724","<p> Before you play the real game, it is time to practice. </p><p>  Just like in the real game, some of the images in the practice will be ones you have seen before. </p><p>  Others will be entirely new. </p>","","0","instructions","","","","","","","","",""
"html-button-response","15","415100","0.0-8.0","1656","2","""event"",""trial"",""time""
""blur"",""1"",""11328""
""focus"",""1"",""13291""
""blur"",""1"",""14363""
""focus"",""1"",""25597""
""blur"",""1"",""121046""
""focus"",""1"",""170804""
""blur"",""1"",""173729""
""focus"",""1"",""293413""
""fullscreenenter"",""1"",""316650""
","""event"",""trial"",""time""
""blur"",""1"",""11328""
""blur"",""1"",""14363""
""blur"",""1"",""121046""
""blur"",""1"",""173729""
","""event"",""trial"",""time""
""focus"",""1"",""13291""
""focus"",""1"",""25597""
""focus"",""1"",""170804""
""focus"",""1"",""293413""
","""event"",""trial"",""time""
""fullscreenenter"",""1"",""316650""
","
","","","","","","2349.9000000059605","<p> Ready to practice? </p><p> Remember, use the 1, 2, 3, and 4 keys to make your responses. </p>","0","","instructions","","","","","","","","",""
"html-keyboard-response","16","415717","0.0-9.0-0.0","1656","2","""event"",""trial"",""time""
""blur"",""1"",""11328""
""focus"",""1"",""13291""
""blur"",""1"",""14363""
""focus"",""1"",""25597""
""blur"",""1"",""121046""
""focus"",""1"",""170804""
""blur"",""1"",""173729""
""focus"",""1"",""293413""
""fullscreenenter"",""1"",""316650""
","""event"",""trial"",""time""
""blur"",""1"",""11328""
""blur"",""1"",""14363""
""blur"",""1"",""121046""
""blur"",""1"",""173729""
","""event"",""trial"",""time""
""focus"",""1"",""13291""
""focus"",""1"",""25597""
""focus"",""1"",""170804""
""focus"",""1"",""293413""
","""event"",""trial"",""time""
""fullscreenenter"",""1"",""316650""
","
","","","","","","null","<div style=""font-size:60px;"">+</div>","null","","fixation","","","","","","","","",""
"memory-trial","17","418214","0.0-9.0-1.0","1656","2","""event"",""trial"",""time""
""blur"",""1"",""11328""
""focus"",""1"",""13291""
""blur"",""1"",""14363""
""focus"",""1"",""25597""
""blur"",""1"",""121046""
""focus"",""1"",""170804""
""blur"",""1"",""173729""
""focus"",""1"",""293413""
""fullscreenenter"",""1"",""316650""
","""event"",""trial"",""time""
""blur"",""1"",""11328""
""blur"",""1"",""14363""
""blur"",""1"",""121046""
""blur"",""1"",""173729""
","""event"",""trial"",""time""
""focus"",""1"",""13291""
""focus"",""1"",""25597""
""focus"",""1"",""170804""
""focus"",""1"",""293413""
","""event"",""trial"",""time""
""fullscreenenter"",""1"",""316650""
","
","","","","","","1492.0999999940395","images/ball4.png","","","practice","2","maybe_old","","","","","","",""
"html-keyboard-response","18","418728","0.0-9.0-0.1","1656","2","""event"",""trial"",""time""
""blur"",""1"",""11328""
""focus"",""1"",""13291""
""blur"",""1"",""14363""
""focus"",""1"",""25597""
""blur"",""1"",""121046""
""focus"",""1"",""170804""
""blur"",""1"",""173729""
""focus"",""1"",""293413""
""fullscreenenter"",""1"",""316650""
","""event"",""trial"",""time""
""blur"",""1"",""11328""
""blur"",""1"",""14363""
""blur"",""1"",""121046""
""blur"",""1"",""173729""
","""event"",""trial"",""time""
""focus"",""1"",""13291""
""focus"",""1"",""25597""
""focus"",""1"",""170804""
""focus"",""1"",""293413""
","""event"",""trial"",""time""
""fullscreenenter"",""1"",""316650""
","
","","","","","","null","<div style=""font-size:60px;"">+</div>","null","","fixation","","","","","","","","",""
"memory-trial","19","421635","0.0-9.0-1.1","1656","2","""event"",""trial"",""time""
""blur"",""1"",""11328""
""focus"",""1"",""13291""
""blur"",""1"",""14363""
""focus"",""1"",""25597""
""blur"",""1"",""121046""
""focus"",""1"",""170804""
""blur"",""1"",""173729""
""focus"",""1"",""293413""
""fullscreenenter"",""1"",""316650""
","""event"",""trial"",""time""
""blur"",""1"",""11328""
""blur"",""1"",""14363""
""blur"",""1"",""121046""
""blur"",""1"",""173729""
","""event"",""trial"",""time""
""focus"",""1"",""13291""
""focus"",""1"",""25597""
""focus"",""1"",""170804""
""focus"",""1"",""293413""
","""event"",""trial"",""time""
""fullscreenenter"",""1"",""316650""
","
","","","","","","1904.199999988079","images/racket4.png","","","practice","1","definitely_old","","","","","","",""
"html-keyboard-response","20","422149","0.0-9.0-0.2","1656","2","""event"",""trial"",""time""
""blur"",""1"",""11328""
""focus"",""1"",""13291""
""blur"",""1"",""14363""
""focus"",""1"",""25597""
""blur"",""1"",""121046""
""focus"",""1"",""170804""
""blur"",""1"",""173729""
""focus"",""1"",""293413""
""fullscreenenter"",""1"",""316650""
","""event"",""trial"",""time""
""blur"",""1"",""11328""
""blur"",""1"",""14363""
""blur"",""1"",""121046""
""blur"",""1"",""173729""
","""event"",""trial"",""time""
""focus"",""1"",""13291""
""focus"",""1"",""25597""
""focus"",""1"",""170804""
""focus"",""1"",""293413""
","""event"",""trial"",""time""
""fullscreenenter"",""1"",""316650""
","
","","","","","","null","<div style=""font-size:60px;"">+</div>","null","","fixation","","","","","","","","",""
"memory-trial","21","424854","0.0-9.0-1.2","1656","2","""event"",""trial"",""time""
""blur"",""1"",""11328""
""focus"",""1"",""13291""
""blur"",""1"",""14363""
""focus"",""1"",""25597""
""blur"",""1"",""121046""
""focus"",""1"",""170804""
""blur"",""1"",""173729""
""focus"",""1"",""293413""
""fullscreenenter"",""1"",""316650""
","""event"",""trial"",""time""
""blur"",""1"",""11328""
""blur"",""1"",""14363""
""blur"",""1"",""121046""
""blur"",""1"",""173729""
","""event"",""trial"",""time""
""focus"",""1"",""13291""
""focus"",""1"",""25597""
""focus"",""1"",""170804""
""focus"",""1"",""293413""
","""event"",""trial"",""time""
""fullscreenenter"",""1"",""316650""
","
","","","","","","1700.1000000238419","images/ball3.png","","","practice","3","maybe_new","","","","","","",""
"html-keyboard-response","22","425363","0.0-9.0-0.3","1656","2","""event"",""trial"",""time""
""blur"",""1"",""11328""
""focus"",""1"",""13291""
""blur"",""1"",""14363""
""focus"",""1"",""25597""
""blur"",""1"",""121046""
""focus"",""1"",""170804""
""blur"",""1"",""173729""
""focus"",""1"",""293413""
""fullscreenenter"",""1"",""316650""
","""event"",""trial"",""time""
""blur"",""1"",""11328""
""blur"",""1"",""14363""
""blur"",""1"",""121046""
""blur"",""1"",""173729""
","""event"",""trial"",""time""
""focus"",""1"",""13291""
""focus"",""1"",""25597""
""focus"",""1"",""170804""
""focus"",""1"",""293413""
","""event"",""trial"",""time""
""fullscreenenter"",""1"",""316650""
","
","","","","","","null","<div style=""font-size:60px;"">+</div>","null","","fixation","","","","","","","","",""
"memory-trial","23","428227","0.0-9.0-1.3","1656","2","""event"",""trial"",""time""
""blur"",""1"",""11328""
""focus"",""1"",""13291""
""blur"",""1"",""14363""
""focus"",""1"",""25597""
""blur"",""1"",""121046""
""focus"",""1"",""170804""
""blur"",""1"",""173729""
""focus"",""1"",""293413""
""fullscreenenter"",""1"",""316650""
","""event"",""trial"",""time""
""blur"",""1"",""11328""
""blur"",""1"",""14363""
""blur"",""1"",""121046""
""blur"",""1"",""173729""
","""event"",""trial"",""time""
""focus"",""1"",""13291""
""focus"",""1"",""25597""
""focus"",""1"",""170804""
""focus"",""1"",""293413""
","""event"",""trial"",""time""
""fullscreenenter"",""1"",""316650""
","
","","","","","","1854.5999999940395","images/ball2.png","","","practice","2","maybe_old","","","","","","",""
"html-keyboard-response","24","428731","0.0-9.0-0.4","1656","2","""event"",""trial"",""time""
""blur"",""1"",""11328""
""focus"",""1"",""13291""
""blur"",""1"",""14363""
""focus"",""1"",""25597""
""blur"",""1"",""121046""
""focus"",""1"",""170804""
""blur"",""1"",""173729""
""focus"",""1"",""293413""
""fullscreenenter"",""1"",""316650""
","""event"",""trial"",""time""
""blur"",""1"",""11328""
""blur"",""1"",""14363""
""blur"",""1"",""121046""
""blur"",""1"",""173729""
","""event"",""trial"",""time""
""focus"",""1"",""13291""
""focus"",""1"",""25597""
""focus"",""1"",""170804""
""focus"",""1"",""293413""
","""event"",""trial"",""time""
""fullscreenenter"",""1"",""316650""
","
","","","","","","null","<div style=""font-size:60px;"">+</div>","null","","fixation","","","","","","","","",""
"memory-trial","25","431163","0.0-9.0-1.4","1656","2","""event"",""trial"",""time""
""blur"",""1"",""11328""
""focus"",""1"",""13291""
""blur"",""1"",""14363""
""focus"",""1"",""25597""
""blur"",""1"",""121046""
""focus"",""1"",""170804""
""blur"",""1"",""173729""
""focus"",""1"",""293413""
""fullscreenenter"",""1"",""316650""
","""event"",""trial"",""time""
""blur"",""1"",""11328""
""blur"",""1"",""14363""
""blur"",""1"",""121046""
""blur"",""1"",""173729""
","""event"",""trial"",""time""
""focus"",""1"",""13291""
""focus"",""1"",""25597""
""focus"",""1"",""170804""
""focus"",""1"",""293413""
","""event"",""trial"",""time""
""fullscreenenter"",""1"",""316650""
","
","","","","","","1416.5999999940395","images/ball1.png","","","practice","3","maybe_new","","","","","","",""
"html-keyboard-response","26","431673","0.0-9.0-0.5","1656","2","""event"",""trial"",""time""
""blur"",""1"",""11328""
""focus"",""1"",""13291""
""blur"",""1"",""14363""
""focus"",""1"",""25597""
""blur"",""1"",""121046""
""focus"",""1"",""170804""
""blur"",""1"",""173729""
""focus"",""1"",""293413""
""fullscreenenter"",""1"",""316650""
","""event"",""trial"",""time""
""blur"",""1"",""11328""
""blur"",""1"",""14363""
""blur"",""1"",""121046""
""blur"",""1"",""173729""
","""event"",""trial"",""time""
""focus"",""1"",""13291""
""focus"",""1"",""25597""
""focus"",""1"",""170804""
""focus"",""1"",""293413""
","""event"",""trial"",""time""
""fullscreenenter"",""1"",""316650""
","
","","","","","","null","<div style=""font-size:60px;"">+</div>","null","","fixation","","","","","","","","",""
"memory-trial","27","434272","0.0-9.0-1.5","1656","2","""event"",""trial"",""time""
""blur"",""1"",""11328""
""focus"",""1"",""13291""
""blur"",""1"",""14363""
""focus"",""1"",""25597""
""blur"",""1"",""121046""
""focus"",""1"",""170804""
""blur"",""1"",""173729""
""focus"",""1"",""293413""
""fullscreenenter"",""1"",""316650""
","""event"",""trial"",""time""
""blur"",""1"",""11328""
""blur"",""1"",""14363""
""blur"",""1"",""121046""
""blur"",""1"",""173729""
","""event"",""trial"",""time""
""focus"",""1"",""13291""
""focus"",""1"",""25597""
""focus"",""1"",""170804""
""focus"",""1"",""293413""
","""event"",""trial"",""time""
""fullscreenenter"",""1"",""316650""
","
","","","","","","1592.7999999821186","images/racket1.png","","","practice","1","definitely_old","","","","","","",""
"html-keyboard-response","28","434787","0.0-9.0-0.6","1656","2","""event"",""trial"",""time""
""blur"",""1"",""11328""
""focus"",""1"",""13291""
""blur"",""1"",""14363""
""focus"",""1"",""25597""
""blur"",""1"",""121046""
""focus"",""1"",""170804""
""blur"",""1"",""173729""
""focus"",""1"",""293413""
""fullscreenenter"",""1"",""316650""
","""event"",""trial"",""time""
""blur"",""1"",""11328""
""blur"",""1"",""14363""
""blur"",""1"",""121046""
""blur"",""1"",""173729""
","""event"",""trial"",""time""
""focus"",""1"",""13291""
""focus"",""1"",""25597""
""focus"",""1"",""170804""
""focus"",""1"",""293413""
","""event"",""trial"",""time""
""fullscreenenter"",""1"",""316650""
","
","","","","","","null","<div style=""font-size:60px;"">+</div>","null","","fixation","","","","","","","","",""
"memory-trial","29","436605","0.0-9.0-1.6","1656","2","""event"",""trial"",""time""
""blur"",""1"",""11328""
""focus"",""1"",""13291""
""blur"",""1"",""14363""
""focus"",""1"",""25597""
""blur"",""1"",""121046""
""focus"",""1"",""170804""
""blur"",""1"",""173729""
""focus"",""1"",""293413""
""fullscreenenter"",""1"",""316650""
","""event"",""trial"",""time""
""blur"",""1"",""11328""
""blur"",""1"",""14363""
""blur"",""1"",""121046""
""blur"",""1"",""173729""
","""event"",""trial"",""time""
""focus"",""1"",""13291""
""focus"",""1"",""25597""
""focus"",""1"",""170804""
""focus"",""1"",""293413""
","""event"",""trial"",""time""
""fullscreenenter"",""1"",""316650""
","
","","","","","","807.4000000059605","images/racket3.png","","","practice","1","definitely_old","","","","","","",""
"html-keyboard-response","30","437109","0.0-9.0-0.7","1656","2","""event"",""trial"",""time""
""blur"",""1"",""11328""
""focus"",""1"",""13291""
""blur"",""1"",""14363""
""focus"",""1"",""25597""
""blur"",""1"",""121046""
""focus"",""1"",""170804""
""blur"",""1"",""173729""
""focus"",""1"",""293413""
""fullscreenenter"",""1"",""316650""
","""event"",""trial"",""time""
""blur"",""1"",""11328""
""blur"",""1"",""14363""
""blur"",""1"",""121046""
""blur"",""1"",""173729""
","""event"",""trial"",""time""
""focus"",""1"",""13291""
""focus"",""1"",""25597""
""focus"",""1"",""170804""
""focus"",""1"",""293413""
","""event"",""trial"",""time""
""fullscreenenter"",""1"",""316650""
","
","","","","","","null","<div style=""font-size:60px;"">+</div>","null","","fixation","","","","","","","","",""
"memory-trial","31","439283","0.0-9.0-1.7","1656","2","""event"",""trial"",""time""
""blur"",""1"",""11328""
""focus"",""1"",""13291""
""blur"",""1"",""14363""
""focus"",""1"",""25597""
""blur"",""1"",""121046""
""focus"",""1"",""170804""
""blur"",""1"",""173729""
""focus"",""1"",""293413""
""fullscreenenter"",""1"",""316650""
","""event"",""trial"",""time""
""blur"",""1"",""11328""
""blur"",""1"",""14363""
""blur"",""1"",""121046""
""blur"",""1"",""173729""
","""event"",""trial"",""time""
""focus"",""1"",""13291""
""focus"",""1"",""25597""
""focus"",""1"",""170804""
""focus"",""1"",""293413""
","""event"",""trial"",""time""
""fullscreenenter"",""1"",""316650""
","
","","","","","","1173.4000000059605","images/racket2.png","","","practice","2","maybe_old","","","","","","",""
"learning-instructions","32","447853","0.0-10.0-0.0","1656","2","""event"",""trial"",""time""
""blur"",""1"",""11328""
""focus"",""1"",""13291""
""blur"",""1"",""14363""
""focus"",""1"",""25597""
""blur"",""1"",""121046""
""focus"",""1"",""170804""
""blur"",""1"",""173729""
""focus"",""1"",""293413""
""fullscreenenter"",""1"",""316650""
","""event"",""trial"",""time""
""blur"",""1"",""11328""
""blur"",""1"",""14363""
""blur"",""1"",""121046""
""blur"",""1"",""173729""
","""event"",""trial"",""time""
""focus"",""1"",""13291""
""focus"",""1"",""25597""
""focus"",""1"",""170804""
""focus"",""1"",""293413""
","""event"",""trial"",""time""
""fullscreenenter"",""1"",""316650""
","
","","","","","","623.5999999940395","<p> Great! You have completed the practice. </p><p> Before you start, we're going to ask you a few questions about how the game works.  </p>","","0","instructions","","","","","","","","",""
"preload","33","450683","0.0-11.0","1656","2","""event"",""trial"",""time""
""blur"",""1"",""11328""
""focus"",""1"",""13291""
""blur"",""1"",""14363""
""focus"",""1"",""25597""
""blur"",""1"",""121046""
""focus"",""1"",""170804""
""blur"",""1"",""173729""
""focus"",""1"",""293413""
""fullscreenenter"",""1"",""316650""
","""event"",""trial"",""time""
""blur"",""1"",""11328""
""blur"",""1"",""14363""
""blur"",""1"",""121046""
""blur"",""1"",""173729""
","""event"",""trial"",""time""
""focus"",""1"",""13291""
""focus"",""1"",""25597""
""focus"",""1"",""170804""
""focus"",""1"",""293413""
","""event"",""trial"",""time""
""fullscreenenter"",""1"",""316650""
","
","true","false","[]","[]","[]","","","","","","","","","","","","","",""
"comp-q","34","457508","0.0-12.0-0.0","1656","2","""event"",""trial"",""time""
""blur"",""1"",""11328""
""focus"",""1"",""13291""
""blur"",""1"",""14363""
""focus"",""1"",""25597""
""blur"",""1"",""121046""
""focus"",""1"",""170804""
""blur"",""1"",""173729""
""focus"",""1"",""293413""
""fullscreenenter"",""1"",""316650""
""blur"",""35"",""464538""
""focus"",""35"",""469125""
","""event"",""trial"",""time""
""blur"",""1"",""11328""
""blur"",""1"",""14363""
""blur"",""1"",""121046""
""blur"",""1"",""173729""
""blur"",""35"",""464538""
","""event"",""trial"",""time""
""focus"",""1"",""13291""
""focus"",""1"",""25597""
""focus"",""1"",""170804""
""focus"",""1"",""293413""
""focus"",""35"",""469125""
","""event"",""trial"",""time""
""fullscreenenter"",""1"",""316650""
","
","","","","","","999.4000000059605","<p> <b> True or False? </b> </p><p> In this game, you will only see each image once. </p>","","0","comp_question","","","true","","","","","",""
"comp-q","35","470237","0.0-12.0-1.0","1656","2","""event"",""trial"",""time""
""blur"",""1"",""11328""
""focus"",""1"",""13291""
""blur"",""1"",""14363""
""focus"",""1"",""25597""
""blur"",""1"",""121046""
""focus"",""1"",""170804""
""blur"",""1"",""173729""
""focus"",""1"",""293413""
""fullscreenenter"",""1"",""316650""
""blur"",""35"",""464538""
""focus"",""35"",""469125""
","""event"",""trial"",""time""
""blur"",""1"",""11328""
""blur"",""1"",""14363""
""blur"",""1"",""121046""
""blur"",""1"",""173729""
""blur"",""35"",""464538""
","""event"",""trial"",""time""
""focus"",""1"",""13291""
""focus"",""1"",""25597""
""focus"",""1"",""170804""
""focus"",""1"",""293413""
""focus"",""35"",""469125""
","""event"",""trial"",""time""
""fullscreenenter"",""1"",""316650""
","
","","","","","","6387.5","<p> <b> That's right! </b> You will see many different images <i> one time each </i> in this game. </p>","","0","comp_answer","","","","","","","","",""
"comp-q","36","477209","0.0-12.0-0.1","1656","2","""event"",""trial"",""time""
""blur"",""1"",""11328""
""focus"",""1"",""13291""
""blur"",""1"",""14363""
""focus"",""1"",""25597""
""blur"",""1"",""121046""
""focus"",""1"",""170804""
""blur"",""1"",""173729""
""focus"",""1"",""293413""
""fullscreenenter"",""1"",""316650""
""blur"",""35"",""464538""
""focus"",""35"",""469125""
","""event"",""trial"",""time""
""blur"",""1"",""11328""
""blur"",""1"",""14363""
""blur"",""1"",""121046""
""blur"",""1"",""173729""
""blur"",""35"",""464538""
","""event"",""trial"",""time""
""focus"",""1"",""13291""
""focus"",""1"",""25597""
""focus"",""1"",""170804""
""focus"",""1"",""293413""
""focus"",""35"",""469125""
","""event"",""trial"",""time""
""fullscreenenter"",""1"",""316650""
","
","","","","","","1179.800000011921","<p> <b> True or False? </b> </p><p> You should use the mouse and click to make your response. </p>","","1","comp_question","","","true","","","","","",""
"comp-q","37","485512","0.0-12.0-1.1","1656","2","""event"",""trial"",""time""
""blur"",""1"",""11328""
""focus"",""1"",""13291""
""blur"",""1"",""14363""
""focus"",""1"",""25597""
""blur"",""1"",""121046""
""focus"",""1"",""170804""
""blur"",""1"",""173729""
""focus"",""1"",""293413""
""fullscreenenter"",""1"",""316650""
""blur"",""35"",""464538""
""focus"",""35"",""469125""
","""event"",""trial"",""time""
""blur"",""1"",""11328""
""blur"",""1"",""14363""
""blur"",""1"",""121046""
""blur"",""1"",""173729""
""blur"",""35"",""464538""
","""event"",""trial"",""time""
""focus"",""1"",""13291""
""focus"",""1"",""25597""
""focus"",""1"",""170804""
""focus"",""1"",""293413""
""focus"",""35"",""469125""
","""event"",""trial"",""time""
""fullscreenenter"",""1"",""316650""
","
","","","","","","942.9000000059605","<p><b> That's right! </b> You should use the '1', '2', '3', and '4' keys to make your response. </p>","","0","comp_answer","","","","","","","","",""
"comp-q","38","492388","0.0-12.0-0.2","1656","2","""event"",""trial"",""time""
""blur"",""1"",""11328""
""focus"",""1"",""13291""
""blur"",""1"",""14363""
""focus"",""1"",""25597""
""blur"",""1"",""121046""
""focus"",""1"",""170804""
""blur"",""1"",""173729""
""focus"",""1"",""293413""
""fullscreenenter"",""1"",""316650""
""blur"",""35"",""464538""
""focus"",""35"",""469125""
","""event"",""trial"",""time""
""blur"",""1"",""11328""
""blur"",""1"",""14363""
""blur"",""1"",""121046""
""blur"",""1"",""173729""
""blur"",""35"",""464538""
","""event"",""trial"",""time""
""focus"",""1"",""13291""
""focus"",""1"",""25597""
""focus"",""1"",""170804""
""focus"",""1"",""293413""
""focus"",""35"",""469125""
","""event"",""trial"",""time""
""fullscreenenter"",""1"",""316650""
","
","","","","","","878.8000000119209","<p> <b> True or False? </b> </p><p> You will have as much time as you want to make each choice. </p>","","1","comp_question","","","true","","","","","",""
"comp-q","39","498305","0.0-12.0-1.2","1656","2","""event"",""trial"",""time""
""blur"",""1"",""11328""
""focus"",""1"",""13291""
""blur"",""1"",""14363""
""focus"",""1"",""25597""
""blur"",""1"",""121046""
""focus"",""1"",""170804""
""blur"",""1"",""173729""
""focus"",""1"",""293413""
""fullscreenenter"",""1"",""316650""
""blur"",""35"",""464538""
""focus"",""35"",""469125""
","""event"",""trial"",""time""
""blur"",""1"",""11328""
""blur"",""1"",""14363""
""blur"",""1"",""121046""
""blur"",""1"",""173729""
""blur"",""35"",""464538""
","""event"",""trial"",""time""
""focus"",""1"",""13291""
""focus"",""1"",""25597""
""focus"",""1"",""170804""
""focus"",""1"",""293413""
""focus"",""35"",""469125""
","""event"",""trial"",""time""
""fullscreenenter"",""1"",""316650""
","
","","","","","","526","<p> <b> That's right! </b> You will only have 10 seconds to make each choice. </p>","","0","comp_answer","","","","","","","","",""
"learning-instructions","40","511410","0.0-13.0","1656","2","""event"",""trial"",""time""
""blur"",""1"",""11328""
""focus"",""1"",""13291""
""blur"",""1"",""14363""
""focus"",""1"",""25597""
""blur"",""1"",""121046""
""focus"",""1"",""170804""
""blur"",""1"",""173729""
""focus"",""1"",""293413""
""fullscreenenter"",""1"",""316650""
""blur"",""35"",""464538""
""focus"",""35"",""469125""
","""event"",""trial"",""time""
""blur"",""1"",""11328""
""blur"",""1"",""14363""
""blur"",""1"",""121046""
""blur"",""1"",""173729""
""blur"",""35"",""464538""
","""event"",""trial"",""time""
""focus"",""1"",""13291""
""focus"",""1"",""25597""
""focus"",""1"",""170804""
""focus"",""1"",""293413""
""focus"",""35"",""469125""
","""event"",""trial"",""time""
""fullscreenenter"",""1"",""316650""
","
","","","","","","4441.200000017881","<p> Great! You are now ready to begin the game. </p><p> Remember, use the 1, 2, 3, and 4 keys to make your responses. </p>","","0","instructions","","","","","","","","",""
"preload","41","521212","0.0-14.0","1656","2","""event"",""trial"",""time""
""blur"",""1"",""11328""
""focus"",""1"",""13291""
""blur"",""1"",""14363""
""focus"",""1"",""25597""
""blur"",""1"",""121046""
""focus"",""1"",""170804""
""blur"",""1"",""173729""
""focus"",""1"",""293413""
""fullscreenenter"",""1"",""316650""
""blur"",""35"",""464538""
""focus"",""35"",""469125""
","""event"",""trial"",""time""
""blur"",""1"",""11328""
""blur"",""1"",""14363""
""blur"",""1"",""121046""
""blur"",""1"",""173729""
""blur"",""35"",""464538""
","""event"",""trial"",""time""
""focus"",""1"",""13291""
""focus"",""1"",""25597""
""focus"",""1"",""170804""
""focus"",""1"",""293413""
""focus"",""35"",""469125""
","""event"",""trial"",""time""
""fullscreenenter"",""1"",""316650""
","
","true","false","[]","[]","[]","","","","","","","","","","","","","",""
"html-keyboard-response","42","521722","0.0-15.0-0.0","1656","2","""event"",""trial"",""time""
""blur"",""1"",""11328""
""focus"",""1"",""13291""
""blur"",""1"",""14363""
""focus"",""1"",""25597""
""blur"",""1"",""121046""
""focus"",""1"",""170804""
""blur"",""1"",""173729""
""focus"",""1"",""293413""
""fullscreenenter"",""1"",""316650""
""blur"",""35"",""464538""
""focus"",""35"",""469125""
","""event"",""trial"",""time""
""blur"",""1"",""11328""
""blur"",""1"",""14363""
""blur"",""1"",""121046""
""blur"",""1"",""173729""
""blur"",""35"",""464538""
","""event"",""trial"",""time""
""focus"",""1"",""13291""
""focus"",""1"",""25597""
""focus"",""1"",""170804""
""focus"",""1"",""293413""
""focus"",""35"",""469125""
","""event"",""trial"",""time""
""fullscreenenter"",""1"",""316650""
","
","","","","","","null","<div style=""font-size:60px;"">+</div>","null","","fixation","","","","","","","","",""
"memory-trial","43","524559","0.0-15.0-1.0","1656","2","""event"",""trial"",""time""
""blur"",""1"",""11328""
""focus"",""1"",""13291""
""blur"",""1"",""14363""
""focus"",""1"",""25597""
""blur"",""1"",""121046""
""focus"",""1"",""170804""
""blur"",""1"",""173729""
""focus"",""1"",""293413""
""fullscreenenter"",""1"",""316650""
""blur"",""35"",""464538""
""focus"",""35"",""469125""
","""event"",""trial"",""time""
""blur"",""1"",""11328""
""blur"",""1"",""14363""
""blur"",""1"",""121046""
""blur"",""1"",""173729""
""blur"",""35"",""464538""
","""event"",""trial"",""time""
""focus"",""1"",""13291""
""focus"",""1"",""25597""
""focus"",""1"",""170804""
""focus"",""1"",""293413""
""focus"",""35"",""469125""
","""event"",""trial"",""time""
""fullscreenenter"",""1"",""316650""
","
","","","","","","1826","images/rodent3.png","","","memory_trial","1","definitely_old","","","","","","",""
"html-keyboard-response","44","525061","0.0-15.0-0.1","1656","2","""event"",""trial"",""time""
""blur"",""1"",""11328""
""focus"",""1"",""13291""
""blur"",""1"",""14363""
""focus"",""1"",""25597""
""blur"",""1"",""121046""
""focus"",""1"",""170804""
""blur"",""1"",""173729""
""focus"",""1"",""293413""
""fullscreenenter"",""1"",""316650""
""blur"",""35"",""464538""
""focus"",""35"",""469125""
","""event"",""trial"",""time""
""blur"",""1"",""11328""
""blur"",""1"",""14363""
""blur"",""1"",""121046""
""blur"",""1"",""173729""
""blur"",""35"",""464538""
","""event"",""trial"",""time""
""focus"",""1"",""13291""
""focus"",""1"",""25597""
""focus"",""1"",""170804""
""focus"",""1"",""293413""
""focus"",""35"",""469125""
","""event"",""trial"",""time""
""fullscreenenter"",""1"",""316650""
","
","","","","","","null","<div style=""font-size:60px;"">+</div>","null","","fixation","","","","","","","","",""
"memory-trial","45","527499","0.0-15.0-1.1","1656","2","""event"",""trial"",""time""
""blur"",""1"",""11328""
""focus"",""1"",""13291""
""blur"",""1"",""14363""
""focus"",""1"",""25597""
""blur"",""1"",""121046""
""focus"",""1"",""170804""
""blur"",""1"",""173729""
""focus"",""1"",""293413""
""fullscreenenter"",""1"",""316650""
""blur"",""35"",""464538""
""focus"",""35"",""469125""
","""event"",""trial"",""time""
""blur"",""1"",""11328""
""blur"",""1"",""14363""
""blur"",""1"",""121046""
""blur"",""1"",""173729""
""blur"",""35"",""464538""
","""event"",""trial"",""time""
""focus"",""1"",""13291""
""focus"",""1"",""25597""
""focus"",""1"",""170804""
""focus"",""1"",""293413""
""focus"",""35"",""469125""
","""event"",""trial"",""time""
""fullscreenenter"",""1"",""316650""
","
","","","","","","1422.4000000059605","images/cow2.png","","","memory_trial","2","maybe_old","","","","","","",""
"html-keyboard-response","46","528013","0.0-15.0-0.2","1656","2","""event"",""trial"",""time""
""blur"",""1"",""11328""
""focus"",""1"",""13291""
""blur"",""1"",""14363""
""focus"",""1"",""25597""
""blur"",""1"",""121046""
""focus"",""1"",""170804""
""blur"",""1"",""173729""
""focus"",""1"",""293413""
""fullscreenenter"",""1"",""316650""
""blur"",""35"",""464538""
""focus"",""35"",""469125""
","""event"",""trial"",""time""
""blur"",""1"",""11328""
""blur"",""1"",""14363""
""blur"",""1"",""121046""
""blur"",""1"",""173729""
""blur"",""35"",""464538""
","""event"",""trial"",""time""
""focus"",""1"",""13291""
""focus"",""1"",""25597""
""focus"",""1"",""170804""
""focus"",""1"",""293413""
""focus"",""35"",""469125""
","""event"",""trial"",""time""
""fullscreenenter"",""1"",""316650""
","
","","","","","","null","<div style=""font-size:60px;"">+</div>","null","","fixation","","","","","","","","",""
"memory-trial","47","530818","0.0-15.0-1.2","1656","2","""event"",""trial"",""time""
""blur"",""1"",""11328""
""focus"",""1"",""13291""
""blur"",""1"",""14363""
""focus"",""1"",""25597""
""blur"",""1"",""121046""
""focus"",""1"",""170804""
""blur"",""1"",""173729""
""focus"",""1"",""293413""
""fullscreenenter"",""1"",""316650""
""blur"",""35"",""464538""
""focus"",""35"",""469125""
","""event"",""trial"",""time""
""blur"",""1"",""11328""
""blur"",""1"",""14363""
""blur"",""1"",""121046""
""blur"",""1"",""173729""
""blur"",""35"",""464538""
","""event"",""trial"",""time""
""focus"",""1"",""13291""
""focus"",""1"",""25597""
""focus"",""1"",""170804""
""focus"",""1"",""293413""
""focus"",""35"",""469125""
","""event"",""trial"",""time""
""fullscreenenter"",""1"",""316650""
","
","","","","","","1798.9000000059605","images/truck3.png","","","memory_trial","4","definitely_new","","","","","","",""
"html-keyboard-response","48","531326","0.0-15.0-0.3","1656","2","""event"",""trial"",""time""
""blur"",""1"",""11328""
""focus"",""1"",""13291""
""blur"",""1"",""14363""
""focus"",""1"",""25597""
""blur"",""1"",""121046""
""focus"",""1"",""170804""
""blur"",""1"",""173729""
""focus"",""1"",""293413""
""fullscreenenter"",""1"",""316650""
""blur"",""35"",""464538""
""focus"",""35"",""469125""
","""event"",""trial"",""time""
""blur"",""1"",""11328""
""blur"",""1"",""14363""
""blur"",""1"",""121046""
""blur"",""1"",""173729""
""blur"",""35"",""464538""
","""event"",""trial"",""time""
""focus"",""1"",""13291""
""focus"",""1"",""25597""
""focus"",""1"",""170804""
""focus"",""1"",""293413""
""focus"",""35"",""469125""
","""event"",""trial"",""time""
""fullscreenenter"",""1"",""316650""
","
","","","","","","null","<div style=""font-size:60px;"">+</div>","null","","fixation","","","","","","","","",""
"memory-trial","49","533387","0.0-15.0-1.3","1656","2","""event"",""trial"",""time""
""blur"",""1"",""11328""
""focus"",""1"",""13291""
""blur"",""1"",""14363""
""focus"",""1"",""25597""
""blur"",""1"",""121046""
""focus"",""1"",""170804""
""blur"",""1"",""173729""
""focus"",""1"",""293413""
""fullscreenenter"",""1"",""316650""
""blur"",""35"",""464538""
""focus"",""35"",""469125""
","""event"",""trial"",""time""
""blur"",""1"",""11328""
""blur"",""1"",""14363""
""blur"",""1"",""121046""
""blur"",""1"",""173729""
""blur"",""35"",""464538""
","""event"",""trial"",""time""
""focus"",""1"",""13291""
""focus"",""1"",""25597""
""focus"",""1"",""170804""
""focus"",""1"",""293413""
""focus"",""35"",""469125""
","""event"",""trial"",""time""
""fullscreenenter"",""1"",""316650""
","
","","","","","","1045.0999999940395","images/table1.png","","","memory_trial","1","definitely_old","","","","","","",""
"html-keyboard-response","50","533902","0.0-15.0-0.4","1656","2","""event"",""trial"",""time""
""blur"",""1"",""11328""
""focus"",""1"",""13291""
""blur"",""1"",""14363""
""focus"",""1"",""25597""
""blur"",""1"",""121046""
""focus"",""1"",""170804""
""blur"",""1"",""173729""
""focus"",""1"",""293413""
""fullscreenenter"",""1"",""316650""
""blur"",""35"",""464538""
""focus"",""35"",""469125""
","""event"",""trial"",""time""
""blur"",""1"",""11328""
""blur"",""1"",""14363""
""blur"",""1"",""121046""
""blur"",""1"",""173729""
""blur"",""35"",""464538""
","""event"",""trial"",""time""
""focus"",""1"",""13291""
""focus"",""1"",""25597""
""focus"",""1"",""170804""
""focus"",""1"",""293413""
""focus"",""35"",""469125""
","""event"",""trial"",""time""
""fullscreenenter"",""1"",""316650""
","
","","","","","","null","<div style=""font-size:60px;"">+</div>","null","","fixation","","","","","","","","",""
"memory-trial","51","536128","0.0-15.0-1.4","1656","2","""event"",""trial"",""time""
""blur"",""1"",""11328""
""focus"",""1"",""13291""
""blur"",""1"",""14363""
""focus"",""1"",""25597""
""blur"",""1"",""121046""
""focus"",""1"",""170804""
""blur"",""1"",""173729""
""focus"",""1"",""293413""
""fullscreenenter"",""1"",""316650""
""blur"",""35"",""464538""
""focus"",""35"",""469125""
","""event"",""trial"",""time""
""blur"",""1"",""11328""
""blur"",""1"",""14363""
""blur"",""1"",""121046""
""blur"",""1"",""173729""
""blur"",""35"",""464538""
","""event"",""trial"",""time""
""focus"",""1"",""13291""
""focus"",""1"",""25597""
""focus"",""1"",""170804""
""focus"",""1"",""293413""
""focus"",""35"",""469125""
","""event"",""trial"",""time""
""fullscreenenter"",""1"",""316650""
","
","","","","","","1222.5999999940395","images/truck5.png","","","memory_trial","2","maybe_old","","","","","","",""
"html-keyboard-response","52","536635","0.0-15.0-0.5","1656","2","""event"",""trial"",""time""
""blur"",""1"",""11328""
""focus"",""1"",""13291""
""blur"",""1"",""14363""
""focus"",""1"",""25597""
""blur"",""1"",""121046""
""focus"",""1"",""170804""
""blur"",""1"",""173729""
""focus"",""1"",""293413""
""fullscreenenter"",""1"",""316650""
""blur"",""35"",""464538""
""focus"",""35"",""469125""
","""event"",""trial"",""time""
""blur"",""1"",""11328""
""blur"",""1"",""14363""
""blur"",""1"",""121046""
""blur"",""1"",""173729""
""blur"",""35"",""464538""
","""event"",""trial"",""time""
""focus"",""1"",""13291""
""focus"",""1"",""25597""
""focus"",""1"",""170804""
""focus"",""1"",""293413""
""focus"",""35"",""469125""
","""event"",""trial"",""time""
""fullscreenenter"",""1"",""316650""
","
","","","","","","null","<div style=""font-size:60px;"">+</div>","null","","fixation","","","","","","","","",""
"memory-trial","53","538734","0.0-15.0-1.5","1656","2","""event"",""trial"",""time""
""blur"",""1"",""11328""
""focus"",""1"",""13291""
""blur"",""1"",""14363""
""focus"",""1"",""25597""
""blur"",""1"",""121046""
""focus"",""1"",""170804""
""blur"",""1"",""173729""
""focus"",""1"",""293413""
""fullscreenenter"",""1"",""316650""
""blur"",""35"",""464538""
""focus"",""35"",""469125""
","""event"",""trial"",""time""
""blur"",""1"",""11328""
""blur"",""1"",""14363""
""blur"",""1"",""121046""
""blur"",""1"",""173729""
""blur"",""35"",""464538""
","""event"",""trial"",""time""
""focus"",""1"",""13291""
""focus"",""1"",""25597""
""focus"",""1"",""170804""
""focus"",""1"",""293413""
""focus"",""35"",""469125""
","""event"",""trial"",""time""
""fullscreenenter"",""1"",""316650""
","
","","","","","","1097.7999999821186","images/dog1.png","","","memory_trial","2","maybe_old","","","","","","",""
"html-keyboard-response","54","539235","0.0-15.0-0.6","1656","2","""event"",""trial"",""time""
""blur"",""1"",""11328""
""focus"",""1"",""13291""
""blur"",""1"",""14363""
""focus"",""1"",""25597""
""blur"",""1"",""121046""
""focus"",""1"",""170804""
""blur"",""1"",""173729""
""focus"",""1"",""293413""
""fullscreenenter"",""1"",""316650""
""blur"",""35"",""464538""
""focus"",""35"",""469125""
","""event"",""trial"",""time""
""blur"",""1"",""11328""
""blur"",""1"",""14363""
""blur"",""1"",""121046""
""blur"",""1"",""173729""
""blur"",""35"",""464538""
","""event"",""trial"",""time""
""focus"",""1"",""13291""
""focus"",""1"",""25597""
""focus"",""1"",""170804""
""focus"",""1"",""293413""
""focus"",""35"",""469125""
","""event"",""trial"",""time""
""fullscreenenter"",""1"",""316650""
","
","","","","","","null","<div style=""font-size:60px;"">+</div>","null","","fixation","","","","","","","","",""
"memory-trial","55","542021","0.0-15.0-1.6","1656","2","""event"",""trial"",""time""
""blur"",""1"",""11328""
""focus"",""1"",""13291""
""blur"",""1"",""14363""
""focus"",""1"",""25597""
""blur"",""1"",""121046""
""focus"",""1"",""170804""
""blur"",""1"",""173729""
""focus"",""1"",""293413""
""fullscreenenter"",""1"",""316650""
""blur"",""35"",""464538""
""focus"",""35"",""469125""
","""event"",""trial"",""time""
""blur"",""1"",""11328""
""blur"",""1"",""14363""
""blur"",""1"",""121046""
""blur"",""1"",""173729""
""blur"",""35"",""464538""
","""event"",""trial"",""time""
""focus"",""1"",""13291""
""focus"",""1"",""25597""
""focus"",""1"",""170804""
""focus"",""1"",""293413""
""focus"",""35"",""469125""
","""event"",""trial"",""time""
""fullscreenenter"",""1"",""316650""
","
","","","","","","1785.5","images/boat4.png","","","memory_trial","1","definitely_old","","","","","","",""
"html-keyboard-response","56","542523","0.0-15.0-0.7","1656","2","""event"",""trial"",""time""
""blur"",""1"",""11328""
""focus"",""1"",""13291""
""blur"",""1"",""14363""
""focus"",""1"",""25597""
""blur"",""1"",""121046""
""focus"",""1"",""170804""
""blur"",""1"",""173729""
""focus"",""1"",""293413""
""fullscreenenter"",""1"",""316650""
""blur"",""35"",""464538""
""focus"",""35"",""469125""
","""event"",""trial"",""time""
""blur"",""1"",""11328""
""blur"",""1"",""14363""
""blur"",""1"",""121046""
""blur"",""1"",""173729""
""blur"",""35"",""464538""
","""event"",""trial"",""time""
""focus"",""1"",""13291""
""focus"",""1"",""25597""
""focus"",""1"",""170804""
""focus"",""1"",""293413""
""focus"",""35"",""469125""
","""event"",""trial"",""time""
""fullscreenenter"",""1"",""316650""
","
","","","","","","null","<div style=""font-size:60px;"">+</div>","null","","fixation","","","","","","","","",""
"memory-trial","57","544823","0.0-15.0-1.7","1656","2","""event"",""trial"",""time""
""blur"",""1"",""11328""
""focus"",""1"",""13291""
""blur"",""1"",""14363""
""focus"",""1"",""25597""
""blur"",""1"",""121046""
""focus"",""1"",""170804""
""blur"",""1"",""173729""
""focus"",""1"",""293413""
""fullscreenenter"",""1"",""316650""
""blur"",""35"",""464538""
""focus"",""35"",""469125""
","""event"",""trial"",""time""
""blur"",""1"",""11328""
""blur"",""1"",""14363""
""blur"",""1"",""121046""
""blur"",""1"",""173729""
""blur"",""35"",""464538""
","""event"",""trial"",""time""
""focus"",""1"",""13291""
""focus"",""1"",""25597""
""focus"",""1"",""170804""
""focus"",""1"",""293413""
""focus"",""35"",""469125""
","""event"",""trial"",""time""
""fullscreenenter"",""1"",""316650""
","
","","","","","","1299.3999999761581","images/goat1.png","","","memory_trial","2","maybe_old","","","","","","",""
"html-keyboard-response","58","545324","0.0-15.0-0.8","1656","2","""event"",""trial"",""time""
""blur"",""1"",""11328""
""focus"",""1"",""13291""
""blur"",""1"",""14363""
""focus"",""1"",""25597""
""blur"",""1"",""121046""
""focus"",""1"",""170804""
""blur"",""1"",""173729""
""focus"",""1"",""293413""
""fullscreenenter"",""1"",""316650""
""blur"",""35"",""464538""
""focus"",""35"",""469125""
","""event"",""trial"",""time""
""blur"",""1"",""11328""
""blur"",""1"",""14363""
""blur"",""1"",""121046""
""blur"",""1"",""173729""
""blur"",""35"",""464538""
","""event"",""trial"",""time""
""focus"",""1"",""13291""
""focus"",""1"",""25597""
""focus"",""1"",""170804""
""focus"",""1"",""293413""
""focus"",""35"",""469125""
","""event"",""trial"",""time""
""fullscreenenter"",""1"",""316650""
","
","","","","","","null","<div style=""font-size:60px;"">+</div>","null","","fixation","","","","","","","","",""
"memory-trial","59","547760","0.0-15.0-1.8","1656","2","""event"",""trial"",""time""
""blur"",""1"",""11328""
""focus"",""1"",""13291""
""blur"",""1"",""14363""
""focus"",""1"",""25597""
""blur"",""1"",""121046""
""focus"",""1"",""170804""
""blur"",""1"",""173729""
""focus"",""1"",""293413""
""fullscreenenter"",""1"",""316650""
""blur"",""35"",""464538""
""focus"",""35"",""469125""
","""event"",""trial"",""time""
""blur"",""1"",""11328""
""blur"",""1"",""14363""
""blur"",""1"",""121046""
""blur"",""1"",""173729""
""blur"",""35"",""464538""
","""event"",""trial"",""time""
""focus"",""1"",""13291""
""focus"",""1"",""25597""
""focus"",""1"",""170804""
""focus"",""1"",""293413""
""focus"",""35"",""469125""
","""event"",""trial"",""time""
""fullscreenenter"",""1"",""316650""
","
","","","","","","1433.6000000238419","images/table5.png","","","memory_trial","1","definitely_old","","","","","","",""
"html-keyboard-response","60","548261","0.0-15.0-0.9","1656","2","""event"",""trial"",""time""
""blur"",""1"",""11328""
""focus"",""1"",""13291""
""blur"",""1"",""14363""
""focus"",""1"",""25597""
""blur"",""1"",""121046""
""focus"",""1"",""170804""
""blur"",""1"",""173729""
""focus"",""1"",""293413""
""fullscreenenter"",""1"",""316650""
""blur"",""35"",""464538""
""focus"",""35"",""469125""
","""event"",""trial"",""time""
""blur"",""1"",""11328""
""blur"",""1"",""14363""
""blur"",""1"",""121046""
""blur"",""1"",""173729""
""blur"",""35"",""464538""
","""event"",""trial"",""time""
""focus"",""1"",""13291""
""focus"",""1"",""25597""
""focus"",""1"",""170804""
""focus"",""1"",""293413""
""focus"",""35"",""469125""
","""event"",""trial"",""time""
""fullscreenenter"",""1"",""316650""
","
","","","","","","null","<div style=""font-size:60px;"">+</div>","null","","fixation","","","","","","","","",""
"memory-trial","61","551256","0.0-15.0-1.9","1656","2","""event"",""trial"",""time""
""blur"",""1"",""11328""
""focus"",""1"",""13291""
""blur"",""1"",""14363""
""focus"",""1"",""25597""
""blur"",""1"",""121046""
""focus"",""1"",""170804""
""blur"",""1"",""173729""
""focus"",""1"",""293413""
""fullscreenenter"",""1"",""316650""
""blur"",""35"",""464538""
""focus"",""35"",""469125""
","""event"",""trial"",""time""
""blur"",""1"",""11328""
""blur"",""1"",""14363""
""blur"",""1"",""121046""
""blur"",""1"",""173729""
""blur"",""35"",""464538""
","""event"",""trial"",""time""
""focus"",""1"",""13291""
""focus"",""1"",""25597""
""focus"",""1"",""170804""
""focus"",""1"",""293413""
""focus"",""35"",""469125""
","""event"",""trial"",""time""
""fullscreenenter"",""1"",""316650""
","
","","","","","","1993.6000000238419","images/banana2.png","","","memory_trial","3","maybe_new","","","","","","",""
"html-keyboard-response","62","551757","0.0-15.0-0.10","1656","2","""event"",""trial"",""time""
""blur"",""1"",""11328""
""focus"",""1"",""13291""
""blur"",""1"",""14363""
""focus"",""1"",""25597""
""blur"",""1"",""121046""
""focus"",""1"",""170804""
""blur"",""1"",""173729""
""focus"",""1"",""293413""
""fullscreenenter"",""1"",""316650""
""blur"",""35"",""464538""
""focus"",""35"",""469125""
","""event"",""trial"",""time""
""blur"",""1"",""11328""
""blur"",""1"",""14363""
""blur"",""1"",""121046""
""blur"",""1"",""173729""
""blur"",""35"",""464538""
","""event"",""trial"",""time""
""focus"",""1"",""13291""
""focus"",""1"",""25597""
""focus"",""1"",""170804""
""focus"",""1"",""293413""
""focus"",""35"",""469125""
","""event"",""trial"",""time""
""fullscreenenter"",""1"",""316650""
","
","","","","","","null","<div style=""font-size:60px;"">+</div>","null","","fixation","","","","","","","","",""
"memory-trial","63","553929","0.0-15.0-1.10","1656","2","""event"",""trial"",""time""
""blur"",""1"",""11328""
""focus"",""1"",""13291""
""blur"",""1"",""14363""
""focus"",""1"",""25597""
""blur"",""1"",""121046""
""focus"",""1"",""170804""
""blur"",""1"",""173729""
""focus"",""1"",""293413""
""fullscreenenter"",""1"",""316650""
""blur"",""35"",""464538""
""focus"",""35"",""469125""
","""event"",""trial"",""time""
""blur"",""1"",""11328""
""blur"",""1"",""14363""
""blur"",""1"",""121046""
""blur"",""1"",""173729""
""blur"",""35"",""464538""
","""event"",""trial"",""time""
""focus"",""1"",""13291""
""focus"",""1"",""25597""
""focus"",""1"",""170804""
""focus"",""1"",""293413""
""focus"",""35"",""469125""
","""event"",""trial"",""time""
""fullscreenenter"",""1"",""316650""
","
","","","","","","1169","images/boat3.png","","","memory_trial","3","maybe_new","","","","","","",""
"html-keyboard-response","64","554429","0.0-15.0-0.11","1656","2","""event"",""trial"",""time""
""blur"",""1"",""11328""
""focus"",""1"",""13291""
""blur"",""1"",""14363""
""focus"",""1"",""25597""
""blur"",""1"",""121046""
""focus"",""1"",""170804""
""blur"",""1"",""173729""
""focus"",""1"",""293413""
""fullscreenenter"",""1"",""316650""
""blur"",""35"",""464538""
""focus"",""35"",""469125""
","""event"",""trial"",""time""
""blur"",""1"",""11328""
""blur"",""1"",""14363""
""blur"",""1"",""121046""
""blur"",""1"",""173729""
""blur"",""35"",""464538""
","""event"",""trial"",""time""
""focus"",""1"",""13291""
""focus"",""1"",""25597""
""focus"",""1"",""170804""
""focus"",""1"",""293413""
""focus"",""35"",""469125""
","""event"",""trial"",""time""
""fullscreenenter"",""1"",""316650""
","
","","","","","","null","<div style=""font-size:60px;"">+</div>","null","","fixation","","","","","","","","",""
"memory-trial","65","556551","0.0-15.0-1.11","1656","2","""event"",""trial"",""time""
""blur"",""1"",""11328""
""focus"",""1"",""13291""
""blur"",""1"",""14363""
""focus"",""1"",""25597""
""blur"",""1"",""121046""
""focus"",""1"",""170804""
""blur"",""1"",""173729""
""focus"",""1"",""293413""
""fullscreenenter"",""1"",""316650""
""blur"",""35"",""464538""
""focus"",""35"",""469125""
","""event"",""trial"",""time""
""blur"",""1"",""11328""
""blur"",""1"",""14363""
""blur"",""1"",""121046""
""blur"",""1"",""173729""
""blur"",""35"",""464538""
","""event"",""trial"",""time""
""focus"",""1"",""13291""
""focus"",""1"",""25597""
""focus"",""1"",""170804""
""focus"",""1"",""293413""
""focus"",""35"",""469125""
","""event"",""trial"",""time""
""fullscreenenter"",""1"",""316650""
","
","","","","","","1120.9000000059605","images/bush3.png","","","memory_trial","1","definitely_old","","","","","","",""
"html-keyboard-response","66","557052","0.0-15.0-0.12","1656","2","""event"",""trial"",""time""
""blur"",""1"",""11328""
""focus"",""1"",""13291""
""blur"",""1"",""14363""
""focus"",""1"",""25597""
""blur"",""1"",""121046""
""focus"",""1"",""170804""
""blur"",""1"",""173729""
""focus"",""1"",""293413""
""fullscreenenter"",""1"",""316650""
""blur"",""35"",""464538""
""focus"",""35"",""469125""
","""event"",""trial"",""time""
""blur"",""1"",""11328""
""blur"",""1"",""14363""
""blur"",""1"",""121046""
""blur"",""1"",""173729""
""blur"",""35"",""464538""
","""event"",""trial"",""time""
""focus"",""1"",""13291""
""focus"",""1"",""25597""
""focus"",""1"",""170804""
""focus"",""1"",""293413""
""focus"",""35"",""469125""
","""event"",""trial"",""time""
""fullscreenenter"",""1"",""316650""
","
","","","","","","null","<div style=""font-size:60px;"">+</div>","null","","fixation","","","","","","","","",""
"memory-trial","67","558873","0.0-15.0-1.12","1656","2","""event"",""trial"",""time""
""blur"",""1"",""11328""
""focus"",""1"",""13291""
""blur"",""1"",""14363""
""focus"",""1"",""25597""
""blur"",""1"",""121046""
""focus"",""1"",""170804""
""blur"",""1"",""173729""
""focus"",""1"",""293413""
""fullscreenenter"",""1"",""316650""
""blur"",""35"",""464538""
""focus"",""35"",""469125""
","""event"",""trial"",""time""
""blur"",""1"",""11328""
""blur"",""1"",""14363""
""blur"",""1"",""121046""
""blur"",""1"",""173729""
""blur"",""35"",""464538""
","""event"",""trial"",""time""
""focus"",""1"",""13291""
""focus"",""1"",""25597""
""focus"",""1"",""170804""
""focus"",""1"",""293413""
""focus"",""35"",""469125""
","""event"",""trial"",""time""
""fullscreenenter"",""1"",""316650""
","
","","","","","","819.2000000178814","images/apple5.png","","","memory_trial","1","definitely_old","","","","","","",""
"html-keyboard-response","68","559375","0.0-15.0-0.13","1656","2","""event"",""trial"",""time""
""blur"",""1"",""11328""
""focus"",""1"",""13291""
""blur"",""1"",""14363""
""focus"",""1"",""25597""
""blur"",""1"",""121046""
""focus"",""1"",""170804""
""blur"",""1"",""173729""
""focus"",""1"",""293413""
""fullscreenenter"",""1"",""316650""
""blur"",""35"",""464538""
""focus"",""35"",""469125""
","""event"",""trial"",""time""
""blur"",""1"",""11328""
""blur"",""1"",""14363""
""blur"",""1"",""121046""
""blur"",""1"",""173729""
""blur"",""35"",""464538""
","""event"",""trial"",""time""
""focus"",""1"",""13291""
""focus"",""1"",""25597""
""focus"",""1"",""170804""
""focus"",""1"",""293413""
""focus"",""35"",""469125""
","""event"",""trial"",""time""
""fullscreenenter"",""1"",""316650""
","
","","","","","","null","<div style=""font-size:60px;"">+</div>","null","","fixation","","","","","","","","",""
"memory-trial","69","561185","0.0-15.0-1.13","1656","2","""event"",""trial"",""time""
""blur"",""1"",""11328""
""focus"",""1"",""13291""
""blur"",""1"",""14363""
""focus"",""1"",""25597""
""blur"",""1"",""121046""
""focus"",""1"",""170804""
""blur"",""1"",""173729""
""focus"",""1"",""293413""
""fullscreenenter"",""1"",""316650""
""blur"",""35"",""464538""
""focus"",""35"",""469125""
","""event"",""trial"",""time""
""blur"",""1"",""11328""
""blur"",""1"",""14363""
""blur"",""1"",""121046""
""blur"",""1"",""173729""
""blur"",""35"",""464538""
","""event"",""trial"",""time""
""focus"",""1"",""13291""
""focus"",""1"",""25597""
""focus"",""1"",""170804""
""focus"",""1"",""293413""
""focus"",""35"",""469125""
","""event"",""trial"",""time""
""fullscreenenter"",""1"",""316650""
","
","","","","","","807.8000000119209","images/sofa4.png","","","memory_trial","1","definitely_old","","","","","","",""
"html-keyboard-response","70","561686","0.0-15.0-0.14","1656","2","""event"",""trial"",""time""
""blur"",""1"",""11328""
""focus"",""1"",""13291""
""blur"",""1"",""14363""
""focus"",""1"",""25597""
""blur"",""1"",""121046""
""focus"",""1"",""170804""
""blur"",""1"",""173729""
""focus"",""1"",""293413""
""fullscreenenter"",""1"",""316650""
""blur"",""35"",""464538""
""focus"",""35"",""469125""
","""event"",""trial"",""time""
""blur"",""1"",""11328""
""blur"",""1"",""14363""
""blur"",""1"",""121046""
""blur"",""1"",""173729""
""blur"",""35"",""464538""
","""event"",""trial"",""time""
""focus"",""1"",""13291""
""focus"",""1"",""25597""
""focus"",""1"",""170804""
""focus"",""1"",""293413""
""focus"",""35"",""469125""
","""event"",""trial"",""time""
""fullscreenenter"",""1"",""316650""
","
","","","","","","null","<div style=""font-size:60px;"">+</div>","null","","fixation","","","","","","","","",""
"memory-trial","71","563811","0.0-15.0-1.14","1656","2","""event"",""trial"",""time""
""blur"",""1"",""11328""
""focus"",""1"",""13291""
""blur"",""1"",""14363""
""focus"",""1"",""25597""
""blur"",""1"",""121046""
""focus"",""1"",""170804""
""blur"",""1"",""173729""
""focus"",""1"",""293413""
""fullscreenenter"",""1"",""316650""
""blur"",""35"",""464538""
""focus"",""35"",""469125""
","""event"",""trial"",""time""
""blur"",""1"",""11328""
""blur"",""1"",""14363""
""blur"",""1"",""121046""
""blur"",""1"",""173729""
""blur"",""35"",""464538""
","""event"",""trial"",""time""
""focus"",""1"",""13291""
""focus"",""1"",""25597""
""focus"",""1"",""170804""
""focus"",""1"",""293413""
""focus"",""35"",""469125""
","""event"",""trial"",""time""
""fullscreenenter"",""1"",""316650""
","
","","","","","","1123.0999999940395","images/straw5.png","","","memory_trial","2","maybe_old","","","","","","",""
"html-keyboard-response","72","564312","0.0-15.0-0.15","1656","2","""event"",""trial"",""time""
""blur"",""1"",""11328""
""focus"",""1"",""13291""
""blur"",""1"",""14363""
""focus"",""1"",""25597""
""blur"",""1"",""121046""
""focus"",""1"",""170804""
""blur"",""1"",""173729""
""focus"",""1"",""293413""
""fullscreenenter"",""1"",""316650""
""blur"",""35"",""464538""
""focus"",""35"",""469125""
","""event"",""trial"",""time""
""blur"",""1"",""11328""
""blur"",""1"",""14363""
""blur"",""1"",""121046""
""blur"",""1"",""173729""
""blur"",""35"",""464538""
","""event"",""trial"",""time""
""focus"",""1"",""13291""
""focus"",""1"",""25597""
""focus"",""1"",""170804""
""focus"",""1"",""293413""
""focus"",""35"",""469125""
","""event"",""trial"",""time""
""fullscreenenter"",""1"",""316650""
","
","","","","","","null","<div style=""font-size:60px;"">+</div>","null","","fixation","","","","","","","","",""
"memory-trial","73","566610","0.0-15.0-1.15","1656","2","""event"",""trial"",""time""
""blur"",""1"",""11328""
""focus"",""1"",""13291""
""blur"",""1"",""14363""
""focus"",""1"",""25597""
""blur"",""1"",""121046""
""focus"",""1"",""170804""
""blur"",""1"",""173729""
""focus"",""1"",""293413""
""fullscreenenter"",""1"",""316650""
""blur"",""35"",""464538""
""focus"",""35"",""469125""
","""event"",""trial"",""time""
""blur"",""1"",""11328""
""blur"",""1"",""14363""
""blur"",""1"",""121046""
""blur"",""1"",""173729""
""blur"",""35"",""464538""
","""event"",""trial"",""time""
""focus"",""1"",""13291""
""focus"",""1"",""25597""
""focus"",""1"",""170804""
""focus"",""1"",""293413""
""focus"",""35"",""469125""
","""event"",""trial"",""time""
""fullscreenenter"",""1"",""316650""
","
","","","","","","1296.5999999940395","images/horse5.png","","","memory_trial","3","maybe_new","","","","","","",""
"html-keyboard-response","74","567111","0.0-15.0-0.16","1656","2","""event"",""trial"",""time""
""blur"",""1"",""11328""
""focus"",""1"",""13291""
""blur"",""1"",""14363""
""focus"",""1"",""25597""
""blur"",""1"",""121046""
""focus"",""1"",""170804""
""blur"",""1"",""173729""
""focus"",""1"",""293413""
""fullscreenenter"",""1"",""316650""
""blur"",""35"",""464538""
""focus"",""35"",""469125""
","""event"",""trial"",""time""
""blur"",""1"",""11328""
""blur"",""1"",""14363""
""blur"",""1"",""121046""
""blur"",""1"",""173729""
""blur"",""35"",""464538""
","""event"",""trial"",""time""
""focus"",""1"",""13291""
""focus"",""1"",""25597""
""focus"",""1"",""170804""
""focus"",""1"",""293413""
""focus"",""35"",""469125""
","""event"",""trial"",""time""
""fullscreenenter"",""1"",""316650""
","
","","","","","","null","<div style=""font-size:60px;"">+</div>","null","","fixation","","","","","","","","",""
"memory-trial","75","569084","0.0-15.0-1.16","1656","2","""event"",""trial"",""time""
""blur"",""1"",""11328""
""focus"",""1"",""13291""
""blur"",""1"",""14363""
""focus"",""1"",""25597""
""blur"",""1"",""121046""
""focus"",""1"",""170804""
""blur"",""1"",""173729""
""focus"",""1"",""293413""
""fullscreenenter"",""1"",""316650""
""blur"",""35"",""464538""
""focus"",""35"",""469125""
","""event"",""trial"",""time""
""blur"",""1"",""11328""
""blur"",""1"",""14363""
""blur"",""1"",""121046""
""blur"",""1"",""173729""
""blur"",""35"",""464538""
","""event"",""trial"",""time""
""focus"",""1"",""13291""
""focus"",""1"",""25597""
""focus"",""1"",""170804""
""focus"",""1"",""293413""
""focus"",""35"",""469125""
","""event"",""trial"",""time""
""fullscreenenter"",""1"",""316650""
","
","","","","","","971.5999999940395","images/table4.png","","","memory_trial","2","maybe_old","","","","","","",""
"html-keyboard-response","76","569585","0.0-15.0-0.17","1656","2","""event"",""trial"",""time""
""blur"",""1"",""11328""
""focus"",""1"",""13291""
""blur"",""1"",""14363""
""focus"",""1"",""25597""
""blur"",""1"",""121046""
""focus"",""1"",""170804""
""blur"",""1"",""173729""
""focus"",""1"",""293413""
""fullscreenenter"",""1"",""316650""
""blur"",""35"",""464538""
""focus"",""35"",""469125""
","""event"",""trial"",""time""
""blur"",""1"",""11328""
""blur"",""1"",""14363""
""blur"",""1"",""121046""
""blur"",""1"",""173729""
""blur"",""35"",""464538""
","""event"",""trial"",""time""
""focus"",""1"",""13291""
""focus"",""1"",""25597""
""focus"",""1"",""170804""
""focus"",""1"",""293413""
""focus"",""35"",""469125""
","""event"",""trial"",""time""
""fullscreenenter"",""1"",""316650""
","
","","","","","","null","<div style=""font-size:60px;"">+</div>","null","","fixation","","","","","","","","",""
"memory-trial","77","571994","0.0-15.0-1.17","1656","2","""event"",""trial"",""time""
""blur"",""1"",""11328""
""focus"",""1"",""13291""
""blur"",""1"",""14363""
""focus"",""1"",""25597""
""blur"",""1"",""121046""
""focus"",""1"",""170804""
""blur"",""1"",""173729""
""focus"",""1"",""293413""
""fullscreenenter"",""1"",""316650""
""blur"",""35"",""464538""
""focus"",""35"",""469125""
","""event"",""trial"",""time""
""blur"",""1"",""11328""
""blur"",""1"",""14363""
""blur"",""1"",""121046""
""blur"",""1"",""173729""
""blur"",""35"",""464538""
","""event"",""trial"",""time""
""focus"",""1"",""13291""
""focus"",""1"",""25597""
""focus"",""1"",""170804""
""focus"",""1"",""293413""
""focus"",""35"",""469125""
","""event"",""trial"",""time""
""fullscreenenter"",""1"",""316650""
","
","","","","","","1408","images/truck1.png","","","memory_trial","2","maybe_old","","","","","","",""
"html-keyboard-response","78","572495","0.0-15.0-0.18","1656","2","""event"",""trial"",""time""
""blur"",""1"",""11328""
""focus"",""1"",""13291""
""blur"",""1"",""14363""
""focus"",""1"",""25597""
""blur"",""1"",""121046""
""focus"",""1"",""170804""
""blur"",""1"",""173729""
""focus"",""1"",""293413""
""fullscreenenter"",""1"",""316650""
""blur"",""35"",""464538""
""focus"",""35"",""469125""
","""event"",""trial"",""time""
""blur"",""1"",""11328""
""blur"",""1"",""14363""
""blur"",""1"",""121046""
""blur"",""1"",""173729""
""blur"",""35"",""464538""
","""event"",""trial"",""time""
""focus"",""1"",""13291""
""focus"",""1"",""25597""
""focus"",""1"",""170804""
""focus"",""1"",""293413""
""focus"",""35"",""469125""
","""event"",""trial"",""time""
""fullscreenenter"",""1"",""316650""
","
","","","","","","null","<div style=""font-size:60px;"">+</div>","null","","fixation","","","","","","","","",""
"memory-trial","79","574554","0.0-15.0-1.18","1656","2","""event"",""trial"",""time""
""blur"",""1"",""11328""
""focus"",""1"",""13291""
""blur"",""1"",""14363""
""focus"",""1"",""25597""
""blur"",""1"",""121046""
""focus"",""1"",""170804""
""blur"",""1"",""173729""
""focus"",""1"",""293413""
""fullscreenenter"",""1"",""316650""
""blur"",""35"",""464538""
""focus"",""35"",""469125""
","""event"",""trial"",""time""
""blur"",""1"",""11328""
""blur"",""1"",""14363""
""blur"",""1"",""121046""
""blur"",""1"",""173729""
""blur"",""35"",""464538""
","""event"",""trial"",""time""
""focus"",""1"",""13291""
""focus"",""1"",""25597""
""focus"",""1"",""170804""
""focus"",""1"",""293413""
""focus"",""35"",""469125""
","""event"",""trial"",""time""
""fullscreenenter"",""1"",""316650""
","
","","","","","","1057.699999988079","images/bush4.png","","","memory_trial","1","definitely_old","","","","","","",""
"html-keyboard-response","80","575056","0.0-15.0-0.19","1656","2","""event"",""trial"",""time""
""blur"",""1"",""11328""
""focus"",""1"",""13291""
""blur"",""1"",""14363""
""focus"",""1"",""25597""
""blur"",""1"",""121046""
""focus"",""1"",""170804""
""blur"",""1"",""173729""
""focus"",""1"",""293413""
""fullscreenenter"",""1"",""316650""
""blur"",""35"",""464538""
""focus"",""35"",""469125""
","""event"",""trial"",""time""
""blur"",""1"",""11328""
""blur"",""1"",""14363""
""blur"",""1"",""121046""
""blur"",""1"",""173729""
""blur"",""35"",""464538""
","""event"",""trial"",""time""
""focus"",""1"",""13291""
""focus"",""1"",""25597""
""focus"",""1"",""170804""
""focus"",""1"",""293413""
""focus"",""35"",""469125""
","""event"",""trial"",""time""
""fullscreenenter"",""1"",""316650""
","
","","","","","","null","<div style=""font-size:60px;"">+</div>","null","","fixation","","","","","","","","",""
"memory-trial","81","577962","0.0-15.0-1.19","1656","2","""event"",""trial"",""time""
""blur"",""1"",""11328""
""focus"",""1"",""13291""
""blur"",""1"",""14363""
""focus"",""1"",""25597""
""blur"",""1"",""121046""
""focus"",""1"",""170804""
""blur"",""1"",""173729""
""focus"",""1"",""293413""
""fullscreenenter"",""1"",""316650""
""blur"",""35"",""464538""
""focus"",""35"",""469125""
","""event"",""trial"",""time""
""blur"",""1"",""11328""
""blur"",""1"",""14363""
""blur"",""1"",""121046""
""blur"",""1"",""173729""
""blur"",""35"",""464538""
","""event"",""trial"",""time""
""focus"",""1"",""13291""
""focus"",""1"",""25597""
""focus"",""1"",""170804""
""focus"",""1"",""293413""
""focus"",""35"",""469125""
","""event"",""trial"",""time""
""fullscreenenter"",""1"",""316650""
","
","","","","","","1904.300000011921","images/dog3.png","","","memory_trial","1","definitely_old","","","","","","",""
"html-keyboard-response","82","578464","0.0-15.0-0.20","1656","2","""event"",""trial"",""time""
""blur"",""1"",""11328""
""focus"",""1"",""13291""
""blur"",""1"",""14363""
""focus"",""1"",""25597""
""blur"",""1"",""121046""
""focus"",""1"",""170804""
""blur"",""1"",""173729""
""focus"",""1"",""293413""
""fullscreenenter"",""1"",""316650""
""blur"",""35"",""464538""
""focus"",""35"",""469125""
","""event"",""trial"",""time""
""blur"",""1"",""11328""
""blur"",""1"",""14363""
""blur"",""1"",""121046""
""blur"",""1"",""173729""
""blur"",""35"",""464538""
","""event"",""trial"",""time""
""focus"",""1"",""13291""
""focus"",""1"",""25597""
""focus"",""1"",""170804""
""focus"",""1"",""293413""
""focus"",""35"",""469125""
","""event"",""trial"",""time""
""fullscreenenter"",""1"",""316650""
","
","","","","","","null","<div style=""font-size:60px;"">+</div>","null","","fixation","","","","","","","","",""
"memory-trial","83","580458","0.0-15.0-1.20","1656","2","""event"",""trial"",""time""
""blur"",""1"",""11328""
""focus"",""1"",""13291""
""blur"",""1"",""14363""
""focus"",""1"",""25597""
""blur"",""1"",""121046""
""focus"",""1"",""170804""
""blur"",""1"",""173729""
""focus"",""1"",""293413""
""fullscreenenter"",""1"",""316650""
""blur"",""35"",""464538""
""focus"",""35"",""469125""
","""event"",""trial"",""time""
""blur"",""1"",""11328""
""blur"",""1"",""14363""
""blur"",""1"",""121046""
""blur"",""1"",""173729""
""blur"",""35"",""464538""
","""event"",""trial"",""time""
""focus"",""1"",""13291""
""focus"",""1"",""25597""
""focus"",""1"",""170804""
""focus"",""1"",""293413""
""focus"",""35"",""469125""
","""event"",""trial"",""time""
""fullscreenenter"",""1"",""316650""
","
","","","","","","992.5999999940395","images/sofa3.png","","","memory_trial","3","maybe_new","","","","","","",""
"html-keyboard-response","84","580959","0.0-15.0-0.21","1656","2","""event"",""trial"",""time""
""blur"",""1"",""11328""
""focus"",""1"",""13291""
""blur"",""1"",""14363""
""focus"",""1"",""25597""
""blur"",""1"",""121046""
""focus"",""1"",""170804""
""blur"",""1"",""173729""
""focus"",""1"",""293413""
""fullscreenenter"",""1"",""316650""
""blur"",""35"",""464538""
""focus"",""35"",""469125""
","""event"",""trial"",""time""
""blur"",""1"",""11328""
""blur"",""1"",""14363""
""blur"",""1"",""121046""
""blur"",""1"",""173729""
""blur"",""35"",""464538""
","""event"",""trial"",""time""
""focus"",""1"",""13291""
""focus"",""1"",""25597""
""focus"",""1"",""170804""
""focus"",""1"",""293413""
""focus"",""35"",""469125""
","""event"",""trial"",""time""
""fullscreenenter"",""1"",""316650""
","
","","","","","","null","<div style=""font-size:60px;"">+</div>","null","","fixation","","","","","","","","",""
"memory-trial","85","584772","0.0-15.0-1.21","1656","2","""event"",""trial"",""time""
""blur"",""1"",""11328""
""focus"",""1"",""13291""
""blur"",""1"",""14363""
""focus"",""1"",""25597""
""blur"",""1"",""121046""
""focus"",""1"",""170804""
""blur"",""1"",""173729""
""focus"",""1"",""293413""
""fullscreenenter"",""1"",""316650""
""blur"",""35"",""464538""
""focus"",""35"",""469125""
","""event"",""trial"",""time""
""blur"",""1"",""11328""
""blur"",""1"",""14363""
""blur"",""1"",""121046""
""blur"",""1"",""173729""
""blur"",""35"",""464538""
","""event"",""trial"",""time""
""focus"",""1"",""13291""
""focus"",""1"",""25597""
""focus"",""1"",""170804""
""focus"",""1"",""293413""
""focus"",""35"",""469125""
","""event"",""trial"",""time""
""fullscreenenter"",""1"",""316650""
","
","","","","","","2811.699999988079","images/table2.png","","","memory_trial","2","maybe_old","","","","","","",""
"html-keyboard-response","86","585274","0.0-15.0-0.22","1656","2","""event"",""trial"",""time""
""blur"",""1"",""11328""
""focus"",""1"",""13291""
""blur"",""1"",""14363""
""focus"",""1"",""25597""
""blur"",""1"",""121046""
""focus"",""1"",""170804""
""blur"",""1"",""173729""
""focus"",""1"",""293413""
""fullscreenenter"",""1"",""316650""
""blur"",""35"",""464538""
""focus"",""35"",""469125""
","""event"",""trial"",""time""
""blur"",""1"",""11328""
""blur"",""1"",""14363""
""blur"",""1"",""121046""
""blur"",""1"",""173729""
""blur"",""35"",""464538""
","""event"",""trial"",""time""
""focus"",""1"",""13291""
""focus"",""1"",""25597""
""focus"",""1"",""170804""
""focus"",""1"",""293413""
""focus"",""35"",""469125""
","""event"",""trial"",""time""
""fullscreenenter"",""1"",""316650""
","
","","","","","","null","<div style=""font-size:60px;"">+</div>","null","","fixation","","","","","","","","",""
"memory-trial","87","587219","0.0-15.0-1.22","1656","2","""event"",""trial"",""time""
""blur"",""1"",""11328""
""focus"",""1"",""13291""
""blur"",""1"",""14363""
""focus"",""1"",""25597""
""blur"",""1"",""121046""
""focus"",""1"",""170804""
""blur"",""1"",""173729""
""focus"",""1"",""293413""
""fullscreenenter"",""1"",""316650""
""blur"",""35"",""464538""
""focus"",""35"",""469125""
","""event"",""trial"",""time""
""blur"",""1"",""11328""
""blur"",""1"",""14363""
""blur"",""1"",""121046""
""blur"",""1"",""173729""
""blur"",""35"",""464538""
","""event"",""trial"",""time""
""focus"",""1"",""13291""
""focus"",""1"",""25597""
""focus"",""1"",""170804""
""focus"",""1"",""293413""
""focus"",""35"",""469125""
","""event"",""trial"",""time""
""fullscreenenter"",""1"",""316650""
","
","","","","","","943.1000000238419","images/straw2.png","","","memory_trial","2","maybe_old","","","","","","",""
"html-keyboard-response","88","587720","0.0-15.0-0.23","1656","2","""event"",""trial"",""time""
""blur"",""1"",""11328""
""focus"",""1"",""13291""
""blur"",""1"",""14363""
""focus"",""1"",""25597""
""blur"",""1"",""121046""
""focus"",""1"",""170804""
""blur"",""1"",""173729""
""focus"",""1"",""293413""
""fullscreenenter"",""1"",""316650""
""blur"",""35"",""464538""
""focus"",""35"",""469125""
","""event"",""trial"",""time""
""blur"",""1"",""11328""
""blur"",""1"",""14363""
""blur"",""1"",""121046""
""blur"",""1"",""173729""
""blur"",""35"",""464538""
","""event"",""trial"",""time""
""focus"",""1"",""13291""
""focus"",""1"",""25597""
""focus"",""1"",""170804""
""focus"",""1"",""293413""
""focus"",""35"",""469125""
","""event"",""trial"",""time""
""fullscreenenter"",""1"",""316650""
","
","","","","","","null","<div style=""font-size:60px;"">+</div>","null","","fixation","","","","","","","","",""
"memory-trial","89","590341","0.0-15.0-1.23","1656","2","""event"",""trial"",""time""
""blur"",""1"",""11328""
""focus"",""1"",""13291""
""blur"",""1"",""14363""
""focus"",""1"",""25597""
""blur"",""1"",""121046""
""focus"",""1"",""170804""
""blur"",""1"",""173729""
""focus"",""1"",""293413""
""fullscreenenter"",""1"",""316650""
""blur"",""35"",""464538""
""focus"",""35"",""469125""
","""event"",""trial"",""time""
""blur"",""1"",""11328""
""blur"",""1"",""14363""
""blur"",""1"",""121046""
""blur"",""1"",""173729""
""blur"",""35"",""464538""
","""event"",""trial"",""time""
""focus"",""1"",""13291""
""focus"",""1"",""25597""
""focus"",""1"",""170804""
""focus"",""1"",""293413""
""focus"",""35"",""469125""
","""event"",""trial"",""time""
""fullscreenenter"",""1"",""316650""
","
","","","","","","1619.199999988079","images/sheep5.png","","","memory_trial","2","maybe_old","","","","","","",""
"html-keyboard-response","90","590842","0.0-15.0-0.24","1656","2","""event"",""trial"",""time""
""blur"",""1"",""11328""
""focus"",""1"",""13291""
""blur"",""1"",""14363""
""focus"",""1"",""25597""
""blur"",""1"",""121046""
""focus"",""1"",""170804""
""blur"",""1"",""173729""
""focus"",""1"",""293413""
""fullscreenenter"",""1"",""316650""
""blur"",""35"",""464538""
""focus"",""35"",""469125""
","""event"",""trial"",""time""
""blur"",""1"",""11328""
""blur"",""1"",""14363""
""blur"",""1"",""121046""
""blur"",""1"",""173729""
""blur"",""35"",""464538""
","""event"",""trial"",""time""
""focus"",""1"",""13291""
""focus"",""1"",""25597""
""focus"",""1"",""170804""
""focus"",""1"",""293413""
""focus"",""35"",""469125""
","""event"",""trial"",""time""
""fullscreenenter"",""1"",""316650""
","
","","","","","","null","<div style=""font-size:60px;"">+</div>","null","","fixation","","","","","","","","",""
"memory-trial","91","592996","0.0-15.0-1.24","1656","2","""event"",""trial"",""time""
""blur"",""1"",""11328""
""focus"",""1"",""13291""
""blur"",""1"",""14363""
""focus"",""1"",""25597""
""blur"",""1"",""121046""
""focus"",""1"",""170804""
""blur"",""1"",""173729""
""focus"",""1"",""293413""
""fullscreenenter"",""1"",""316650""
""blur"",""35"",""464538""
""focus"",""35"",""469125""
","""event"",""trial"",""time""
""blur"",""1"",""11328""
""blur"",""1"",""14363""
""blur"",""1"",""121046""
""blur"",""1"",""173729""
""blur"",""35"",""464538""
","""event"",""trial"",""time""
""focus"",""1"",""13291""
""focus"",""1"",""25597""
""focus"",""1"",""170804""
""focus"",""1"",""293413""
""focus"",""35"",""469125""
","""event"",""trial"",""time""
""fullscreenenter"",""1"",""316650""
","
","","","","","","1152.300000011921","images/goat4.png","","","memory_trial","3","maybe_new","","","","","","",""
"html-keyboard-response","92","593497","0.0-15.0-0.25","1656","2","""event"",""trial"",""time""
""blur"",""1"",""11328""
""focus"",""1"",""13291""
""blur"",""1"",""14363""
""focus"",""1"",""25597""
""blur"",""1"",""121046""
""focus"",""1"",""170804""
""blur"",""1"",""173729""
""focus"",""1"",""293413""
""fullscreenenter"",""1"",""316650""
""blur"",""35"",""464538""
""focus"",""35"",""469125""
","""event"",""trial"",""time""
""blur"",""1"",""11328""
""blur"",""1"",""14363""
""blur"",""1"",""121046""
""blur"",""1"",""173729""
""blur"",""35"",""464538""
","""event"",""trial"",""time""
""focus"",""1"",""13291""
""focus"",""1"",""25597""
""focus"",""1"",""170804""
""focus"",""1"",""293413""
""focus"",""35"",""469125""
","""event"",""trial"",""time""
""fullscreenenter"",""1"",""316650""
","
","","","","","","null","<div style=""font-size:60px;"">+</div>","null","","fixation","","","","","","","","",""
"memory-trial","93","595627","0.0-15.0-1.25","1656","2","""event"",""trial"",""time""
""blur"",""1"",""11328""
""focus"",""1"",""13291""
""blur"",""1"",""14363""
""focus"",""1"",""25597""
""blur"",""1"",""121046""
""focus"",""1"",""170804""
""blur"",""1"",""173729""
""focus"",""1"",""293413""
""fullscreenenter"",""1"",""316650""
""blur"",""35"",""464538""
""focus"",""35"",""469125""
","""event"",""trial"",""time""
""blur"",""1"",""11328""
""blur"",""1"",""14363""
""blur"",""1"",""121046""
""blur"",""1"",""173729""
""blur"",""35"",""464538""
","""event"",""trial"",""time""
""focus"",""1"",""13291""
""focus"",""1"",""25597""
""focus"",""1"",""170804""
""focus"",""1"",""293413""
""focus"",""35"",""469125""
","""event"",""trial"",""time""
""fullscreenenter"",""1"",""316650""
","
","","","","","","1129","images/flower1.png","","","memory_trial","3","maybe_new","","","","","","",""
"html-keyboard-response","94","596128","0.0-15.0-0.26","1656","2","""event"",""trial"",""time""
""blur"",""1"",""11328""
""focus"",""1"",""13291""
""blur"",""1"",""14363""
""focus"",""1"",""25597""
""blur"",""1"",""121046""
""focus"",""1"",""170804""
""blur"",""1"",""173729""
""focus"",""1"",""293413""
""fullscreenenter"",""1"",""316650""
""blur"",""35"",""464538""
""focus"",""35"",""469125""
","""event"",""trial"",""time""
""blur"",""1"",""11328""
""blur"",""1"",""14363""
""blur"",""1"",""121046""
""blur"",""1"",""173729""
""blur"",""35"",""464538""
","""event"",""trial"",""time""
""focus"",""1"",""13291""
""focus"",""1"",""25597""
""focus"",""1"",""170804""
""focus"",""1"",""293413""
""focus"",""35"",""469125""
","""event"",""trial"",""time""
""fullscreenenter"",""1"",""316650""
","
","","","","","","null","<div style=""font-size:60px;"">+</div>","null","","fixation","","","","","","","","",""
"memory-trial","95","597915","0.0-15.0-1.26","1656","2","""event"",""trial"",""time""
""blur"",""1"",""11328""
""focus"",""1"",""13291""
""blur"",""1"",""14363""
""focus"",""1"",""25597""
""blur"",""1"",""121046""
""focus"",""1"",""170804""
""blur"",""1"",""173729""
""focus"",""1"",""293413""
""fullscreenenter"",""1"",""316650""
""blur"",""35"",""464538""
""focus"",""35"",""469125""
","""event"",""trial"",""time""
""blur"",""1"",""11328""
""blur"",""1"",""14363""
""blur"",""1"",""121046""
""blur"",""1"",""173729""
""blur"",""35"",""464538""
","""event"",""trial"",""time""
""focus"",""1"",""13291""
""focus"",""1"",""25597""
""focus"",""1"",""170804""
""focus"",""1"",""293413""
""focus"",""35"",""469125""
","""event"",""trial"",""time""
""fullscreenenter"",""1"",""316650""
","
","","","","","","785.1999999880791","images/horse4.png","","","memory_trial","3","maybe_new","","","","","","",""
"html-keyboard-response","96","598416","0.0-15.0-0.27","1656","2","""event"",""trial"",""time""
""blur"",""1"",""11328""
""focus"",""1"",""13291""
""blur"",""1"",""14363""
""focus"",""1"",""25597""
""blur"",""1"",""121046""
""focus"",""1"",""170804""
""blur"",""1"",""173729""
""focus"",""1"",""293413""
""fullscreenenter"",""1"",""316650""
""blur"",""35"",""464538""
""focus"",""35"",""469125""
","""event"",""trial"",""time""
""blur"",""1"",""11328""
""blur"",""1"",""14363""
""blur"",""1"",""121046""
""blur"",""1"",""173729""
""blur"",""35"",""464538""
","""event"",""trial"",""time""
""focus"",""1"",""13291""
""focus"",""1"",""25597""
""focus"",""1"",""170804""
""focus"",""1"",""293413""
""focus"",""35"",""469125""
","""event"",""trial"",""time""
""fullscreenenter"",""1"",""316650""
","
","","","","","","null","<div style=""font-size:60px;"">+</div>","null","","fixation","","","","","","","","",""
"memory-trial","97","601036","0.0-15.0-1.27","1656","2","""event"",""trial"",""time""
""blur"",""1"",""11328""
""focus"",""1"",""13291""
""blur"",""1"",""14363""
""focus"",""1"",""25597""
""blur"",""1"",""121046""
""focus"",""1"",""170804""
""blur"",""1"",""173729""
""focus"",""1"",""293413""
""fullscreenenter"",""1"",""316650""
""blur"",""35"",""464538""
""focus"",""35"",""469125""
","""event"",""trial"",""time""
""blur"",""1"",""11328""
""blur"",""1"",""14363""
""blur"",""1"",""121046""
""blur"",""1"",""173729""
""blur"",""35"",""464538""
","""event"",""trial"",""time""
""focus"",""1"",""13291""
""focus"",""1"",""25597""
""focus"",""1"",""170804""
""focus"",""1"",""293413""
""focus"",""35"",""469125""
","""event"",""trial"",""time""
""fullscreenenter"",""1"",""316650""
","
","","","","","","1618.5","images/tree1.png","","","memory_trial","2","maybe_old","","","","","","",""
"html-keyboard-response","98","601537","0.0-15.0-0.28","1656","2","""event"",""trial"",""time""
""blur"",""1"",""11328""
""focus"",""1"",""13291""
""blur"",""1"",""14363""
""focus"",""1"",""25597""
""blur"",""1"",""121046""
""focus"",""1"",""170804""
""blur"",""1"",""173729""
""focus"",""1"",""293413""
""fullscreenenter"",""1"",""316650""
""blur"",""35"",""464538""
""focus"",""35"",""469125""
","""event"",""trial"",""time""
""blur"",""1"",""11328""
""blur"",""1"",""14363""
""blur"",""1"",""121046""
""blur"",""1"",""173729""
""blur"",""35"",""464538""
","""event"",""trial"",""time""
""focus"",""1"",""13291""
""focus"",""1"",""25597""
""focus"",""1"",""170804""
""focus"",""1"",""293413""
""focus"",""35"",""469125""
","""event"",""trial"",""time""
""fullscreenenter"",""1"",""316650""
","
","","","","","","null","<div style=""font-size:60px;"">+</div>","null","","fixation","","","","","","","","",""
"memory-trial","99","603724","0.0-15.0-1.28","1656","2","""event"",""trial"",""time""
""blur"",""1"",""11328""
""focus"",""1"",""13291""
""blur"",""1"",""14363""
""focus"",""1"",""25597""
""blur"",""1"",""121046""
""focus"",""1"",""170804""
""blur"",""1"",""173729""
""focus"",""1"",""293413""
""fullscreenenter"",""1"",""316650""
""blur"",""35"",""464538""
""focus"",""35"",""469125""
","""event"",""trial"",""time""
""blur"",""1"",""11328""
""blur"",""1"",""14363""
""blur"",""1"",""121046""
""blur"",""1"",""173729""
""blur"",""35"",""464538""
","""event"",""trial"",""time""
""focus"",""1"",""13291""
""focus"",""1"",""25597""
""focus"",""1"",""170804""
""focus"",""1"",""293413""
""focus"",""35"",""469125""
","""event"",""trial"",""time""
""fullscreenenter"",""1"",""316650""
","
","","","","","","1186.199999988079","images/goat3.png","","","memory_trial","3","maybe_new","","","","","","",""
"html-keyboard-response","100","604226","0.0-15.0-0.29","1656","2","""event"",""trial"",""time""
""blur"",""1"",""11328""
""focus"",""1"",""13291""
""blur"",""1"",""14363""
""focus"",""1"",""25597""
""blur"",""1"",""121046""
""focus"",""1"",""170804""
""blur"",""1"",""173729""
""focus"",""1"",""293413""
""fullscreenenter"",""1"",""316650""
""blur"",""35"",""464538""
""focus"",""35"",""469125""
","""event"",""trial"",""time""
""blur"",""1"",""11328""
""blur"",""1"",""14363""
""blur"",""1"",""121046""
""blur"",""1"",""173729""
""blur"",""35"",""464538""
","""event"",""trial"",""time""
""focus"",""1"",""13291""
""focus"",""1"",""25597""
""focus"",""1"",""170804""
""focus"",""1"",""293413""
""focus"",""35"",""469125""
","""event"",""trial"",""time""
""fullscreenenter"",""1"",""316650""
","
","","","","","","null","<div style=""font-size:60px;"">+</div>","null","","fixation","","","","","","","","",""
"memory-trial","101","606581","0.0-15.0-1.29","1656","2","""event"",""trial"",""time""
""blur"",""1"",""11328""
""focus"",""1"",""13291""
""blur"",""1"",""14363""
""focus"",""1"",""25597""
""blur"",""1"",""121046""
""focus"",""1"",""170804""
""blur"",""1"",""173729""
""focus"",""1"",""293413""
""fullscreenenter"",""1"",""316650""
""blur"",""35"",""464538""
""focus"",""35"",""469125""
","""event"",""trial"",""time""
""blur"",""1"",""11328""
""blur"",""1"",""14363""
""blur"",""1"",""121046""
""blur"",""1"",""173729""
""blur"",""35"",""464538""
","""event"",""trial"",""time""
""focus"",""1"",""13291""
""focus"",""1"",""25597""
""focus"",""1"",""170804""
""focus"",""1"",""293413""
""focus"",""35"",""469125""
","""event"",""trial"",""time""
""fullscreenenter"",""1"",""316650""
","
","","","","","","1353.5","images/chair3.png","","","memory_trial","3","maybe_new","","","","","","",""
"html-keyboard-response","102","607082","0.0-15.0-0.30","1656","2","""event"",""trial"",""time""
""blur"",""1"",""11328""
""focus"",""1"",""13291""
""blur"",""1"",""14363""
""focus"",""1"",""25597""
""blur"",""1"",""121046""
""focus"",""1"",""170804""
""blur"",""1"",""173729""
""focus"",""1"",""293413""
""fullscreenenter"",""1"",""316650""
""blur"",""35"",""464538""
""focus"",""35"",""469125""
","""event"",""trial"",""time""
""blur"",""1"",""11328""
""blur"",""1"",""14363""
""blur"",""1"",""121046""
""blur"",""1"",""173729""
""blur"",""35"",""464538""
","""event"",""trial"",""time""
""focus"",""1"",""13291""
""focus"",""1"",""25597""
""focus"",""1"",""170804""
""focus"",""1"",""293413""
""focus"",""35"",""469125""
","""event"",""trial"",""time""
""fullscreenenter"",""1"",""316650""
","
","","","","","","null","<div style=""font-size:60px;"">+</div>","null","","fixation","","","","","","","","",""
"memory-trial","103","611237","0.0-15.0-1.30","1656","2","""event"",""trial"",""time""
""blur"",""1"",""11328""
""focus"",""1"",""13291""
""blur"",""1"",""14363""
""focus"",""1"",""25597""
""blur"",""1"",""121046""
""focus"",""1"",""170804""
""blur"",""1"",""173729""
""focus"",""1"",""293413""
""fullscreenenter"",""1"",""316650""
""blur"",""35"",""464538""
""focus"",""35"",""469125""
","""event"",""trial"",""time""
""blur"",""1"",""11328""
""blur"",""1"",""14363""
""blur"",""1"",""121046""
""blur"",""1"",""173729""
""blur"",""35"",""464538""
","""event"",""trial"",""time""
""focus"",""1"",""13291""
""focus"",""1"",""25597""
""focus"",""1"",""170804""
""focus"",""1"",""293413""
""focus"",""35"",""469125""
","""event"",""trial"",""time""
""fullscreenenter"",""1"",""316650""
","
","","","","","","3153.5999999940395","images/boat1.png","","","memory_trial","1","definitely_old","","","","","","",""
"html-keyboard-response","104","611738","0.0-15.0-0.31","1656","2","""event"",""trial"",""time""
""blur"",""1"",""11328""
""focus"",""1"",""13291""
""blur"",""1"",""14363""
""focus"",""1"",""25597""
""blur"",""1"",""121046""
""focus"",""1"",""170804""
""blur"",""1"",""173729""
""focus"",""1"",""293413""
""fullscreenenter"",""1"",""316650""
""blur"",""35"",""464538""
""focus"",""35"",""469125""
","""event"",""trial"",""time""
""blur"",""1"",""11328""
""blur"",""1"",""14363""
""blur"",""1"",""121046""
""blur"",""1"",""173729""
""blur"",""35"",""464538""
","""event"",""trial"",""time""
""focus"",""1"",""13291""
""focus"",""1"",""25597""
""focus"",""1"",""170804""
""focus"",""1"",""293413""
""focus"",""35"",""469125""
","""event"",""trial"",""time""
""fullscreenenter"",""1"",""316650""
","
","","","","","","null","<div style=""font-size:60px;"">+</div>","null","","fixation","","","","","","","","",""
"memory-trial","105","614606","0.0-15.0-1.31","1656","2","""event"",""trial"",""time""
""blur"",""1"",""11328""
""focus"",""1"",""13291""
""blur"",""1"",""14363""
""focus"",""1"",""25597""
""blur"",""1"",""121046""
""focus"",""1"",""170804""
""blur"",""1"",""173729""
""focus"",""1"",""293413""
""fullscreenenter"",""1"",""316650""
""blur"",""35"",""464538""
""focus"",""35"",""469125""
","""event"",""trial"",""time""
""blur"",""1"",""11328""
""blur"",""1"",""14363""
""blur"",""1"",""121046""
""blur"",""1"",""173729""
""blur"",""35"",""464538""
","""event"",""trial"",""time""
""focus"",""1"",""13291""
""focus"",""1"",""25597""
""focus"",""1"",""170804""
""focus"",""1"",""293413""
""focus"",""35"",""469125""
","""event"",""trial"",""time""
""fullscreenenter"",""1"",""316650""
","
","","","","","","1865.5999999940395","images/bed3.png","","","memory_trial","3","maybe_new","","","","","","",""
"html-keyboard-response","106","615107","0.0-15.0-0.32","1656","2","""event"",""trial"",""time""
""blur"",""1"",""11328""
""focus"",""1"",""13291""
""blur"",""1"",""14363""
""focus"",""1"",""25597""
""blur"",""1"",""121046""
""focus"",""1"",""170804""
""blur"",""1"",""173729""
""focus"",""1"",""293413""
""fullscreenenter"",""1"",""316650""
""blur"",""35"",""464538""
""focus"",""35"",""469125""
","""event"",""trial"",""time""
""blur"",""1"",""11328""
""blur"",""1"",""14363""
""blur"",""1"",""121046""
""blur"",""1"",""173729""
""blur"",""35"",""464538""
","""event"",""trial"",""time""
""focus"",""1"",""13291""
""focus"",""1"",""25597""
""focus"",""1"",""170804""
""focus"",""1"",""293413""
""focus"",""35"",""469125""
","""event"",""trial"",""time""
""fullscreenenter"",""1"",""316650""
","
","","","","","","null","<div style=""font-size:60px;"">+</div>","null","","fixation","","","","","","","","",""
"memory-trial","107","617605","0.0-15.0-1.32","1656","2","""event"",""trial"",""time""
""blur"",""1"",""11328""
""focus"",""1"",""13291""
""blur"",""1"",""14363""
""focus"",""1"",""25597""
""blur"",""1"",""121046""
""focus"",""1"",""170804""
""blur"",""1"",""173729""
""focus"",""1"",""293413""
""fullscreenenter"",""1"",""316650""
""blur"",""35"",""464538""
""focus"",""35"",""469125""
","""event"",""trial"",""time""
""blur"",""1"",""11328""
""blur"",""1"",""14363""
""blur"",""1"",""121046""
""blur"",""1"",""173729""
""blur"",""35"",""464538""
","""event"",""trial"",""time""
""focus"",""1"",""13291""
""focus"",""1"",""25597""
""focus"",""1"",""170804""
""focus"",""1"",""293413""
""focus"",""35"",""469125""
","""event"",""trial"",""time""
""fullscreenenter"",""1"",""316650""
","
","","","","","","1497","images/plane3.png","","","memory_trial","3","maybe_new","","","","","","",""
"html-keyboard-response","108","618106","0.0-15.0-0.33","1656","2","""event"",""trial"",""time""
""blur"",""1"",""11328""
""focus"",""1"",""13291""
""blur"",""1"",""14363""
""focus"",""1"",""25597""
""blur"",""1"",""121046""
""focus"",""1"",""170804""
""blur"",""1"",""173729""
""focus"",""1"",""293413""
""fullscreenenter"",""1"",""316650""
""blur"",""35"",""464538""
""focus"",""35"",""469125""
","""event"",""trial"",""time""
""blur"",""1"",""11328""
