"trial_type","trial_index","time_elapsed","internal_node_id","subject_id","task_version","interactions","blur_events","focus_events","fullscreenenter_events","fullscreenexit_events","success","timeout","failed_images","failed_audio","failed_video","rt","stimulus","response","button_pressed","task_part","key_press","answer","correct","left_choice","middle_choice","right_choice","choice_positions","option_selected","block"
"pavlovia","0","4","0.0-0.0","1866","2","""event"",""trial"",""time""
""fullscreenenter"",""1"",""2174""
","
","
","""event"",""trial"",""time""
""fullscreenenter"",""1"",""2174""
","
","","","","","","","","","","","","","","","","","","",""
"fullscreen","1","3149","0.0-1.0","1866","2","""event"",""trial"",""time""
""fullscreenenter"",""1"",""2174""
","
","
","""event"",""trial"",""time""
""fullscreenenter"",""1"",""2174""
","
","true","","","","","","","","","","","","","","","","","",""
"preload","2","4922","0.0-2.0","1866","2","""event"",""trial"",""time""
""fullscreenenter"",""1"",""2174""
","
","
","""event"",""trial"",""time""
""fullscreenenter"",""1"",""2174""
","
","true","false","[]","[]","[]","","","","","","","","","","","","","",""
"audio-keyboard-response","3","6438","0.0-3.0","1866","2","""event"",""trial"",""time""
""fullscreenenter"",""1"",""2174""
","
","
","""event"",""trial"",""time""
""fullscreenenter"",""1"",""2174""
","
","","","","","","1514.6666666666665","audio/beep_loop.wav"," ","","","","","","","","","","",""
"audio-button-response","4","8337","0.0-4.0","1866","2","""event"",""trial"",""time""
""fullscreenenter"",""1"",""2174""
","
","
","""event"",""trial"",""time""
""fullscreenenter"",""1"",""2174""
","
","","","","","","1893","audio/turtle.wav","3","","","","","","","","","","",""
"audio-button-response","5","10592","0.0-5.0","1866","2","""event"",""trial"",""time""
""fullscreenenter"",""1"",""2174""
","
","
","""event"",""trial"",""time""
""fullscreenenter"",""1"",""2174""
","
","","","","","","1248","audio/shark.wav","2","","","","","","","","","","",""
"preload","6","46987","0.0-6.0","1866","2","""event"",""trial"",""time""
""fullscreenenter"",""1"",""2174""
","
","
","""event"",""trial"",""time""
""fullscreenenter"",""1"",""2174""
","
","true","false","[]","[]","[]","","","","","","","","","","","","","",""
"learning-instructions","7","54928","0.0-7.0-0.0","1866","2","""event"",""trial"",""time""
""fullscreenenter"",""1"",""2174""
","
","
","""event"",""trial"",""time""
""fullscreenenter"",""1"",""2174""
","
","","","","","","3064.2999999999884","<p> Welcome back! </p><p> Last week, you had to make choices about lots of different items.  </p>","","0","instructions","","","","","","","","",""
"learning-instructions","8","61086","0.0-7.0-0.1","1866","2","""event"",""trial"",""time""
""fullscreenenter"",""1"",""2174""
","
","
","""event"",""trial"",""time""
""fullscreenenter"",""1"",""2174""
","
","","","","","","1857.7000000000116","<p> Today, we are going to ask you to try to remember all the items. </p>","","0","instructions","","","","","","","","",""
"learning-instructions","9","72273","0.0-7.0-0.2","1866","2","""event"",""trial"",""time""
""fullscreenenter"",""1"",""2174""
","
","
","""event"",""trial"",""time""
""fullscreenenter"",""1"",""2174""
","
","","","","","","1050.6999999999534","<p> On every trial, you will see an image. </p><p> The image may be an OLD image you saw during the games last week or it may be a NEW image that was not presented. </p>","","0","instructions","","","","","","","","",""
"learning-instructions","10","81904","0.0-7.0-0.3","1866","2","""event"",""trial"",""time""
""fullscreenenter"",""1"",""2174""
","
","
","""event"",""trial"",""time""
""fullscreenenter"",""1"",""2174""
","
","","","","","","1129.2999999999884","<p> You need to select whether the image is:  </p><p>  'Definitely old', 'Maybe old', 'Maybe new', or 'Definitely new.'  </p><div class=""mem-choice-instructions-grid""><div class=""choice-option"" id=""choice-option-1"" ><img src=""images/definitely_old_1.png"" id=""choice-option-img-1"" class=""choice-option-img"" stage=""1""></div><div class=""choice-option"" id=""choice-option-2"" ><img src=""images/maybe_old_1.png"" id=""choice-option-img-2"" class=""choice-option-img"" stage=""1""></div><div class=""choice-option"" id=""choice-option-3"" ><img src=""images/maybe_new_1.png"" id=""choice-option-img-3"" class=""choice-option-img"" stage=""1""></div><div class=""choice-option"" id=""choice-option-4"" > <img src=""images/definitely_new_1.png"" id=""choice-option-img-4"" class=""choice-option-img"" stage=""1""></div></div>","","0","instructions","","","","","","","","",""
"learning-instructions","11","88934","0.0-7.0-0.4","1866","2","""event"",""trial"",""time""
""fullscreenenter"",""1"",""2174""
","
","
","""event"",""trial"",""time""
""fullscreenenter"",""1"",""2174""
","
","","","","","","340.79999999998836","<p> You should use the 1, 2, 3, and 4 keys to make your responses.  </p><div class=""mem-choice-instructions-grid""><div class=""choice-option"" id=""choice-option-1"" ><img src=""images/definitely_old.png"" id=""choice-option-img-1"" class=""choice-option-img"" stage=""1""></div><div class=""choice-option"" id=""choice-option-2"" ><img src=""images/maybe_old.png"" id=""choice-option-img-2"" class=""choice-option-img"" stage=""1""></div><div class=""choice-option"" id=""choice-option-3"" ><img src=""images/maybe_new.png"" id=""choice-option-img-3"" class=""choice-option-img"" stage=""1""></div><div class=""choice-option"" id=""choice-option-4"" > <img src=""images/definitely_new.png"" id=""choice-option-img-4"" class=""choice-option-img"" stage=""1""></div></div>","","0","instructions","","","","","","","","",""
"learning-instructions","12","96089","0.0-7.0-0.5","1866","2","""event"",""trial"",""time""
""fullscreenenter"",""1"",""2174""
","
","
","""event"",""trial"",""time""
""fullscreenenter"",""1"",""2174""
","
","","","","","","397.6000000000349","<p> You will have 10 seconds to make each response.  </p><p>  Make sure to respond before time runs out! </p>","","0","instructions","","","","","","","","",""
"learning-instructions","13","103982","0.0-7.0-0.6","1866","2","""event"",""trial"",""time""
""fullscreenenter"",""1"",""2174""
","
","
","""event"",""trial"",""time""
""fullscreenenter"",""1"",""2174""
","
","","","","","","313.9000000000233","<p> Today, you will see each image ONCE only.  </p><p>  That means none of the images will repeat. </p>","","0","instructions","","","","","","","","",""
"learning-instructions","14","117130","0.0-7.0-0.7","1866","2","""event"",""trial"",""time""
""fullscreenenter"",""1"",""2174""
","
","
","""event"",""trial"",""time""
""fullscreenenter"",""1"",""2174""
","
","","","","","","479.6000000000349","<p> Before you play the real game, it is time to practice. </p><p>  Just like in the real game, some of the images in the practice will be ones you have seen before. </p><p>  Others will be entirely new. </p>","","0","instructions","","","","","","","","",""
"html-button-response","15","118931","0.0-8.0","1866","2","""event"",""trial"",""time""
""fullscreenenter"",""1"",""2174""
","
","
","""event"",""trial"",""time""
""fullscreenenter"",""1"",""2174""
","
","","","","","","1697.7999999999884","<p> Ready to practice? </p><p> Remember, use the 1, 2, 3, and 4 keys to make your responses. </p>","0","","instructions","","","","","","","","",""
"html-keyboard-response","16","119536","0.0-9.0-0.0","1866","2","""event"",""trial"",""time""
""fullscreenenter"",""1"",""2174""
","
","
","""event"",""trial"",""time""
""fullscreenenter"",""1"",""2174""
","
","","","","","","null","<div style=""font-size:60px;"">+</div>","null","","fixation","","","","","","","","",""
"memory-trial","17","122834","0.0-9.0-1.0","1866","2","""event"",""trial"",""time""
""fullscreenenter"",""1"",""2174""
","
","
","""event"",""trial"",""time""
""fullscreenenter"",""1"",""2174""
","
","","","","","","2291.7000000000116","images/racket2.png","","","practice","3","maybe_new","","","","","","",""
"html-keyboard-response","18","123337","0.0-9.0-0.1","1866","2","""event"",""trial"",""time""
""fullscreenenter"",""1"",""2174""
","
","
","""event"",""trial"",""time""
""fullscreenenter"",""1"",""2174""
","
","","","","","","null","<div style=""font-size:60px;"">+</div>","null","","fixation","","","","","","","","",""
"memory-trial","19","126825","0.0-9.0-1.1","1866","2","""event"",""trial"",""time""
""fullscreenenter"",""1"",""2174""
","
","
","""event"",""trial"",""time""
""fullscreenenter"",""1"",""2174""
","
","","","","","","2481.2000000000116","images/ball4.png","","","practice","1","definitely_old","","","","","","",""
"html-keyboard-response","20","127329","0.0-9.0-0.2","1866","2","""event"",""trial"",""time""
""fullscreenenter"",""1"",""2174""
","
","
","""event"",""trial"",""time""
""fullscreenenter"",""1"",""2174""
","
","","","","","","null","<div style=""font-size:60px;"">+</div>","null","","fixation","","","","","","","","",""
"memory-trial","21","131151","0.0-9.0-1.2","1866","2","""event"",""trial"",""time""
""fullscreenenter"",""1"",""2174""
","
","
","""event"",""trial"",""time""
""fullscreenenter"",""1"",""2174""
","
","","","","","","2816.5","images/racket4.png","","","practice","4","definitely_new","","","","","","",""
"html-keyboard-response","22","131657","0.0-9.0-0.3","1866","2","""event"",""trial"",""time""
""fullscreenenter"",""1"",""2174""
","
","
","""event"",""trial"",""time""
""fullscreenenter"",""1"",""2174""
","
","","","","","","null","<div style=""font-size:60px;"">+</div>","null","","fixation","","","","","","","","",""
"memory-trial","23","134148","0.0-9.0-1.3","1866","2","""event"",""trial"",""time""
""fullscreenenter"",""1"",""2174""
","
","
","""event"",""trial"",""time""
""fullscreenenter"",""1"",""2174""
","
","","","","","","1485.2999999999884","images/racket1.png","","","practice","1","definitely_old","","","","","","",""
"html-keyboard-response","24","134654","0.0-9.0-0.4","1866","2","""event"",""trial"",""time""
""fullscreenenter"",""1"",""2174""
","
","
","""event"",""trial"",""time""
""fullscreenenter"",""1"",""2174""
","
","","","","","","null","<div style=""font-size:60px;"">+</div>","null","","fixation","","","","","","","","",""
"memory-trial","25","137333","0.0-9.0-1.4","1866","2","""event"",""trial"",""time""
""fullscreenenter"",""1"",""2174""
","
","
","""event"",""trial"",""time""
""fullscreenenter"",""1"",""2174""
","
","","","","","","1675.7999999999884","images/ball1.png","","","practice","1","definitely_old","","","","","","",""
"html-keyboard-response","26","137838","0.0-9.0-0.5","1866","2","""event"",""trial"",""time""
""fullscreenenter"",""1"",""2174""
","
","
","""event"",""trial"",""time""
""fullscreenenter"",""1"",""2174""
","
","","","","","","null","<div style=""font-size:60px;"">+</div>","null","","fixation","","","","","","","","",""
"memory-trial","27","140635","0.0-9.0-1.5","1866","2","""event"",""trial"",""time""
""fullscreenenter"",""1"",""2174""
","
","
","""event"",""trial"",""time""
""fullscreenenter"",""1"",""2174""
","
","","","","","","1792.5","images/racket3.png","","","practice","2","maybe_old","","","","","","",""
"html-keyboard-response","28","141139","0.0-9.0-0.6","1866","2","""event"",""trial"",""time""
""fullscreenenter"",""1"",""2174""
","
","
","""event"",""trial"",""time""
""fullscreenenter"",""1"",""2174""
","
","","","","","","null","<div style=""font-size:60px;"">+</div>","null","","fixation","","","","","","","","",""
"memory-trial","29","143923","0.0-9.0-1.6","1866","2","""event"",""trial"",""time""
""fullscreenenter"",""1"",""2174""
","
","
","""event"",""trial"",""time""
""fullscreenenter"",""1"",""2174""
","
","","","","","","1777.4000000000233","images/ball2.png","","","practice","2","maybe_old","","","","","","",""
"html-keyboard-response","30","144430","0.0-9.0-0.7","1866","2","""event"",""trial"",""time""
""fullscreenenter"",""1"",""2174""
","
","
","""event"",""trial"",""time""
""fullscreenenter"",""1"",""2174""
","
","","","","","","null","<div style=""font-size:60px;"">+</div>","null","","fixation","","","","","","","","",""
"memory-trial","31","148420","0.0-9.0-1.7","1866","2","""event"",""trial"",""time""
""fullscreenenter"",""1"",""2174""
","
","
","""event"",""trial"",""time""
""fullscreenenter"",""1"",""2174""
","
","","","","","","2982.899999999965","images/ball3.png","","","practice","3","maybe_new","","","","","","",""
"learning-instructions","32","157817","0.0-10.0-0.0","1866","2","""event"",""trial"",""time""
""fullscreenenter"",""1"",""2174""
","
","
","""event"",""trial"",""time""
""fullscreenenter"",""1"",""2174""
","
","","","","","","1382.5","<p> Great! You have completed the practice. </p><p> Before you start, we're going to ask you a few questions about how the game works.  </p>","","0","instructions","","","","","","","","",""
"preload","33","178958","0.0-11.0","1866","2","""event"",""trial"",""time""
""fullscreenenter"",""1"",""2174""
","
","
","""event"",""trial"",""time""
""fullscreenenter"",""1"",""2174""
","
","true","false","[]","[]","[]","","","","","","","","","","","","","",""
"comp-q","34","185599","0.0-12.0-0.0","1866","2","""event"",""trial"",""time""
""fullscreenenter"",""1"",""2174""
","
","
","""event"",""trial"",""time""
""fullscreenenter"",""1"",""2174""
","
","","","","","","813.3999999999651","<p> <b> True or False? </b> </p><p> In this game, you will only see each image once. </p>","","0","comp_question","","","true","","","","","",""
"comp-q","35","193068","0.0-12.0-1.0","1866","2","""event"",""trial"",""time""
""fullscreenenter"",""1"",""2174""
","
","
","""event"",""trial"",""time""
""fullscreenenter"",""1"",""2174""
","
","","","","","","1130.4000000000233","<p> <b> That's right! </b> You will see many different images <i> one time each </i> in this game. </p>","","0","comp_answer","","","","","","","","",""
"comp-q","36","199814","0.0-12.0-0.1","1866","2","""event"",""trial"",""time""
""fullscreenenter"",""1"",""2174""
","
","
","""event"",""trial"",""time""
""fullscreenenter"",""1"",""2174""
","
","","","","","","947.5","<p> <b> True or False? </b> </p><p> You should use the mouse and click to make your response. </p>","","1","comp_question","","","true","","","","","",""
"comp-q","37","210451","0.0-12.0-1.1","1866","2","""event"",""trial"",""time""
""fullscreenenter"",""1"",""2174""
","
","
","""event"",""trial"",""time""
""fullscreenenter"",""1"",""2174""
","
","","","","","","3292.7000000000116","<p><b> That's right! </b> You should use the '1', '2', '3', and '4' keys to make your response. </p>","","0","comp_answer","","","","","","","","",""
"comp-q","38","217424","0.0-12.0-0.2","1866","2","""event"",""trial"",""time""
""fullscreenenter"",""1"",""2174""
","
","
","""event"",""trial"",""time""
""fullscreenenter"",""1"",""2174""
","
","","","","","","974.5","<p> <b> True or False? </b> </p><p> You will have as much time as you want to make each choice. </p>","","1","comp_question","","","true","","","","","",""
"comp-q","39","228573","0.0-12.0-1.2","1866","2","""event"",""trial"",""time""
""fullscreenenter"",""1"",""2174""
","
","
","""event"",""trial"",""time""
""fullscreenenter"",""1"",""2174""
","
","","","","","","5761.700000000012","<p> <b> That's right! </b> You will only have 10 seconds to make each choice. </p>","","0","comp_answer","","","","","","","","",""
"learning-instructions","40","245261","0.0-13.0","1866","2","""event"",""trial"",""time""
""fullscreenenter"",""1"",""2174""
","
","
","""event"",""trial"",""time""
""fullscreenenter"",""1"",""2174""
","
","","","","","","8017.400000000023","<p> Great! You are now ready to begin the game. </p><p> Remember, use the 1, 2, 3, and 4 keys to make your responses. </p>","","0","instructions","","","","","","","","",""
"preload","41","307233","0.0-14.0","1866","2","""event"",""trial"",""time""
""fullscreenenter"",""1"",""2174""
","
","
","""event"",""trial"",""time""
""fullscreenenter"",""1"",""2174""
","
","true","false","[]","[]","[]","","","","","","","","","","","","","",""
"html-keyboard-response","42","307738","0.0-15.0-0.0","1866","2","""event"",""trial"",""time""
""fullscreenenter"",""1"",""2174""
","
","
","""event"",""trial"",""time""
""fullscreenenter"",""1"",""2174""
","
","","","","","","null","<div style=""font-size:60px;"">+</div>","null","","fixation","","","","","","","","",""
"memory-trial","43","314746","0.0-15.0-1.0","1866","2","""event"",""trial"",""time""
""fullscreenenter"",""1"",""2174""
","
","
","""event"",""trial"",""time""
""fullscreenenter"",""1"",""2174""
","
","","","","","","6003.300000000047","images/apple1.png","","","memory_trial","1","definitely_old","","","","","","",""
"html-keyboard-response","44","315253","0.0-15.0-0.1","1866","2","""event"",""trial"",""time""
""fullscreenenter"",""1"",""2174""
","
","
","""event"",""trial"",""time""
""fullscreenenter"",""1"",""2174""
","
","","","","","","null","<div style=""font-size:60px;"">+</div>","null","","fixation","","","","","","","","",""
"memory-trial","45","319375","0.0-15.0-1.1","1866","2","""event"",""trial"",""time""
""fullscreenenter"",""1"",""2174""
","
","
","""event"",""trial"",""time""
""fullscreenenter"",""1"",""2174""
","
","","","","","","3116","images/bed3.png","","","memory_trial","3","maybe_new","","","","","","",""
"html-keyboard-response","46","319878","0.0-15.0-0.2","1866","2","""event"",""trial"",""time""
""fullscreenenter"",""1"",""2174""
","
","
","""event"",""trial"",""time""
""fullscreenenter"",""1"",""2174""
","
","","","","","","null","<div style=""font-size:60px;"">+</div>","null","","fixation","","","","","","","","",""
"memory-trial","47","322122","0.0-15.0-1.2","1866","2","""event"",""trial"",""time""
""fullscreenenter"",""1"",""2174""
","
","
","""event"",""trial"",""time""
""fullscreenenter"",""1"",""2174""
","
","","","","","","1239","images/bed1.png","","","memory_trial","1","definitely_old","","","","","","",""
"html-keyboard-response","48","322629","0.0-15.0-0.3","1866","2","""event"",""trial"",""time""
""fullscreenenter"",""1"",""2174""
","
","
","""event"",""trial"",""time""
""fullscreenenter"",""1"",""2174""
","
","","","","","","null","<div style=""font-size:60px;"">+</div>","null","","fixation","","","","","","","","",""
"memory-trial","49","325360","0.0-15.0-1.3","1866","2","""event"",""trial"",""time""
""fullscreenenter"",""1"",""2174""
","
","
","""event"",""trial"",""time""
""fullscreenenter"",""1"",""2174""
","
","","","","","","1727.1000000000931","images/rodent5.png","","","memory_trial","4","definitely_new","","","","","","",""
"html-keyboard-response","50","325866","0.0-15.0-0.4","1866","2","""event"",""trial"",""time""
""fullscreenenter"",""1"",""2174""
","
","
","""event"",""trial"",""time""
""fullscreenenter"",""1"",""2174""
","
","","","","","","null","<div style=""font-size:60px;"">+</div>","null","","fixation","","","","","","","","",""
"memory-trial","51","329498","0.0-15.0-1.4","1866","2","""event"",""trial"",""time""
""fullscreenenter"",""1"",""2174""
","
","
","""event"",""trial"",""time""
""fullscreenenter"",""1"",""2174""
","
","","","","","","2625.8000000000466","images/horse1.png","","","memory_trial","3","maybe_new","","","","","","",""
"html-keyboard-response","52","329999","0.0-15.0-0.5","1866","2","""event"",""trial"",""time""
""fullscreenenter"",""1"",""2174""
","
","
","""event"",""trial"",""time""
""fullscreenenter"",""1"",""2174""
","
","","","","","","null","<div style=""font-size:60px;"">+</div>","null","","fixation","","","","","","","","",""
"memory-trial","53","333055","0.0-15.0-1.5","1866","2","""event"",""trial"",""time""
""fullscreenenter"",""1"",""2174""
","
","
","""event"",""trial"",""time""
""fullscreenenter"",""1"",""2174""
","
","","","","","","2050.8000000000466","images/train3.png","","","memory_trial","3","maybe_new","","","","","","",""
"html-keyboard-response","54","333557","0.0-15.0-0.6","1866","2","""event"",""trial"",""time""
""fullscreenenter"",""1"",""2174""
","
","
","""event"",""trial"",""time""
""fullscreenenter"",""1"",""2174""
","
","","","","","","null","<div style=""font-size:60px;"">+</div>","null","","fixation","","","","","","","","",""
"memory-trial","55","335519","0.0-15.0-1.6","1866","2","""event"",""trial"",""time""
""fullscreenenter"",""1"",""2174""
","
","
","""event"",""trial"",""time""
""fullscreenenter"",""1"",""2174""
","
","","","","","","956.0999999999767","images/tree4.png","","","memory_trial","1","definitely_old","","","","","","",""
"html-keyboard-response","56","336026","0.0-15.0-0.7","1866","2","""event"",""trial"",""time""
""fullscreenenter"",""1"",""2174""
","
","
","""event"",""trial"",""time""
""fullscreenenter"",""1"",""2174""
","
","","","","","","null","<div style=""font-size:60px;"">+</div>","null","","fixation","","","","","","","","",""
"memory-trial","57","338442","0.0-15.0-1.7","1866","2","""event"",""trial"",""time""
""fullscreenenter"",""1"",""2174""
","
","
","""event"",""trial"",""time""
""fullscreenenter"",""1"",""2174""
","
","","","","","","1409.6999999999534","images/bush5.png","","","memory_trial","4","definitely_new","","","","","","",""
"html-keyboard-response","58","338949","0.0-15.0-0.8","1866","2","""event"",""trial"",""time""
""fullscreenenter"",""1"",""2174""
","
","
","""event"",""trial"",""time""
""fullscreenenter"",""1"",""2174""
","
","","","","","","null","<div style=""font-size:60px;"">+</div>","null","","fixation","","","","","","","","",""
"memory-trial","59","341290","0.0-15.0-1.8","1866","2","""event"",""trial"",""time""
""fullscreenenter"",""1"",""2174""
","
","
","""event"",""trial"",""time""
""fullscreenenter"",""1"",""2174""
","
","","","","","","1333.3000000000466","images/flower4.png","","","memory_trial","4","definitely_new","","","","","","",""
"html-keyboard-response","60","341796","0.0-15.0-0.9","1866","2","""event"",""trial"",""time""
""fullscreenenter"",""1"",""2174""
","
","
","""event"",""trial"",""time""
""fullscreenenter"",""1"",""2174""
","
","","","","","","null","<div style=""font-size:60px;"">+</div>","null","","fixation","","","","","","","","",""
"memory-trial","61","343866","0.0-15.0-1.9","1866","2","""event"",""trial"",""time""
""fullscreenenter"",""1"",""2174""
","
","
","""event"",""trial"",""time""
""fullscreenenter"",""1"",""2174""
","
","","","","","","1063.5","images/bush4.png","","","memory_trial","1","definitely_old","","","","","","",""
"html-keyboard-response","62","344373","0.0-15.0-0.10","1866","2","""event"",""trial"",""time""
""fullscreenenter"",""1"",""2174""
","
","
","""event"",""trial"",""time""
""fullscreenenter"",""1"",""2174""
","
","","","","","","null","<div style=""font-size:60px;"">+</div>","null","","fixation","","","","","","","","",""
"memory-trial","63","346874","0.0-15.0-1.10","1866","2","""event"",""trial"",""time""
""fullscreenenter"",""1"",""2174""
","
","
","""event"",""trial"",""time""
""fullscreenenter"",""1"",""2174""
","
","","","","","","1493.5","images/banana4.png","","","memory_trial","2","maybe_old","","","","","","",""
"html-keyboard-response","64","347381","0.0-15.0-0.11","1866","2","""event"",""trial"",""time""
""fullscreenenter"",""1"",""2174""
","
","
","""event"",""trial"",""time""
""fullscreenenter"",""1"",""2174""
","
","","","","","","null","<div style=""font-size:60px;"">+</div>","null","","fixation","","","","","","","","",""
"memory-trial","65","349738","0.0-15.0-1.11","1866","2","""event"",""trial"",""time""
""fullscreenenter"",""1"",""2174""
","
","
","""event"",""trial"",""time""
""fullscreenenter"",""1"",""2174""
","
","","","","","","1353.8000000000466","images/banana5.png","","","memory_trial","2","maybe_old","","","","","","",""
"html-keyboard-response","66","350239","0.0-15.0-0.12","1866","2","""event"",""trial"",""time""
""fullscreenenter"",""1"",""2174""
","
","
","""event"",""trial"",""time""
""fullscreenenter"",""1"",""2174""
","
","","","","","","null","<div style=""font-size:60px;"">+</div>","null","","fixation","","","","","","","","",""
"memory-trial","67","352970","0.0-15.0-1.12","1866","2","""event"",""trial"",""time""
""fullscreenenter"",""1"",""2174""
","
","
","""event"",""trial"",""time""
""fullscreenenter"",""1"",""2174""
","
","","","","","","1723.8000000000466","images/train2.png","","","memory_trial","3","maybe_new","","","","","","",""
"html-keyboard-response","68","353471","0.0-15.0-0.13","1866","2","""event"",""trial"",""time""
""fullscreenenter"",""1"",""2174""
","
","
","""event"",""trial"",""time""
""fullscreenenter"",""1"",""2174""
","
","","","","","","null","<div style=""font-size:60px;"">+</div>","null","","fixation","","","","","","","","",""
"memory-trial","69","355814","0.0-15.0-1.13","1866","2","""event"",""trial"",""time""
""fullscreenenter"",""1"",""2174""
","
","
","""event"",""trial"",""time""
""fullscreenenter"",""1"",""2174""
","
","","","","","","1339.4000000000233","images/rodent2.png","","","memory_trial","4","definitely_new","","","","","","",""
"html-keyboard-response","70","356319","0.0-15.0-0.14","1866","2","""event"",""trial"",""time""
""fullscreenenter"",""1"",""2174""
","
","
","""event"",""trial"",""time""
""fullscreenenter"",""1"",""2174""
","
","","","","","","null","<div style=""font-size:60px;"">+</div>","null","","fixation","","","","","","","","",""
"memory-trial","71","359253","0.0-15.0-1.14","1866","2","""event"",""trial"",""time""
""fullscreenenter"",""1"",""2174""
","
","
","""event"",""trial"",""time""
""fullscreenenter"",""1"",""2174""
","
","","","","","","1925.5","images/truck3.png","","","memory_trial","3","maybe_new","","","","","","",""
"html-keyboard-response","72","359759","0.0-15.0-0.15","1866","2","""event"",""trial"",""time""
""fullscreenenter"",""1"",""2174""
","
","
","""event"",""trial"",""time""
""fullscreenenter"",""1"",""2174""
","
","","","","","","null","<div style=""font-size:60px;"">+</div>","null","","fixation","","","","","","","","",""
"memory-trial","73","362570","0.0-15.0-1.15","1866","2","""event"",""trial"",""time""
""fullscreenenter"",""1"",""2174""
","
","
","""event"",""trial"",""time""
""fullscreenenter"",""1"",""2174""
","
","","","","","","1806.1999999999534","images/horse5.png","","","memory_trial","1","definitely_old","","","","","","",""
"html-keyboard-response","74","363076","0.0-15.0-0.16","1866","2","""event"",""trial"",""time""
""fullscreenenter"",""1"",""2174""
","
","
","""event"",""trial"",""time""
""fullscreenenter"",""1"",""2174""
","
","","","","","","null","<div style=""font-size:60px;"">+</div>","null","","fixation","","","","","","","","",""
"memory-trial","75","365343","0.0-15.0-1.16","1866","2","""event"",""trial"",""time""
""fullscreenenter"",""1"",""2174""
","
","
","""event"",""trial"",""time""
""fullscreenenter"",""1"",""2174""
","
","","","","","","1259.3000000000466","images/flower3.png","","","memory_trial","3","maybe_new","","","","","","",""
"html-keyboard-response","76","365849","0.0-15.0-0.17","1866","2","""event"",""trial"",""time""
""fullscreenenter"",""1"",""2174""
","
","
","""event"",""trial"",""time""
""fullscreenenter"",""1"",""2174""
","
","","","","","","null","<div style=""font-size:60px;"">+</div>","null","","fixation","","","","","","","","",""
"memory-trial","77","367813","0.0-15.0-1.17","1866","2","""event"",""trial"",""time""
""fullscreenenter"",""1"",""2174""
","
","
","""event"",""trial"",""time""
""fullscreenenter"",""1"",""2174""
","
","","","","","","959.5","images/dog2.png","","","memory_trial","1","definitely_old","","","","","","",""
"html-keyboard-response","78","368319","0.0-15.0-0.18","1866","2","""event"",""trial"",""time""
""fullscreenenter"",""1"",""2174""
","
","
","""event"",""trial"",""time""
""fullscreenenter"",""1"",""2174""
","
","","","","","","null","<div style=""font-size:60px;"">+</div>","null","","fixation","","","","","","","","",""
"memory-trial","79","370415","0.0-15.0-1.18","1866","2","""event"",""trial"",""time""
""fullscreenenter"",""1"",""2174""
","
","
","""event"",""trial"",""time""
""fullscreenenter"",""1"",""2174""
","
","","","","","","1092","images/apple5.png","","","memory_trial","1","definitely_old","","","","","","",""
"html-keyboard-response","80","370922","0.0-15.0-0.19","1866","2","""event"",""trial"",""time""
""fullscreenenter"",""1"",""2174""
","
","
","""event"",""trial"",""time""
""fullscreenenter"",""1"",""2174""
","
","","","","","","null","<div style=""font-size:60px;"">+</div>","null","","fixation","","","","","","","","",""
"memory-trial","81","373359","0.0-15.0-1.19","1866","2","""event"",""trial"",""time""
""fullscreenenter"",""1"",""2174""
","
","
","""event"",""trial"",""time""
""fullscreenenter"",""1"",""2174""
","
","","","","","","1431.5999999999767","images/banana3.png","","","memory_trial","2","maybe_old","","","","","","",""
"html-keyboard-response","82","373861","0.0-15.0-0.20","1866","2","""event"",""trial"",""time""
""fullscreenenter"",""1"",""2174""
","
","
","""event"",""trial"",""time""
""fullscreenenter"",""1"",""2174""
","
","","","","","","null","<div style=""font-size:60px;"">+</div>","null","","fixation","","","","","","","","",""
"memory-trial","83","375647","0.0-15.0-1.20","1866","2","""event"",""trial"",""time""
""fullscreenenter"",""1"",""2174""
","
","
","""event"",""trial"",""time""
""fullscreenenter"",""1"",""2174""
","
","","","","","","779.1000000000931","images/dog3.png","","","memory_trial","1","definitely_old","","","","","","",""
"html-keyboard-response","84","376154","0.0-15.0-0.21","1866","2","""event"",""trial"",""time""
""fullscreenenter"",""1"",""2174""
","
","
","""event"",""trial"",""time""
""fullscreenenter"",""1"",""2174""
","
","","","","","","null","<div style=""font-size:60px;"">+</div>","null","","fixation","","","","","","","","",""
"memory-trial","85","378682","0.0-15.0-1.21","1866","2","""event"",""trial"",""time""
""fullscreenenter"",""1"",""2174""
","
","
","""event"",""trial"",""time""
""fullscreenenter"",""1"",""2174""
","
","","","","","","1524.5","images/cactus1.png","","","memory_trial","2","maybe_old","","","","","","",""
"html-keyboard-response","86","379188","0.0-15.0-0.22","1866","2","""event"",""trial"",""time""
""fullscreenenter"",""1"",""2174""
","
","
","""event"",""trial"",""time""
""fullscreenenter"",""1"",""2174""
","
","","","","","","null","<div style=""font-size:60px;"">+</div>","null","","fixation","","","","","","","","",""
"memory-trial","87","382943","0.0-15.0-1.22","1866","2","""event"",""trial"",""time""
""fullscreenenter"",""1"",""2174""
","
","
","""event"",""trial"",""time""
""fullscreenenter"",""1"",""2174""
","
","","","","","","2746.9000000000233","images/table1.png","","","memory_trial","4","definitely_new","","","","","","",""
"html-keyboard-response","88","383447","0.0-15.0-0.23","1866","2","""event"",""trial"",""time""
""fullscreenenter"",""1"",""2174""
","
","
","""event"",""trial"",""time""
""fullscreenenter"",""1"",""2174""
","
","","","","","","null","<div style=""font-size:60px;"">+</div>","null","","fixation","","","","","","","","",""
"memory-trial","89","385919","0.0-15.0-1.23","1866","2","""event"",""trial"",""time""
""fullscreenenter"",""1"",""2174""
","
","
","""event"",""trial"",""time""
""fullscreenenter"",""1"",""2174""
","
","","","","","","1466.5999999999767","images/truck2.png","","","memory_trial","3","maybe_new","","","","","","",""
"html-keyboard-response","90","386426","0.0-15.0-0.24","1866","2","""event"",""trial"",""time""
""fullscreenenter"",""1"",""2174""
","
","
","""event"",""trial"",""time""
""fullscreenenter"",""1"",""2174""
","
","","","","","","null","<div style=""font-size:60px;"">+</div>","null","","fixation","","","","","","","","",""
"memory-trial","91","388565","0.0-15.0-1.24","1866","2","""event"",""trial"",""time""
""fullscreenenter"",""1"",""2174""
","
","
","""event"",""trial"",""time""
""fullscreenenter"",""1"",""2174""
","
","","","","","","1132.8999999999069","images/sofa4.png","","","memory_trial","3","maybe_new","","","","","","",""
"html-keyboard-response","92","389071","0.0-15.0-0.25","1866","2","""event"",""trial"",""time""
""fullscreenenter"",""1"",""2174""
","
","
","""event"",""trial"",""time""
""fullscreenenter"",""1"",""2174""
","
","","","","","","null","<div style=""font-size:60px;"">+</div>","null","","fixation","","","","","","","","",""
"memory-trial","93","391732","0.0-15.0-1.25","1866","2","""event"",""trial"",""time""
""fullscreenenter"",""1"",""2174""
","
","
","""event"",""trial"",""time""
""fullscreenenter"",""1"",""2174""
","
","","","","","","1655.5999999999767","images/cow5.png","","","memory_trial","3","maybe_new","","","","","","",""
"html-keyboard-response","94","392234","0.0-15.0-0.26","1866","2","""event"",""trial"",""time""
""fullscreenenter"",""1"",""2174""
","
","
","""event"",""trial"",""time""
""fullscreenenter"",""1"",""2174""
","
","","","","","","null","<div style=""font-size:60px;"">+</div>","null","","fixation","","","","","","","","",""
"memory-trial","95","394319","0.0-15.0-1.26","1866","2","""event"",""trial"",""time""
""fullscreenenter"",""1"",""2174""
","
","
","""event"",""trial"",""time""
""fullscreenenter"",""1"",""2174""
","
","","","","","","1080.2999999999302","images/bed4.png","","","memory_trial","1","definitely_old","","","","","","",""
"html-keyboard-response","96","394820","0.0-15.0-0.27","1866","2","""event"",""trial"",""time""
""fullscreenenter"",""1"",""2174""
","
","
","""event"",""trial"",""time""
""fullscreenenter"",""1"",""2174""
","
","","","","","","null","<div style=""font-size:60px;"">+</div>","null","","fixation","","","","","","","","",""
"memory-trial","97","396783","0.0-15.0-1.27","1866","2","""event"",""trial"",""time""
""fullscreenenter"",""1"",""2174""
","
","
","""event"",""trial"",""time""
""fullscreenenter"",""1"",""2174""
","
","","","","","","956.5999999999767","images/goat4.png","","","memory_trial","1","definitely_old","","","","","","",""
"html-keyboard-response","98","397290","0.0-15.0-0.28","1866","2","""event"",""trial"",""time""
""fullscreenenter"",""1"",""2174""
","
","
","""event"",""trial"",""time""
""fullscreenenter"",""1"",""2174""
","
","","","","","","null","<div style=""font-size:60px;"">+</div>","null","","fixation","","","","","","","","",""
"memory-trial","99","399274","0.0-15.0-1.28","1866","2","""event"",""trial"",""time""
""fullscreenenter"",""1"",""2174""
","
","
","""event"",""trial"",""time""
""fullscreenenter"",""1"",""2174""
","
","","","","","","978.3000000000466","images/chair5.png","","","memory_trial","2","maybe_old","","","","","","",""
"html-keyboard-response","100","399780","0.0-15.0-0.29","1866","2","""event"",""trial"",""time""
""fullscreenenter"",""1"",""2174""
","
","
","""event"",""trial"",""time""
""fullscreenenter"",""1"",""2174""
","
","","","","","","null","<div style=""font-size:60px;"">+</div>","null","","fixation","","","","","","","","",""
"memory-trial","101","402154","0.0-15.0-1.29","1866","2","""event"",""trial"",""time""
""fullscreenenter"",""1"",""2174""
","
","
","""event"",""trial"",""time""
""fullscreenenter"",""1"",""2174""
","
","","","","","","1369.1999999999534","images/banana1.png","","","memory_trial","2","maybe_old","","","","","","",""
"html-keyboard-response","102","402660","0.0-15.0-0.30","1866","2","""event"",""trial"",""time""
""fullscreenenter"",""1"",""2174""
","
","
","""event"",""trial"",""time""
""fullscreenenter"",""1"",""2174""
","
","","","","","","null","<div style=""font-size:60px;"">+</div>","null","","fixation","","","","","","","","",""
"memory-trial","103","404527","0.0-15.0-1.30","1866","2","""event"",""trial"",""time""
""fullscreenenter"",""1"",""2174""
","
","
","""event"",""trial"",""time""
""fullscreenenter"",""1"",""2174""
","
","","","","","","858.5999999999767","images/feline5.png","","","memory_trial","1","definitely_old","","","","","","",""
"html-keyboard-response","104","405033","0.0-15.0-0.31","1866","2","""event"",""trial"",""time""
""fullscreenenter"",""1"",""2174""
","
","
","""event"",""trial"",""time""
""fullscreenenter"",""1"",""2174""
","
","","","","","","null","<div style=""font-size:60px;"">+</div>","null","","fixation","","","","","","","","",""
"memory-trial","105","407268","0.0-15.0-1.31","1866","2","""event"",""trial"",""time""
""fullscreenenter"",""1"",""2174""
","
","
","""event"",""trial"",""time""
""fullscreenenter"",""1"",""2174""
","
","","","","","","1229.5","images/flower2.png","","","memory_trial","3","maybe_new","","","","","","",""
"html-keyboard-response","106","407775","0.0-15.0-0.32","1866","2","""event"",""trial"",""time""
""fullscreenenter"",""1"",""2174""
","
","
","""event"",""trial"",""time""
""fullscreenenter"",""1"",""2174""
","
","","","","","","null","<div style=""font-size:60px;"">+</div>","null","","fixation","","","","","","","","",""
"memory-trial","107","409962","0.0-15.0-1.32","1866","2","""event"",""trial"",""time""
""fullscreenenter"",""1"",""2174""
","
","
","""event"",""trial"",""time""
""fullscreenenter"",""1"",""2174""
","
","","","","","","1179.8000000000466","images/bush1.png","","","memory_trial","2","maybe_old","","","","","","",""
"html-keyboard-response","108","410468","0.0-15.0-0.33","1866","2","""event"",""trial"",""time""
""fullscreenenter"",""1"",""2174""
","
","
","""event"",""trial"",""time""
""fullscreenenter"",""1"",""2174""
","
","","","","","","null","<div style=""font-size:60px;"">+</div>","null","","fixation","","","","","","","","",""
"memory-trial","109","412436","0.0-15.0-1.33","1866","2","""event"",""trial"",""time""
""fullscreenenter"",""1"",""2174""
","
","
","""event"",""trial"",""time""
""fullscreenenter"",""1"",""2174""
","
","","","","","","960.3000000000466","images/plane3.png","","","memory_trial","1","definitely_old","","","","","","",""
"html-keyboard-response","110","412943","0.0-15.0-0.34","1866","2","""event"",""trial"",""time""
""fullscreenenter"",""1"",""2174""
","
","
","""event"",""trial"",""time""
""fullscreenenter"",""1"",""2174""
","
","","","","","","null","<div style=""font-size:60px;"">+</div>","null","","fixation","","","","","","","","",""
"memory-trial","111","415135","0.0-15.0-1.34","1866","2","""event"",""trial"",""time""
""fullscreenenter"",""1"",""2174""
","
","
","""event"",""trial"",""time""
""fullscreenenter"",""1"",""2174""
","
","","","","","","1184.6999999999534","images/table2.png","","","memory_trial","3","maybe_new","","","","","","",""
"html-keyboard-response","112","415642","0.0-15.0-0.35","1866","2","""event"",""trial"",""time""
""fullscreenenter"",""1"",""2174""
","
","
","""event"",""trial"",""time""
""fullscreenenter"",""1"",""2174""
","
","","","","","","null","<div style=""font-size:60px;"">+</div>","null","","fixation","","","","","","","","",""
"memory-trial","113","417524","0.0-15.0-1.35","1866","2","""event"",""trial"",""time""
""fullscreenenter"",""1"",""2174""
","
","
","""event"",""trial"",""time""
""fullscreenenter"",""1"",""2174""
","
","","","","","","875.5","images/orange2.png","","","memory_trial","1","definitely_old","","","","","","",""
"html-keyboard-response","114","418031","0.0-15.0-0.36","1866","2","""event"",""trial"",""time""
""fullscreenenter"",""1"",""2174""
","
","
","""event"",""trial"",""time""
""fullscreenenter"",""1"",""2174""
","
","","","","","","null","<div style=""font-size:60px;"">+</div>","null","","fixation","","","","","","","","",""
"memory-trial","115","420559","0.0-15.0-1.36","1866","2","""event"",""trial"",""time""
""fullscreenenter"",""1"",""2174""
","
","
","""event"",""trial"",""time""
""fullscreenenter"",""1"",""2174""
","
","","","","","","1519.9000000000233","images/cow3.png","","","memory_trial","3","maybe_new","","","","","","",""
"html-keyboard-response","116","421066","0.0-15.0-0.37","1866","2","""event"",""trial"",""time""
""fullscreenenter"",""1"",""2174""
","
","
","""event"",""trial"",""time""
""fullscreenenter"",""1"",""2174""
","
","","","","","","null","<div style=""font-size:60px;"">+</div>","null","","fixation","","","","","","","","",""
"memory-trial","117","423391","0.0-15.0-1.37","1866","2","""event"",""trial"",""time""
""fullscreenenter"",""1"",""2174""
","
","
","""event"",""trial"",""time""
""fullscreenenter"",""1"",""2174""
","
","","","","","","1321","images/apple3.png","","","memory_trial","4","definitely_new","","","","","","",""
"html-keyboard-response","118","423895","0.0-15.0-0.38","1866","2","""event"",""trial"",""time""
""fullscreenenter"",""1"",""2174""
","
","
","""event"",""trial"",""time""
""fullscreenenter"",""1"",""2174""
","
","","","","","","null","<div style=""font-size:60px;"">+</div>","null","","fixation","","","","","","","","",""
"memory-trial","119","425876","0.0-15.0-1.38","1866","2","""event"",""trial"",""time""
""fullscreenenter"",""1"",""2174""
","
","
","""event"",""trial"",""time""
""fullscreenenter"",""1"",""2174""
","
","","","","","","973.6999999999534","images/table3.png","","","memory_trial","4","definitely_new","","","","","","",""
"html-keyboard-response","120","426383","0.0-15.0-0.39","1866","2","""event"",""trial"",""time""
""fullscreenenter"",""1"",""2174""
","
","
","""event"",""trial"",""time""
""fullscreenenter"",""1"",""2174""
","
","","","","","","null","<div style=""font-size:60px;"">+</div>","null","","fixation","","","","","","","","",""
"memory-trial","121","429034","0.0-15.0-1.39","1866","2","""event"",""trial"",""time""
""fullscreenenter"",""1"",""2174""
","
","
","""event"",""trial"",""time""
""fullscreenenter"",""1"",""2174""
","
","","","","","","1647.5999999999767","images/cow2.png","","","memory_trial","2","maybe_old","","","","","","",""
"html-keyboard-response","122","429535","0.0-15.0-0.40","1866","2","""event"",""trial"",""time""
""fullscreenenter"",""1"",""2174""
","
","
","""event"",""trial"",""time""
""fullscreenenter"",""1"",""2174""
","
","","","","","","null","<div style=""font-size:60px;"">+</div>","null","","fixation","","","","","","","","",""
"memory-trial","123","431807","0.0-15.0-1.40","1866","2","""event"",""trial"",""time""
""fullscreenenter"",""1"",""2174""
","
","
","""event"",""trial"",""time""
""fullscreenenter"",""1"",""2174""
","
","","","","","","1267.2000000000698","images/tree2.png","","","memory_trial","2","maybe_old","","","","","","",""
"html-keyboard-response","124","432313","0.0-15.0-0.41","1866","2","""event"",""trial"",""time""
""fullscreenenter"",""1"",""2174""
","
","
","""event"",""trial"",""time""
""fullscreenenter"",""1"",""2174""
","
","","","","","","null","<div style=""font-size:60px;"">+</div>","null","","fixation","","","","","","","","",""
"memory-trial","125","434191","0.0-15.0-1.41","1866","2","""event"",""trial"",""time""
""fullscreenenter"",""1"",""2174""
","
","
","""event"",""trial"",""time""
""fullscreenenter"",""1"",""2174""
","
","","","","","","870.3000000000466","images/chair2.png","","","memory_trial","1","definitely_old","","","","","","",""
"html-keyboard-response","126","434697","0.0-15.0-0.42","1866","2","""event"",""trial"",""time""
""fullscreenenter"",""1"",""2174""
","
","
","""event"",""trial"",""time""
""fullscreenenter"",""1"",""2174""
","
","","","","","","null","<div style=""font-size:60px;"">+</div>","null","","fixation","","","","","","","","",""
"memory-trial","127","437316","0.0-15.0-1.42","1866","2","""event"",""trial"",""time""
""fullscreenenter"",""1"",""2174""
","
","
","""event"",""trial"",""time""
""fullscreenenter"",""1"",""2174""
","
","","","","","","1611.4000000000233","images/boat2.png","","","memory_trial","1","definitely_old","","","","","","",""
"html-keyboard-response","128","437823","0.0-15.0-0.43","1866","2","""event"",""trial"",""time""
""fullscreenenter"",""1"",""2174""
","
","
","""event"",""trial"",""time""
""fullscreenenter"",""1"",""2174""
","
","","","","","","null","<div style=""font-size:60px;"">+</div>","null","","fixation","","","","","","","","",""
"memory-trial","129","439690","0.0-15.0-1.43","1866","2","""event"",""trial"",""time""
""fullscreenenter"",""1"",""2174""
","
","
","""event"",""trial"",""time""
""fullscreenenter"",""1"",""2174""
","
","","","","","","862.6000000000931","images/goat3.png","","","memory_trial","1","definitely_old","","","","","","",""
"html-keyboard-response","130","440196","0.0-15.0-0.44","1866","2","""event"",""trial"",""time""
""fullscreenenter"",""1"",""2174""
","
","
","""event"",""trial"",""time""
""fullscreenenter"",""1"",""2174""
","
","","","","","","null","<div style=""font-size:60px;"">+</div>","null","","fixation","","","","","","","","",""
"memory-trial","131","442303","0.0-15.0-1.44","1866","2","""event"",""trial"",""time""
""fullscreenenter"",""1"",""2174""
","
","
","""event"",""trial"",""time""
""fullscreenenter"",""1"",""2174""
","
","","","","","","1099.4000000000233","images/orange5.png","","","memory_trial","1","definitely_old","","","","","","",""
"html-keyboard-response","132","442809","0.0-15.0-0.45","1866","2","""event"",""trial"",""time""
""fullscreenenter"",""1"",""2174""
","
","
","""event"",""trial"",""time""
""fullscreenenter"",""1"",""2174""
","
","","","","","","null","<div style=""font-size:60px;"">+</div>","null","","fixation","","","","","","","","",""
"memory-trial","133","445183","0.0-15.0-1.45","1866","2","""event"",""trial"",""time""
""fullscreenenter"",""1"",""2174""
","
","
","""event"",""trial"",""time""
""fullscreenenter"",""1"",""2174""
","
","","","","","","1366.1999999999534","images/sheep5.png","","","memory_trial","4","definitely_new","","","","","","",""
"html-keyboard-response","134","445689","0.0-15.0-0.46","1866","2","""event"",""trial"",""time""
""fullscreenenter"",""1"",""2174""
","
","
","""event"",""trial"",""time""
""fullscreenenter"",""1"",""2174""
","
","","","","","","null","<div style=""font-size:60px;"">+</div>","null","","fixation","","","","","","","","",""
"memory-trial","135","448191","0.0-15.0-1.46","1866","2","""event"",""trial"",""time""
""fullscreenenter"",""1"",""2174""
","
","
","""event"",""trial"",""time""
""fullscreenenter"",""1"",""2174""
","
","","","","","","1495.5999999999767","images/straw4.png","","","memory_trial","4","definitely_new","","","","","","",""
"html-button-response","136","450517","0.0-15.0-2.46-0.46","1866","2","""event"",""trial"",""time""
""fullscreenenter"",""1"",""2174""
","
","
","""event"",""trial"",""time""
""fullscreenenter"",""1"",""2174""
","
","","","","","","2324.4000000000233","<p> Take a break! </p><p> Click the button to continue. </p>","0","","break","","","","","","","","",""
"html-keyboard-response","137","451019","0.0-15.0-0.47","1866","2","""event"",""trial"",""time""
""fullscreenenter"",""1"",""2174""
","
","
","""event"",""trial"",""time""
""fullscreenenter"",""1"",""2174""
","
","","","","","","null","<div style=""font-size:60px;"">+</div>","null","","fixation","","","","","","","","",""
"memory-trial","138","453512","0.0-15.0-1.47","1866","2","""event"",""trial"",""time""
""fullscreenenter"",""1"",""2174""
","
","
","""event"",""trial"",""time""
""fullscreenenter"",""1"",""2174""
","
","","","","","","1488.7000000000698","images/truck4.png","","","memory_trial","2","maybe_old","","","","","","",""
"html-keyboard-response","139","454015","0.0-15.0-0.48","1866","2","""event"",""trial"",""time""
""fullscreenenter"",""1"",""2174""
","
","
","""event"",""trial"",""time""
""fullscreenenter"",""1"",""2174""
","
","","","","","","null","<div style=""font-size:60px;"">+</div>","null","","fixation","","","","","","","","",""
"memory-trial","140","456207","0.0-15.0-1.48","1866","2","""event"",""trial"",""time""
""fullscreenenter"",""1"",""2174""
","
","
","""event"",""trial"",""time""
""fullscreenenter"",""1"",""2174""
","
","","","","","","1185.7999999999302","images/rabbit3.png","","","memory_trial","3","maybe_new","","","","","","",""
"html-keyboard-response","141","456713","0.0-15.0-0.49","1866","2","""event"",""trial"",""time""
""fullscreenenter"",""1"",""2174""
","
","
","""event"",""trial"",""time""
""fullscreenenter"",""1"",""2174""
","
","","","","","","null","<div style=""font-size:60px;"">+</div>","null","","fixation","","","","","","","","",""
"memory-trial","142","459690","0.0-15.0-1.49","1866","2","""event"",""trial"",""time""
""fullscreenenter"",""1"",""2174""
","
","
","""event"",""trial"",""time""
""fullscreenenter"",""1"",""2174""
","
","","","","","","1970.7000000000698","images/truck1.png","","","memory_trial","3","maybe_new","","","","","","",""
"html-keyboard-response","143","460196","0.0-15.0-0.50","1866","2","""event"",""trial"",""time""
""fullscreenenter"",""1"",""2174""
","
","
","""event"",""trial"",""time""
""fullscreenenter"",""1"",""2174""
","
","","","","","","null","<div style=""font-size:60px;"">+</div>","null","","fixation","","","","","","","","",""
"memory-trial","144","462111","0.0-15.0-1.50","1866","2","""event"",""trial"",""time""
""fullscreenenter"",""1"",""2174""
","
","
","""event"",""trial"",""time""
""fullscreenenter"",""1"",""2174""
","
","","","","","","910.5999999999767","images/straw5.png","","","memory_trial","1","definitely_old","","","","","","",""
"html-keyboard-response","145","462617","0.0-15.0-0.51","1866","2","""event"",""trial"",""time""
""fullscreenenter"",""1"",""2174""
","
","
","""event"",""trial"",""time""
""fullscreenenter"",""1"",""2174""
","
","","","","","","null","<div style=""font-size:60px;"">+</div>","null","","fixation","","","","","","","","",""
"memory-trial","146","464810","0.0-15.0-1.51","1866","2","""event"",""trial"",""time""
""fullscreenenter"",""1"",""2174""
","
","
","""event"",""trial"",""time""
""fullscreenenter"",""1"",""2174""
","
","","","","","","1185.4000000000233","images/rodent3.png","","","memory_trial","4","definitely_new","","","","","","",""
"html-keyboard-response","147","465316","0.0-15.0-0.52","1866","2","""event"",""trial"",""time""
""fullscreenenter"",""1"",""2174""
","
","
","""event"",""trial"",""time""
""fullscreenenter"",""1"",""2174""
","
","","","","","","null","<div style=""font-size:60px;"">+</div>","null","","fixation","","","","","","","","",""
"memory-trial","148","468004","0.0-15.0-1.52","1866","2","""event"",""trial"",""time""
""fullscreenenter"",""1"",""2174""
","
","
","""event"",""trial"",""time""
""fullscreenenter"",""1"",""2174""
","
","","","","","","1682","images/flower5.png","","","memory_trial","3","maybe_new","","","","","","",""
"html-keyboard-response","149","468511","0.0-15.0-0.53","1866","2","""event"",""trial"",""time""
""fullscreenenter"",""1"",""2174""
","
","
","""event"",""trial"",""time""
""fullscreenenter"",""1"",""2174""
","
","","","","","","null","<div style=""font-size:60px;"">+</div>","null","","fixation","","","","","","","","",""
"memory-trial","150","471055","0.0-15.0-1.53","1866","2","""event"",""trial"",""time""
""fullscreenenter"",""1"",""2174""
","
","
","""event"",""trial"",""time""
""fullscreenenter"",""1"",""2174""
","
","","","","","","1535.7000000000698","images/horse2.png","","","memory_trial","4","definitely_new","","","","","","",""
"html-keyboard-response","151","471556","0.0-15.0-0.54","1866","2","""event"",""trial"",""time""
""fullscreenenter"",""1"",""2174""
","
","
","""event"",""trial"",""time""
""fullscreenenter"",""1"",""2174""
","
","","","","","","null","<div style=""font-size:60px;"">+</div>","null","","fixation","","","","","","","","",""
"memory-trial","152","473727","0.0-15.0-1.54","1866","2","""event"",""trial"",""time""
""fullscreenenter"",""1"",""2174""
","
","
","""event"",""trial"",""time""
""fullscreenenter"",""1"",""2174""
","
","","","","","","1164.5999999999767","images/sofa5.png","","","memory_trial","3","maybe_new","","","","","","",""
"html-keyboard-response","153","474233","0.0-15.0-0.55","1866","2","""event"",""trial"",""time""
""fullscreenenter"",""1"",""2174""
","
","
","""event"",""trial"",""time""
""fullscreenenter"",""1"",""2174""
","
","","","","","","null","<div style=""font-size:60px;"">+</div>","null","","fixation","","","","","","","","",""
"memory-trial","154","476399","0.0-15.0-1.55","1866","2","""event"",""trial"",""time""
""fullscreenenter"",""1"",""2174""
","
","
","""event"",""trial"",""time""
""fullscreenenter"",""1"",""2174""
","
","","","","","","1159.2000000000698","images/orange1.png","","","memory_trial","1","definitely_old","","","","","","",""
"html-keyboard-response","155","476905","0.0-15.0-0.56","1866","2","""event"",""trial"",""time""
""fullscreenenter"",""1"",""2174""
","
","
","""event"",""trial"",""time""
""fullscreenenter"",""1"",""2174""
","
","","","","","","null","<div style=""font-size:60px;"">+</div>","null","","fixation","","","","","","","","",""
"memory-trial","156","479364","0.0-15.0-1.56","1866","2","""event"",""trial"",""time""
""fullscreenenter"",""1"",""2174""
","
","
","""event"",""trial"",""time""
""fullscreenenter"",""1"",""2174""
","
","","","","","","1450.9000000000233","images/boat1.png","","","memory_trial","3","maybe_new","","","","","","",""
"html-keyboard-response","157","479870","0.0-15.0-0.57","1866","2","""event"",""trial"",""time""
""fullscreenenter"",""1"",""2174""
","
","
","""event"",""trial"",""time""
""fullscreenenter"",""1"",""2174""
","
","","","","","","null","<div style=""font-size:60px;"">+</div>","null","","fixation","","","","","","","","",""
"memory-trial","158","481807","0.0-15.0-1.57","1866","2","""event"",""trial"",""time""
""fullscreenenter"",""1"",""2174""
","
","
","""event"",""trial"",""time""
""fullscreenenter"",""1"",""2174""
","
","","","","","","931.7000000000698","images/straw2.png","","","memory_trial","1","definitely_old","","","","","","",""
"html-keyboard-response","159","482313","0.0-15.0-0.58","1866","2","""event"",""trial"",""time""
""fullscreenenter"",""1"",""2174""
","
","
","""event"",""trial"",""time""
""fullscreenenter"",""1"",""2174""
","
","","","","","","null","<div style=""font-size:60px;"">+</div>","null","","fixation","","","","","","","","",""
"memory-trial","160","484857","0.0-15.0-1.58","1866","2","""event"",""trial"",""time""
""fullscreenenter"",""1"",""2174""
","
","
","""event"",""trial"",""time""
""fullscreenenter"",""1"",""2174""
","
","","","","","","1537.1000000000931","images/plane2.png","","","memory_trial","3","maybe_new","","","","","","",""
"html-keyboard-response","161","485364","0.0-15.0-0.59","1866","2","""event"",""trial"",""time""
""fullscreenenter"",""1"",""2174""
","
","
","""event"",""trial"",""time""
""fullscreenenter"",""1"",""2174""
","
","","","","","","null","<div style=""font-size:60px;"">+</div>","null","","fixation","","","","","","","","",""
"memory-trial","162","487910","0.0-15.0-1.59","1866","2","""event"",""trial"",""time""
""fullscreenenter"",""1"",""2174""
","
","
","""event"",""trial"",""time""
""fullscreenenter"",""1"",""2174""
","
","","","","","","1538.5","images/feline4.png","","","memory_trial","3","maybe_new","","","","","","",""
"html-keyboard-response","163","488415","0.0-15.0-0.60","1866","2","""event"",""trial"",""time""
""fullscreenenter"",""1"",""2174""
","
","
","""event"",""trial"",""time""
""fullscreenenter"",""1"",""2174""
","
","","","","","","null","<div style=""font-size:60px;"">+</div>","null","","fixation","","","","","","","","",""
"memory-trial","164","491289","0.0-15.0-1.60","1866","2","""event"",""trial"",""time""
""fullscreenenter"",""1"",""2174""
","
","
","""event"",""trial"",""time""
""fullscreenenter"",""1"",""2174""
","
","","","","","","1866","images/banana2.png","","","memory_trial","3","maybe_new","","","","","","",""
"html-keyboard-response","165","491795","0.0-15.0-0.61","1866","2","""event"",""trial"",""time""
""fullscreenenter"",""1"",""2174""
","
","
","""event"",""trial"",""time""
""fullscreenenter"",""1"",""2174""
","
","","","","","","null","<div style=""font-size:60px;"">+</div>","null","","fixation","","","","","","","","",""
"memory-trial","166","494639","0.0-15.0-1.61","1866","2","""event"",""trial"",""time""
""fullscreenenter"",""1"",""2174""
","
","
","""event"",""trial"",""time""
""fullscreenenter"",""1"",""2174""
","
","","","","","","1839.2999999999302","images/chair3.png","","","memory_trial","3","maybe_new","","","","","","",""
"html-keyboard-response","167","495145","0.0-15.0-0.62","1866","2","""event"",""trial"",""time""
""fullscreenenter"",""1"",""2174""
","
","
","""event"",""trial"",""time""
""fullscreenenter"",""1"",""2174""
","
","","","","","","null","<div style=""font-size:60px;"">+</div>","null","","fixation","","","","","","","","",""
"memory-trial","168","497279","0.0-15.0-1.62","1866","2","""event"",""trial"",""time""
""fullscreenenter"",""1"",""2174""
","
","
","""event"",""trial"",""time""
""fullscreenenter"",""1"",""2174""
","
","","","","","","1129.8000000000466","images/rodent1.png","","","memory_trial","4","definitely_new","","","","","","",""
"html-keyboard-response","169","497785","0.0-15.0-0.63","1866","2","""event"",""trial"",""time""
""fullscreenenter"",""1"",""2174""
","
","
","""event"",""trial"",""time""
""fullscreenenter"",""1"",""2174""
","
","","","","","","null","<div style=""font-size:60px;"">+</div>","null","","fixation","","","","","","","","",""
"memory-trial","170","500447","0.0-15.0-1.63","1866","2","""event"",""trial"",""time""
""fullscreenenter"",""1"",""2174""
","
","
","""event"",""trial"",""time""
""fullscreenenter"",""1"",""2174""
","
","","","","","","1654.0999999999767","images/apple4.png","","","memory_trial","3","maybe_new","","","","","","",""
"html-keyboard-response","171","500953","0.0-15.0-0.64","1866","2","""event"",""trial"",""time""
""fullscreenenter"",""1"",""2174""
","
","
","""event"",""trial"",""time""
""fullscreenenter"",""1"",""2174""
","
","","","","","","null","<div style=""font-size:60px;"">+</div>","null","","fixation","","","","","","","","",""
"memory-trial","172","503124","0.0-15.0-1.64","1866","2","""event"",""trial"",""time""
""fullscreenenter"",""1"",""2174""
","
","
","""event"",""trial"",""time""
""fullscreenenter"",""1"",""2174""
","
","","","","","","1162.8000000000466","images/horse3.png","","","memory_trial","2","maybe_old","","","","","","",""
"html-keyboard-response","173","503630","0.0-15.0-0.65","1866","2","""event"",""trial"",""time""
""fullscreenenter"",""1"",""2174""
","
","
","""event"",""trial"",""time""
""fullscreenenter"",""1"",""2174""
","
","","","","","","null","<div style=""font-size:60px;"">+</div>","null","","fixation","","","","","","","","",""
"memory-trial","174","505678","0.0-15.0-1.65","1866","2","""event"",""trial"",""time""
""fullscreenenter"",""1"",""2174""
","
","
","""event"",""trial"",""time""
""fullscreenenter"",""1"",""2174""
","
","","","","","","1044.0999999999767","images/table5.png","","","memory_trial","2","maybe_old","","","","","","",""
"html-keyboard-response","175","506179","0.0-15.0-0.66","1866","2","""event"",""trial"",""time""
""fullscreenenter"",""1"",""2174""
","
","
","""event"",""trial"",""time""
""fullscreenenter"",""1"",""2174""
","
","","","","","","null","<div style=""font-size:60px;"">+</div>","null","","fixation","","","","","","","","",""
"memory-trial","176","508660","0.0-15.0-1.66","1866","2","""event"",""trial"",""time""
""fullscreenenter"",""1"",""2174""
","
","
","""event"",""trial"",""time""
""fullscreenenter"",""1"",""2174""
","
","","","","","","1474.5999999999767","images/cactus4.png","","","memory_trial","2","maybe_old","","","","","","",""
"html-keyboard-response","177","509166","0.0-15.0-0.67","1866","2","""event"",""trial"",""time""
""fullscreenenter"",""1"",""2174""
","
","
","""event"",""trial"",""time""
""fullscreenenter"",""1"",""2174""
","
","","","","","","null","<div style=""font-size:60px;"">+</div>","null","","fixation","","","","","","","","",""
"memory-trial","178","511065","0.0-15.0-1.67","1866","2","""event"",""trial"",""time""
""fullscreenenter"",""1"",""2174""
","
","
","""event"",""trial"",""time""
""fullscreenenter"",""1"",""2174""
","
","","","","","","891.0999999999767","images/sheep1.png","","","memory_trial","1","definitely_old","","","","","","",""
"html-keyboard-response","179","511572","0.0-15.0-0.68","1866","2","""event"",""trial"",""time""
""fullscreenenter"",""1"",""2174""
","
","
","""event"",""trial"",""time""
""fullscreenenter"",""1"",""2174""
","
","","","","","","null","<div style=""font-size:60px;"">+</div>","null","","fixation","","","","","","","","",""
"memory-trial","180","514004","0.0-15.0-1.68","1866","2","""event"",""trial"",""time""
""fullscreenenter"",""1"",""2174""
","
","
","""event"",""trial"",""time""
""fullscreenenter"",""1"",""2174""
","
","","","","","","1425.2999999999302","images/goat5.png","","","memory_trial","2","maybe_old","","","","","","",""
"html-keyboard-response","181","514510","0.0-15.0-0.69","1866","2","""event"",""trial"",""time""
""fullscreenenter"",""1"",""2174""
","
","
","""event"",""trial"",""time""
""fullscreenenter"",""1"",""2174""
","
","","","","","","null","<div style=""font-size:60px;"">+</div>","null","","fixation","","","","","","","","",""
"memory-trial","182","516740","0.0-15.0-1.69","1866","2","""event"",""trial"",""time""
""fullscreenenter"",""1"",""2174""
","
","
","""event"",""trial"",""time""
""fullscreenenter"",""1"",""2174""
","
","","","","","","1221.5","images/bush3.png","","","memory_trial","3","maybe_new","","","","","","",""
"html-keyboard-response","183","517241","0.0-15.0-0.70","1866","2","""event"",""trial"",""time""
""fullscreenenter"",""1"",""2174""
","
","
","""event"",""trial"",""time""
""fullscreenenter"",""1"",""2174""
","
","","","","","","null","<div style=""font-size:60px;"">+</div>","null","","fixation","","","","","","","","",""
"memory-trial","184","519439","0.0-15.0-1.70","1866","2","""event"",""trial"",""time""
""fullscreenenter"",""1"",""2174""
","
","
","""event"",""trial"",""time""
""fullscreenenter"",""1"",""2174""
","
","","","","","","1194.5999999999767","images/chair1.png","","","memory_trial","2","maybe_old","","","","","","",""
"html-keyboard-response","185","519945","0.0-15.0-0.71","1866","2","""event"",""trial"",""time""
""fullscreenenter"",""1"",""2174""
","
","
","""event"",""trial"",""time""
""fullscreenenter"",""1"",""2174""
","
","","","","","","null","<div style=""font-size:60px;"">+</div>","null","","fixation","","","","","","","","",""
"memory-trial","186","522361","0.0-15.0-1.71","1866","2","""event"",""trial"",""time""
""fullscreenenter"",""1"",""2174""
","
","
","""event"",""trial"",""time""
""fullscreenenter"",""1"",""2174""
","
","","","","","","1408.4000000000233","images/bed2.png","","","memory_trial","1","definitely_old","","","","","","",""
"html-keyboard-response","187","522868","0.0-15.0-0.72","1866","2","""event"",""trial"",""time""
""fullscreenenter"",""1"",""2174""
","
","
","""event"",""trial"",""time""
""fullscreenenter"",""1"",""2174""
","
","","","","","","null","<div style=""font-size:60px;"">+</div>","null","","fixation","","","","","","","","",""
"memory-trial","188","525055","0.0-15.0-1.72","1866","2","""event"",""trial"",""time""
""fullscreenenter"",""1"",""2174""
","
","
","""event"",""trial"",""time""
""fullscreenenter"",""1"",""2174""
","
","","","","","","1180.1000000000931","images/feline3.png","","","memory_trial","3","maybe_new","","","","","","",""
"html-keyboard-response","189","525561","0.0-15.0-0.73","1866","2","""event"",""trial"",""time""
""fullscreenenter"",""1"",""2174""
","
","
","""event"",""trial"",""time""
""fullscreenenter"",""1"",""2174""
","
","","","","","","null","<div style=""font-size:60px;"">+</div>","null","","fixation","","","","","","","","",""
"memory-trial","190","528430","0.0-15.0-1.73","1866","2","""event"",""trial"",""time""
""fullscreenenter"",""1"",""2174""
","
","
","""event"",""trial"",""time""
""fullscreenenter"",""1"",""2174""
","
","","","","","","1861.5","images/sofa3.png","","","memory_trial","2","maybe_old","","","","","","",""
"html-keyboard-response","191","528937","0.0-15.0-0.74","1866","2","""event"",""trial"",""time""
""fullscreenenter"",""1"",""2174""
","
","
","""event"",""trial"",""time""
""fullscreenenter"",""1"",""2174""
","
","","","","","","null","<div style=""font-size:60px;"">+</div>","null","","fixation","","","","","","","","",""
"memory-trial","192","531108","0.0-15.0-1.74","1866","2","""event"",""trial"",""time""
""fullscreenenter"",""1"",""2174""
","
","
","""event"",""trial"",""time""
""fullscreenenter"",""1"",""2174""
","
","","","","","","1166.5","images/feline1.png","","","memory_trial","1","definitely_old","","","","","","",""
"html-keyboard-response","193","531614","0.0-15.0-0.75","1866","2","""event"",""trial"",""time""
""fullscreenenter"",""1"",""2174""
","
","
","""event"",""trial"",""time""
""fullscreenenter"",""1"",""2174""
","
","","","","","","null","<div style=""font-size:60px;"">+</div>","null","","fixation","","","","","","","","",""
"memory-trial","194","534062","0.0-15.0-1.75","1866","2","""event"",""trial"",""time""
""fullscreenenter"",""1"",""2174""
","
","
","""event"",""trial"",""time""
""fullscreenenter"",""1"",""2174""
","
","","","","","","1444.6999999999534","images/boat5.png","","","memory_trial","1","definitely_old","","","","","","",""
"html-keyboard-response","195","534569","0.0-15.0-0.76","1866","2","""event"",""trial"",""time""
""fullscreenenter"",""1"",""2174""
","
","
","""event"",""trial"",""time""
""fullscreenenter"",""1"",""2174""
","
","","","","","","null","<div style=""font-size:60px;"">+</div>","null","","fixation","","","","","","","","",""
"memory-trial","196","537214","0.0-15.0-1.76","1866","2","""event"",""trial"",""time""
""fullscreenenter"",""1"",""2174""
","
","
","""event"",""trial"",""time""
""fullscreenenter"",""1"",""2174""
","
","","","","","","1636.6999999999534","images/straw3.png","","","memory_trial","3","maybe_new","","","","","","",""
"html-keyboard-response","197","537721","0.0-15.0-0.77","1866","2","""event"",""trial"",""time""
""fullscreenenter"",""1"",""2174""
","
","
","""event"",""trial"",""time""
""fullscreenenter"",""1"",""2174""
","
","","","","","","null","<div style=""font-size:60px;"">+</div>","null","","fixation","","","","","","","","",""
"memory-trial","198","539849","0.0-15.0-1.77","1866","2","""event"",""trial"",""time""
""fullscreenenter"",""1"",""2174""
","
","
","""event"",""trial"",""time""
""fullscreenenter"",""1"",""2174""
","
","","","","","","1122","images/train1.png","","","memory_trial","3","maybe_new","","","","","","",""
"html-keyboard-response","199","540356","0.0-15.0-0.78","1866","2","""event"",""trial"",""time""
""fullscreenenter"",""1"",""2174""
","
","
","""event"",""trial"",""time""
""fullscreenenter"",""1"",""2174""
","
","","","","","","null","<div style=""font-size:60px;"">+</div>","null","","fixation","","","","","","","","",""
"memory-trial","200","542911","0.0-15.0-1.78","1866","2","""event"",""trial"",""time""
""fullscreenenter"",""1"",""2174""
","
","
","""event"",""trial"",""time""
""fullscreenenter"",""1"",""2174""
","
","","","","","","1549.3000000000466","images/cactus2.png","","","memory_trial","2","maybe_old","","","","","","",""
"html-keyboard-response","201","543417","0.0-15.0-0.79","1866","2","""event"",""trial"",""time""
""fullscreenenter"",""1"",""2174""
","
","
","""event"",""trial"",""time""
""fullscreenenter"",""1"",""2174""
","
","","","","","","null","<div style=""font-size:60px;"">+</div>","null","","fixation","","","","","","","","",""
"memory-trial","202","546654","0.0-15.0-1.79","1866","2","""event"",""trial"",""time""
""fullscreenenter"",""1"",""2174""
","
","
","""event"",""trial"",""time""
""fullscreenenter"",""1"",""2174""
","
","","","","","","2231.5","images/straw1.png","","","memory_trial","3","maybe_new","","","","","","",""
"html-keyboard-response","203","547161","0.0-15.0-0.80","1866","2","""event"",""trial"",""time""
""fullscreenenter"",""1"",""2174""
","
","
","""event"",""trial"",""time""
""fullscreenenter"",""1"",""2174""
","
","","","","","","null","<div style=""font-size:60px;"">+</div>","null","","fixation","","","","","","","","",""
"memory-trial","204","549769","0.0-15.0-1.80","1866","2","""event"",""trial"",""time""
""fullscreenenter"",""1"",""2174""
","
","
","""event"",""trial"",""time""
""fullscreenenter"",""1"",""2174""
","
","","","","","","1599.6999999999534","images/truck5.png","","","memory_trial","3","maybe_new","","","","","","",""
"html-keyboard-response","205","550275","0.0-15.0-0.81","1866","2","""event"",""trial"",""time""
""fullscreenenter"",""1"",""2174""
","
","
","""event"",""trial"",""time""
""fullscreenenter"",""1"",""2174""
","
","","","","","","null","<div style=""font-size:60px;"">+</div>","null","","fixation","","","","","","","","",""
"memory-trial","206","552270","0.0-15.0-1.81","1866","2","""event"",""trial"",""time""
""fullscreenenter"",""1"",""2174""
","
","
","""event"",""trial"",""time""
""fullscreenenter"",""1"",""2174""
","
","","","","","","986.8999999999069","images/rodent4.png","","","memory_trial","4","definitely_new","","","","","","",""
"html-keyboard-response","207","552777","0.0-15.0-0.82","1866","2","""event"",""trial"",""time""
""fullscreenenter"",""1"",""2174""
","
","
","""event"",""trial"",""time""
""fullscreenenter"",""1"",""2174""
","
","","","","","","null","<div style=""font-size:60px;"">+</div>","null","","fixation","","","","","","","","",""
"memory-trial","208","555540","0.0-15.0-1.82","1866","2","""event"",""trial"",""time""
""fullscreenenter"",""1"",""2174""
","
","
","""event"",""trial"",""time""
""fullscreenenter"",""1"",""2174""
","
","","","","","","1759.1000000000931","images/sofa1.png","","","memory_trial","2","maybe_old","","","","","","",""
"html-keyboard-response","209","556045","0.0-15.0-0.83","1866","2","""event"",""trial"",""time""
""fullscreenenter"",""1"",""2174""
","
","
","""event"",""trial"",""time""
""fullscreenenter"",""1"",""2174""
","
","","","","","","null","<div style=""font-size:60px;"">+</div>","null","","fixation","","","","","","","","",""
"memory-trial","210","559433","0.0-15.0-1.83","1866","2","""event"",""trial"",""time""
""fullscreenenter"",""1"",""2174""
","
","
","""event"",""trial"",""time""
""fullscreenenter"",""1"",""2174""
","
","","","","","","2381.9000000001397","images/cow4.png","","","memory_trial","4","definitely_new","","","","","","",""
"html-keyboard-response","211","559939","0.0-15.0-0.84","1866","2","""event"",""trial"",""time""
""fullscreenenter"",""1"",""2174""
","
","
","""event"",""trial"",""time""
""fullscreenenter"",""1"",""2174""
","
","","","","","","null","<div style=""font-size:60px;"">+</div>","null","","fixation","","","","","","","","",""
"memory-trial","212","562350","0.0-15.0-1.84","1866","2","""event"",""trial"",""time""
""fullscreenenter"",""1"",""2174""
","
","
","""event"",""trial"",""time""
""fullscreenenter"",""1"",""2174""
","
","","","","","","1403.8999999999069","images/goat2.png","","","memory_trial","1","definitely_old","","","","","","",""
"html-keyboard-response","213","562857","0.0-15.0-0.85","1866","2","""event"",""trial"",""time""
""fullscreenenter"",""1"",""2174""
","
","
","""event"",""trial"",""time""
""fullscreenenter"",""1"",""2174""
","
","","","","","","null","<div style=""font-size:60px;"">+</div>","null","","fixation","","","","","","","","",""
"memory-trial","214","565444","0.0-15.0-1.85","1866","2","""event"",""trial"",""time""
""fullscreenenter"",""1"",""2174""
","
","
","""event"",""trial"",""time""
""fullscreenenter"",""1"",""2174""
","
","","","","","","1579.2000000001863","images/chair4.png","","","memory_trial","4","definitely_new","","","","","","",""
"html-keyboard-response","215","565950","0.0-15.0-0.86","1866","2","""event"",""trial"",""time""
""fullscreenenter"",""1"",""2174""
","
","
","""event"",""trial"",""time""
""fullscreenenter"",""1"",""2174""
","
","","","","","","null","<div style=""font-size:60px;"">+</div>","null","","fixation","","","","","","","","",""
"memory-trial","216","568248","0.0-15.0-1.86","1866","2","""event"",""trial"",""time""
""fullscreenenter"",""1"",""2174""
","
","
","""event"",""trial"",""time""
""fullscreenenter"",""1"",""2174""
","
","","","","","","1292.9000000001397","images/train4.png","","","memory_trial","4","definitely_new","","","","","","",""
"html-keyboard-response","217","568754","0.0-15.0-0.87","1866","2","""event"",""trial"",""time""
""fullscreenenter"",""1"",""2174""
","
","
","""event"",""trial"",""time""
""fullscreenenter"",""1"",""2174""
","
","","","","","","null","<div style=""font-size:60px;"">+</div>","null","","fixation","","","","","","","","",""
"memory-trial","218","571065","0.0-15.0-1.87","1866","2","""event"",""trial"",""time""
""fullscreenenter"",""1"",""2174""
","
","
","""event"",""trial"",""time""
""fullscreenenter"",""1"",""2174""
","
","","","","","","1307.3000000000466","images/sheep4.png","","","memory_trial","2","maybe_old","","","","","","",""
"html-keyboard-response","219","571571","0.0-15.0-0.88","1866","2","""event"",""trial"",""time""
""fullscreenenter"",""1"",""2174""
","
","
","""event"",""trial"",""time""
""fullscreenenter"",""1"",""2174""
","
","","","","","","null","<div style=""font-size:60px;"">+</div>","null","","fixation","","","","","","","","",""
"memory-trial","220","574307","0.0-15.0-1.88","1866","2","""event"",""trial"",""time""
""fullscreenenter"",""1"",""2174""
","
","
","""event"",""trial"",""time""
""fullscreenenter"",""1"",""2174""
","
","","","","","","1729.1000000000931","images/dog5.png","","","memory_trial","3","maybe_new","","","","","","",""
"html-keyboard-response","221","574814","0.0-15.0-0.89","1866","2","""event"",""trial"",""time""
""fullscreenenter"",""1"",""2174""
","
","
","""event"",""trial"",""time""
""fullscreenenter"",""1"",""2174""
","
","","","","","","null","<div style=""font-size:60px;"">+</div>","null","","fixation","","","","","","","","",""
"memory-trial","222","576766","0.0-15.0-1.89","1866","2","""event"",""trial"",""time""
""fullscreenenter"",""1"",""2174""
","
","
","""event"",""trial"",""time""
""fullscreenenter"",""1"",""2174""
","
","","","","","","943.5","images/horse4.png","","","memory_trial","1","definitely_old","","","","","","",""
"html-keyboard-response","223","577273","0.0-15.0-0.90","1866","2","""event"",""trial"",""time""
""fullscreenenter"",""1"",""2174""
","
","
","""event"",""trial"",""time""
""fullscreenenter"",""1"",""2174""
","
","","","","","","null","<div style=""font-size:60px;"">+</div>","null","","fixation","","","","","","","","",""
"memory-trial","224","579614","0.0-15.0-1.90","1866","2","""event"",""trial"",""time""
""fullscreenenter"",""1"",""2174""
","
","
","""event"",""trial"",""time""
""fullscreenenter"",""1"",""2174""
","
","","","","","","1336.1000000000931","images/bed5.png","","","memory_trial","1","definitely_old","","","","","","",""
"html-keyboard-response","225","580121","0.0-15.0-0.91","1866","2","""event"",""trial"",""time""
""fullscreenenter"",""1"",""2174""
","
","
","""event"",""trial"",""time""
""fullscreenenter"",""1"",""2174""
","
","","","","","","null","<div style=""font-size:60px;"">+</div>","null","","fixation","","","","","","","","",""
"memory-trial","226","582441","0.0-15.0-1.91","1866","2","""event"",""trial"",""time""
""fullscreenenter"",""1"",""2174""
","
","
","""event"",""trial"",""time""
""fullscreenenter"",""1"",""2174""
","
","","","","","","1314.7999999998137","images/plane4.png","","","memory_trial","3","maybe_new","","","","","","",""
"html-keyboard-response","227","582947","0.0-15.0-0.92","1866","2","""event"",""trial"",""time""
""fullscreenenter"",""1"",""2174""
","
","
","""event"",""trial"",""time""
""fullscreenenter"",""1"",""2174""
","
","","","","","","null","<div style=""font-size:60px;"">+</div>","null","","fixation","","","","","","","","",""
"memory-trial","228","585070","0.0-15.0-1.92","1866","2","""event"",""trial"",""time""
""fullscreenenter"",""1"",""2174""
","
","
","""event"",""trial"",""time""
""fullscreenenter"",""1"",""2174""
","
","","","","","","1119.6999999999534","images/rabbit5.png","","","memory_trial","4","definitely_new","","","","","","",""
"html-keyboard-response","229","585577","0.0-15.0-0.93","1866","2","""event"",""trial"",""time""
""fullscreenenter"",""1"",""2174""
","
","
","""event"",""trial"",""time""
""fullscreenenter"",""1"",""2174""
","
","","","","","","null","<div style=""font-size:60px;"">+</div>","null","","fixation","","","","","","","","",""
"memory-trial","230","587646","0.0-15.0-1.93","1866","2","""event"",""trial"",""time""
""fullscreenenter"",""1"",""2174""
","
","
","""event"",""trial"",""time""
""fullscreenenter"",""1"",""2174""
","
","","","","","","1061.9000000001397","images/tree1.png","","","memory_trial","1","definitely_old","","","","","","",""
"html-keyboard-response","231","588153","0.0-15.0-0.94","1866","2","""event"",""trial"",""time""
""fullscreenenter"",""1"",""2174""
","
","
","""event"",""trial"",""time""
""fullscreenenter"",""1"",""2174""
","
","","","","","","null","<div style=""font-size:60px;"">+</div>","null","","fixation","","","","","","","","",""
"memory-trial","232","591134","0.0-15.0-1.94","1866","2","""event"",""trial"",""time""
""fullscreenenter"",""1"",""2174""
","
","
","""event"",""trial"",""time""
""fullscreenenter"",""1"",""2174""
","
","","","","","","1974.6999999999534","images/orange3.png","","","memory_trial","4","definitely_new","","","","","","",""
"html-keyboard-response","233","591641","0.0-15.0-0.95","1866","2","""event"",""trial"",""time""
""fullscreenenter"",""1"",""2174""
","
","
","""event"",""trial"",""time""
""fullscreenenter"",""1"",""2174""
","
","","","","","","null","<div style=""font-size:60px;"">+</div>","null","","fixation","","","","","","","","",""
"memory-trial","234","593870","0.0-15.0-1.95","1866","2","""event"",""trial"",""time""
""fullscreenenter"",""1"",""2174""
","
","
","""event"",""trial"",""time""
""fullscreenenter"",""1"",""2174""
","
","","","","","","1224.3000000000466","images/sofa2.png","","","memory_trial","2","maybe_old","","","","","","",""
"html-keyboard-response","235","594377","0.0-15.0-0.96","1866","2","""event"",""trial"",""time""
""fullscreenenter"",""1"",""2174""
","
","
","""event"",""trial"",""time""
""fullscreenenter"",""1"",""2174""
","
","","","","","","null","<div style=""font-size:60px;"">+</div>","null","","fixation","","","","","","","","",""
"memory-trial","236","597001","0.0-15.0-1.96","1866","2","""event"",""trial"",""time""
""fullscreenenter"",""1"",""2174""
","
","
","""event"",""trial"",""time""
""fullscreenenter"",""1"",""2174""
","
","","","","","","1618.7999999998137","images/tree3.png","","","memory_trial","4","definitely_new","","","","","","",""
"html-keyboard-response","237","597507","0.0-15.0-0.97","1866","2","""event"",""trial"",""time""
""fullscreenenter"",""1"",""2174""
","
","
","""event"",""trial"",""time""
""fullscreenenter"",""1"",""2174""
","
","","","","","","null","<div style=""font-size:60px;"">+</div>","null","","fixation","","","","","","","","",""
"memory-trial","238","600014","0.0-15.0-1.97","1866","2","""event"",""trial"",""time""
""fullscreenenter"",""1"",""2174""
","
","
","""event"",""trial"",""time""
""fullscreenenter"",""1"",""2174""
","
","","","","","","1502","images/boat4.png","","","memory_trial","2","maybe_old","","","","","","",""
"html-keyboard-response","239","600521","0.0-15.0-0.98","1866","2","""event"",""trial"",""time""
""fullscreenenter"",""1"",""2174""
","
","
","""event"",""trial"",""time""
""fullscreenenter"",""1"",""2174""
","
","","","","","","null","<div style=""font-size:60px;"">+</div>","null","","fixation","","","","","","","","",""
"memory-trial","240","602595","0.0-15.0-1.98","1866","2","""event"",""trial"",""time""
""fullscreenenter"",""1"",""2174""
","
","
","""event"",""trial"",""time""
""fullscreenenter"",""1"",""2174""
","
","","","","","","1066.6999999999534","images/goat1.png","","","memory_trial","1","definitely_old","","","","","","",""
"html-keyboard-response","241","603102","0.0-15.0-0.99","1866","2","""event"",""trial"",""time""
""fullscreenenter"",""1"",""2174""
","
","
","""event"",""trial"",""time""
""fullscreenenter"",""1"",""2174""
","
","","","","","","null","<div style=""font-size:60px;"">+</div>","null","","fixation","","","","","","","","",""
"memory-trial","242","605273","0.0-15.0-1.99","1866","2","""event"",""trial"",""time""
""fullscreenenter"",""1"",""2174""
","
","
","""event"",""trial"",""time""
""fullscreenenter"",""1"",""2174""
","
","","","","","","1168.3000000000466","images/dog4.png","","","memory_trial","3","maybe_new","","","","","","",""
"html-keyboard-response","243","605779","0.0-15.0-0.100","1866","2","""event"",""trial"",""time""
""fullscreenenter"",""1"",""2174""
","
","
","""event"",""trial"",""time""
""fullscreenenter"",""1"",""2174""
","
","","","","","","null","<div style=""font-size:60px;"">+</div>","null","","fixation","","","","","","","","",""
"memory-trial","244","607918","0.0-15.0-1.100","1866","2","""event"",""trial"",""time""
""fullscreenenter"",""1"",""2174""
","
","
","""event"",""trial"",""time""
""fullscreenenter"",""1"",""2174""
","
","","","","","","1131.4000000001397","images/table4.png","","","memory_trial","3","maybe_new","","","","","","",""
"html-keyboard-response","245","608425","0.0-15.0-0.101","1866","2","""event"",""trial"",""time""
""fullscreenenter"",""1"",""2174""
","
","
","""event"",""trial"",""time""
""fullscreenenter"",""1"",""2174""
","
","","","","","","null","<div style=""font-size:60px;"">+</div>","null","","fixation","","","","","","","","",""
"memory-trial","246","610462","0.0-15.0-1.101","1866","2","""event"",""trial"",""time""
""fullscreenenter"",""1"",""2174""
","
","
","""event"",""trial"",""time""
""fullscreenenter"",""1"",""2174""
","
","","","","","","1033.5","images/cow1.png","","","memory_trial","2","maybe_old","","","","","","",""
"html-button-response","247","613043","0.0-15.0-2.101-0.101","1866","2","""event"",""trial"",""time""
""fullscreenenter"",""1"",""2174""
","
","
","""event"",""trial"",""time""
""fullscreenenter"",""1"",""2174""
","
","","","","","","2579.600000000093","<p> Take a break! </p><p> Click the button to continue. </p>","0","","break","","","","","","","","",""
"html-keyboard-response","248","613544","0.0-15.0-0.102","1866","2","""event"",""trial"",""time""
""fullscreenenter"",""1"",""2174""
","
","
","""event"",""trial"",""time""
""fullscreenenter"",""1"",""2174""
","
","","","","","","null","<div style=""font-size:60px;"">+</div>","null","","fixation","","","","","","","","",""
"memory-trial","249","615939","0.0-15.0-1.102","1866","2","""event"",""trial"",""time""
""fullscreenenter"",""1"",""2174""
","
","
","""event"",""trial"",""time""
""fullscreenenter"",""1"",""2174""
","
","","","","","","1389.3999999999069","images/tree5.png","","","memory_trial","2","maybe_old","","","","","","",""
"html-keyboard-response","250","616446","0.0-15.0-0.103","1866","2","""event"",""trial"",""time""
""fullscreenenter"",""1"",""2174""
","
","
","""event"",""trial"",""time""
""fullscreenenter"",""1"",""2174""
","
","","","","","","null","<div style=""font-size:60px;"">+</div>","null","","fixation","","","","","","","","",""
"memory-trial","251","619241","0.0-15.0-1.103","1866","2","""event"",""trial"",""time""
""fullscreenenter"",""1"",""2174""
","
","
","""event"",""trial"",""time""
""fullscreenenter"",""1"",""2174""
","
","","","","","","1788.1999999999534","images/orange4.png","","","memory_trial","4","definitely_new","","","","","","",""
"html-keyboard-response","252","619747","0.0-15.0-0.104","1866","2","""event"",""trial"",""time""
""fullscreenenter"",""1"",""2174""
","
","
","""event"",""trial"",""time""
""fullscreenenter"",""1"",""2174""
","
","","","","","","null","<div style=""font-size:60px;"">+</div>","null","","fixation","","","","","","","","",""
"memory-trial","253","621939","0.0-15.0-1.104","1866","2","""event"",""trial"",""time""
""fullscreenenter"",""1"",""2174""
","
","
","""event"",""trial"",""time""
""fullscreenenter"",""1"",""2174""
","
","","","","","","1187.8999999999069","images/cactus3.png","","","memory_trial","4","definitely_new","","","","","","",""
"html-keyboard-response","254","622446","0.0-15.0-0.105","1866","2","""event"",""trial"",""time""
""fullscreenenter"",""1"",""2174""
","
","
","""event"",""trial"",""time""
""fullscreenenter"",""1"",""2174""
","
","","","","","","null","<div style=""font-size:60px;"">+</div>","null","","fixation","","","","","","","","",""
"memory-trial","255","624393","0.0-15.0-1.105","1866","2","""event"",""trial"",""time""
""fullscreenenter"",""1"",""2174""
","
","
","""event"",""trial"",""time""
""fullscreenenter"",""1"",""2174""
","
","","","","","","938.6999999999534","images/bush2.png","","","memory_trial","4","definitely_new","","","","","","",""
"html-keyboard-response","256","624899","0.0-15.0-0.106","1866","2","""event"",""trial"",""time""
""fullscreenenter"",""1"",""2174""
","
","
","""event"",""trial"",""time""
""fullscreenenter"",""1"",""2174""
","
","","","","","","null","<div style=""font-size:60px;"">+</div>","null","","fixation","","","","","","","","",""
"memory-trial","257","627230","0.0-15.0-1.106","1866","2","""event"",""trial"",""time""
""fullscreenenter"",""1"",""2174""
","
","
","""event"",""trial"",""time""
""fullscreenenter"",""1"",""2174""
","
","","","","","","1325.7000000001863","images/sheep3.png","","","memory_trial","1","definitely_old","","","","","","",""
"html-keyboard-response","258","627736","0.0-15.0-0.107","1866","2","""event"",""trial"",""time""
""fullscreenenter"",""1"",""2174""
","
","
","""event"",""trial"",""time""
""fullscreenenter"",""1"",""2174""
","
","","","","","","null","<div style=""font-size:60px;"">+</div>","null","","fixation","","","","","","","","",""
"memory-trial","259","629859","0.0-15.0-1.107","1866","2","""event"",""trial"",""time""
""fullscreenenter"",""1"",""2174""
","
","
","""event"",""trial"",""time""
""fullscreenenter"",""1"",""2174""
","
","","","","","","1117.6999999999534","images/rabbit1.png","","","memory_trial","3","maybe_new","","","","","","",""
"html-keyboard-response","260","630366","0.0-15.0-0.108","1866","2","""event"",""trial"",""time""
""fullscreenenter"",""1"",""2174""
","
","
","""event"",""trial"",""time""
""fullscreenenter"",""1"",""2174""
","
","","","","","","null","<div style=""font-size:60px;"">+</div>","null","","fixation","","","","","","","","",""
"memory-trial","261","632563","0.0-15.0-1.108","1866","2","""event"",""trial"",""time""
""fullscreenenter"",""1"",""2174""
","
","
","""event"",""trial"",""time""
""fullscreenenter"",""1"",""2174""
","
","","","","","","1190.1999999999534","images/boat3.png","","","memory_trial","4","definitely_new","","","","","","",""
"html-keyboard-response","262","633064","0.0-15.0-0.109","1866","2","""event"",""trial"",""time""
""fullscreenenter"",""1"",""2174""
","
","
","""event"",""trial"",""time""
""fullscreenenter"",""1"",""2174""
","
","","","","","","null","<div style=""font-size:60px;"">+</div>","null","","fixation","","","","","","","","",""
"memory-trial","263","635230","0.0-15.0-1.109","1866","2","""event"",""trial"",""time""
""fullscreenenter"",""1"",""2174""
","
","
","""event"",""trial"",""time""
""fullscreenenter"",""1"",""2174""
","
","","","","","","1158.5999999998603","images/cactus5.png","","","memory_trial","2","maybe_old","","","","","","",""
"html-keyboard-response","264","635736","0.0-15.0-0.110","1866","2","""event"",""trial"",""time""
""fullscreenenter"",""1"",""2174""
","
","
","""event"",""trial"",""time""
""fullscreenenter"",""1"",""2174""
","
","","","","","","null","<div style=""font-size:60px;"">+</div>","null","","fixation","","","","","","","","",""
"memory-trial","265","638798","0.0-15.0-1.110","1866","2","""event"",""trial"",""time""
""fullscreenenter"",""1"",""2174""
","
","
","""event"",""trial"",""time""
""fullscreenenter"",""1"",""2174""
","
","","","","","","2056","images/train5.png","","","memory_trial","4","definitely_new","","","","","","",""
"html-keyboard-response","266","639304","0.0-15.0-0.111","1866","2","""event"",""trial"",""time""
""fullscreenenter"",""1"",""2174""
","
","
","""event"",""trial"",""time""
""fullscreenenter"",""1"",""2174""
","
","","","","","","null","<div style=""font-size:60px;"">+</div>","null","","fixation","","","","","","","","",""
"memory-trial","267","641433","0.0-15.0-1.111","1866","2","""event"",""trial"",""time""
""fullscreenenter"",""1"",""2174""
","
","
","""event"",""trial"",""time""
""fullscreenenter"",""1"",""2174""
","
","","","","","","1122.5","images/plane1.png","","","memory_trial","1","definitely_old","","","","","","",""
"html-keyboard-response","268","641939","0.0-15.0-0.112","1866","2","""event"",""trial"",""time""
""fullscreenenter"",""1"",""2174""
","
","
","""event"",""trial"",""time""
""fullscreenenter"",""1"",""2174""
","
","","","","","","null","<div style=""font-size:60px;"">+</div>","null","","fixation","","","","","","","","",""
"memory-trial","269","644099","0.0-15.0-1.112","1866","2","""event"",""trial"",""time""
""fullscreenenter"",""1"",""2174""
","
","
","""event"",""trial"",""time""
""fullscreenenter"",""1"",""2174""
","
","","","","","","1153.7999999998137","images/plane5.png","","","memory_trial","2","maybe_old","","","","","","",""
"html-keyboard-response","270","644606","0.0-15.0-0.113","1866","2","""event"",""trial"",""time""
""fullscreenenter"",""1"",""2174""
","
","
","""event"",""trial"",""time""
""fullscreenenter"",""1"",""2174""
","
","","","","","","null","<div style=""font-size:60px;"">+</div>","null","","fixation","","","","","","","","",""
"memory-trial","271","646419","0.0-15.0-1.113","1866","2","""event"",""trial"",""time""
""fullscreenenter"",""1"",""2174""
","
","
","""event"",""trial"",""time""
""fullscreenenter"",""1"",""2174""
","
","","","","","","806.8999999999069","images/feline2.png","","","memory_trial","1","definitely_old","","","","","","",""
"html-keyboard-response","272","646926","0.0-15.0-0.114","1866","2","""event"",""trial"",""time""
""fullscreenenter"",""1"",""2174""
","
","
","""event"",""trial"",""time""
""fullscreenenter"",""1"",""2174""
","
","","","","","","null","<div style=""font-size:60px;"">+</div>","null","","fixation","","","","","","","","",""
"memory-trial","273","648889","0.0-15.0-1.114","1866","2","""event"",""trial"",""time""
""fullscreenenter"",""1"",""2174""
","
","
","""event"",""trial"",""time""
""fullscreenenter"",""1"",""2174""
","
","","","","","","956.8000000000466","images/rabbit2.png","","","memory_trial","3","maybe_new","","","","","","",""
"html-keyboard-response","274","649395","0.0-15.0-0.115","1866","2","""event"",""trial"",""time""
""fullscreenenter"",""1"",""2174""
","
","
","""event"",""trial"",""time""
""fullscreenenter"",""1"",""2174""
","
","","","","","","null","<div style=""font-size:60px;"">+</div>","null","","fixation","","","","","","","","",""
"memory-trial","275","651238","0.0-15.0-1.115","1866","2","""event"",""trial"",""time""
""fullscreenenter"",""1"",""2174""
","
","
","""event"",""trial"",""time""
""fullscreenenter"",""1"",""2174""
","
","","","","","","835.4000000001397","images/dog1.png","","","memory_trial","1","definitely_old","","","","","","",""
"html-keyboard-response","276","651744","0.0-15.0-0.116","1866","2","""event"",""trial"",""time""
""fullscreenenter"",""1"",""2174""
","
","
","""event"",""trial"",""time""
""fullscreenenter"",""1"",""2174""
","
","","","","","","null","<div style=""font-size:60px;"">+</div>","null","","fixation","","","","","","","","",""
"memory-trial","277","653923","0.0-15.0-1.116","1866","2","""event"",""trial"",""time""
""fullscreenenter"",""1"",""2174""
","
","
","""event"",""trial"",""time""
""fullscreenenter"",""1"",""2174""
","
","","","","","","1175","images/apple2.png","","","memory_trial","4","definitely_new","","","","","","",""
"html-keyboard-response","278","654430","0.0-15.0-0.117","1866","2","""event"",""trial"",""time""
""fullscreenenter"",""1"",""2174""
","
","
","""event"",""trial"",""time""
""fullscreenenter"",""1"",""2174""
","
","","","","","","null","<div style=""font-size:60px;"">+</div>","null","","fixation","","","","","","","","",""
"memory-trial","279","656830","0.0-15.0-1.117","1866","2","""event"",""trial"",""time""
""fullscreenenter"",""1"",""2174""
","
","
","""event"",""trial"",""time""
""fullscreenenter"",""1"",""2174""
","
","","","","","","1394.1000000000931","images/sheep2.png","","","memory_trial","4","definitely_new","","","","","","",""
"html-keyboard-response","280","657336","0.0-15.0-0.118","1866","2","""event"",""trial"",""time""
""fullscreenenter"",""1"",""2174""
","
","
","""event"",""trial"",""time""
""fullscreenenter"",""1"",""2174""
","
","","","","","","null","<div style=""font-size:60px;"">+</div>","null","","fixation","","","","","","","","",""
"memory-trial","281","659913","0.0-15.0-1.118","1866","2","""event"",""trial"",""time""
""fullscreenenter"",""1"",""2174""
","
","
","""event"",""trial"",""time""
""fullscreenenter"",""1"",""2174""
","
","","","","","","1573","images/flower1.png","","","memory_trial","2","maybe_old","","","","","","",""
"html-keyboard-response","282","660419","0.0-15.0-0.119","1866","2","""event"",""trial"",""time""
""fullscreenenter"",""1"",""2174""
","
","
","""event"",""trial"",""time""
""fullscreenenter"",""1"",""2174""
","
","","","","","","null","<div style=""font-size:60px;"">+</div>","null","","fixation","","","","","","","","",""
"memory-trial","283","663064","0.0-15.0-1.119","1866","2","""event"",""trial"",""time""
""fullscreenenter"",""1"",""2174""
","
","
","""event"",""trial"",""time""
""fullscreenenter"",""1"",""2174""
","
","","","","","","1639.3999999999069","images/rabbit4.png","","","memory_trial","2","maybe_old","","","","","","",""
"preload","284","712558","0.0-16.0","1866","2","""event"",""trial"",""time""
""fullscreenenter"",""1"",""2174""
","
","
","""event"",""trial"",""time""
""fullscreenenter"",""1"",""2174""
","
","true","false","[]","[]","[]","","","","","","","","","","","","","",""
"learning-instructions","285","717519","0.0-17.0-0.0-0.0-0.0","1866","2","""event"",""trial"",""time""
""fullscreenenter"",""1"",""2174""
","
","
","""event"",""trial"",""time""
""fullscreenenter"",""1"",""2174""
","
","","","","","","2015.7000000001863","<p> We're now going to ask you to feed your pets again. </p>","","0","instructions","","","","","","","","",""
"learning-instructions","286","724057","0.0-17.0-0.0-0.0-0.1","1866","2","""event"",""trial"",""time""
""fullscreenenter"",""1"",""2174""
","
","
","""event"",""trial"",""time""
""fullscreenenter"",""1"",""2174""
","
","","","","","","394.0999999998603","<p> On each trial, you will see a pet. Select the food that you think is most likely to make the pet happy. </p>","","0","instructions","","","","","","","","",""
"learning-instructions","287","731587","0.0-17.0-0.0-0.0-0.2","1866","2","""event"",""trial"",""time""
""fullscreenenter"",""1"",""2174""
","
","
","""event"",""trial"",""time""
""fullscreenenter"",""1"",""2174""
","
","","","","","","462.5","<p> To make your selection, think about what you learned last week. You will NOT receive any feedback about your choice. </p>","","0","instructions","","","","","","","","",""
"learning-instructions","288","739539","0.0-17.0-0.0-0.0-0.3","1866","2","""event"",""trial"",""time""
""fullscreenenter"",""1"",""2174""
","
","
","""event"",""trial"",""time""
""fullscreenenter"",""1"",""2174""
","
","","","","","","323.5","<p> You should use the 1 key to select the food on the left, the 2 key to select the food in the middle, and the 3 key to select the food on the right. </p><br><div class=""choice-mem-instructions-grid""> <div class=""choice-mem-option""><img src=""images/pets_choice1.png"" class=""choice-mem-option-img"" stage=""instructions"" position=""0"" ><div class=""choice-mem-option-text""> Press ""1."" </div></div><div class=""choice-mem-option""><img src=""images/pets_choice2.png"" class=""choice-mem-option-img"" stage=""instructions"" position=""1"" ><div class=""choice-mem-option-text""> Press ""2."" </div></div><div class=""choice-mem-option""><img src=""images/pets_choice3.png"" class=""choice-mem-option-img"" stage=""instructions"" position=""2"" ><div class=""choice-mem-option-text""> Press ""3."" </div></div></div>","","0","instructions","","","","","","","","",""
"learning-instructions","289","746181","0.0-17.0-0.0-0.0-0.4","1866","2","""event"",""trial"",""time""
""fullscreenenter"",""1"",""2174""
","
","
","""event"",""trial"",""time""
""fullscreenenter"",""1"",""2174""
","
","","","","","","374.60000000009313","<p> You will have 10 seconds to make each selection. Try to respond before time runs out! </p>","","0","instructions","","","","","","","","",""
"learning-instructions","290","748596","0.0-17.0-0.0-1.0","1866","2","""event"",""trial"",""time""
""fullscreenenter"",""1"",""2174""
","
","
","""event"",""trial"",""time""
""fullscreenenter"",""1"",""2174""
","
","","","","","","351.60000000009313","<p> You are now ready to begin the game. </p>","","0","instructions","","","","","","","","",""
"html-keyboard-response","291","749202","0.0-17.0-0.0-2.0-0.0","1866","2","""event"",""trial"",""time""
""fullscreenenter"",""1"",""2174""
","
","
","""event"",""trial"",""time""
""fullscreenenter"",""1"",""2174""
","
","","","","","","null","<div style=""font-size:60px;"">+</div>","null","","fixation","","","","","","","","",""
"choice-memory-trial","292","751294","0.0-17.0-0.0-2.0-1.0","1866","2","""event"",""trial"",""time""
""fullscreenenter"",""1"",""2174""
","
","
","""event"",""trial"",""time""
""fullscreenenter"",""1"",""2174""
","
