"trial_type","trial_index","time_elapsed","internal_node_id","subject_id","task_version","interactions","blur_events","focus_events","fullscreenenter_events","fullscreenexit_events","success","timeout","failed_images","failed_audio","failed_video","rt","stimulus","response","button_pressed","task_part","key_press","answer","correct","left_choice","middle_choice","right_choice","choice_positions","option_selected","block"
"pavlovia","0","4","0.0-0.0","1487","2","""event"",""trial"",""time""
""fullscreenenter"",""1"",""3772""
","
","
","""event"",""trial"",""time""
""fullscreenenter"",""1"",""3772""
","
","","","","","","","","","","","","","","","","","","",""
"fullscreen","1","4761","0.0-1.0","1487","2","""event"",""trial"",""time""
""fullscreenenter"",""1"",""3772""
","
","
","""event"",""trial"",""time""
""fullscreenenter"",""1"",""3772""
","
","true","","","","","","","","","","","","","","","","","",""
"preload","2","4814","0.0-2.0","1487","2","""event"",""trial"",""time""
""fullscreenenter"",""1"",""3772""
","
","
","""event"",""trial"",""time""
""fullscreenenter"",""1"",""3772""
","
","true","false","[]","[]","[]","","","","","","","","","","","","","",""
"audio-keyboard-response","3","15276","0.0-3.0","1487","2","""event"",""trial"",""time""
""fullscreenenter"",""1"",""3772""
","
","
","""event"",""trial"",""time""
""fullscreenenter"",""1"",""3772""
","
","","","","","","10282.666666666668","audio/beep_loop.wav"," ","","","","","","","","","","",""
"audio-button-response","4","17449","0.0-4.0","1487","2","""event"",""trial"",""time""
""fullscreenenter"",""1"",""3772""
","
","
","""event"",""trial"",""time""
""fullscreenenter"",""1"",""3772""
","
","","","","","","2176","audio/turtle.wav","3","","","","","","","","","","",""
"audio-button-response","5","20145","0.0-5.0","1487","2","""event"",""trial"",""time""
""fullscreenenter"",""1"",""3772""
","
","
","""event"",""trial"",""time""
""fullscreenenter"",""1"",""3772""
","
","","","","","","1685","audio/shark.wav","2","","","","","","","","","","",""
"preload","6","21399","0.0-6.0","1487","2","""event"",""trial"",""time""
""fullscreenenter"",""1"",""3772""
","
","
","""event"",""trial"",""time""
""fullscreenenter"",""1"",""3772""
","
","true","false","[]","[]","[]","","","","","","","","","","","","","",""
"learning-instructions","7","30833","0.0-7.0-0.0","1487","2","""event"",""trial"",""time""
""fullscreenenter"",""1"",""3772""
","
","
","""event"",""trial"",""time""
""fullscreenenter"",""1"",""3772""
","
","","","","","","4626.964999999473","<p> Welcome back! </p><p> Last week, you had to make choices about lots of different items.  </p>","","0","instructions","","","","","","","","",""
"learning-instructions","8","36905","0.0-7.0-0.1","1487","2","""event"",""trial"",""time""
""fullscreenenter"",""1"",""3772""
","
","
","""event"",""trial"",""time""
""fullscreenenter"",""1"",""3772""
","
","","","","","","1761.0050000002957","<p> Today, we are going to ask you to try to remember all the items. </p>","","0","instructions","","","","","","","","",""
"learning-instructions","9","50920","0.0-7.0-0.2","1487","2","""event"",""trial"",""time""
""fullscreenenter"",""1"",""3772""
","
","
","""event"",""trial"",""time""
""fullscreenenter"",""1"",""3772""
","
","","","","","","3871.930000001157","<p> On every trial, you will see an image. </p><p> The image may be an OLD image you saw during the games last week or it may be a NEW image that was not presented. </p>","","0","instructions","","","","","","","","",""
"learning-instructions","10","63392","0.0-7.0-0.3","1487","2","""event"",""trial"",""time""
""fullscreenenter"",""1"",""3772""
","
","
","""event"",""trial"",""time""
""fullscreenenter"",""1"",""3772""
","
","","","","","","3969.9500000006083","<p> You need to select whether the image is:  </p><p>  'Definitely old', 'Maybe old', 'Maybe new', or 'Definitely new.'  </p><div class=""mem-choice-instructions-grid""><div class=""choice-option"" id=""choice-option-1"" ><img src=""images/definitely_old_1.png"" id=""choice-option-img-1"" class=""choice-option-img"" stage=""1""></div><div class=""choice-option"" id=""choice-option-2"" ><img src=""images/maybe_old_1.png"" id=""choice-option-img-2"" class=""choice-option-img"" stage=""1""></div><div class=""choice-option"" id=""choice-option-3"" ><img src=""images/maybe_new_1.png"" id=""choice-option-img-3"" class=""choice-option-img"" stage=""1""></div><div class=""choice-option"" id=""choice-option-4"" > <img src=""images/definitely_new_1.png"" id=""choice-option-img-4"" class=""choice-option-img"" stage=""1""></div></div>","","0","instructions","","","","","","","","",""
"learning-instructions","11","71481","0.0-7.0-0.4","1487","2","""event"",""trial"",""time""
""fullscreenenter"",""1"",""3772""
","
","
","""event"",""trial"",""time""
""fullscreenenter"",""1"",""3772""
","
","","","","","","1391.4049999984854","<p> You should use the 1, 2, 3, and 4 keys to make your responses.  </p><div class=""mem-choice-instructions-grid""><div class=""choice-option"" id=""choice-option-1"" ><img src=""images/definitely_old.png"" id=""choice-option-img-1"" class=""choice-option-img"" stage=""1""></div><div class=""choice-option"" id=""choice-option-2"" ><img src=""images/maybe_old.png"" id=""choice-option-img-2"" class=""choice-option-img"" stage=""1""></div><div class=""choice-option"" id=""choice-option-3"" ><img src=""images/maybe_new.png"" id=""choice-option-img-3"" class=""choice-option-img"" stage=""1""></div><div class=""choice-option"" id=""choice-option-4"" > <img src=""images/definitely_new.png"" id=""choice-option-img-4"" class=""choice-option-img"" stage=""1""></div></div>","","0","instructions","","","","","","","","",""
"learning-instructions","12","81033","0.0-7.0-0.5","1487","2","""event"",""trial"",""time""
""fullscreenenter"",""1"",""3772""
","
","
","""event"",""trial"",""time""
""fullscreenenter"",""1"",""3772""
","
","","","","","","2784.1850000004342","<p> You will have 10 seconds to make each response.  </p><p>  Make sure to respond before time runs out! </p>","","0","instructions","","","","","","","","",""
"learning-instructions","13","89721","0.0-7.0-0.6","1487","2","""event"",""trial"",""time""
""fullscreenenter"",""1"",""3772""
","
","
","""event"",""trial"",""time""
""fullscreenenter"",""1"",""3772""
","
","","","","","","1103.9049999999406","<p> Today, you will see each image ONCE only.  </p><p>  That means none of the images will repeat. </p>","","0","instructions","","","","","","","","",""
"learning-instructions","14","104409","0.0-7.0-0.7","1487","2","""event"",""trial"",""time""
""fullscreenenter"",""1"",""3772""
","
","
","""event"",""trial"",""time""
""fullscreenenter"",""1"",""3772""
","
","","","","","","2010.9699999993609","<p> Before you play the real game, it is time to practice. </p><p>  Just like in the real game, some of the images in the practice will be ones you have seen before. </p><p>  Others will be entirely new. </p>","","0","instructions","","","","","","","","",""
"html-button-response","15","105817","0.0-8.0","1487","2","""event"",""trial"",""time""
""fullscreenenter"",""1"",""3772""
","
","
","""event"",""trial"",""time""
""fullscreenenter"",""1"",""3772""
","
","","","","","","1291.8449999997392","<p> Ready to practice? </p><p> Remember, use the 1, 2, 3, and 4 keys to make your responses. </p>","0","","instructions","","","","","","","","",""
"html-keyboard-response","16","106446","0.0-9.0-0.0","1487","2","""event"",""trial"",""time""
""fullscreenenter"",""1"",""3772""
","
","
","""event"",""trial"",""time""
""fullscreenenter"",""1"",""3772""
","
","","","","","","null","<div style=""font-size:60px;"">+</div>","null","","fixation","","","","","","","","",""
"memory-trial","17","111016","0.0-9.0-1.0","1487","2","""event"",""trial"",""time""
""fullscreenenter"",""1"",""3772""
","
","
","""event"",""trial"",""time""
""fullscreenenter"",""1"",""3772""
","
","","","","","","3564.635000000635","images/racket4.png","","","practice","1","definitely_old","","","","","","",""
"html-keyboard-response","18","111528","0.0-9.0-0.1","1487","2","""event"",""trial"",""time""
""fullscreenenter"",""1"",""3772""
","
","
","""event"",""trial"",""time""
""fullscreenenter"",""1"",""3772""
","
","","","","","","null","<div style=""font-size:60px;"">+</div>","null","","fixation","","","","","","","","",""
"memory-trial","19","116947","0.0-9.0-1.1","1487","2","""event"",""trial"",""time""
""fullscreenenter"",""1"",""3772""
","
","
","""event"",""trial"",""time""
""fullscreenenter"",""1"",""3772""
","
","","","","","","4413.249999999607","images/ball3.png","","","practice","4","definitely_new","","","","","","",""
"html-keyboard-response","20","117464","0.0-9.0-0.2","1487","2","""event"",""trial"",""time""
""fullscreenenter"",""1"",""3772""
","
","
","""event"",""trial"",""time""
""fullscreenenter"",""1"",""3772""
","
","","","","","","null","<div style=""font-size:60px;"">+</div>","null","","fixation","","","","","","","","",""
"memory-trial","21","120610","0.0-9.0-1.2","1487","2","""event"",""trial"",""time""
""fullscreenenter"",""1"",""3772""
","
","
","""event"",""trial"",""time""
""fullscreenenter"",""1"",""3772""
","
","","","","","","2132.160000001022","images/racket2.png","","","practice","4","definitely_new","","","","","","",""
"html-keyboard-response","22","121121","0.0-9.0-0.3","1487","2","""event"",""trial"",""time""
""fullscreenenter"",""1"",""3772""
","
","
","""event"",""trial"",""time""
""fullscreenenter"",""1"",""3772""
","
","","","","","","null","<div style=""font-size:60px;"">+</div>","null","","fixation","","","","","","","","",""
"memory-trial","23","124674","0.0-9.0-1.3","1487","2","""event"",""trial"",""time""
""fullscreenenter"",""1"",""3772""
","
","
","""event"",""trial"",""time""
""fullscreenenter"",""1"",""3772""
","
","","","","","","2545.410000000629","images/racket1.png","","","practice","2","maybe_old","","","","","","",""
"html-keyboard-response","24","125184","0.0-9.0-0.4","1487","2","""event"",""trial"",""time""
""fullscreenenter"",""1"",""3772""
","
","
","""event"",""trial"",""time""
""fullscreenenter"",""1"",""3772""
","
","","","","","","null","<div style=""font-size:60px;"">+</div>","null","","fixation","","","","","","","","",""
"memory-trial","25","128226","0.0-9.0-1.4","1487","2","""event"",""trial"",""time""
""fullscreenenter"",""1"",""3772""
","
","
","""event"",""trial"",""time""
""fullscreenenter"",""1"",""3772""
","
","","","","","","2026.2600000005477","images/ball1.png","","","practice","4","definitely_new","","","","","","",""
"html-keyboard-response","26","128739","0.0-9.0-0.5","1487","2","""event"",""trial"",""time""
""fullscreenenter"",""1"",""3772""
","
","
","""event"",""trial"",""time""
""fullscreenenter"",""1"",""3772""
","
","","","","","","null","<div style=""font-size:60px;"">+</div>","null","","fixation","","","","","","","","",""
"memory-trial","27","133072","0.0-9.0-1.5","1487","2","""event"",""trial"",""time""
""fullscreenenter"",""1"",""3772""
","
","
","""event"",""trial"",""time""
""fullscreenenter"",""1"",""3772""
","
","","","","","","3329.0600000000413","images/ball4.png","","","practice","4","definitely_new","","","","","","",""
"html-keyboard-response","28","133574","0.0-9.0-0.6","1487","2","""event"",""trial"",""time""
""fullscreenenter"",""1"",""3772""
","
","
","""event"",""trial"",""time""
""fullscreenenter"",""1"",""3772""
","
","","","","","","null","<div style=""font-size:60px;"">+</div>","null","","fixation","","","","","","","","",""
"memory-trial","29","136545","0.0-9.0-1.6","1487","2","""event"",""trial"",""time""
""fullscreenenter"",""1"",""3772""
","
","
","""event"",""trial"",""time""
""fullscreenenter"",""1"",""3772""
","
","","","","","","1967.290000000503","images/racket3.png","","","practice","1","definitely_old","","","","","","",""
"html-keyboard-response","30","137060","0.0-9.0-0.7","1487","2","""event"",""trial"",""time""
""fullscreenenter"",""1"",""3772""
","
","
","""event"",""trial"",""time""
""fullscreenenter"",""1"",""3772""
","
","","","","","","null","<div style=""font-size:60px;"">+</div>","null","","fixation","","","","","","","","",""
"memory-trial","31","139081","0.0-9.0-1.7","1487","2","""event"",""trial"",""time""
""fullscreenenter"",""1"",""3772""
","
","
","""event"",""trial"",""time""
""fullscreenenter"",""1"",""3772""
","
","","","","","","1018.6000000012282","images/ball2.png","","","practice","3","maybe_new","","","","","","",""
"learning-instructions","32","186040","0.0-10.0-0.0","1487","2","""event"",""trial"",""time""
""fullscreenenter"",""1"",""3772""
","
","
","""event"",""trial"",""time""
""fullscreenenter"",""1"",""3772""
","
","","","","","","38803.825000000885","<p> Great! You have completed the practice. </p><p> Before you start, we're going to ask you a few questions about how the game works.  </p>","","0","instructions","","","","","","","","",""
"preload","33","186313","0.0-11.0","1487","2","""event"",""trial"",""time""
""fullscreenenter"",""1"",""3772""
","
","
","""event"",""trial"",""time""
""fullscreenenter"",""1"",""3772""
","
","true","false","[]","[]","[]","","","","","","","","","","","","","",""
"comp-q","34","197273","0.0-12.0-0.0","1487","2","""event"",""trial"",""time""
""fullscreenenter"",""1"",""3772""
","
","
","""event"",""trial"",""time""
""fullscreenenter"",""1"",""3772""
","
","","","","","","4942.7200000009325","<p> <b> True or False? </b> </p><p> In this game, you will only see each image once. </p>","","0","comp_question","","","true","","","","","",""
"comp-q","35","204705","0.0-12.0-1.0","1487","2","""event"",""trial"",""time""
""fullscreenenter"",""1"",""3772""
","
","
","""event"",""trial"",""time""
""fullscreenenter"",""1"",""3772""
","
","","","","","","1088.9000000006345","<p> <b> That's right! </b> You will see many different images <i> one time each </i> in this game. </p>","","0","comp_answer","","","","","","","","",""
"comp-q","36","211865","0.0-12.0-0.1","1487","2","""event"",""trial"",""time""
""fullscreenenter"",""1"",""3772""
","
","
","""event"",""trial"",""time""
""fullscreenenter"",""1"",""3772""
","
","","","","","","1348.1550000015122","<p> <b> True or False? </b> </p><p> You should use the mouse and click to make your response. </p>","","1","comp_question","","","true","","","","","",""
"comp-q","37","221400","0.0-12.0-1.1","1487","2","""event"",""trial"",""time""
""fullscreenenter"",""1"",""3772""
","
","
","""event"",""trial"",""time""
""fullscreenenter"",""1"",""3772""
","
","","","","","","2190.6850000013947","<p><b> That's right! </b> You should use the '1', '2', '3', and '4' keys to make your response. </p>","","0","comp_answer","","","","","","","","",""
"comp-q","38","229992","0.0-12.0-0.2","1487","2","""event"",""trial"",""time""
""fullscreenenter"",""1"",""3772""
","
","
","""event"",""trial"",""time""
""fullscreenenter"",""1"",""3772""
","
","","","","","","2579.780000000028","<p> <b> True or False? </b> </p><p> You will have as much time as you want to make each choice. </p>","","1","comp_question","","","true","","","","","",""
"comp-q","39","236617","0.0-12.0-1.2","1487","2","""event"",""trial"",""time""
""fullscreenenter"",""1"",""3772""
","
","
","""event"",""trial"",""time""
""fullscreenenter"",""1"",""3772""
","
","","","","","","1225.3549999986426","<p> <b> That's right! </b> You will only have 10 seconds to make each choice. </p>","","0","comp_answer","","","","","","","","",""
"learning-instructions","40","250232","0.0-13.0","1487","2","""event"",""trial"",""time""
""fullscreenenter"",""1"",""3772""
","
","
","""event"",""trial"",""time""
""fullscreenenter"",""1"",""3772""
","
","","","","","","4942.725000000792","<p> Great! You are now ready to begin the game. </p><p> Remember, use the 1, 2, 3, and 4 keys to make your responses. </p>","","0","instructions","","","","","","","","",""
"preload","41","250803","0.0-14.0","1487","2","""event"",""trial"",""time""
""fullscreenenter"",""1"",""3772""
","
","
","""event"",""trial"",""time""
""fullscreenenter"",""1"",""3772""
","
","true","false","[]","[]","[]","","","","","","","","","","","","","",""
"html-keyboard-response","42","251314","0.0-15.0-0.0","1487","2","""event"",""trial"",""time""
""fullscreenenter"",""1"",""3772""
","
","
","""event"",""trial"",""time""
""fullscreenenter"",""1"",""3772""
","
","","","","","","null","<div style=""font-size:60px;"">+</div>","null","","fixation","","","","","","","","",""
"memory-trial","43","254829","0.0-15.0-1.0","1487","2","""event"",""trial"",""time""
""fullscreenenter"",""1"",""3772""
","
","
","""event"",""trial"",""time""
""fullscreenenter"",""1"",""3772""
","
","","","","","","2496.755000000121","images/rabbit1.png","","","memory_trial","1","definitely_old","","","","","","",""
"html-keyboard-response","44","255343","0.0-15.0-0.1","1487","2","""event"",""trial"",""time""
""fullscreenenter"",""1"",""3772""
","
","
","""event"",""trial"",""time""
""fullscreenenter"",""1"",""3772""
","
","","","","","","null","<div style=""font-size:60px;"">+</div>","null","","fixation","","","","","","","","",""
"memory-trial","45","259245","0.0-15.0-1.1","1487","2","""event"",""trial"",""time""
""fullscreenenter"",""1"",""3772""
","
","
","""event"",""trial"",""time""
""fullscreenenter"",""1"",""3772""
","
","","","","","","2897.070000000909","images/plane5.png","","","memory_trial","4","definitely_new","","","","","","",""
"html-keyboard-response","46","259761","0.0-15.0-0.2","1487","2","""event"",""trial"",""time""
""fullscreenenter"",""1"",""3772""
","
","
","""event"",""trial"",""time""
""fullscreenenter"",""1"",""3772""
","
","","","","","","null","<div style=""font-size:60px;"">+</div>","null","","fixation","","","","","","","","",""
"memory-trial","47","262461","0.0-15.0-1.2","1487","2","""event"",""trial"",""time""
""fullscreenenter"",""1"",""3772""
","
","
","""event"",""trial"",""time""
""fullscreenenter"",""1"",""3772""
","
","","","","","","1689.980000001","images/feline2.png","","","memory_trial","4","definitely_new","","","","","","",""
"html-keyboard-response","48","262963","0.0-15.0-0.3","1487","2","""event"",""trial"",""time""
""fullscreenenter"",""1"",""3772""
","
","
","""event"",""trial"",""time""
""fullscreenenter"",""1"",""3772""
","
","","","","","","null","<div style=""font-size:60px;"">+</div>","null","","fixation","","","","","","","","",""
"memory-trial","49","265877","0.0-15.0-1.3","1487","2","""event"",""trial"",""time""
""fullscreenenter"",""1"",""3772""
","
","
","""event"",""trial"",""time""
""fullscreenenter"",""1"",""3772""
","
","","","","","","1907.189999999886","images/horse1.png","","","memory_trial","4","definitely_new","","","","","","",""
"html-keyboard-response","50","266394","0.0-15.0-0.4","1487","2","""event"",""trial"",""time""
""fullscreenenter"",""1"",""3772""
","
","
","""event"",""trial"",""time""
""fullscreenenter"",""1"",""3772""
","
","","","","","","null","<div style=""font-size:60px;"">+</div>","null","","fixation","","","","","","","","",""
"memory-trial","51","268697","0.0-15.0-1.4","1487","2","""event"",""trial"",""time""
""fullscreenenter"",""1"",""3772""
","
","
","""event"",""trial"",""time""
""fullscreenenter"",""1"",""3772""
","
","","","","","","1291.6650000006775","images/truck3.png","","","memory_trial","4","definitely_new","","","","","","",""
"html-keyboard-response","52","269213","0.0-15.0-0.5","1487","2","""event"",""trial"",""time""
""fullscreenenter"",""1"",""3772""
","
","
","""event"",""trial"",""time""
""fullscreenenter"",""1"",""3772""
","
","","","","","","null","<div style=""font-size:60px;"">+</div>","null","","fixation","","","","","","","","",""
"memory-trial","53","272047","0.0-15.0-1.5","1487","2","""event"",""trial"",""time""
""fullscreenenter"",""1"",""3772""
","
","
","""event"",""trial"",""time""
""fullscreenenter"",""1"",""3772""
","
","","","","","","1822.635000000475","images/banana2.png","","","memory_trial","4","definitely_new","","","","","","",""
"html-keyboard-response","54","272551","0.0-15.0-0.6","1487","2","""event"",""trial"",""time""
""fullscreenenter"",""1"",""3772""
","
","
","""event"",""trial"",""time""
""fullscreenenter"",""1"",""3772""
","
","","","","","","null","<div style=""font-size:60px;"">+</div>","null","","fixation","","","","","","","","",""
"memory-trial","55","274999","0.0-15.0-1.6","1487","2","""event"",""trial"",""time""
""fullscreenenter"",""1"",""3772""
","
","
","""event"",""trial"",""time""
""fullscreenenter"",""1"",""3772""
","
","","","","","","1445.0849999993807","images/plane2.png","","","memory_trial","1","definitely_old","","","","","","",""
"html-keyboard-response","56","275514","0.0-15.0-0.7","1487","2","""event"",""trial"",""time""
""fullscreenenter"",""1"",""3772""
","
","
","""event"",""trial"",""time""
""fullscreenenter"",""1"",""3772""
","
","","","","","","null","<div style=""font-size:60px;"">+</div>","null","","fixation","","","","","","","","",""
"memory-trial","57","277972","0.0-15.0-1.7","1487","2","""event"",""trial"",""time""
""fullscreenenter"",""1"",""3772""
","
","
","""event"",""trial"",""time""
""fullscreenenter"",""1"",""3772""
","
","","","","","","1454.7000000002445","images/plane3.png","","","memory_trial","1","definitely_old","","","","","","",""
"html-keyboard-response","58","278474","0.0-15.0-0.8","1487","2","""event"",""trial"",""time""
""fullscreenenter"",""1"",""3772""
","
","
","""event"",""trial"",""time""
""fullscreenenter"",""1"",""3772""
","
","","","","","","null","<div style=""font-size:60px;"">+</div>","null","","fixation","","","","","","","","",""
"memory-trial","59","282417","0.0-15.0-1.8","1487","2","""event"",""trial"",""time""
""fullscreenenter"",""1"",""3772""
","
","
","""event"",""trial"",""time""
""fullscreenenter"",""1"",""3772""
","
","","","","","","2941.795000000624","images/horse4.png","","","memory_trial","1","definitely_old","","","","","","",""
"html-keyboard-response","60","282919","0.0-15.0-0.9","1487","2","""event"",""trial"",""time""
""fullscreenenter"",""1"",""3772""
","
","
","""event"",""trial"",""time""
""fullscreenenter"",""1"",""3772""
","
","","","","","","null","<div style=""font-size:60px;"">+</div>","null","","fixation","","","","","","","","",""
"memory-trial","61","285341","0.0-15.0-1.9","1487","2","""event"",""trial"",""time""
""fullscreenenter"",""1"",""3772""
","
","
","""event"",""trial"",""time""
""fullscreenenter"",""1"",""3772""
","
","","","","","","1418.9750000005006","images/truck4.png","","","memory_trial","4","definitely_new","","","","","","",""
"html-keyboard-response","62","285846","0.0-15.0-0.10","1487","2","""event"",""trial"",""time""
""fullscreenenter"",""1"",""3772""
","
","
","""event"",""trial"",""time""
""fullscreenenter"",""1"",""3772""
","
","","","","","","null","<div style=""font-size:60px;"">+</div>","null","","fixation","","","","","","","","",""
"memory-trial","63","288058","0.0-15.0-1.10","1487","2","""event"",""trial"",""time""
""fullscreenenter"",""1"",""3772""
","
","
","""event"",""trial"",""time""
""fullscreenenter"",""1"",""3772""
","
","","","","","","1209.300000000454","images/horse2.png","","","memory_trial","4","definitely_new","","","","","","",""
"html-keyboard-response","64","288564","0.0-15.0-0.11","1487","2","""event"",""trial"",""time""
""fullscreenenter"",""1"",""3772""
","
","
","""event"",""trial"",""time""
""fullscreenenter"",""1"",""3772""
","
","","","","","","null","<div style=""font-size:60px;"">+</div>","null","","fixation","","","","","","","","",""
"memory-trial","65","292912","0.0-15.0-1.11","1487","2","""event"",""trial"",""time""
""fullscreenenter"",""1"",""3772""
","
","
","""event"",""trial"",""time""
""fullscreenenter"",""1"",""3772""
","
","","","","","","3345.3499999995693","images/orange5.png","","","memory_trial","2","maybe_old","","","","","","",""
"html-keyboard-response","66","293414","0.0-15.0-0.12","1487","2","""event"",""trial"",""time""
""fullscreenenter"",""1"",""3772""
","
","
","""event"",""trial"",""time""
""fullscreenenter"",""1"",""3772""
","
","","","","","","null","<div style=""font-size:60px;"">+</div>","null","","fixation","","","","","","","","",""
"memory-trial","67","295870","0.0-15.0-1.12","1487","2","""event"",""trial"",""time""
""fullscreenenter"",""1"",""3772""
","
","
","""event"",""trial"",""time""
""fullscreenenter"",""1"",""3772""
","
","","","","","","1453.5599999999395","images/sheep4.png","","","memory_trial","1","definitely_old","","","","","","",""
"html-keyboard-response","68","296372","0.0-15.0-0.13","1487","2","""event"",""trial"",""time""
""fullscreenenter"",""1"",""3772""
","
","
","""event"",""trial"",""time""
""fullscreenenter"",""1"",""3772""
","
","","","","","","null","<div style=""font-size:60px;"">+</div>","null","","fixation","","","","","","","","",""
"memory-trial","69","298647","0.0-15.0-1.13","1487","2","""event"",""trial"",""time""
""fullscreenenter"",""1"",""3772""
","
","
","""event"",""trial"",""time""
""fullscreenenter"",""1"",""3772""
","
","","","","","","1273.4049999999115","images/sofa5.png","","","memory_trial","1","definitely_old","","","","","","",""
"html-keyboard-response","70","299149","0.0-15.0-0.14","1487","2","""event"",""trial"",""time""
""fullscreenenter"",""1"",""3772""
","
","
","""event"",""trial"",""time""
""fullscreenenter"",""1"",""3772""
","
","","","","","","null","<div style=""font-size:60px;"">+</div>","null","","fixation","","","","","","","","",""
"memory-trial","71","302135","0.0-15.0-1.14","1487","2","""event"",""trial"",""time""
""fullscreenenter"",""1"",""3772""
","
","
","""event"",""trial"",""time""
""fullscreenenter"",""1"",""3772""
","
","","","","","","1982.9100000006147","images/cactus5.png","","","memory_trial","1","definitely_old","","","","","","",""
"html-keyboard-response","72","302637","0.0-15.0-0.15","1487","2","""event"",""trial"",""time""
""fullscreenenter"",""1"",""3772""
","
","
","""event"",""trial"",""time""
""fullscreenenter"",""1"",""3772""
","
","","","","","","null","<div style=""font-size:60px;"">+</div>","null","","fixation","","","","","","","","",""
"memory-trial","73","305044","0.0-15.0-1.15","1487","2","""event"",""trial"",""time""
""fullscreenenter"",""1"",""3772""
","
","
","""event"",""trial"",""time""
""fullscreenenter"",""1"",""3772""
","
","","","","","","1403.4850000006845","images/truck2.png","","","memory_trial","4","definitely_new","","","","","","",""
"html-keyboard-response","74","305546","0.0-15.0-0.16","1487","2","""event"",""trial"",""time""
""fullscreenenter"",""1"",""3772""
","
","
","""event"",""trial"",""time""
""fullscreenenter"",""1"",""3772""
","
","","","","","","null","<div style=""font-size:60px;"">+</div>","null","","fixation","","","","","","","","",""
"memory-trial","75","307824","0.0-15.0-1.16","1487","2","""event"",""trial"",""time""
""fullscreenenter"",""1"",""3772""
","
","
","""event"",""trial"",""time""
""fullscreenenter"",""1"",""3772""
","
","","","","","","1276.2599999987287","images/cow1.png","","","memory_trial","4","definitely_new","","","","","","",""
"html-keyboard-response","76","308326","0.0-15.0-0.17","1487","2","""event"",""trial"",""time""
""fullscreenenter"",""1"",""3772""
","
","
","""event"",""trial"",""time""
""fullscreenenter"",""1"",""3772""
","
","","","","","","null","<div style=""font-size:60px;"">+</div>","null","","fixation","","","","","","","","",""
"memory-trial","77","310782","0.0-15.0-1.17","1487","2","""event"",""trial"",""time""
""fullscreenenter"",""1"",""3772""
","
","
","""event"",""trial"",""time""
""fullscreenenter"",""1"",""3772""
","
","","","","","","1453.9700000004377","images/boat5.png","","","memory_trial","1","definitely_old","","","","","","",""
"html-keyboard-response","78","311284","0.0-15.0-0.18","1487","2","""event"",""trial"",""time""
""fullscreenenter"",""1"",""3772""
","
","
","""event"",""trial"",""time""
""fullscreenenter"",""1"",""3772""
","
","","","","","","null","<div style=""font-size:60px;"">+</div>","null","","fixation","","","","","","","","",""
"memory-trial","79","314188","0.0-15.0-1.18","1487","2","""event"",""trial"",""time""
""fullscreenenter"",""1"",""3772""
","
","
","""event"",""trial"",""time""
""fullscreenenter"",""1"",""3772""
","
","","","","","","1897.6499999989755","images/bed4.png","","","memory_trial","1","definitely_old","","","","","","",""
"html-keyboard-response","80","314690","0.0-15.0-0.19","1487","2","""event"",""trial"",""time""
""fullscreenenter"",""1"",""3772""
","
","
","""event"",""trial"",""time""
""fullscreenenter"",""1"",""3772""
","
","","","","","","null","<div style=""font-size:60px;"">+</div>","null","","fixation","","","","","","","","",""
"memory-trial","81","317543","0.0-15.0-1.19","1487","2","""event"",""trial"",""time""
""fullscreenenter"",""1"",""3772""
","
","
","""event"",""trial"",""time""
""fullscreenenter"",""1"",""3772""
","
","","","","","","1850.0700000004144","images/rabbit2.png","","","memory_trial","1","definitely_old","","","","","","",""
"html-keyboard-response","82","318045","0.0-15.0-0.20","1487","2","""event"",""trial"",""time""
""fullscreenenter"",""1"",""3772""
","
","
","""event"",""trial"",""time""
""fullscreenenter"",""1"",""3772""
","
","","","","","","null","<div style=""font-size:60px;"">+</div>","null","","fixation","","","","","","","","",""
"memory-trial","83","319919","0.0-15.0-1.20","1487","2","""event"",""trial"",""time""
""fullscreenenter"",""1"",""3772""
","
","
","""event"",""trial"",""time""
""fullscreenenter"",""1"",""3772""
","
","","","","","","871.2599999998929","images/sheep5.png","","","memory_trial","1","definitely_old","","","","","","",""
"html-keyboard-response","84","320420","0.0-15.0-0.21","1487","2","""event"",""trial"",""time""
""fullscreenenter"",""1"",""3772""
","
","
","""event"",""trial"",""time""
""fullscreenenter"",""1"",""3772""
","
","","","","","","null","<div style=""font-size:60px;"">+</div>","null","","fixation","","","","","","","","",""
"memory-trial","85","322518","0.0-15.0-1.21","1487","2","""event"",""trial"",""time""
""fullscreenenter"",""1"",""3772""
","
","
","""event"",""trial"",""time""
""fullscreenenter"",""1"",""3772""
","
","","","","","","1095.3149999986636","images/cactus4.png","","","memory_trial","1","definitely_old","","","","","","",""
"html-keyboard-response","86","323019","0.0-15.0-0.22","1487","2","""event"",""trial"",""time""
""fullscreenenter"",""1"",""3772""
","
","
","""event"",""trial"",""time""
""fullscreenenter"",""1"",""3772""
","
","","","","","","null","<div style=""font-size:60px;"">+</div>","null","","fixation","","","","","","","","",""
"memory-trial","87","325553","0.0-15.0-1.22","1487","2","""event"",""trial"",""time""
""fullscreenenter"",""1"",""3772""
","
","
","""event"",""trial"",""time""
""fullscreenenter"",""1"",""3772""
","
","","","","","","1530.9600000000792","images/banana3.png","","","memory_trial","4","definitely_new","","","","","","",""
"html-keyboard-response","88","326054","0.0-15.0-0.23","1487","2","""event"",""trial"",""time""
""fullscreenenter"",""1"",""3772""
","
","
","""event"",""trial"",""time""
""fullscreenenter"",""1"",""3772""
","
","","","","","","null","<div style=""font-size:60px;"">+</div>","null","","fixation","","","","","","","","",""
"memory-trial","89","328533","0.0-15.0-1.23","1487","2","""event"",""trial"",""time""
""fullscreenenter"",""1"",""3772""
","
","
","""event"",""trial"",""time""
""fullscreenenter"",""1"",""3772""
","
","","","","","","1476.1200000012177","images/flower5.png","","","memory_trial","1","definitely_old","","","","","","",""
"html-keyboard-response","90","329035","0.0-15.0-0.24","1487","2","""event"",""trial"",""time""
""fullscreenenter"",""1"",""3772""
","
","
","""event"",""trial"",""time""
""fullscreenenter"",""1"",""3772""
","
","","","","","","null","<div style=""font-size:60px;"">+</div>","null","","fixation","","","","","","","","",""
"memory-trial","91","331188","0.0-15.0-1.24","1487","2","""event"",""trial"",""time""
""fullscreenenter"",""1"",""3772""
","
","
","""event"",""trial"",""time""
""fullscreenenter"",""1"",""3772""
","
","","","","","","1151.5550000003423","images/tree1.png","","","memory_trial","1","definitely_old","","","","","","",""
"html-keyboard-response","92","331690","0.0-15.0-0.25","1487","2","""event"",""trial"",""time""
""fullscreenenter"",""1"",""3772""
","
","
","""event"",""trial"",""time""
""fullscreenenter"",""1"",""3772""
","
","","","","","","null","<div style=""font-size:60px;"">+</div>","null","","fixation","","","","","","","","",""
"memory-trial","93","334841","0.0-15.0-1.25","1487","2","""event"",""trial"",""time""
""fullscreenenter"",""1"",""3772""
","
","
","""event"",""trial"",""time""
""fullscreenenter"",""1"",""3772""
","
","","","","","","2148.8349999999627","images/goat5.png","","","memory_trial","3","maybe_new","","","","","","",""
"html-keyboard-response","94","335343","0.0-15.0-0.26","1487","2","""event"",""trial"",""time""
""fullscreenenter"",""1"",""3772""
","
","
","""event"",""trial"",""time""
""fullscreenenter"",""1"",""3772""
","
","","","","","","null","<div style=""font-size:60px;"">+</div>","null","","fixation","","","","","","","","",""
"memory-trial","95","338532","0.0-15.0-1.26","1487","2","""event"",""trial"",""time""
""fullscreenenter"",""1"",""3772""
","
","
","""event"",""trial"",""time""
""fullscreenenter"",""1"",""3772""
","
","","","","","","2186.5900000011316","images/sheep1.png","","","memory_trial","4","definitely_new","","","","","","",""
"html-keyboard-response","96","339034","0.0-15.0-0.27","1487","2","""event"",""trial"",""time""
""fullscreenenter"",""1"",""3772""
","
","
","""event"",""trial"",""time""
""fullscreenenter"",""1"",""3772""
","
","","","","","","null","<div style=""font-size:60px;"">+</div>","null","","fixation","","","","","","","","",""
"memory-trial","97","340962","0.0-15.0-1.27","1487","2","""event"",""trial"",""time""
""fullscreenenter"",""1"",""3772""
","
","
","""event"",""trial"",""time""
""fullscreenenter"",""1"",""3772""
","
","","","","","","926.4450000009383","images/goat4.png","","","memory_trial","1","definitely_old","","","","","","",""
"html-keyboard-response","98","341464","0.0-15.0-0.28","1487","2","""event"",""trial"",""time""
""fullscreenenter"",""1"",""3772""
","
","
","""event"",""trial"",""time""
""fullscreenenter"",""1"",""3772""
","
","","","","","","null","<div style=""font-size:60px;"">+</div>","null","","fixation","","","","","","","","",""
"memory-trial","99","344791","0.0-15.0-1.28","1487","2","""event"",""trial"",""time""
""fullscreenenter"",""1"",""3772""
","
","
","""event"",""trial"",""time""
""fullscreenenter"",""1"",""3772""
","
","","","","","","2310.1150000002235","images/orange4.png","","","memory_trial","1","definitely_old","","","","","","",""
"html-keyboard-response","100","345292","0.0-15.0-0.29","1487","2","""event"",""trial"",""time""
""fullscreenenter"",""1"",""3772""
","
","
","""event"",""trial"",""time""
""fullscreenenter"",""1"",""3772""
","
","","","","","","null","<div style=""font-size:60px;"">+</div>","null","","fixation","","","","","","","","",""
"memory-trial","101","348519","0.0-15.0-1.29","1487","2","""event"",""trial"",""time""
""fullscreenenter"",""1"",""3772""
","
","
","""event"",""trial"",""time""
""fullscreenenter"",""1"",""3772""
","
","","","","","","2224.2600000008824","images/rodent1.png","","","memory_trial","1","definitely_old","","","","","","",""
"html-keyboard-response","102","349021","0.0-15.0-0.30","1487","2","""event"",""trial"",""time""
""fullscreenenter"",""1"",""3772""
","
","
","""event"",""trial"",""time""
""fullscreenenter"",""1"",""3772""
","
","","","","","","null","<div style=""font-size:60px;"">+</div>","null","","fixation","","","","","","","","",""
"memory-trial","103","351395","0.0-15.0-1.30","1487","2","""event"",""trial"",""time""
""fullscreenenter"",""1"",""3772""
","
","
","""event"",""trial"",""time""
""fullscreenenter"",""1"",""3772""
","
","","","","","","1371.4449999988428","images/goat2.png","","","memory_trial","1","definitely_old","","","","","","",""
"html-keyboard-response","104","351896","0.0-15.0-0.31","1487","2","""event"",""trial"",""time""
""fullscreenenter"",""1"",""3772""
","
","
","""event"",""trial"",""time""
""fullscreenenter"",""1"",""3772""
","
","","","","","","null","<div style=""font-size:60px;"">+</div>","null","","fixation","","","","","","","","",""
"memory-trial","105","353874","0.0-15.0-1.31","1487","2","""event"",""trial"",""time""
""fullscreenenter"",""1"",""3772""
","
","
","""event"",""trial"",""time""
""fullscreenenter"",""1"",""3772""
","
","","","","","","975.6899999992456","images/flower4.png","","","memory_trial","1","definitely_old","","","","","","",""
"html-keyboard-response","106","354376","0.0-15.0-0.32","1487","2","""event"",""trial"",""time""
""fullscreenenter"",""1"",""3772""
","
","
","""event"",""trial"",""time""
""fullscreenenter"",""1"",""3772""
","
","","","","","","null","<div style=""font-size:60px;"">+</div>","null","","fixation","","","","","","","","",""
"memory-trial","107","356199","0.0-15.0-1.32","1487","2","""event"",""trial"",""time""
""fullscreenenter"",""1"",""3772""
","
","
","""event"",""trial"",""time""
""fullscreenenter"",""1"",""3772""
","
","","","","","","819.815000000759","images/orange3.png","","","memory_trial","1","definitely_old","","","","","","",""
"html-keyboard-response","108","356700","0.0-15.0-0.33","1487","2","""event"",""trial"",""time""
""fullscreenenter"",""1"",""3772""
","
","
","""event"",""trial"",""time""
""fullscreenenter"",""1"",""3772""
","
","","","","","","null","<div style=""font-size:60px;"">+</div>","null","","fixation","","","","","","","","",""
"memory-trial","109","358559","0.0-15.0-1.33","1487","2","""event"",""trial"",""time""
""fullscreenenter"",""1"",""3772""
","
","
","""event"",""trial"",""time""
""fullscreenenter"",""1"",""3772""
","
","","","","","","856.4050000004936","images/dog3.png","","","memory_trial","1","definitely_old","","","","","","",""
"html-keyboard-response","110","359061","0.0-15.0-0.34","1487","2","""event"",""trial"",""time""
""fullscreenenter"",""1"",""3772""
","
","
","""event"",""trial"",""time""
""fullscreenenter"",""1"",""3772""
","
","","","","","","null","<div style=""font-size:60px;"">+</div>","null","","fixation","","","","","","","","",""
"memory-trial","111","361060","0.0-15.0-1.34","1487","2","""event"",""trial"",""time""
""fullscreenenter"",""1"",""3772""
","
","
","""event"",""trial"",""time""
""fullscreenenter"",""1"",""3772""
","
","","","","","","997.0599999997066","images/chair1.png","","","memory_trial","1","definitely_old","","","","","","",""
"html-keyboard-response","112","361562","0.0-15.0-0.35","1487","2","""event"",""trial"",""time""
""fullscreenenter"",""1"",""3772""
","
","
","""event"",""trial"",""time""
""fullscreenenter"",""1"",""3772""
","
","","","","","","null","<div style=""font-size:60px;"">+</div>","null","","fixation","","","","","","","","",""
"memory-trial","113","363468","0.0-15.0-1.35","1487","2","""event"",""trial"",""time""
""fullscreenenter"",""1"",""3772""
","
","
","""event"",""trial"",""time""
""fullscreenenter"",""1"",""3772""
","
","","","","","","903.1050000012037","images/horse5.png","","","memory_trial","3","maybe_new","","","","","","",""
"html-keyboard-response","114","363978","0.0-15.0-0.36","1487","2","""event"",""trial"",""time""
""fullscreenenter"",""1"",""3772""
","
","
","""event"",""trial"",""time""
""fullscreenenter"",""1"",""3772""
","
","","","","","","null","<div style=""font-size:60px;"">+</div>","null","","fixation","","","","","","","","",""
"memory-trial","115","366708","0.0-15.0-1.36","1487","2","""event"",""trial"",""time""
""fullscreenenter"",""1"",""3772""
","
","
","""event"",""trial"",""time""
""fullscreenenter"",""1"",""3772""
","
","","","","","","1726.8350000013597","images/goat1.png","","","memory_trial","4","definitely_new","","","","","","",""
"html-keyboard-response","116","367210","0.0-15.0-0.37","1487","2","""event"",""trial"",""time""
""fullscreenenter"",""1"",""3772""
","
","
","""event"",""trial"",""time""
""fullscreenenter"",""1"",""3772""
","
","","","","","","null","<div style=""font-size:60px;"">+</div>","null","","fixation","","","","","","","","",""
"memory-trial","117","369206","0.0-15.0-1.37","1487","2","""event"",""trial"",""time""
""fullscreenenter"",""1"",""3772""
","
","
","""event"",""trial"",""time""
""fullscreenenter"",""1"",""3772""
","
","","","","","","992.9549999997253","images/chair5.png","","","memory_trial","1","definitely_old","","","","","","",""
"html-keyboard-response","118","369708","0.0-15.0-0.38","1487","2","""event"",""trial"",""time""
""fullscreenenter"",""1"",""3772""
","
","
","""event"",""trial"",""time""
""fullscreenenter"",""1"",""3772""
","
","","","","","","null","<div style=""font-size:60px;"">+</div>","null","","fixation","","","","","","","","",""
"memory-trial","119","372180","0.0-15.0-1.38","1487","2","""event"",""trial"",""time""
""fullscreenenter"",""1"",""3772""
","
","
","""event"",""trial"",""time""
""fullscreenenter"",""1"",""3772""
","
","","","","","","1468.4649999999092","images/dog5.png","","","memory_trial","1","definitely_old","","","","","","",""
"html-keyboard-response","120","372682","0.0-15.0-0.39","1487","2","""event"",""trial"",""time""
""fullscreenenter"",""1"",""3772""
","
","
","""event"",""trial"",""time""
""fullscreenenter"",""1"",""3772""
","
","","","","","","null","<div style=""font-size:60px;"">+</div>","null","","fixation","","","","","","","","",""
"memory-trial","121","375091","0.0-15.0-1.39","1487","2","""event"",""trial"",""time""
""fullscreenenter"",""1"",""3772""
","
","
","""event"",""trial"",""time""
""fullscreenenter"",""1"",""3772""
","
","","","","","","1407.6299999996554","images/boat2.png","","","memory_trial","4","definitely_new","","","","","","",""
"html-keyboard-response","122","375593","0.0-15.0-0.40","1487","2","""event"",""trial"",""time""
""fullscreenenter"",""1"",""3772""
","
","
","""event"",""trial"",""time""
""fullscreenenter"",""1"",""3772""
","
","","","","","","null","<div style=""font-size:60px;"">+</div>","null","","fixation","","","","","","","","",""
"memory-trial","123","377879","0.0-15.0-1.40","1487","2","""event"",""trial"",""time""
""fullscreenenter"",""1"",""3772""
","
","
","""event"",""trial"",""time""
""fullscreenenter"",""1"",""3772""
","
","","","","","","1282.8349999999627","images/bush5.png","","","memory_trial","4","definitely_new","","","","","","",""
"html-keyboard-response","124","378380","0.0-15.0-0.41","1487","2","""event"",""trial"",""time""
""fullscreenenter"",""1"",""3772""
","
","
","""event"",""trial"",""time""
""fullscreenenter"",""1"",""3772""
","
","","","","","","null","<div style=""font-size:60px;"">+</div>","null","","fixation","","","","","","","","",""
"memory-trial","125","380545","0.0-15.0-1.41","1487","2","""event"",""trial"",""time""
""fullscreenenter"",""1"",""3772""
","
","
","""event"",""trial"",""time""
""fullscreenenter"",""1"",""3772""
","
","","","","","","1161.8500000004424","images/cow2.png","","","memory_trial","1","definitely_old","","","","","","",""
"html-keyboard-response","126","381047","0.0-15.0-0.42","1487","2","""event"",""trial"",""time""
""fullscreenenter"",""1"",""3772""
","
","
","""event"",""trial"",""time""
""fullscreenenter"",""1"",""3772""
","
","","","","","","null","<div style=""font-size:60px;"">+</div>","null","","fixation","","","","","","","","",""
"memory-trial","127","383054","0.0-15.0-1.42","1487","2","""event"",""trial"",""time""
""fullscreenenter"",""1"",""3772""
","
","
","""event"",""trial"",""time""
""fullscreenenter"",""1"",""3772""
","
","","","","","","1005.530000000319","images/bush1.png","","","memory_trial","4","definitely_new","","","","","","",""
"html-keyboard-response","128","383556","0.0-15.0-0.43","1487","2","""event"",""trial"",""time""
""fullscreenenter"",""1"",""3772""
","
","
","""event"",""trial"",""time""
""fullscreenenter"",""1"",""3772""
","
","","","","","","null","<div style=""font-size:60px;"">+</div>","null","","fixation","","","","","","","","",""
"memory-trial","129","386248","0.0-15.0-1.43","1487","2","""event"",""trial"",""time""
""fullscreenenter"",""1"",""3772""
","
","
","""event"",""trial"",""time""
""fullscreenenter"",""1"",""3772""
","
","","","","","","1689.4499999998952","images/banana1.png","","","memory_trial","1","definitely_old","","","","","","",""
"html-keyboard-response","130","386749","0.0-15.0-0.44","1487","2","""event"",""trial"",""time""
""fullscreenenter"",""1"",""3772""
","
","
","""event"",""trial"",""time""
""fullscreenenter"",""1"",""3772""
","
","","","","","","null","<div style=""font-size:60px;"">+</div>","null","","fixation","","","","","","","","",""
"memory-trial","131","389021","0.0-15.0-1.44","1487","2","""event"",""trial"",""time""
""fullscreenenter"",""1"",""3772""
","
","
","""event"",""trial"",""time""
""fullscreenenter"",""1"",""3772""
","
","","","","","","1268.874999999709","images/bed3.png","","","memory_trial","4","definitely_new","","","","","","",""
"html-keyboard-response","132","389524","0.0-15.0-0.45","1487","2","""event"",""trial"",""time""
""fullscreenenter"",""1"",""3772""
","
","
","""event"",""trial"",""time""
""fullscreenenter"",""1"",""3772""
","
","","","","","","null","<div style=""font-size:60px;"">+</div>","null","","fixation","","","","","","","","",""
"memory-trial","133","391385","0.0-15.0-1.45","1487","2","""event"",""trial"",""time""
""fullscreenenter"",""1"",""3772""
","
","
","""event"",""trial"",""time""
""fullscreenenter"",""1"",""3772""
","
","","","","","","857.850000000326","images/horse3.png","","","memory_trial","4","definitely_new","","","","","","",""
"html-keyboard-response","134","391887","0.0-15.0-0.46","1487","2","""event"",""trial"",""time""
""fullscreenenter"",""1"",""3772""
","
","
","""event"",""trial"",""time""
""fullscreenenter"",""1"",""3772""
","
","","","","","","null","<div style=""font-size:60px;"">+</div>","null","","fixation","","","","","","","","",""
"memory-trial","135","394297","0.0-15.0-1.46","1487","2","""event"",""trial"",""time""
""fullscreenenter"",""1"",""3772""
","
","
","""event"",""trial"",""time""
""fullscreenenter"",""1"",""3772""
","
","","","","","","1407.5199999988545","images/rabbit3.png","","","memory_trial","1","definitely_old","","","","","","",""
"html-button-response","136","396585","0.0-15.0-2.46-0.46","1487","2","""event"",""trial"",""time""
""fullscreenenter"",""1"",""3772""
","
","
","""event"",""trial"",""time""
""fullscreenenter"",""1"",""3772""
","
","","","","","","2286.469999999099","<p> Take a break! </p><p> Click the button to continue. </p>","0","","break","","","","","","","","",""
"html-keyboard-response","137","397086","0.0-15.0-0.47","1487","2","""event"",""trial"",""time""
""fullscreenenter"",""1"",""3772""
","
","
","""event"",""trial"",""time""
""fullscreenenter"",""1"",""3772""
","
","","","","","","null","<div style=""font-size:60px;"">+</div>","null","","fixation","","","","","","","","",""
"memory-trial","138","400612","0.0-15.0-1.47","1487","2","""event"",""trial"",""time""
""fullscreenenter"",""1"",""3772""
","
","
","""event"",""trial"",""time""
""fullscreenenter"",""1"",""3772""
","
","","","","","","2522.495000001043","images/sofa4.png","","","memory_trial","1","definitely_old","","","","","","",""
"html-keyboard-response","139","401114","0.0-15.0-0.48","1487","2","""event"",""trial"",""time""
""fullscreenenter"",""1"",""3772""
","
","
","""event"",""trial"",""time""
""fullscreenenter"",""1"",""3772""
","
","","","","","","null","<div style=""font-size:60px;"">+</div>","null","","fixation","","","","","","","","",""
"memory-trial","140","402959","0.0-15.0-1.48","1487","2","""event"",""trial"",""time""
""fullscreenenter"",""1"",""3772""
","
","
","""event"",""trial"",""time""
""fullscreenenter"",""1"",""3772""
","
","","","","","","841.9100000009639","images/bed1.png","","","memory_trial","1","definitely_old","","","","","","",""
"html-keyboard-response","141","403461","0.0-15.0-0.49","1487","2","""event"",""trial"",""time""
""fullscreenenter"",""1"",""3772""
","
","
","""event"",""trial"",""time""
""fullscreenenter"",""1"",""3772""
","
","","","","","","null","<div style=""font-size:60px;"">+</div>","null","","fixation","","","","","","","","",""
"memory-trial","142","405776","0.0-15.0-1.49","1487","2","""event"",""trial"",""time""
""fullscreenenter"",""1"",""3772""
","
","
","""event"",""trial"",""time""
""fullscreenenter"",""1"",""3772""
","
","","","","","","1312.8450000003795","images/banana5.png","","","memory_trial","1","definitely_old","","","","","","",""
"html-keyboard-response","143","406277","0.0-15.0-0.50","1487","2","""event"",""trial"",""time""
""fullscreenenter"",""1"",""3772""
","
","
","""event"",""trial"",""time""
""fullscreenenter"",""1"",""3772""
","
","","","","","","null","<div style=""font-size:60px;"">+</div>","null","","fixation","","","","","","","","",""
"memory-trial","144","408184","0.0-15.0-1.50","1487","2","""event"",""trial"",""time""
""fullscreenenter"",""1"",""3772""
","
","
","""event"",""trial"",""time""
""fullscreenenter"",""1"",""3772""
","
","","","","","","902.9350000000559","images/chair3.png","","","memory_trial","1","definitely_old","","","","","","",""
"html-keyboard-response","145","408699","0.0-15.0-0.51","1487","2","""event"",""trial"",""time""
""fullscreenenter"",""1"",""3772""
","
","
","""event"",""trial"",""time""
""fullscreenenter"",""1"",""3772""
","
","","","","","","null","<div style=""font-size:60px;"">+</div>","null","","fixation","","","","","","","","",""
"memory-trial","146","410780","0.0-15.0-1.51","1487","2","""event"",""trial"",""time""
""fullscreenenter"",""1"",""3772""
","
","
","""event"",""trial"",""time""
""fullscreenenter"",""1"",""3772""
","
","","","","","","1077.2799999995623","images/bush2.png","","","memory_trial","4","definitely_new","","","","","","",""
"html-keyboard-response","147","411282","0.0-15.0-0.52","1487","2","""event"",""trial"",""time""
""fullscreenenter"",""1"",""3772""
","
","
","""event"",""trial"",""time""
""fullscreenenter"",""1"",""3772""
","
","","","","","","null","<div style=""font-size:60px;"">+</div>","null","","fixation","","","","","","","","",""
"memory-trial","148","413639","0.0-15.0-1.52","1487","2","""event"",""trial"",""time""
""fullscreenenter"",""1"",""3772""
","
","
","""event"",""trial"",""time""
""fullscreenenter"",""1"",""3772""
","
","","","","","","1355.7650000002468","images/rabbit5.png","","","memory_trial","4","definitely_new","","","","","","",""
"html-keyboard-response","149","414141","0.0-15.0-0.53","1487","2","""event"",""trial"",""time""
""fullscreenenter"",""1"",""3772""
","
","
","""event"",""trial"",""time""
""fullscreenenter"",""1"",""3772""
","
","","","","","","null","<div style=""font-size:60px;"">+</div>","null","","fixation","","","","","","","","",""
"memory-trial","150","416436","0.0-15.0-1.53","1487","2","""event"",""trial"",""time""
""fullscreenenter"",""1"",""3772""
","
","
","""event"",""trial"",""time""
""fullscreenenter"",""1"",""3772""
","
","","","","","","1292.04000000027","images/sofa3.png","","","memory_trial","1","definitely_old","","","","","","",""
"html-keyboard-response","151","416938","0.0-15.0-0.54","1487","2","""event"",""trial"",""time""
""fullscreenenter"",""1"",""3772""
","
","
","""event"",""trial"",""time""
""fullscreenenter"",""1"",""3772""
","
","","","","","","null","<div style=""font-size:60px;"">+</div>","null","","fixation","","","","","","","","",""
"memory-trial","152","419091","0.0-15.0-1.54","1487","2","""event"",""trial"",""time""
""fullscreenenter"",""1"",""3772""
","
","
","""event"",""trial"",""time""
""fullscreenenter"",""1"",""3772""
","
","","","","","","1151.035000000731","images/bed5.png","","","memory_trial","1","definitely_old","","","","","","",""
"html-keyboard-response","153","419592","0.0-15.0-0.55","1487","2","""event"",""trial"",""time""
""fullscreenenter"",""1"",""3772""
","
","
","""event"",""trial"",""time""
""fullscreenenter"",""1"",""3772""
","
","","","","","","null","<div style=""font-size:60px;"">+</div>","null","","fixation","","","","","","","","",""
"memory-trial","154","422474","0.0-15.0-1.55","1487","2","""event"",""trial"",""time""
""fullscreenenter"",""1"",""3772""
","
","
","""event"",""trial"",""time""
""fullscreenenter"",""1"",""3772""
","
","","","","","","1878.924999999057","images/table3.png","","","memory_trial","1","definitely_old","","","","","","",""
"html-keyboard-response","155","422976","0.0-15.0-0.56","1487","2","""event"",""trial"",""time""
""fullscreenenter"",""1"",""3772""
","
","
","""event"",""trial"",""time""
""fullscreenenter"",""1"",""3772""
","
","","","","","","null","<div style=""font-size:60px;"">+</div>","null","","fixation","","","","","","","","",""
"memory-trial","156","424961","0.0-15.0-1.56","1487","2","""event"",""trial"",""time""
""fullscreenenter"",""1"",""3772""
","
","
","""event"",""trial"",""time""
""fullscreenenter"",""1"",""3772""
","
","","","","","","982.7399999994668","images/feline5.png","","","memory_trial","4","definitely_new","","","","","","",""
"html-keyboard-response","157","425462","0.0-15.0-0.57","1487","2","""event"",""trial"",""time""
""fullscreenenter"",""1"",""3772""
","
","
","""event"",""trial"",""time""
""fullscreenenter"",""1"",""3772""
","
","","","","","","null","<div style=""font-size:60px;"">+</div>","null","","fixation","","","","","","","","",""
"memory-trial","158","427586","0.0-15.0-1.57","1487","2","""event"",""trial"",""time""
""fullscreenenter"",""1"",""3772""
","
","
","""event"",""trial"",""time""
""fullscreenenter"",""1"",""3772""
","
","","","","","","1121.3250000000698","images/straw5.png","","","memory_trial","1","definitely_old","","","","","","",""
"html-keyboard-response","159","428088","0.0-15.0-0.58","1487","2","""event"",""trial"",""time""
""fullscreenenter"",""1"",""3772""
","
","
","""event"",""trial"",""time""
""fullscreenenter"",""1"",""3772""
","
","","","","","","null","<div style=""font-size:60px;"">+</div>","null","","fixation","","","","","","","","",""
"memory-trial","160","430140","0.0-15.0-1.58","1487","2","""event"",""trial"",""time""
""fullscreenenter"",""1"",""3772""
","
","
","""event"",""trial"",""time""
""fullscreenenter"",""1"",""3772""
","
","","","","","","1048.350000000908","images/boat4.png","","","memory_trial","4","definitely_new","","","","","","",""
"html-keyboard-response","161","430642","0.0-15.0-0.59","1487","2","""event"",""trial"",""time""
""fullscreenenter"",""1"",""3772""
","
","
","""event"",""trial"",""time""
""fullscreenenter"",""1"",""3772""
","
","","","","","","null","<div style=""font-size:60px;"">+</div>","null","","fixation","","","","","","","","",""
"memory-trial","162","432729","0.0-15.0-1.59","1487","2","""event"",""trial"",""time""
""fullscreenenter"",""1"",""3772""
","
","
","""event"",""trial"",""time""
""fullscreenenter"",""1"",""3772""
","
","","","","","","1085.3200000001234","images/feline1.png","","","memory_trial","4","definitely_new","","","","","","",""
"html-keyboard-response","163","433231","0.0-15.0-0.60","1487","2","""event"",""trial"",""time""
""fullscreenenter"",""1"",""3772""
","
","
","""event"",""trial"",""time""
""fullscreenenter"",""1"",""3772""
","
","","","","","","null","<div style=""font-size:60px;"">+</div>","null","","fixation","","","","","","","","",""
"memory-trial","164","435040","0.0-15.0-1.60","1487","2","""event"",""trial"",""time""
""fullscreenenter"",""1"",""3772""
","
","
","""event"",""trial"",""time""
""fullscreenenter"",""1"",""3772""
","
","","","","","","806.4500000000698","images/tree4.png","","","memory_trial","4","definitely_new","","","","","","",""
"html-keyboard-response","165","435542","0.0-15.0-0.61","1487","2","""event"",""trial"",""time""
""fullscreenenter"",""1"",""3772""
","
","
","""event"",""trial"",""time""
""fullscreenenter"",""1"",""3772""
","
","","","","","","null","<div style=""font-size:60px;"">+</div>","null","","fixation","","","","","","","","",""
"memory-trial","166","437623","0.0-15.0-1.61","1487","2","""event"",""trial"",""time""
""fullscreenenter"",""1"",""3772""
","
","
","""event"",""trial"",""time""
""fullscreenenter"",""1"",""3772""
","
","","","","","","1077.185000000114","images/flower2.png","","","memory_trial","4","definitely_new","","","","","","",""
"html-keyboard-response","167","438131","0.0-15.0-0.62","1487","2","""event"",""trial"",""time""
""fullscreenenter"",""1"",""3772""
","
","
","""event"",""trial"",""time""
""fullscreenenter"",""1"",""3772""
","
","","","","","","null","<div style=""font-size:60px;"">+</div>","null","","fixation","","","","","","","","",""
"memory-trial","168","440278","0.0-15.0-1.62","1487","2","""event"",""trial"",""time""
""fullscreenenter"",""1"",""3772""
","
","
","""event"",""trial"",""time""
""fullscreenenter"",""1"",""3772""
","
","","","","","","1144.1250000006985","images/apple3.png","","","memory_trial","1","definitely_old","","","","","","",""
"html-keyboard-response","169","440783","0.0-15.0-0.63","1487","2","""event"",""trial"",""time""
""fullscreenenter"",""1"",""3772""
","
","
","""event"",""trial"",""time""
""fullscreenenter"",""1"",""3772""
","
","","","","","","null","<div style=""font-size:60px;"">+</div>","null","","fixation","","","","","","","","",""
"memory-trial","170","442629","0.0-15.0-1.63","1487","2","""event"",""trial"",""time""
""fullscreenenter"",""1"",""3772""
","
","
","""event"",""trial"",""time""
""fullscreenenter"",""1"",""3772""
","
","","","","","","843.3000000005122","images/orange2.png","","","memory_trial","1","definitely_old","","","","","","",""
"html-keyboard-response","171","443130","0.0-15.0-0.64","1487","2","""event"",""trial"",""time""
""fullscreenenter"",""1"",""3772""
","
","
","""event"",""trial"",""time""
""fullscreenenter"",""1"",""3772""
","
","","","","","","null","<div style=""font-size:60px;"">+</div>","null","","fixation","","","","","","","","",""
"memory-trial","172","446020","0.0-15.0-1.64","1487","2","""event"",""trial"",""time""
""fullscreenenter"",""1"",""3772""
","
","
","""event"",""trial"",""time""
""fullscreenenter"",""1"",""3772""
","
","","","","","","1888.6400000010617","images/straw4.png","","","memory_trial","1","definitely_old","","","","","","",""
"html-keyboard-response","173","446522","0.0-15.0-0.65","1487","2","""event"",""trial"",""time""
""fullscreenenter"",""1"",""3772""
","
","
","""event"",""trial"",""time""
""fullscreenenter"",""1"",""3772""
","
","","","","","","null","<div style=""font-size:60px;"">+</div>","null","","fixation","","","","","","","","",""
"memory-trial","174","448681","0.0-15.0-1.65","1487","2","""event"",""trial"",""time""
""fullscreenenter"",""1"",""3772""
","
","
","""event"",""trial"",""time""
""fullscreenenter"",""1"",""3772""
","
","","","","","","1155.9699999997974","images/table2.png","","","memory_trial","4","definitely_new","","","","","","",""
"html-keyboard-response","175","449182","0.0-15.0-0.66","1487","2","""event"",""trial"",""time""
""fullscreenenter"",""1"",""3772""
","
","
","""event"",""trial"",""time""
""fullscreenenter"",""1"",""3772""
","
","","","","","","null","<div style=""font-size:60px;"">+</div>","null","","fixation","","","","","","","","",""
"memory-trial","176","451080","0.0-15.0-1.66","1487","2","""event"",""trial"",""time""
""fullscreenenter"",""1"",""3772""
","
","
","""event"",""trial"",""time""
""fullscreenenter"",""1"",""3772""
","
","","","","","","886.5299999997951","images/chair2.png","","","memory_trial","1","definitely_old","","","","","","",""
"html-keyboard-response","177","451583","0.0-15.0-0.67","1487","2","""event"",""trial"",""time""
""fullscreenenter"",""1"",""3772""
","
","
","""event"",""trial"",""time""
""fullscreenenter"",""1"",""3772""
","
","","","","","","null","<div style=""font-size:60px;"">+</div>","null","","fixation","","","","","","","","",""
"memory-trial","178","453880","0.0-15.0-1.67","1487","2","""event"",""trial"",""time""
""fullscreenenter"",""1"",""3772""
","
","
","""event"",""trial"",""time""
""fullscreenenter"",""1"",""3772""
","
","","","","","","1294.275000000198","images/train1.png","","","memory_trial","1","definitely_old","","","","","","",""
"html-keyboard-response","179","454381","0.0-15.0-0.68","1487","2","""event"",""trial"",""time""
""fullscreenenter"",""1"",""3772""
","
","
","""event"",""trial"",""time""
""fullscreenenter"",""1"",""3772""
","
","","","","","","null","<div style=""font-size:60px;"">+</div>","null","","fixation","","","","","","","","",""
"memory-trial","180","456107","0.0-15.0-1.68","1487","2","""event"",""trial"",""time""
""fullscreenenter"",""1"",""3772""
","
","
","""event"",""trial"",""time""
""fullscreenenter"",""1"",""3772""
","
","","","","","","724.1350000004168","images/straw1.png","","","memory_trial","1","definitely_old","","","","","","",""
"html-keyboard-response","181","456609","0.0-15.0-0.69","1487","2","""event"",""trial"",""time""
""fullscreenenter"",""1"",""3772""
","
","
","""event"",""trial"",""time""
""fullscreenenter"",""1"",""3772""
","
","","","","","","null","<div style=""font-size:60px;"">+</div>","null","","fixation","","","","","","","","",""
"memory-trial","182","458432","0.0-15.0-1.69","1487","2","""event"",""trial"",""time""
""fullscreenenter"",""1"",""3772""
","
","
","""event"",""trial"",""time""
""fullscreenenter"",""1"",""3772""
","
","","","","","","820.9450000012876","images/train4.png","","","memory_trial","1","definitely_old","","","","","","",""
"html-keyboard-response","183","458934","0.0-15.0-0.70","1487","2","""event"",""trial"",""time""
""fullscreenenter"",""1"",""3772""
","
","
","""event"",""trial"",""time""
""fullscreenenter"",""1"",""3772""
","
","","","","","","null","<div style=""font-size:60px;"">+</div>","null","","fixation","","","","","","","","",""
"memory-trial","184","461874","0.0-15.0-1.70","1487","2","""event"",""trial"",""time""
""fullscreenenter"",""1"",""3772""
","
","
","""event"",""trial"",""time""
""fullscreenenter"",""1"",""3772""
","
","","","","","","1938.0150000015274","images/bush3.png","","","memory_trial","4","definitely_new","","","","","","",""
"html-keyboard-response","185","462376","0.0-15.0-0.71","1487","2","""event"",""trial"",""time""
""fullscreenenter"",""1"",""3772""
","
","
","""event"",""trial"",""time""
""fullscreenenter"",""1"",""3772""
","
","","","","","","null","<div style=""font-size:60px;"">+</div>","null","","fixation","","","","","","","","",""
"memory-trial","186","464460","0.0-15.0-1.71","1487","2","""event"",""trial"",""time""
""fullscreenenter"",""1"",""3772""
","
","
","""event"",""trial"",""time""
""fullscreenenter"",""1"",""3772""
","
","","","","","","1080.9700000009034","images/banana4.png","","","memory_trial","1","definitely_old","","","","","","",""
"html-keyboard-response","187","464962","0.0-15.0-0.72","1487","2","""event"",""trial"",""time""
""fullscreenenter"",""1"",""3772""
","
","
","""event"",""trial"",""time""
""fullscreenenter"",""1"",""3772""
","
","","","","","","null","<div style=""font-size:60px;"">+</div>","null","","fixation","","","","","","","","",""
"memory-trial","188","467122","0.0-15.0-1.72","1487","2","""event"",""trial"",""time""
""fullscreenenter"",""1"",""3772""
","
","
","""event"",""trial"",""time""
""fullscreenenter"",""1"",""3772""
","
","","","","","","1158.6599999991013","images/plane1.png","","","memory_trial","4","definitely_new","","","","","","",""
"html-keyboard-response","189","467624","0.0-15.0-0.73","1487","2","""event"",""trial"",""time""
""fullscreenenter"",""1"",""3772""
","
","
","""event"",""trial"",""time""
""fullscreenenter"",""1"",""3772""
","
","","","","","","null","<div style=""font-size:60px;"">+</div>","null","","fixation","","","","","","","","",""
"memory-trial","190","469522","0.0-15.0-1.73","1487","2","""event"",""trial"",""time""
""fullscreenenter"",""1"",""3772""
","
","
","""event"",""trial"",""time""
""fullscreenenter"",""1"",""3772""
","
","","","","","","894.0899999997346","images/sheep3.png","","","memory_trial","4","definitely_new","","","","","","",""
"html-keyboard-response","191","470023","0.0-15.0-0.74","1487","2","""event"",""trial"",""time""
""fullscreenenter"",""1"",""3772""
","
","
","""event"",""trial"",""time""
""fullscreenenter"",""1"",""3772""
","
","","","","","","null","<div style=""font-size:60px;"">+</div>","null","","fixation","","","","","","","","",""
"memory-trial","192","472122","0.0-15.0-1.74","1487","2","""event"",""trial"",""time""
""fullscreenenter"",""1"",""3772""
","
","
","""event"",""trial"",""time""
""fullscreenenter"",""1"",""3772""
","
","","","","","","1096.3099999990081","images/dog4.png","","","memory_trial","1","definitely_old","","","","","","",""
"html-keyboard-response","193","472623","0.0-15.0-0.75","1487","2","""event"",""trial"",""time""
""fullscreenenter"",""1"",""3772""
","
","
","""event"",""trial"",""time""
""fullscreenenter"",""1"",""3772""
","
","","","","","","null","<div style=""font-size:60px;"">+</div>","null","","fixation","","","","","","","","",""
"memory-trial","194","474823","0.0-15.0-1.75","1487","2","""event"",""trial"",""time""
""fullscreenenter"",""1"",""3772""
","
","
","""event"",""trial"",""time""
""fullscreenenter"",""1"",""3772""
","
","","","","","","1188.7349999997532","images/table4.png","","","memory_trial","4","definitely_new","","","","","","",""
"html-keyboard-response","195","475325","0.0-15.0-0.76","1487","2","""event"",""trial"",""time""
""fullscreenenter"",""1"",""3772""
","
","
","""event"",""trial"",""time""
""fullscreenenter"",""1"",""3772""
","
","","","","","","null","<div style=""font-size:60px;"">+</div>","null","","fixation","","","","","","","","",""
"memory-trial","196","477314","0.0-15.0-1.76","1487","2","""event"",""trial"",""time""
""fullscreenenter"",""1"",""3772""
","
","
","""event"",""trial"",""time""
""fullscreenenter"",""1"",""3772""
","
","","","","","","985.8149999999441","images/feline4.png","","","memory_trial","4","definitely_new","","","","","","",""
"html-keyboard-response","197","477816","0.0-15.0-0.77","1487","2","""event"",""trial"",""time""
""fullscreenenter"",""1"",""3772""
","
","
","""event"",""trial"",""time""
""fullscreenenter"",""1"",""3772""
","
","","","","","","null","<div style=""font-size:60px;"">+</div>","null","","fixation","","","","","","","","",""
"memory-trial","198","479846","0.0-15.0-1.77","1487","2","""event"",""trial"",""time""
""fullscreenenter"",""1"",""3772""
","
","
","""event"",""trial"",""time""
""fullscreenenter"",""1"",""3772""
","
","","","","","","1027.2550000008778","images/rodent4.png","","","memory_trial","4","definitely_new","","","","","","",""
"html-keyboard-response","199","480348","0.0-15.0-0.78","1487","2","""event"",""trial"",""time""
""fullscreenenter"",""1"",""3772""
","
","
","""event"",""trial"",""time""
""fullscreenenter"",""1"",""3772""
","
","","","","","","null","<div style=""font-size:60px;"">+</div>","null","","fixation","","","","","","","","",""
"memory-trial","200","482355","0.0-15.0-1.78","1487","2","""event"",""trial"",""time""
""fullscreenenter"",""1"",""3772""
","
","
","""event"",""trial"",""time""
""fullscreenenter"",""1"",""3772""
","
","","","","","","1005.0400000000373","images/bed2.png","","","memory_trial","1","definitely_old","","","","","","",""
"html-keyboard-response","201","482857","0.0-15.0-0.79","1487","2","""event"",""trial"",""time""
""fullscreenenter"",""1"",""3772""
","
","
","""event"",""trial"",""time""
""fullscreenenter"",""1"",""3772""
","
","","","","","","null","<div style=""font-size:60px;"">+</div>","null","","fixation","","","","","","","","",""
"memory-trial","202","484991","0.0-15.0-1.79","1487","2","""event"",""trial"",""time""
""fullscreenenter"",""1"",""3772""
","
","
","""event"",""trial"",""time""
""fullscreenenter"",""1"",""3772""
","
","","","","","","1132.1650000008522","images/flower1.png","","","memory_trial","4","definitely_new","","","","","","",""
"html-keyboard-response","203","485492","0.0-15.0-0.80","1487","2","""event"",""trial"",""time""
""fullscreenenter"",""1"",""3772""
","
","
","""event"",""trial"",""time""
""fullscreenenter"",""1"",""3772""
","
","","","","","","null","<div style=""font-size:60px;"">+</div>","null","","fixation","","","","","","","","",""
"memory-trial","204","487443","0.0-15.0-1.80","1487","2","""event"",""trial"",""time""
""fullscreenenter"",""1"",""3772""
","
","
","""event"",""trial"",""time""
""fullscreenenter"",""1"",""3772""
","
","","","","","","947.8599999983562","images/dog2.png","","","memory_trial","4","definitely_new","","","","","","",""
"html-keyboard-response","205","487944","0.0-15.0-0.81","1487","2","""event"",""trial"",""time""
""fullscreenenter"",""1"",""3772""
","
","
","""event"",""trial"",""time""
""fullscreenenter"",""1"",""3772""
","
","","","","","","null","<div style=""font-size:60px;"">+</div>","null","","fixation","","","","","","","","",""
"memory-trial","206","490111","0.0-15.0-1.81","1487","2","""event"",""trial"",""time""
""fullscreenenter"",""1"",""3772""
","
","
","""event"",""trial"",""time""
""fullscreenenter"",""1"",""3772""
","
","","","","","","1163.1249999991269","images/chair4.png","","","memory_trial","4","definitely_new","","","","","","",""
"html-keyboard-response","207","490614","0.0-15.0-0.82","1487","2","""event"",""trial"",""time""
""fullscreenenter"",""1"",""3772""
","
","
","""event"",""trial"",""time""
""fullscreenenter"",""1"",""3772""
","
","","","","","","null","<div style=""font-size:60px;"">+</div>","null","","fixation","","","","","","","","",""
"memory-trial","208","493133","0.0-15.0-1.82","1487","2","""event"",""trial"",""time""
""fullscreenenter"",""1"",""3772""
","
","
","""event"",""trial"",""time""
""fullscreenenter"",""1"",""3772""
","
","","","","","","1516.7599999986123","images/apple4.png","","","memory_trial","4","definitely_new","","","","","","",""
"html-keyboard-response","209","493635","0.0-15.0-0.83","1487","2","""event"",""trial"",""time""
""fullscreenenter"",""1"",""3772""
","
","
","""event"",""trial"",""time""
""fullscreenenter"",""1"",""3772""
","
","","","","","","null","<div style=""font-size:60px;"">+</div>","null","","fixation","","","","","","","","",""
"memory-trial","210","495691","0.0-15.0-1.83","1487","2","""event"",""trial"",""time""
""fullscreenenter"",""1"",""3772""
","
","
","""event"",""trial"",""time""
""fullscreenenter"",""1"",""3772""
","
","","","","","","1053.0749999997788","images/sheep2.png","","","memory_trial","4","definitely_new","","","","","","",""
"html-keyboard-response","211","496193","0.0-15.0-0.84","1487","2","""event"",""trial"",""time""
""fullscreenenter"",""1"",""3772""
","
","
","""event"",""trial"",""time""
""fullscreenenter"",""1"",""3772""
","
","","","","","","null","<div style=""font-size:60px;"">+</div>","null","","fixation","","","","","","","","",""
"memory-trial","212","498683","0.0-15.0-1.84","1487","2","""event"",""trial"",""time""
""fullscreenenter"",""1"",""3772""
","
","
","""event"",""trial"",""time""
""fullscreenenter"",""1"",""3772""
","
","","","","","","1487.1449999991455","images/table5.png","","","memory_trial","1","definitely_old","","","","","","",""
"html-keyboard-response","213","499185","0.0-15.0-0.85","1487","2","""event"",""trial"",""time""
""fullscreenenter"",""1"",""3772""
","
","
","""event"",""trial"",""time""
""fullscreenenter"",""1"",""3772""
","
","","","","","","null","<div style=""font-size:60px;"">+</div>","null","","fixation","","","","","","","","",""
"memory-trial","214","500912","0.0-15.0-1.85","1487","2","""event"",""trial"",""time""
""fullscreenenter"",""1"",""3772""
","
","
","""event"",""trial"",""time""
""fullscreenenter"",""1"",""3772""
","
","","","","","","724.7100000004284","images/straw2.png","","","memory_trial","1","definitely_old","","","","","","",""
"html-keyboard-response","215","501413","0.0-15.0-0.86","1487","2","""event"",""trial"",""time""
""fullscreenenter"",""1"",""3772""
","
","
","""event"",""trial"",""time""
""fullscreenenter"",""1"",""3772""
","
","","","","","","null","<div style=""font-size:60px;"">+</div>","null","","fixation","","","","","","","","",""
"memory-trial","216","503487","0.0-15.0-1.86","1487","2","""event"",""trial"",""time""
""fullscreenenter"",""1"",""3772""
","
","
","""event"",""trial"",""time""
""fullscreenenter"",""1"",""3772""
","
","","","","","","1070.4750000004424","images/truck5.png","","","memory_trial","4","definitely_new","","","","","","",""
"html-keyboard-response","217","503988","0.0-15.0-0.87","1487","2","""event"",""trial"",""time""
""fullscreenenter"",""1"",""3772""
","
","
","""event"",""trial"",""time""
""fullscreenenter"",""1"",""3772""
","
","","","","","","null","<div style=""font-size:60px;"">+</div>","null","","fixation","","","","","","","","",""
"memory-trial","218","506058","0.0-15.0-1.87","1487","2","""event"",""trial"",""time""
""fullscreenenter"",""1"",""3772""
","
","
","""event"",""trial"",""time""
""fullscreenenter"",""1"",""3772""
","
","","","","","","1054.8500000004424","images/boat1.png","","","memory_trial","1","definitely_old","","","","","","",""
"html-keyboard-response","219","506561","0.0-15.0-0.88","1487","2","""event"",""trial"",""time""
""fullscreenenter"",""1"",""3772""
","
","
","""event"",""trial"",""time""
""fullscreenenter"",""1"",""3772""
","
","","","","","","null","<div style=""font-size:60px;"">+</div>","null","","fixation","","","","","","","","",""
"memory-trial","220","508914","0.0-15.0-1.88","1487","2","""event"",""trial"",""time""
""fullscreenenter"",""1"",""3772""
","
","
","""event"",""trial"",""time""
""fullscreenenter"",""1"",""3772""
","
","","","","","","1350.8849999998347","images/tree5.png","","","memory_trial","4","definitely_new","","","","","","",""
"html-keyboard-response","221","509416","0.0-15.0-0.89","1487","2","""event"",""trial"",""time""
""fullscreenenter"",""1"",""3772""
","
","
","""event"",""trial"",""time""
""fullscreenenter"",""1"",""3772""
","
","","","","","","null","<div style=""font-size:60px;"">+</div>","null","","fixation","","","","","","","","",""
"memory-trial","222","511480","0.0-15.0-1.89","1487","2","""event"",""trial"",""time""
""fullscreenenter"",""1"",""3772""
","
","
","""event"",""trial"",""time""
""fullscreenenter"",""1"",""3772""
","
","","","","","","1061.8750000012806","images/train5.png","","","memory_trial","4","definitely_new","","","","","","",""
"html-keyboard-response","223","511982","0.0-15.0-0.90","1487","2","""event"",""trial"",""time""
""fullscreenenter"",""1"",""3772""
","
","
","""event"",""trial"",""time""
""fullscreenenter"",""1"",""3772""
","
","","","","","","null","<div style=""font-size:60px;"">+</div>","null","","fixation","","","","","","","","",""
"memory-trial","224","513800","0.0-15.0-1.90","1487","2","""event"",""trial"",""time""
""fullscreenenter"",""1"",""3772""
","
","
","""event"",""trial"",""time""
""fullscreenenter"",""1"",""3772""
","
","","","","","","815.205000000773","images/train3.png","","","memory_trial","4","definitely_new","","","","","","",""
"html-keyboard-response","225","514301","0.0-15.0-0.91","1487","2","""event"",""trial"",""time""
""fullscreenenter"",""1"",""3772""
","
","
","""event"",""trial"",""time""
""fullscreenenter"",""1"",""3772""
","
","","","","","","null","<div style=""font-size:60px;"">+</div>","null","","fixation","","","","","","","","",""
"memory-trial","226","518439","0.0-15.0-1.91","1487","2","""event"",""trial"",""time""
""fullscreenenter"",""1"",""3772""
","
","
","""event"",""trial"",""time""
""fullscreenenter"",""1"",""3772""
","
","","","","","","3134.9050000007846","images/tree2.png","","","memory_trial","4","definitely_new","","","","","","",""
"html-keyboard-response","227","518940","0.0-15.0-0.92","1487","2","""event"",""trial"",""time""
""fullscreenenter"",""1"",""3772""
","
","
","""event"",""trial"",""time""
""fullscreenenter"",""1"",""3772""
","
","","","","","","null","<div style=""font-size:60px;"">+</div>","null","","fixation","","","","","","","","",""
"memory-trial","228","520770","0.0-15.0-1.92","1487","2","""event"",""trial"",""time""
""fullscreenenter"",""1"",""3772""
","
","
","""event"",""trial"",""time""
""fullscreenenter"",""1"",""3772""
","
","","","","","","826.7999999988824","images/table1.png","","","memory_trial","4","definitely_new","","","","","","",""
"html-keyboard-response","229","521272","0.0-15.0-0.93","1487","2","""event"",""trial"",""time""
""fullscreenenter"",""1"",""3772""
","
","
","""event"",""trial"",""time""
""fullscreenenter"",""1"",""3772""
","
","","","","","","null","<div style=""font-size:60px;"">+</div>","null","","fixation","","","","","","","","",""
"memory-trial","230","523791","0.0-15.0-1.93","1487","2","""event"",""trial"",""time""
""fullscreenenter"",""1"",""3772""
","
","
","""event"",""trial"",""time""
""fullscreenenter"",""1"",""3772""
","
","","","","","","1516.1299999999464","images/sofa2.png","","","memory_trial","1","definitely_old","","","","","","",""
"html-keyboard-response","231","524295","0.0-15.0-0.94","1487","2","""event"",""trial"",""time""
""fullscreenenter"",""1"",""3772""
","
","
","""event"",""trial"",""time""
""fullscreenenter"",""1"",""3772""
","
","","","","","","null","<div style=""font-size:60px;"">+</div>","null","","fixation","","","","","","","","",""
"memory-trial","232","526345","0.0-15.0-1.94","1487","2","""event"",""trial"",""time""
""fullscreenenter"",""1"",""3772""
","
","
","""event"",""trial"",""time""
""fullscreenenter"",""1"",""3772""
","
","","","","","","1048.4849999992875","images/bush4.png","","","memory_trial","1","definitely_old","","","","","","",""
"html-keyboard-response","233","526847","0.0-15.0-0.95","1487","2","""event"",""trial"",""time""
""fullscreenenter"",""1"",""3772""
","
","
","""event"",""trial"",""time""
""fullscreenenter"",""1"",""3772""
","
","","","","","","null","<div style=""font-size:60px;"">+</div>","null","","fixation","","","","","","","","",""
"memory-trial","234","528887","0.0-15.0-1.95","1487","2","""event"",""trial"",""time""
""fullscreenenter"",""1"",""3772""
","
","
","""event"",""trial"",""time""
""fullscreenenter"",""1"",""3772""
","
","","","","","","1036.6849999991246","images/feline3.png","","","memory_trial","4","definitely_new","","","","","","",""
"html-keyboard-response","235","529388","0.0-15.0-0.96","1487","2","""event"",""trial"",""time""
""fullscreenenter"",""1"",""3772""
","
","
","""event"",""trial"",""time""
""fullscreenenter"",""1"",""3772""
","
","","","","","","null","<div style=""font-size:60px;"">+</div>","null","","fixation","","","","","","","","",""
"memory-trial","236","531674","0.0-15.0-1.96","1487","2","""event"",""trial"",""time""
""fullscreenenter"",""1"",""3772""
","
","
","""event"",""trial"",""time""
""fullscreenenter"",""1"",""3772""
","
","","","","","","1283.390000000596","images/apple1.png","","","memory_trial","4","definitely_new","","","","","","",""
"html-keyboard-response","237","532176","0.0-15.0-0.97","1487","2","""event"",""trial"",""time""
""fullscreenenter"",""1"",""3772""
","
","
","""event"",""trial"",""time""
""fullscreenenter"",""1"",""3772""
","
","","","","","","null","<div style=""font-size:60px;"">+</div>","null","","fixation","","","","","","","","",""
"memory-trial","238","534209","0.0-15.0-1.97","1487","2","""event"",""trial"",""time""
""fullscreenenter"",""1"",""3772""
","
","
","""event"",""trial"",""time""
""fullscreenenter"",""1"",""3772""
","
","","","","","","1029.0299999996787","images/cactus2.png","","","memory_trial","4","definitely_new","","","","","","",""
"html-keyboard-response","239","534711","0.0-15.0-0.98","1487","2","""event"",""trial"",""time""
""fullscreenenter"",""1"",""3772""
","
","
","""event"",""trial"",""time""
""fullscreenenter"",""1"",""3772""
","
","","","","","","null","<div style=""font-size:60px;"">+</div>","null","","fixation","","","","","","","","",""
"memory-trial","240","536474","0.0-15.0-1.98","1487","2","""event"",""trial"",""time""
""fullscreenenter"",""1"",""3772""
","
","
","""event"",""trial"",""time""
""fullscreenenter"",""1"",""3772""
","
","","","","","","760.7049999987939","images/dog1.png","","","memory_trial","4","definitely_new","","","","","","",""
"html-keyboard-response","241","536975","0.0-15.0-0.99","1487","2","""event"",""trial"",""time""
""fullscreenenter"",""1"",""3772""
","
","
","""event"",""trial"",""time""
""fullscreenenter"",""1"",""3772""
","
","","","","","","null","<div style=""font-size:60px;"">+</div>","null","","fixation","","","","","","","","",""
"memory-trial","242","538914","0.0-15.0-1.99","1487","2","""event"",""trial"",""time""
""fullscreenenter"",""1"",""3772""
","
","
","""event"",""trial"",""time""
""fullscreenenter"",""1"",""3772""
","
","","","","","","934.6249999997672","images/cactus1.png","","","memory_trial","4","definitely_new","","","","","","",""
"html-keyboard-response","243","539415","0.0-15.0-0.100","1487","2","""event"",""trial"",""time""
""fullscreenenter"",""1"",""3772""
","
","
","""event"",""trial"",""time""
""fullscreenenter"",""1"",""3772""
","
","","","","","","null","<div style=""font-size:60px;"">+</div>","null","","fixation","","","","","","","","",""
"memory-trial","244","541067","0.0-15.0-1.100","1487","2","""event"",""trial"",""time""
""fullscreenenter"",""1"",""3772""
","
","
","""event"",""trial"",""time""
""fullscreenenter"",""1"",""3772""
","
","","","","","","648.2099999993807","images/straw3.png","","","memory_trial","4","definitely_new","","","","","","",""
"html-keyboard-response","245","541569","0.0-15.0-0.101","1487","2","""event"",""trial"",""time""
""fullscreenenter"",""1"",""3772""
","
","
","""event"",""trial"",""time""
""fullscreenenter"",""1"",""3772""
","
","","","","","","null","<div style=""font-size:60px;"">+</div>","null","","fixation","","","","","","","","",""
"memory-trial","246","543340","0.0-15.0-1.101","1487","2","""event"",""trial"",""time""
""fullscreenenter"",""1"",""3772""
","
","
","""event"",""trial"",""time""
""fullscreenenter"",""1"",""3772""
","
","","","","","","766.4899999999907","images/train2.png","","","memory_trial","4","definitely_new","","","","","","",""
"html-button-response","247","545337","0.0-15.0-2.101-0.101","1487","2","""event"",""trial"",""time""
""fullscreenenter"",""1"",""3772""
","
","
","""event"",""trial"",""time""
""fullscreenenter"",""1"",""3772""
","
","","","","","","1995.9350000008708","<p> Take a break! </p><p> Click the button to continue. </p>","0","","break","","","","","","","","",""
"html-keyboard-response","248","545839","0.0-15.0-0.102","1487","2","""event"",""trial"",""time""
""fullscreenenter"",""1"",""3772""
","
","
","""event"",""trial"",""time""
""fullscreenenter"",""1"",""3772""
","
","","","","","","null","<div style=""font-size:60px;"">+</div>","null","","fixation","","","","","","","","",""
"memory-trial","249","549523","0.0-15.0-1.102","1487","2","""event"",""trial"",""time""
""fullscreenenter"",""1"",""3772""
","
","
","""event"",""trial"",""time""
""fullscreenenter"",""1"",""3772""
","
","","","","","","2672.0200000000186","images/plane4.png","","","memory_trial","1","definitely_old","","","","","","",""
"html-keyboard-response","250","550024","0.0-15.0-0.103","1487","2","""event"",""trial"",""time""
""fullscreenenter"",""1"",""3772""
","
","
","""event"",""trial"",""time""
""fullscreenenter"",""1"",""3772""
","
","","","","","","null","<div style=""font-size:60px;"">+</div>","null","","fixation","","","","","","","","",""
"memory-trial","251","552255","0.0-15.0-1.103","1487","2","""event"",""trial"",""time""
""fullscreenenter"",""1"",""3772""
","
","
","""event"",""trial"",""time""
""fullscreenenter"",""1"",""3772""
","
","","","","","","1228.3299999998417","images/flower3.png","","","memory_trial","4","definitely_new","","","","","","",""
"html-keyboard-response","252","552757","0.0-15.0-0.104","1487","2","""event"",""trial"",""time""
""fullscreenenter"",""1"",""3772""
","
","
","""event"",""trial"",""time""
""fullscreenenter"",""1"",""3772""
","
","","","","","","null","<div style=""font-size:60px;"">+</div>","null","","fixation","","","","","","","","",""
"memory-trial","253","554765","0.0-15.0-1.104","1487","2","""event"",""trial"",""time""
""fullscreenenter"",""1"",""3772""
","
","
","""event"",""trial"",""time""
""fullscreenenter"",""1"",""3772""
","
","","","","","","1005.8750000006985","images/cow5.png","","","memory_trial","4","definitely_new","","","","","","",""
"html-keyboard-response","254","555267","0.0-15.0-0.105","1487","2","""event"",""trial"",""time""
""fullscreenenter"",""1"",""3772""
","
","
","""event"",""trial"",""time""
""fullscreenenter"",""1"",""3772""
","
","","","","","","null","<div style=""font-size:60px;"">+</div>","null","","fixation","","","","","","","","",""
"memory-trial","255","557183","0.0-15.0-1.105","1487","2","""event"",""trial"",""time""
""fullscreenenter"",""1"",""3772""
","
","
","""event"",""trial"",""time""
""fullscreenenter"",""1"",""3772""
","
","","","","","","913.6550000002608","images/cow4.png","","","memory_trial","4","definitely_new","","","","","","",""
"html-keyboard-response","256","557686","0.0-15.0-0.106","1487","2","""event"",""trial"",""time""
""fullscreenenter"",""1"",""3772""
","
","
","""event"",""trial"",""time""
""fullscreenenter"",""1"",""3772""
","
","","","","","","null","<div style=""font-size:60px;"">+</div>","null","","fixation","","","","","","","","",""
"memory-trial","257","560965","0.0-15.0-1.106","1487","2","""event"",""trial"",""time""
""fullscreenenter"",""1"",""3772""
","
","
","""event"",""trial"",""time""
""fullscreenenter"",""1"",""3772""
","
","","","","","","2275.5049999996554","images/sofa1.png","","","memory_trial","4","definitely_new","","","","","","",""
"html-keyboard-response","258","561466","0.0-15.0-0.107","1487","2","""event"",""trial"",""time""
""fullscreenenter"",""1"",""3772""
","
","
","""event"",""trial"",""time""
""fullscreenenter"",""1"",""3772""
","
","","","","","","null","<div style=""font-size:60px;"">+</div>","null","","fixation","","","","","","","","",""
"memory-trial","259","563517","0.0-15.0-1.107","1487","2","""event"",""trial"",""time""
""fullscreenenter"",""1"",""3772""
","
","
","""event"",""trial"",""time""
""fullscreenenter"",""1"",""3772""
","
","","","","","","1048.3299999997253","images/orange1.png","","","memory_trial","1","definitely_old","","","","","","",""
"html-keyboard-response","260","564018","0.0-15.0-0.108","1487","2","""event"",""trial"",""time""
""fullscreenenter"",""1"",""3772""
","
","
","""event"",""trial"",""time""
""fullscreenenter"",""1"",""3772""
","
","","","","","","null","<div style=""font-size:60px;"">+</div>","null","","fixation","","","","","","","","",""
"memory-trial","261","566102","0.0-15.0-1.108","1487","2","""event"",""trial"",""time""
""fullscreenenter"",""1"",""3772""
","
","
","""event"",""trial"",""time""
""fullscreenenter"",""1"",""3772""
","
","","","","","","1081.2999999998137","images/cactus3.png","","","memory_trial","4","definitely_new","","","","","","",""
"html-keyboard-response","262","566604","0.0-15.0-0.109","1487","2","""event"",""trial"",""time""
""fullscreenenter"",""1"",""3772""
","
","
","""event"",""trial"",""time""
""fullscreenenter"",""1"",""3772""
","
","","","","","","null","<div style=""font-size:60px;"">+</div>","null","","fixation","","","","","","","","",""
"memory-trial","263","568957","0.0-15.0-1.109","1487","2","""event"",""trial"",""time""
""fullscreenenter"",""1"",""3772""
","
","
","""event"",""trial"",""time""
""fullscreenenter"",""1"",""3772""
","
","","","","","","1351.2850000006147","images/rodent5.png","","","memory_trial","4","definitely_new","","","","","","",""
"html-keyboard-response","264","569459","0.0-15.0-0.110","1487","2","""event"",""trial"",""time""
""fullscreenenter"",""1"",""3772""
","
","
","""event"",""trial"",""time""
""fullscreenenter"",""1"",""3772""
","
","","","","","","null","<div style=""font-size:60px;"">+</div>","null","","fixation","","","","","","","","",""
"memory-trial","265","571352","0.0-15.0-1.110","1487","2","""event"",""trial"",""time""
""fullscreenenter"",""1"",""3772""
","
","
","""event"",""trial"",""time""
""fullscreenenter"",""1"",""3772""
","
","","","","","","888.6400000009453","images/rodent3.png","","","memory_trial","4","definitely_new","","","","","","",""
"html-keyboard-response","266","571854","0.0-15.0-0.111","1487","2","""event"",""trial"",""time""
""fullscreenenter"",""1"",""3772""
","
","
","""event"",""trial"",""time""
""fullscreenenter"",""1"",""3772""
","
","","","","","","null","<div style=""font-size:60px;"">+</div>","null","","fixation","","","","","","","","",""
"memory-trial","267","574082","0.0-15.0-1.111","1487","2","""event"",""trial"",""time""
""fullscreenenter"",""1"",""3772""
","
","
","""event"",""trial"",""time""
""fullscreenenter"",""1"",""3772""
","
","","","","","","1224.7349999998696","images/rodent2.png","","","memory_trial","1","definitely_old","","","","","","",""
"html-keyboard-response","268","574583","0.0-15.0-0.112","1487","2","""event"",""trial"",""time""
""fullscreenenter"",""1"",""3772""
","
","
","""event"",""trial"",""time""
""fullscreenenter"",""1"",""3772""
","
","","","","","","null","<div style=""font-size:60px;"">+</div>","null","","fixation","","","","","","","","",""
"memory-trial","269","576844","0.0-15.0-1.112","1487","2","""event"",""trial"",""time""
""fullscreenenter"",""1"",""3772""
","
","
","""event"",""trial"",""time""
""fullscreenenter"",""1"",""3772""
","
","","","","","","1258.525000001071","images/apple5.png","","","memory_trial","4","definitely_new","","","","","","",""
"html-keyboard-response","270","577346","0.0-15.0-0.113","1487","2","""event"",""trial"",""time""
""fullscreenenter"",""1"",""3772""
","
","
","""event"",""trial"",""time""
""fullscreenenter"",""1"",""3772""
","
","","","","","","null","<div style=""font-size:60px;"">+</div>","null","","fixation","","","","","","","","",""
"memory-trial","271","579395","0.0-15.0-1.113","1487","2","""event"",""trial"",""time""
""fullscreenenter"",""1"",""3772""
","
","
","""event"",""trial"",""time""
""fullscreenenter"",""1"",""3772""
","
","","","","","","1046.249999999418","images/truck1.png","","","memory_trial","4","definitely_new","","","","","","",""
"html-keyboard-response","272","579904","0.0-15.0-0.114","1487","2","""event"",""trial"",""time""
""fullscreenenter"",""1"",""3772""
","
","
","""event"",""trial"",""time""
""fullscreenenter"",""1"",""3772""
","
","","","","","","null","<div style=""font-size:60px;"">+</div>","null","","fixation","","","","","","","","",""
"memory-trial","273","581736","0.0-15.0-1.114","1487","2","""event"",""trial"",""time""
""fullscreenenter"",""1"",""3772""
","
","
","""event"",""trial"",""time""
""fullscreenenter"",""1"",""3772""
","
","","","","","","829.4750000004424","images/rabbit4.png","","","memory_trial","4","definitely_new","","","","","","",""
"html-keyboard-response","274","582243","0.0-15.0-0.115","1487","2","""event"",""trial"",""time""
""fullscreenenter"",""1"",""3772""
","
","
","""event"",""trial"",""time""
""fullscreenenter"",""1"",""3772""
","
","","","","","","null","<div style=""font-size:60px;"">+</div>","null","","fixation","","","","","","","","",""
"memory-trial","275","584052","0.0-15.0-1.115","1487","2","""event"",""trial"",""time""
""fullscreenenter"",""1"",""3772""
","
","
","""event"",""trial"",""time""
""fullscreenenter"",""1"",""3772""
","
","","","","","","805.7950000001583","images/boat3.png","","","memory_trial","4","definitely_new","","","","","","",""
"html-keyboard-response","276","584554","0.0-15.0-0.116","1487","2","""event"",""trial"",""time""
""fullscreenenter"",""1"",""3772""
","
","
","""event"",""trial"",""time""
""fullscreenenter"",""1"",""3772""
","
","","","","","","null","<div style=""font-size:60px;"">+</div>","null","","fixation","","","","","","","","",""
"memory-trial","277","586923","0.0-15.0-1.116","1487","2","""event"",""trial"",""time""
""fullscreenenter"",""1"",""3772""
","
","
","""event"",""trial"",""time""
""fullscreenenter"",""1"",""3772""
","
","","","","","","1366.3050000014482","images/apple2.png","","","memory_trial","1","definitely_old","","","","","","",""
"html-keyboard-response","278","587425","0.0-15.0-0.117","1487","2","""event"",""trial"",""time""
""fullscreenenter"",""1"",""3772""
","
","
","""event"",""trial"",""time""
""fullscreenenter"",""1"",""3772""
","
","","","","","","null","<div style=""font-size:60px;"">+</div>","null","","fixation","","","","","","","","",""
"memory-trial","279","590694","0.0-15.0-1.117","1487","2","""event"",""trial"",""time""
""fullscreenenter"",""1"",""3772""
","
","
","""event"",""trial"",""time""
""fullscreenenter"",""1"",""3772""
","
","","","","","","2266.43499999959","images/cow3.png","","","memory_trial","4","definitely_new","","","","","","",""
"html-keyboard-response","280","591196","0.0-15.0-0.118","1487","2","""event"",""trial"",""time""
""fullscreenenter"",""1"",""3772""
","
","
","""event"",""trial"",""time""
""fullscreenenter"",""1"",""3772""
","
","","","","","","null","<div style=""font-size:60px;"">+</div>","null","","fixation","","","","","","","","",""
"memory-trial","281","592913","0.0-15.0-1.118","1487","2","""event"",""trial"",""time""
""fullscreenenter"",""1"",""3772""
","
","
","""event"",""trial"",""time""
""fullscreenenter"",""1"",""3772""
","
","","","","","","713.6099999989383","images/tree3.png","","","memory_trial","4","definitely_new","","","","","","",""
"html-keyboard-response","282","593415","0.0-15.0-0.119","1487","2","""event"",""trial"",""time""
""fullscreenenter"",""1"",""3772""
","
","
","""event"",""trial"",""time""
""fullscreenenter"",""1"",""3772""
","
","","","","","","null","<div style=""font-size:60px;"">+</div>","null","","fixation","","","","","","","","",""
"memory-trial","283","595398","0.0-15.0-1.119","1487","2","""event"",""trial"",""time""
""fullscreenenter"",""1"",""3772""
","
","
","""event"",""trial"",""time""
""fullscreenenter"",""1"",""3772""
","
","","","","","","981.6749999991152","images/goat3.png","","","memory_trial","1","definitely_old","","","","","","",""
"preload","284","595797","0.0-16.0","1487","2","""event"",""trial"",""time""
""fullscreenenter"",""1"",""3772""
","
","
","""event"",""trial"",""time""
""fullscreenenter"",""1"",""3772""
","
","true","false","[]","[]","[]","","","","","","","","","","","","","",""
"learning-instructions","285","602688","0.0-17.0-0.0-0.0-0.0","1487","2","""event"",""trial"",""time""
""fullscreenenter"",""1"",""3772""
","
","
","""event"",""trial"",""time""
""fullscreenenter"",""1"",""3772""
","
","","","","","","3149.5349999986356","<p> We're now going to ask you to water your plants again. </p>","","0","instructions","","","","","","","","",""
"learning-instructions","286","610496","0.0-17.0-0.0-0.0-0.1","1487","2","""event"",""trial"",""time""
""fullscreenenter"",""1"",""3772""
","
","
","""event"",""trial"",""time""
""fullscreenenter"",""1"",""3772""
","
","","","","","","1934.0799999990268","<p> On each trial, you will see a plant. Select the watering can that you think will make the plant grow. </p>","","0","instructions","","","","","","","","",""
"learning-instructions","287","620736","0.0-17.0-0.0-0.0-0.2","1487","2","""event"",""trial"",""time""
""fullscreenenter"",""1"",""3772""
","
","
","""event"",""trial"",""time""
""fullscreenenter"",""1"",""3772""
","
","","","","","","3171.350000000559","<p> To make your selection, think about what you learned last week. You will NOT receive any feedback about your choice. </p>","","0","instructions","","","","","","","","",""
"learning-instructions","288","631249","0.0-17.0-0.0-0.0-0.3","1487","2","""event"",""trial"",""time""
""fullscreenenter"",""1"",""3772""
","
","
","""event"",""trial"",""time""
""fullscreenenter"",""1"",""3772""
","
","","","","","","1395.005000000354","<p> You should use the 1 key to select the watering can on the left, the 2 key to select the watering can in the middle, and the 3 key to select the watering can on the right. </p><br><div class=""choice-mem-instructions-grid""> <div class=""choice-mem-option""><img src=""images/plants_choice1.png"" class=""choice-mem-option-img"" stage=""instructions"" position=""0"" ><div class=""choice-mem-option-text""> Press ""1."" </div></div><div class=""choice-mem-option""><img src=""images/plants_choice2.png"" class=""choice-mem-option-img"" stage=""instructions"" position=""1"" ><div class=""choice-mem-option-text""> Press ""2."" </div></div><div class=""choice-mem-option""><img src=""images/plants_choice3.png"" class=""choice-mem-option-img"" stage=""instructions"" position=""2"" ><div class=""choice-mem-option-text""> Press ""3."" </div></div></div>","","0","instructions","","","","","","","","",""
"learning-instructions","289","639968","0.0-17.0-0.0-0.0-0.4","1487","2","""event"",""trial"",""time""
""fullscreenenter"",""1"",""3772""
","
","
","""event"",""trial"",""time""
""fullscreenenter"",""1"",""3772""
","
","","","","","","2445.7300000013784","<p> You will have 10 seconds to make each selection. Try to respond before time runs out! </p>","","0","instructions","","","","","","","","",""
"learning-instructions","290","643240","0.0-17.0-0.0-1.0","1487","2","""event"",""trial"",""time""
""fullscreenenter"",""1"",""3772""
","
","
","""event"",""trial"",""time""
""fullscreenenter"",""1"",""3772""
","
","","","","","","1205.5949999995064","<p> You are now ready to begin the game. </p>","","0","instructions","","","","","","","","",""
