"trial_type","trial_index","time_elapsed","internal_node_id","subject_id","task_version","interactions","blur_events","focus_events","fullscreenenter_events","fullscreenexit_events","success","timeout","failed_images","failed_audio","failed_video","rt","stimulus","response","button_pressed","task_part","key_press","answer","correct","left_choice","middle_choice","right_choice","choice_positions","option_selected","block"
"pavlovia","0","5","0.0-0.0","1668","2","""event"",""trial"",""time""
""focus"",""0"",""0""
""fullscreenenter"",""1"",""2929""
","
","""event"",""trial"",""time""
""focus"",""0"",""0""
","""event"",""trial"",""time""
""fullscreenenter"",""1"",""2929""
","
","","","","","","","","","","","","","","","","","","",""
"fullscreen","1","3717","0.0-1.0","1668","2","""event"",""trial"",""time""
""focus"",""0"",""0""
""fullscreenenter"",""1"",""2929""
","
","""event"",""trial"",""time""
""focus"",""0"",""0""
","""event"",""trial"",""time""
""fullscreenenter"",""1"",""2929""
","
","true","","","","","","","","","","","","","","","","","",""
"preload","2","6514","0.0-2.0","1668","2","""event"",""trial"",""time""
""focus"",""0"",""0""
""fullscreenenter"",""1"",""2929""
","
","""event"",""trial"",""time""
""focus"",""0"",""0""
","""event"",""trial"",""time""
""fullscreenenter"",""1"",""2929""
","
","true","false","[]","[]","[]","","","","","","","","","","","","","",""
"audio-keyboard-response","3","10093","0.0-3.0","1668","2","""event"",""trial"",""time""
""focus"",""0"",""0""
""fullscreenenter"",""1"",""2929""
","
","""event"",""trial"",""time""
""focus"",""0"",""0""
","""event"",""trial"",""time""
""fullscreenenter"",""1"",""2929""
","
","","","","","","3581.333333333334","audio/beep_loop.wav"," ","","","","","","","","","","",""
"audio-button-response","4","13315","0.0-4.0","1668","2","""event"",""trial"",""time""
""focus"",""0"",""0""
""fullscreenenter"",""1"",""2929""
","
","""event"",""trial"",""time""
""focus"",""0"",""0""
","""event"",""trial"",""time""
""fullscreenenter"",""1"",""2929""
","
","","","","","","3219","audio/turtle.wav","3","","","","","","","","","","",""
"audio-button-response","5","15238","0.0-5.0","1668","2","""event"",""trial"",""time""
""focus"",""0"",""0""
""fullscreenenter"",""1"",""2929""
","
","""event"",""trial"",""time""
""focus"",""0"",""0""
","""event"",""trial"",""time""
""fullscreenenter"",""1"",""2929""
","
","","","","","","909","audio/shark.wav","2","","","","","","","","","","",""
"preload","6","38569","0.0-6.0","1668","2","""event"",""trial"",""time""
""focus"",""0"",""0""
""fullscreenenter"",""1"",""2929""
","
","""event"",""trial"",""time""
""focus"",""0"",""0""
","""event"",""trial"",""time""
""fullscreenenter"",""1"",""2929""
","
","true","false","[]","[]","[]","","","","","","","","","","","","","",""
"learning-instructions","7","45784","0.0-7.0-0.0","1668","2","""event"",""trial"",""time""
""focus"",""0"",""0""
""fullscreenenter"",""1"",""2929""
","
","""event"",""trial"",""time""
""focus"",""0"",""0""
","""event"",""trial"",""time""
""fullscreenenter"",""1"",""2929""
","
","","","","","","2394","<p> Welcome back! </p><p> Last week, you had to make choices about lots of different items.  </p>","","0","instructions","","","","","","","","",""
"learning-instructions","8","51228","0.0-7.0-0.1","1668","2","""event"",""trial"",""time""
""focus"",""0"",""0""
""fullscreenenter"",""1"",""2929""
","
","""event"",""trial"",""time""
""focus"",""0"",""0""
","""event"",""trial"",""time""
""fullscreenenter"",""1"",""2929""
","
","","","","","","1131","<p> Today, we are going to ask you to try to remember all the items. </p>","","0","instructions","","","","","","","","",""
"learning-instructions","9","62368","0.0-7.0-0.2","1668","2","""event"",""trial"",""time""
""focus"",""0"",""0""
""fullscreenenter"",""1"",""2929""
","
","""event"",""trial"",""time""
""focus"",""0"",""0""
","""event"",""trial"",""time""
""fullscreenenter"",""1"",""2929""
","
","","","","","","991","<p> On every trial, you will see an image. </p><p> The image may be an OLD image you saw during the games last week or it may be a NEW image that was not presented. </p>","","0","instructions","","","","","","","","",""
"learning-instructions","10","74088","0.0-7.0-0.3","1668","2","""event"",""trial"",""time""
""focus"",""0"",""0""
""fullscreenenter"",""1"",""2929""
","
","""event"",""trial"",""time""
""focus"",""0"",""0""
","""event"",""trial"",""time""
""fullscreenenter"",""1"",""2929""
","
","","","","","","3208","<p> You need to select whether the image is:  </p><p>  'Definitely old', 'Maybe old', 'Maybe new', or 'Definitely new.'  </p><div class=""mem-choice-instructions-grid""><div class=""choice-option"" id=""choice-option-1"" ><img src=""images/definitely_old_1.png"" id=""choice-option-img-1"" class=""choice-option-img"" stage=""1""></div><div class=""choice-option"" id=""choice-option-2"" ><img src=""images/maybe_old_1.png"" id=""choice-option-img-2"" class=""choice-option-img"" stage=""1""></div><div class=""choice-option"" id=""choice-option-3"" ><img src=""images/maybe_new_1.png"" id=""choice-option-img-3"" class=""choice-option-img"" stage=""1""></div><div class=""choice-option"" id=""choice-option-4"" > <img src=""images/definitely_new_1.png"" id=""choice-option-img-4"" class=""choice-option-img"" stage=""1""></div></div>","","0","instructions","","","","","","","","",""
"learning-instructions","11","81746","0.0-7.0-0.4","1668","2","""event"",""trial"",""time""
""focus"",""0"",""0""
""fullscreenenter"",""1"",""2929""
","
","""event"",""trial"",""time""
""focus"",""0"",""0""
","""event"",""trial"",""time""
""fullscreenenter"",""1"",""2929""
","
","","","","","","948","<p> You should use the 1, 2, 3, and 4 keys to make your responses.  </p><div class=""mem-choice-instructions-grid""><div class=""choice-option"" id=""choice-option-1"" ><img src=""images/definitely_old.png"" id=""choice-option-img-1"" class=""choice-option-img"" stage=""1""></div><div class=""choice-option"" id=""choice-option-2"" ><img src=""images/maybe_old.png"" id=""choice-option-img-2"" class=""choice-option-img"" stage=""1""></div><div class=""choice-option"" id=""choice-option-3"" ><img src=""images/maybe_new.png"" id=""choice-option-img-3"" class=""choice-option-img"" stage=""1""></div><div class=""choice-option"" id=""choice-option-4"" > <img src=""images/definitely_new.png"" id=""choice-option-img-4"" class=""choice-option-img"" stage=""1""></div></div>","","0","instructions","","","","","","","","",""
"learning-instructions","12","89355","0.0-7.0-0.5","1668","2","""event"",""trial"",""time""
""focus"",""0"",""0""
""fullscreenenter"",""1"",""2929""
","
","""event"",""trial"",""time""
""focus"",""0"",""0""
","""event"",""trial"",""time""
""fullscreenenter"",""1"",""2929""
","
","","","","","","837","<p> You will have 10 seconds to make each response.  </p><p>  Make sure to respond before time runs out! </p>","","0","instructions","","","","","","","","",""
"learning-instructions","13","97612","0.0-7.0-0.6","1668","2","""event"",""trial"",""time""
""focus"",""0"",""0""
""fullscreenenter"",""1"",""2929""
","
","""event"",""trial"",""time""
""focus"",""0"",""0""
","""event"",""trial"",""time""
""fullscreenenter"",""1"",""2929""
","
","","","","","","664","<p> Today, you will see each image ONCE only.  </p><p>  That means none of the images will repeat. </p>","","0","instructions","","","","","","","","",""
"learning-instructions","14","120499","0.0-7.0-0.7","1668","2","""event"",""trial"",""time""
""focus"",""0"",""0""
""fullscreenenter"",""1"",""2929""
","
","""event"",""trial"",""time""
""focus"",""0"",""0""
","""event"",""trial"",""time""
""fullscreenenter"",""1"",""2929""
","
","","","","","","10210","<p> Before you play the real game, it is time to practice. </p><p>  Just like in the real game, some of the images in the practice will be ones you have seen before. </p><p>  Others will be entirely new. </p>","","0","instructions","","","","","","","","",""
"html-button-response","15","130229","0.0-8.0","1668","2","""event"",""trial"",""time""
""focus"",""0"",""0""
""fullscreenenter"",""1"",""2929""
","
","""event"",""trial"",""time""
""focus"",""0"",""0""
","""event"",""trial"",""time""
""fullscreenenter"",""1"",""2929""
","
","","","","","","9622","<p> Ready to practice? </p><p> Remember, use the 1, 2, 3, and 4 keys to make your responses. </p>","0","","instructions","","","","","","","","",""
"html-keyboard-response","16","130853","0.0-9.0-0.0","1668","2","""event"",""trial"",""time""
""focus"",""0"",""0""
""fullscreenenter"",""1"",""2929""
","
","""event"",""trial"",""time""
""focus"",""0"",""0""
","""event"",""trial"",""time""
""fullscreenenter"",""1"",""2929""
","
","","","","","","null","<div style=""font-size:60px;"">+</div>","null","","fixation","","","","","","","","",""
"memory-trial","17","136947","0.0-9.0-1.0","1668","2","""event"",""trial"",""time""
""focus"",""0"",""0""
""fullscreenenter"",""1"",""2929""
","
","""event"",""trial"",""time""
""focus"",""0"",""0""
","""event"",""trial"",""time""
""fullscreenenter"",""1"",""2929""
","
","","","","","","5073","images/racket4.png","","","practice","1","definitely_old","","","","","","",""
"html-keyboard-response","18","137457","0.0-9.0-0.1","1668","2","""event"",""trial"",""time""
""focus"",""0"",""0""
""fullscreenenter"",""1"",""2929""
","
","""event"",""trial"",""time""
""focus"",""0"",""0""
","""event"",""trial"",""time""
""fullscreenenter"",""1"",""2929""
","
","","","","","","null","<div style=""font-size:60px;"">+</div>","null","","fixation","","","","","","","","",""
"memory-trial","19","139987","0.0-9.0-1.1","1668","2","""event"",""trial"",""time""
""focus"",""0"",""0""
""fullscreenenter"",""1"",""2929""
","
","""event"",""trial"",""time""
""focus"",""0"",""0""
","""event"",""trial"",""time""
""fullscreenenter"",""1"",""2929""
","
","","","","","","1514","images/ball2.png","","","practice","1","definitely_old","","","","","","",""
"html-keyboard-response","20","140507","0.0-9.0-0.2","1668","2","""event"",""trial"",""time""
""focus"",""0"",""0""
""fullscreenenter"",""1"",""2929""
","
","""event"",""trial"",""time""
""focus"",""0"",""0""
","""event"",""trial"",""time""
""fullscreenenter"",""1"",""2929""
","
","","","","","","null","<div style=""font-size:60px;"">+</div>","null","","fixation","","","","","","","","",""
"memory-trial","21","143337","0.0-9.0-1.2","1668","2","""event"",""trial"",""time""
""focus"",""0"",""0""
""fullscreenenter"",""1"",""2929""
","
","""event"",""trial"",""time""
""focus"",""0"",""0""
","""event"",""trial"",""time""
""fullscreenenter"",""1"",""2929""
","
","","","","","","1829","images/ball1.png","","","practice","1","definitely_old","","","","","","",""
"html-keyboard-response","22","143857","0.0-9.0-0.3","1668","2","""event"",""trial"",""time""
""focus"",""0"",""0""
""fullscreenenter"",""1"",""2929""
","
","""event"",""trial"",""time""
""focus"",""0"",""0""
","""event"",""trial"",""time""
""fullscreenenter"",""1"",""2929""
","
","","","","","","null","<div style=""font-size:60px;"">+</div>","null","","fixation","","","","","","","","",""
"memory-trial","23","147277","0.0-9.0-1.3","1668","2","""event"",""trial"",""time""
""focus"",""0"",""0""
""fullscreenenter"",""1"",""2929""
","
","""event"",""trial"",""time""
""focus"",""0"",""0""
","""event"",""trial"",""time""
""fullscreenenter"",""1"",""2929""
","
","","","","","","2401","images/racket1.png","","","practice","1","definitely_old","","","","","","",""
"html-keyboard-response","24","147788","0.0-9.0-0.4","1668","2","""event"",""trial"",""time""
""focus"",""0"",""0""
""fullscreenenter"",""1"",""2929""
","
","""event"",""trial"",""time""
""focus"",""0"",""0""
","""event"",""trial"",""time""
""fullscreenenter"",""1"",""2929""
","
","","","","","","null","<div style=""font-size:60px;"">+</div>","null","","fixation","","","","","","","","",""
"memory-trial","25","149927","0.0-9.0-1.4","1668","2","""event"",""trial"",""time""
""focus"",""0"",""0""
""fullscreenenter"",""1"",""2929""
","
","""event"",""trial"",""time""
""focus"",""0"",""0""
","""event"",""trial"",""time""
""fullscreenenter"",""1"",""2929""
","
","","","","","","1128","images/racket3.png","","","practice","1","definitely_old","","","","","","",""
"html-keyboard-response","26","150433","0.0-9.0-0.5","1668","2","""event"",""trial"",""time""
""focus"",""0"",""0""
""fullscreenenter"",""1"",""2929""
","
","""event"",""trial"",""time""
""focus"",""0"",""0""
","""event"",""trial"",""time""
""fullscreenenter"",""1"",""2929""
","
","","","","","","null","<div style=""font-size:60px;"">+</div>","null","","fixation","","","","","","","","",""
"memory-trial","27","152388","0.0-9.0-1.5","1668","2","""event"",""trial"",""time""
""focus"",""0"",""0""
""fullscreenenter"",""1"",""2929""
","
","""event"",""trial"",""time""
""focus"",""0"",""0""
","""event"",""trial"",""time""
""fullscreenenter"",""1"",""2929""
","
","","","","","","936","images/racket2.png","","","practice","1","definitely_old","","","","","","",""
"html-keyboard-response","28","152896","0.0-9.0-0.6","1668","2","""event"",""trial"",""time""
""focus"",""0"",""0""
""fullscreenenter"",""1"",""2929""
","
","""event"",""trial"",""time""
""focus"",""0"",""0""
","""event"",""trial"",""time""
""fullscreenenter"",""1"",""2929""
","
","","","","","","null","<div style=""font-size:60px;"">+</div>","null","","fixation","","","","","","","","",""
"memory-trial","29","154737","0.0-9.0-1.6","1668","2","""event"",""trial"",""time""
""focus"",""0"",""0""
""fullscreenenter"",""1"",""2929""
","
","""event"",""trial"",""time""
""focus"",""0"",""0""
","""event"",""trial"",""time""
""fullscreenenter"",""1"",""2929""
","
","","","","","","830","images/ball4.png","","","practice","1","definitely_old","","","","","","",""
"html-keyboard-response","30","155242","0.0-9.0-0.7","1668","2","""event"",""trial"",""time""
""focus"",""0"",""0""
""fullscreenenter"",""1"",""2929""
","
","""event"",""trial"",""time""
""focus"",""0"",""0""
","""event"",""trial"",""time""
""fullscreenenter"",""1"",""2929""
","
","","","","","","null","<div style=""font-size:60px;"">+</div>","null","","fixation","","","","","","","","",""
"memory-trial","31","158838","0.0-9.0-1.7","1668","2","""event"",""trial"",""time""
""focus"",""0"",""0""
""fullscreenenter"",""1"",""2929""
","
","""event"",""trial"",""time""
""focus"",""0"",""0""
","""event"",""trial"",""time""
""fullscreenenter"",""1"",""2929""
","
","","","","","","2591","images/ball3.png","","","practice","2","maybe_old","","","","","","",""
"learning-instructions","32","168968","0.0-10.0-0.0","1668","2","""event"",""trial"",""time""
""focus"",""0"",""0""
""fullscreenenter"",""1"",""2929""
","
","""event"",""trial"",""time""
""focus"",""0"",""0""
","""event"",""trial"",""time""
""fullscreenenter"",""1"",""2929""
","
","","","","","","2169","<p> Great! You have completed the practice. </p><p> Before you start, we're going to ask you a few questions about how the game works.  </p>","","0","instructions","","","","","","","","",""
"preload","33","179167","0.0-11.0","1668","2","""event"",""trial"",""time""
""focus"",""0"",""0""
""fullscreenenter"",""1"",""2929""
","
","""event"",""trial"",""time""
""focus"",""0"",""0""
","""event"",""trial"",""time""
""fullscreenenter"",""1"",""2929""
","
","true","false","[]","[]","[]","","","","","","","","","","","","","",""
"comp-q","34","186067","0.0-12.0-0.0","1668","2","""event"",""trial"",""time""
""focus"",""0"",""0""
""fullscreenenter"",""1"",""2929""
","
","""event"",""trial"",""time""
""focus"",""0"",""0""
","""event"",""trial"",""time""
""fullscreenenter"",""1"",""2929""
","
","","","","","","1069","<p> <b> True or False? </b> </p><p> In this game, you will only see each image once. </p>","","0","comp_question","","","true","","","","","",""
"comp-q","35","194058","0.0-12.0-1.0","1668","2","""event"",""trial"",""time""
""focus"",""0"",""0""
""fullscreenenter"",""1"",""2929""
","
","""event"",""trial"",""time""
""focus"",""0"",""0""
","""event"",""trial"",""time""
""fullscreenenter"",""1"",""2929""
","
","","","","","","1630","<p> <b> That's right! </b> You will see many different images <i> one time each </i> in this game. </p>","","0","comp_answer","","","","","","","","",""
"comp-q","36","201508","0.0-12.0-0.1","1668","2","""event"",""trial"",""time""
""focus"",""0"",""0""
""fullscreenenter"",""1"",""2929""
","
","""event"",""trial"",""time""
""focus"",""0"",""0""
","""event"",""trial"",""time""
""fullscreenenter"",""1"",""2929""
","
","","","","","","1619","<p> <b> True or False? </b> </p><p> You should use the mouse and click to make your response. </p>","","0","comp_question","","","false","","","","","",""
"comp-q","37","210298","0.0-12.0-1.1","1668","2","""event"",""trial"",""time""
""focus"",""0"",""0""
""fullscreenenter"",""1"",""2929""
","
","""event"",""trial"",""time""
""focus"",""0"",""0""
","""event"",""trial"",""time""
""fullscreenenter"",""1"",""2929""
","
","","","","","","1820","<p><b> Incorrect. </b> You should use the '1', '2', '3', and '4' keys to make your response. </p>","","0","comp_answer","","","","","","","","",""
"comp-q","38","217058","0.0-12.0-0.2","1668","2","""event"",""trial"",""time""
""focus"",""0"",""0""
""fullscreenenter"",""1"",""2929""
","
","""event"",""trial"",""time""
""focus"",""0"",""0""
","""event"",""trial"",""time""
""fullscreenenter"",""1"",""2929""
","
","","","","","","749","<p> <b> True or False? </b> </p><p> You will have as much time as you want to make each choice. </p>","","1","comp_question","","","true","","","","","",""
"comp-q","39","223828","0.0-12.0-1.2","1668","2","""event"",""trial"",""time""
""focus"",""0"",""0""
""fullscreenenter"",""1"",""2929""
","
","""event"",""trial"",""time""
""focus"",""0"",""0""
","""event"",""trial"",""time""
""fullscreenenter"",""1"",""2929""
","
","","","","","","1370","<p> <b> That's right! </b> You will only have 10 seconds to make each choice. </p>","","0","comp_answer","","","","","","","","",""
"learning-instructions","40","234228","0.0-13.0","1668","2","""event"",""trial"",""time""
""focus"",""0"",""0""
""fullscreenenter"",""1"",""2929""
","
","""event"",""trial"",""time""
""focus"",""0"",""0""
","""event"",""trial"",""time""
""fullscreenenter"",""1"",""2929""
","
","","","","","","1720","<p> Great! You are now ready to begin the game. </p><p> Remember, use the 1, 2, 3, and 4 keys to make your responses. </p>","","0","instructions","","","","","","","","",""
"preload","41","278567","0.0-14.0","1668","2","""event"",""trial"",""time""
""focus"",""0"",""0""
""fullscreenenter"",""1"",""2929""
","
","""event"",""trial"",""time""
""focus"",""0"",""0""
","""event"",""trial"",""time""
""fullscreenenter"",""1"",""2929""
","
","true","false","[]","[]","[]","","","","","","","","","","","","","",""
"html-keyboard-response","42","279087","0.0-15.0-0.0","1668","2","""event"",""trial"",""time""
""focus"",""0"",""0""
""fullscreenenter"",""1"",""2929""
","
","""event"",""trial"",""time""
""focus"",""0"",""0""
","""event"",""trial"",""time""
""fullscreenenter"",""1"",""2929""
","
","","","","","","null","<div style=""font-size:60px;"">+</div>","null","","fixation","","","","","","","","",""
"memory-trial","43","284247","0.0-15.0-1.0","1668","2","""event"",""trial"",""time""
""focus"",""0"",""0""
""fullscreenenter"",""1"",""2929""
","
","""event"",""trial"",""time""
""focus"",""0"",""0""
","""event"",""trial"",""time""
""fullscreenenter"",""1"",""2929""
","
","","","","","","4150","images/flower5.png","","","memory_trial","3","maybe_new","","","","","","",""
"html-keyboard-response","44","284767","0.0-15.0-0.1","1668","2","""event"",""trial"",""time""
""focus"",""0"",""0""
""fullscreenenter"",""1"",""2929""
","
","""event"",""trial"",""time""
""focus"",""0"",""0""
","""event"",""trial"",""time""
""fullscreenenter"",""1"",""2929""
","
","","","","","","null","<div style=""font-size:60px;"">+</div>","null","","fixation","","","","","","","","",""
"memory-trial","45","287647","0.0-15.0-1.1","1668","2","""event"",""trial"",""time""
""focus"",""0"",""0""
""fullscreenenter"",""1"",""2929""
","
","""event"",""trial"",""time""
""focus"",""0"",""0""
","""event"",""trial"",""time""
""fullscreenenter"",""1"",""2929""
","
","","","","","","1863","images/rodent4.png","","","memory_trial","4","definitely_new","","","","","","",""
"html-keyboard-response","46","288157","0.0-15.0-0.2","1668","2","""event"",""trial"",""time""
""focus"",""0"",""0""
""fullscreenenter"",""1"",""2929""
","
","""event"",""trial"",""time""
""focus"",""0"",""0""
","""event"",""trial"",""time""
""fullscreenenter"",""1"",""2929""
","
","","","","","","null","<div style=""font-size:60px;"">+</div>","null","","fixation","","","","","","","","",""
"memory-trial","47","292127","0.0-15.0-1.2","1668","2","""event"",""trial"",""time""
""focus"",""0"",""0""
""fullscreenenter"",""1"",""2929""
","
","""event"",""trial"",""time""
""focus"",""0"",""0""
","""event"",""trial"",""time""
""fullscreenenter"",""1"",""2929""
","
","","","","","","2960","images/feline3.png","","","memory_trial","1","definitely_old","","","","","","",""
"html-keyboard-response","48","292647","0.0-15.0-0.3","1668","2","""event"",""trial"",""time""
""focus"",""0"",""0""
""fullscreenenter"",""1"",""2929""
","
","""event"",""trial"",""time""
""focus"",""0"",""0""
","""event"",""trial"",""time""
""fullscreenenter"",""1"",""2929""
","
","","","","","","null","<div style=""font-size:60px;"">+</div>","null","","fixation","","","","","","","","",""
"memory-trial","49","295148","0.0-15.0-1.3","1668","2","""event"",""trial"",""time""
""focus"",""0"",""0""
""fullscreenenter"",""1"",""2929""
","
","""event"",""trial"",""time""
""focus"",""0"",""0""
","""event"",""trial"",""time""
""fullscreenenter"",""1"",""2929""
","
","","","","","","1494","images/cow2.png","","","memory_trial","1","definitely_old","","","","","","",""
"html-keyboard-response","50","295667","0.0-15.0-0.4","1668","2","""event"",""trial"",""time""
""focus"",""0"",""0""
""fullscreenenter"",""1"",""2929""
","
","""event"",""trial"",""time""
""focus"",""0"",""0""
","""event"",""trial"",""time""
""fullscreenenter"",""1"",""2929""
","
","","","","","","null","<div style=""font-size:60px;"">+</div>","null","","fixation","","","","","","","","",""
"memory-trial","51","297758","0.0-15.0-1.4","1668","2","""event"",""trial"",""time""
""focus"",""0"",""0""
""fullscreenenter"",""1"",""2929""
","
","""event"",""trial"",""time""
""focus"",""0"",""0""
","""event"",""trial"",""time""
""fullscreenenter"",""1"",""2929""
","
","","","","","","1070","images/plane2.png","","","memory_trial","1","definitely_old","","","","","","",""
"html-keyboard-response","52","298258","0.0-15.0-0.5","1668","2","""event"",""trial"",""time""
""focus"",""0"",""0""
""fullscreenenter"",""1"",""2929""
","
","""event"",""trial"",""time""
""focus"",""0"",""0""
","""event"",""trial"",""time""
""fullscreenenter"",""1"",""2929""
","
","","","","","","null","<div style=""font-size:60px;"">+</div>","null","","fixation","","","","","","","","",""
"memory-trial","53","300197","0.0-15.0-1.5","1668","2","""event"",""trial"",""time""
""focus"",""0"",""0""
""fullscreenenter"",""1"",""2929""
","
","""event"",""trial"",""time""
""focus"",""0"",""0""
","""event"",""trial"",""time""
""fullscreenenter"",""1"",""2929""
","
","","","","","","932","images/plane1.png","","","memory_trial","1","definitely_old","","","","","","",""
"html-keyboard-response","54","300717","0.0-15.0-0.6","1668","2","""event"",""trial"",""time""
""focus"",""0"",""0""
""fullscreenenter"",""1"",""2929""
","
","""event"",""trial"",""time""
""focus"",""0"",""0""
","""event"",""trial"",""time""
""fullscreenenter"",""1"",""2929""
","
","","","","","","null","<div style=""font-size:60px;"">+</div>","null","","fixation","","","","","","","","",""
"memory-trial","55","302927","0.0-15.0-1.6","1668","2","""event"",""trial"",""time""
""focus"",""0"",""0""
""fullscreenenter"",""1"",""2929""
","
","""event"",""trial"",""time""
""focus"",""0"",""0""
","""event"",""trial"",""time""
""fullscreenenter"",""1"",""2929""
","
","","","","","","1199","images/straw5.png","","","memory_trial","1","definitely_old","","","","","","",""
"html-keyboard-response","56","303447","0.0-15.0-0.7","1668","2","""event"",""trial"",""time""
""focus"",""0"",""0""
""fullscreenenter"",""1"",""2929""
","
","""event"",""trial"",""time""
""focus"",""0"",""0""
","""event"",""trial"",""time""
""fullscreenenter"",""1"",""2929""
","
","","","","","","null","<div style=""font-size:60px;"">+</div>","null","","fixation","","","","","","","","",""
"memory-trial","57","306027","0.0-15.0-1.7","1668","2","""event"",""trial"",""time""
""focus"",""0"",""0""
""fullscreenenter"",""1"",""2929""
","
","""event"",""trial"",""time""
""focus"",""0"",""0""
","""event"",""trial"",""time""
""fullscreenenter"",""1"",""2929""
","
","","","","","","1562","images/goat1.png","","","memory_trial","4","definitely_new","","","","","","",""
"html-keyboard-response","58","306537","0.0-15.0-0.8","1668","2","""event"",""trial"",""time""
""focus"",""0"",""0""
""fullscreenenter"",""1"",""2929""
","
","""event"",""trial"",""time""
""focus"",""0"",""0""
","""event"",""trial"",""time""
""fullscreenenter"",""1"",""2929""
","
","","","","","","null","<div style=""font-size:60px;"">+</div>","null","","fixation","","","","","","","","",""
"memory-trial","59","308557","0.0-15.0-1.8","1668","2","""event"",""trial"",""time""
""focus"",""0"",""0""
""fullscreenenter"",""1"",""2929""
","
","""event"",""trial"",""time""
""focus"",""0"",""0""
","""event"",""trial"",""time""
""fullscreenenter"",""1"",""2929""
","
","","","","","","1009","images/rodent1.png","","","memory_trial","4","definitely_new","","","","","","",""
"html-keyboard-response","60","309077","0.0-15.0-0.9","1668","2","""event"",""trial"",""time""
""focus"",""0"",""0""
""fullscreenenter"",""1"",""2929""
","
","""event"",""trial"",""time""
""focus"",""0"",""0""
","""event"",""trial"",""time""
""fullscreenenter"",""1"",""2929""
","
","","","","","","null","<div style=""font-size:60px;"">+</div>","null","","fixation","","","","","","","","",""
"memory-trial","61","311138","0.0-15.0-1.9","1668","2","""event"",""trial"",""time""
""focus"",""0"",""0""
""fullscreenenter"",""1"",""2929""
","
","""event"",""trial"",""time""
""focus"",""0"",""0""
","""event"",""trial"",""time""
""fullscreenenter"",""1"",""2929""
","
","","","","","","1046","images/rodent2.png","","","memory_trial","4","definitely_new","","","","","","",""
"html-keyboard-response","62","311648","0.0-15.0-0.10","1668","2","""event"",""trial"",""time""
""focus"",""0"",""0""
""fullscreenenter"",""1"",""2929""
","
","""event"",""trial"",""time""
""focus"",""0"",""0""
","""event"",""trial"",""time""
""fullscreenenter"",""1"",""2929""
","
","","","","","","null","<div style=""font-size:60px;"">+</div>","null","","fixation","","","","","","","","",""
"memory-trial","63","313767","0.0-15.0-1.10","1668","2","""event"",""trial"",""time""
""focus"",""0"",""0""
""fullscreenenter"",""1"",""2929""
","
","""event"",""trial"",""time""
""focus"",""0"",""0""
","""event"",""trial"",""time""
""fullscreenenter"",""1"",""2929""
","
","","","","","","1108","images/boat1.png","","","memory_trial","1","definitely_old","","","","","","",""
"html-keyboard-response","64","314287","0.0-15.0-0.11","1668","2","""event"",""trial"",""time""
""focus"",""0"",""0""
""fullscreenenter"",""1"",""2929""
","
","""event"",""trial"",""time""
""focus"",""0"",""0""
","""event"",""trial"",""time""
""fullscreenenter"",""1"",""2929""
","
","","","","","","null","<div style=""font-size:60px;"">+</div>","null","","fixation","","","","","","","","",""
"memory-trial","65","316347","0.0-15.0-1.11","1668","2","""event"",""trial"",""time""
""focus"",""0"",""0""
""fullscreenenter"",""1"",""2929""
","
","""event"",""trial"",""time""
""focus"",""0"",""0""
","""event"",""trial"",""time""
""fullscreenenter"",""1"",""2929""
","
","","","","","","1048","images/horse2.png","","","memory_trial","1","definitely_old","","","","","","",""
"html-keyboard-response","66","316867","0.0-15.0-0.12","1668","2","""event"",""trial"",""time""
""focus"",""0"",""0""
""fullscreenenter"",""1"",""2929""
","
","""event"",""trial"",""time""
""focus"",""0"",""0""
","""event"",""trial"",""time""
""fullscreenenter"",""1"",""2929""
","
","","","","","","null","<div style=""font-size:60px;"">+</div>","null","","fixation","","","","","","","","",""
"memory-trial","67","318675","0.0-15.0-1.12","1668","2","""event"",""trial"",""time""
""focus"",""0"",""0""
""fullscreenenter"",""1"",""2929""
","
","""event"",""trial"",""time""
""focus"",""0"",""0""
","""event"",""trial"",""time""
""fullscreenenter"",""1"",""2929""
","
","","","","","","792","images/boat5.png","","","memory_trial","1","definitely_old","","","","","","",""
"html-keyboard-response","68","319177","0.0-15.0-0.13","1668","2","""event"",""trial"",""time""
""focus"",""0"",""0""
""fullscreenenter"",""1"",""2929""
","
","""event"",""trial"",""time""
""focus"",""0"",""0""
","""event"",""trial"",""time""
""fullscreenenter"",""1"",""2929""
","
","","","","","","null","<div style=""font-size:60px;"">+</div>","null","","fixation","","","","","","","","",""
"memory-trial","69","322358","0.0-15.0-1.13","1668","2","""event"",""trial"",""time""
""focus"",""0"",""0""
""fullscreenenter"",""1"",""2929""
","
","""event"",""trial"",""time""
""focus"",""0"",""0""
","""event"",""trial"",""time""
""fullscreenenter"",""1"",""2929""
","
","","","","","","2168","images/cow5.png","","","memory_trial","3","maybe_new","","","","","","",""
"html-keyboard-response","70","322867","0.0-15.0-0.14","1668","2","""event"",""trial"",""time""
""focus"",""0"",""0""
""fullscreenenter"",""1"",""2929""
","
","""event"",""trial"",""time""
""focus"",""0"",""0""
","""event"",""trial"",""time""
""fullscreenenter"",""1"",""2929""
","
","","","","","","null","<div style=""font-size:60px;"">+</div>","null","","fixation","","","","","","","","",""
"memory-trial","71","325267","0.0-15.0-1.14","1668","2","""event"",""trial"",""time""
""focus"",""0"",""0""
""fullscreenenter"",""1"",""2929""
","
","""event"",""trial"",""time""
""focus"",""0"",""0""
","""event"",""trial"",""time""
""fullscreenenter"",""1"",""2929""
","
","","","","","","1392","images/goat4.png","","","memory_trial","4","definitely_new","","","","","","",""
"html-keyboard-response","72","325787","0.0-15.0-0.15","1668","2","""event"",""trial"",""time""
""focus"",""0"",""0""
""fullscreenenter"",""1"",""2929""
","
","""event"",""trial"",""time""
""focus"",""0"",""0""
","""event"",""trial"",""time""
""fullscreenenter"",""1"",""2929""
","
","","","","","","null","<div style=""font-size:60px;"">+</div>","null","","fixation","","","","","","","","",""
"memory-trial","73","327587","0.0-15.0-1.15","1668","2","""event"",""trial"",""time""
""focus"",""0"",""0""
""fullscreenenter"",""1"",""2929""
","
","""event"",""trial"",""time""
""focus"",""0"",""0""
","""event"",""trial"",""time""
""fullscreenenter"",""1"",""2929""
","
","","","","","","795","images/truck4.png","","","memory_trial","1","definitely_old","","","","","","",""
"html-keyboard-response","74","328107","0.0-15.0-0.16","1668","2","""event"",""trial"",""time""
""focus"",""0"",""0""
""fullscreenenter"",""1"",""2929""
","
","""event"",""trial"",""time""
""focus"",""0"",""0""
","""event"",""trial"",""time""
""fullscreenenter"",""1"",""2929""
","
","","","","","","null","<div style=""font-size:60px;"">+</div>","null","","fixation","","","","","","","","",""
"memory-trial","75","331217","0.0-15.0-1.16","1668","2","""event"",""trial"",""time""
""focus"",""0"",""0""
""fullscreenenter"",""1"",""2929""
","
","""event"",""trial"",""time""
""focus"",""0"",""0""
","""event"",""trial"",""time""
""fullscreenenter"",""1"",""2929""
","
","","","","","","2096","images/tree1.png","","","memory_trial","2","maybe_old","","","","","","",""
"html-keyboard-response","76","331736","0.0-15.0-0.17","1668","2","""event"",""trial"",""time""
""focus"",""0"",""0""
""fullscreenenter"",""1"",""2929""
","
","""event"",""trial"",""time""
""focus"",""0"",""0""
","""event"",""trial"",""time""
""fullscreenenter"",""1"",""2929""
","
","","","","","","null","<div style=""font-size:60px;"">+</div>","null","","fixation","","","","","","","","",""
"memory-trial","77","334057","0.0-15.0-1.17","1668","2","""event"",""trial"",""time""
""focus"",""0"",""0""
""fullscreenenter"",""1"",""2929""
","
","""event"",""trial"",""time""
""focus"",""0"",""0""
","""event"",""trial"",""time""
""fullscreenenter"",""1"",""2929""
","
","","","","","","1314","images/truck1.png","","","memory_trial","1","definitely_old","","","","","","",""
"html-keyboard-response","78","334577","0.0-15.0-0.18","1668","2","""event"",""trial"",""time""
""focus"",""0"",""0""
""fullscreenenter"",""1"",""2929""
","
","""event"",""trial"",""time""
""focus"",""0"",""0""
","""event"",""trial"",""time""
""fullscreenenter"",""1"",""2929""
","
","","","","","","null","<div style=""font-size:60px;"">+</div>","null","","fixation","","","","","","","","",""
"memory-trial","79","337227","0.0-15.0-1.18","1668","2","""event"",""trial"",""time""
""focus"",""0"",""0""
""fullscreenenter"",""1"",""2929""
","
","""event"",""trial"",""time""
""focus"",""0"",""0""
","""event"",""trial"",""time""
""fullscreenenter"",""1"",""2929""
","
","","","","","","1649","images/banana4.png","","","memory_trial","4","definitely_new","","","","","","",""
"html-keyboard-response","80","337748","0.0-15.0-0.19","1668","2","""event"",""trial"",""time""
""focus"",""0"",""0""
""fullscreenenter"",""1"",""2929""
","
","""event"",""trial"",""time""
""focus"",""0"",""0""
","""event"",""trial"",""time""
""fullscreenenter"",""1"",""2929""
","
","","","","","","null","<div style=""font-size:60px;"">+</div>","null","","fixation","","","","","","","","",""
"memory-trial","81","339967","0.0-15.0-1.19","1668","2","""event"",""trial"",""time""
""focus"",""0"",""0""
""fullscreenenter"",""1"",""2929""
","
","""event"",""trial"",""time""
""focus"",""0"",""0""
","""event"",""trial"",""time""
""fullscreenenter"",""1"",""2929""
","
","","","","","","1207","images/goat5.png","","","memory_trial","4","definitely_new","","","","","","",""
"html-keyboard-response","82","340477","0.0-15.0-0.20","1668","2","""event"",""trial"",""time""
""focus"",""0"",""0""
""fullscreenenter"",""1"",""2929""
","
","""event"",""trial"",""time""
""focus"",""0"",""0""
","""event"",""trial"",""time""
""fullscreenenter"",""1"",""2929""
","
","","","","","","null","<div style=""font-size:60px;"">+</div>","null","","fixation","","","","","","","","",""
"memory-trial","83","344237","0.0-15.0-1.20","1668","2","""event"",""trial"",""time""
""focus"",""0"",""0""
""fullscreenenter"",""1"",""2929""
","
","""event"",""trial"",""time""
""focus"",""0"",""0""
","""event"",""trial"",""time""
""fullscreenenter"",""1"",""2929""
","
","","","","","","2746","images/rabbit1.png","","","memory_trial","3","maybe_new","","","","","","",""
"html-keyboard-response","84","344747","0.0-15.0-0.21","1668","2","""event"",""trial"",""time""
""focus"",""0"",""0""
""fullscreenenter"",""1"",""2929""
","
","""event"",""trial"",""time""
""focus"",""0"",""0""
","""event"",""trial"",""time""
""fullscreenenter"",""1"",""2929""
","
","","","","","","null","<div style=""font-size:60px;"">+</div>","null","","fixation","","","","","","","","",""
"memory-trial","85","346887","0.0-15.0-1.21","1668","2","""event"",""trial"",""time""
""focus"",""0"",""0""
""fullscreenenter"",""1"",""2929""
","
","""event"",""trial"",""time""
""focus"",""0"",""0""
","""event"",""trial"",""time""
""fullscreenenter"",""1"",""2929""
","
","","","","","","1123","images/horse5.png","","","memory_trial","1","definitely_old","","","","","","",""
"html-keyboard-response","86","347407","0.0-15.0-0.22","1668","2","""event"",""trial"",""time""
""focus"",""0"",""0""
""fullscreenenter"",""1"",""2929""
","
","""event"",""trial"",""time""
""focus"",""0"",""0""
","""event"",""trial"",""time""
""fullscreenenter"",""1"",""2929""
","
","","","","","","null","<div style=""font-size:60px;"">+</div>","null","","fixation","","","","","","","","",""
"memory-trial","87","349227","0.0-15.0-1.22","1668","2","""event"",""trial"",""time""
""focus"",""0"",""0""
""fullscreenenter"",""1"",""2929""
","
","""event"",""trial"",""time""
""focus"",""0"",""0""
","""event"",""trial"",""time""
""fullscreenenter"",""1"",""2929""
","
","","","","","","812","images/boat4.png","","","memory_trial","1","definitely_old","","","","","","",""
"html-keyboard-response","88","349736","0.0-15.0-0.23","1668","2","""event"",""trial"",""time""
""focus"",""0"",""0""
""fullscreenenter"",""1"",""2929""
","
","""event"",""trial"",""time""
""focus"",""0"",""0""
","""event"",""trial"",""time""
""fullscreenenter"",""1"",""2929""
","
","","","","","","null","<div style=""font-size:60px;"">+</div>","null","","fixation","","","","","","","","",""
"memory-trial","89","351487","0.0-15.0-1.23","1668","2","""event"",""trial"",""time""
""focus"",""0"",""0""
""fullscreenenter"",""1"",""2929""
","
","""event"",""trial"",""time""
""focus"",""0"",""0""
","""event"",""trial"",""time""
""fullscreenenter"",""1"",""2929""
","
","","","","","","742","images/feline5.png","","","memory_trial","1","definitely_old","","","","","","",""
"html-keyboard-response","90","351997","0.0-15.0-0.24","1668","2","""event"",""trial"",""time""
""focus"",""0"",""0""
""fullscreenenter"",""1"",""2929""
","
","""event"",""trial"",""time""
""focus"",""0"",""0""
","""event"",""trial"",""time""
""fullscreenenter"",""1"",""2929""
","
","","","","","","null","<div style=""font-size:60px;"">+</div>","null","","fixation","","","","","","","","",""
"memory-trial","91","355178","0.0-15.0-1.24","1668","2","""event"",""trial"",""time""
""focus"",""0"",""0""
""fullscreenenter"",""1"",""2929""
","
","""event"",""trial"",""time""
""focus"",""0"",""0""
","""event"",""trial"",""time""
""fullscreenenter"",""1"",""2929""
","
","","","","","","2165","images/plane3.png","","","memory_trial","4","definitely_new","","","","","","",""
"html-keyboard-response","92","355697","0.0-15.0-0.25","1668","2","""event"",""trial"",""time""
""focus"",""0"",""0""
""fullscreenenter"",""1"",""2929""
","
","""event"",""trial"",""time""
""focus"",""0"",""0""
","""event"",""trial"",""time""
""fullscreenenter"",""1"",""2929""
","
","","","","","","null","<div style=""font-size:60px;"">+</div>","null","","fixation","","","","","","","","",""
"memory-trial","93","358267","0.0-15.0-1.25","1668","2","""event"",""trial"",""time""
""focus"",""0"",""0""
""fullscreenenter"",""1"",""2929""
","
","""event"",""trial"",""time""
""focus"",""0"",""0""
","""event"",""trial"",""time""
""fullscreenenter"",""1"",""2929""
","
","","","","","","1555","images/bush4.png","","","memory_trial","1","definitely_old","","","","","","",""
"html-keyboard-response","94","358787","0.0-15.0-0.26","1668","2","""event"",""trial"",""time""
""focus"",""0"",""0""
""fullscreenenter"",""1"",""2929""
","
","""event"",""trial"",""time""
""focus"",""0"",""0""
","""event"",""trial"",""time""
""fullscreenenter"",""1"",""2929""
","
","","","","","","null","<div style=""font-size:60px;"">+</div>","null","","fixation","","","","","","","","",""
"memory-trial","95","361337","0.0-15.0-1.26","1668","2","""event"",""trial"",""time""
""focus"",""0"",""0""
""fullscreenenter"",""1"",""2929""
","
","""event"",""trial"",""time""
""focus"",""0"",""0""
","""event"",""trial"",""time""
""fullscreenenter"",""1"",""2929""
","
","","","","","","1541","images/sofa2.png","","","memory_trial","4","definitely_new","","","","","","",""
"html-keyboard-response","96","361839","0.0-15.0-0.27","1668","2","""event"",""trial"",""time""
""focus"",""0"",""0""
""fullscreenenter"",""1"",""2929""
","
","""event"",""trial"",""time""
""focus"",""0"",""0""
","""event"",""trial"",""time""
""fullscreenenter"",""1"",""2929""
","
","","","","","","null","<div style=""font-size:60px;"">+</div>","null","","fixation","","","","","","","","",""
"memory-trial","97","365417","0.0-15.0-1.27","1668","2","""event"",""trial"",""time""
""focus"",""0"",""0""
""fullscreenenter"",""1"",""2929""
","
","""event"",""trial"",""time""
""focus"",""0"",""0""
","""event"",""trial"",""time""
""fullscreenenter"",""1"",""2929""
","
","","","","","","2572","images/boat2.png","","","memory_trial","2","maybe_old","","","","","","",""
"html-keyboard-response","98","365937","0.0-15.0-0.28","1668","2","""event"",""trial"",""time""
""focus"",""0"",""0""
""fullscreenenter"",""1"",""2929""
","
","""event"",""trial"",""time""
""focus"",""0"",""0""
","""event"",""trial"",""time""
""fullscreenenter"",""1"",""2929""
","
","","","","","","null","<div style=""font-size:60px;"">+</div>","null","","fixation","","","","","","","","",""
"memory-trial","99","369547","0.0-15.0-1.28","1668","2","""event"",""trial"",""time""
""focus"",""0"",""0""
""fullscreenenter"",""1"",""2929""
","
","""event"",""trial"",""time""
""focus"",""0"",""0""
","""event"",""trial"",""time""
""fullscreenenter"",""1"",""2929""
","
","","","","","","2593","images/cactus5.png","","","memory_trial","1","definitely_old","","","","","","",""
"html-keyboard-response","100","370067","0.0-15.0-0.29","1668","2","""event"",""trial"",""time""
""focus"",""0"",""0""
""fullscreenenter"",""1"",""2929""
","
","""event"",""trial"",""time""
""focus"",""0"",""0""
","""event"",""trial"",""time""
""fullscreenenter"",""1"",""2929""
","
","","","","","","null","<div style=""font-size:60px;"">+</div>","null","","fixation","","","","","","","","",""
"memory-trial","101","371837","0.0-15.0-1.29","1668","2","""event"",""trial"",""time""
""focus"",""0"",""0""
""fullscreenenter"",""1"",""2929""
","
","""event"",""trial"",""time""
""focus"",""0"",""0""
","""event"",""trial"",""time""
""fullscreenenter"",""1"",""2929""
","
","","","","","","762","images/plane4.png","","","memory_trial","1","definitely_old","","","","","","",""
"html-keyboard-response","102","372347","0.0-15.0-0.30","1668","2","""event"",""trial"",""time""
""focus"",""0"",""0""
""fullscreenenter"",""1"",""2929""
","
","""event"",""trial"",""time""
""focus"",""0"",""0""
","""event"",""trial"",""time""
""fullscreenenter"",""1"",""2929""
","
","","","","","","null","<div style=""font-size:60px;"">+</div>","null","","fixation","","","","","","","","",""
"memory-trial","103","377758","0.0-15.0-1.30","1668","2","""event"",""trial"",""time""
""focus"",""0"",""0""
""fullscreenenter"",""1"",""2929""
","
","""event"",""trial"",""time""
""focus"",""0"",""0""
","""event"",""trial"",""time""
""fullscreenenter"",""1"",""2929""
","
","","","","","","4409","images/cow4.png","","","memory_trial","1","definitely_old","","","","","","",""
"html-keyboard-response","104","378267","0.0-15.0-0.31","1668","2","""event"",""trial"",""time""
""focus"",""0"",""0""
""fullscreenenter"",""1"",""2929""
","
","""event"",""trial"",""time""
""focus"",""0"",""0""
","""event"",""trial"",""time""
""fullscreenenter"",""1"",""2929""
","
","","","","","","null","<div style=""font-size:60px;"">+</div>","null","","fixation","","","","","","","","",""
"memory-trial","105","382108","0.0-15.0-1.31","1668","2","""event"",""trial"",""time""
""focus"",""0"",""0""
""fullscreenenter"",""1"",""2929""
","
","""event"",""trial"",""time""
""focus"",""0"",""0""
","""event"",""trial"",""time""
""fullscreenenter"",""1"",""2929""
","
","","","","","","2834","images/sofa4.png","","","memory_trial","4","definitely_new","","","","","","",""
"html-keyboard-response","106","382627","0.0-15.0-0.32","1668","2","""event"",""trial"",""time""
""focus"",""0"",""0""
""fullscreenenter"",""1"",""2929""
","
","""event"",""trial"",""time""
""focus"",""0"",""0""
","""event"",""trial"",""time""
""fullscreenenter"",""1"",""2929""
","
","","","","","","null","<div style=""font-size:60px;"">+</div>","null","","fixation","","","","","","","","",""
"memory-trial","107","385153","0.0-15.0-1.32","1668","2","""event"",""trial"",""time""
""focus"",""0"",""0""
""fullscreenenter"",""1"",""2929""
","
","""event"",""trial"",""time""
""focus"",""0"",""0""
","""event"",""trial"",""time""
""fullscreenenter"",""1"",""2929""
","
","","","","","","1512","images/apple4.png","","","memory_trial","1","definitely_old","","","","","","",""
"html-keyboard-response","108","385657","0.0-15.0-0.33","1668","2","""event"",""trial"",""time""
""focus"",""0"",""0""
""fullscreenenter"",""1"",""2929""
","
","""event"",""trial"",""time""
""focus"",""0"",""0""
","""event"",""trial"",""time""
""fullscreenenter"",""1"",""2929""
","
","","","","","","null","<div style=""font-size:60px;"">+</div>","null","","fixation","","","","","","","","",""
"memory-trial","109","388358","0.0-15.0-1.33","1668","2","""event"",""trial"",""time""
""focus"",""0"",""0""
""fullscreenenter"",""1"",""2929""
","
","""event"",""trial"",""time""
""focus"",""0"",""0""
","""event"",""trial"",""time""
""fullscreenenter"",""1"",""2929""
","
","","","","","","1694","images/banana3.png","","","memory_trial","4","definitely_new","","","","","","",""
"html-keyboard-response","110","388867","0.0-15.0-0.34","1668","2","""event"",""trial"",""time""
""focus"",""0"",""0""
""fullscreenenter"",""1"",""2929""
","
","""event"",""trial"",""time""
""focus"",""0"",""0""
","""event"",""trial"",""time""
""fullscreenenter"",""1"",""2929""
","
","","","","","","null","<div style=""font-size:60px;"">+</div>","null","","fixation","","","","","","","","",""
"memory-trial","111","391067","0.0-15.0-1.34","1668","2","""event"",""trial"",""time""
""focus"",""0"",""0""
""fullscreenenter"",""1"",""2929""
","
","""event"",""trial"",""time""
""focus"",""0"",""0""
","""event"",""trial"",""time""
""fullscreenenter"",""1"",""2929""
","
","","","","","","1198","images/plane5.png","","","memory_trial","1","definitely_old","","","","","","",""
"html-keyboard-response","112","391587","0.0-15.0-0.35","1668","2","""event"",""trial"",""time""
""focus"",""0"",""0""
""fullscreenenter"",""1"",""2929""
","
","""event"",""trial"",""time""
""focus"",""0"",""0""
","""event"",""trial"",""time""
""fullscreenenter"",""1"",""2929""
","
","","","","","","null","<div style=""font-size:60px;"">+</div>","null","","fixation","","","","","","","","",""
"memory-trial","113","393647","0.0-15.0-1.35","1668","2","""event"",""trial"",""time""
""focus"",""0"",""0""
""fullscreenenter"",""1"",""2929""
","
","""event"",""trial"",""time""
""focus"",""0"",""0""
","""event"",""trial"",""time""
""fullscreenenter"",""1"",""2929""
","
","","","","","","1054","images/table4.png","","","memory_trial","1","definitely_old","","","","","","",""
"html-keyboard-response","114","394157","0.0-15.0-0.36","1668","2","""event"",""trial"",""time""
""focus"",""0"",""0""
""fullscreenenter"",""1"",""2929""
","
","""event"",""trial"",""time""
""focus"",""0"",""0""
","""event"",""trial"",""time""
""fullscreenenter"",""1"",""2929""
","
","","","","","","null","<div style=""font-size:60px;"">+</div>","null","","fixation","","","","","","","","",""
"memory-trial","115","400407","0.0-15.0-1.36","1668","2","""event"",""trial"",""time""
""focus"",""0"",""0""
""fullscreenenter"",""1"",""2929""
","
","""event"",""trial"",""time""
""focus"",""0"",""0""
","""event"",""trial"",""time""
""fullscreenenter"",""1"",""2929""
","
","","","","","","5242","images/chair1.png","","","memory_trial","3","maybe_new","","","","","","",""
"html-keyboard-response","116","400927","0.0-15.0-0.37","1668","2","""event"",""trial"",""time""
""focus"",""0"",""0""
""fullscreenenter"",""1"",""2929""
","
","""event"",""trial"",""time""
""focus"",""0"",""0""
","""event"",""trial"",""time""
""fullscreenenter"",""1"",""2929""
","
","","","","","","null","<div style=""font-size:60px;"">+</div>","null","","fixation","","","","","","","","",""
"memory-trial","117","403047","0.0-15.0-1.37","1668","2","""event"",""trial"",""time""
""focus"",""0"",""0""
""fullscreenenter"",""1"",""2929""
","
","""event"",""trial"",""time""
""focus"",""0"",""0""
","""event"",""trial"",""time""
""fullscreenenter"",""1"",""2929""
","
","","","","","","1118","images/dog4.png","","","memory_trial","1","definitely_old","","","","","","",""
"html-keyboard-response","118","403547","0.0-15.0-0.38","1668","2","""event"",""trial"",""time""
""focus"",""0"",""0""
""fullscreenenter"",""1"",""2929""
","
","""event"",""trial"",""time""
""focus"",""0"",""0""
","""event"",""trial"",""time""
""fullscreenenter"",""1"",""2929""
","
","","","","","","null","<div style=""font-size:60px;"">+</div>","null","","fixation","","","","","","","","",""
"memory-trial","119","405907","0.0-15.0-1.38","1668","2","""event"",""trial"",""time""
""focus"",""0"",""0""
""fullscreenenter"",""1"",""2929""
","
","""event"",""trial"",""time""
""focus"",""0"",""0""
","""event"",""trial"",""time""
""fullscreenenter"",""1"",""2929""
","
","","","","","","1359","images/table5.png","","","memory_trial","1","definitely_old","","","","","","",""
"html-keyboard-response","120","406427","0.0-15.0-0.39","1668","2","""event"",""trial"",""time""
""focus"",""0"",""0""
""fullscreenenter"",""1"",""2929""
","
","""event"",""trial"",""time""
""focus"",""0"",""0""
","""event"",""trial"",""time""
""fullscreenenter"",""1"",""2929""
","
","","","","","","null","<div style=""font-size:60px;"">+</div>","null","","fixation","","","","","","","","",""
"memory-trial","121","408997","0.0-15.0-1.39","1668","2","""event"",""trial"",""time""
""focus"",""0"",""0""
""fullscreenenter"",""1"",""2929""
","
","""event"",""trial"",""time""
""focus"",""0"",""0""
","""event"",""trial"",""time""
""fullscreenenter"",""1"",""2929""
","
","","","","","","1562","images/flower3.png","","","memory_trial","4","definitely_new","","","","","","",""
"html-keyboard-response","122","409517","0.0-15.0-0.40","1668","2","""event"",""trial"",""time""
""focus"",""0"",""0""
""fullscreenenter"",""1"",""2929""
","
","""event"",""trial"",""time""
""focus"",""0"",""0""
","""event"",""trial"",""time""
""fullscreenenter"",""1"",""2929""
","
","","","","","","null","<div style=""font-size:60px;"">+</div>","null","","fixation","","","","","","","","",""
"memory-trial","123","411518","0.0-15.0-1.40","1668","2","""event"",""trial"",""time""
""focus"",""0"",""0""
""fullscreenenter"",""1"",""2929""
","
","""event"",""trial"",""time""
""focus"",""0"",""0""
","""event"",""trial"",""time""
""fullscreenenter"",""1"",""2929""
","
","","","","","","987","images/banana1.png","","","memory_trial","4","definitely_new","","","","","","",""
"html-keyboard-response","124","412037","0.0-15.0-0.41","1668","2","""event"",""trial"",""time""
""focus"",""0"",""0""
""fullscreenenter"",""1"",""2929""
","
","""event"",""trial"",""time""
""focus"",""0"",""0""
","""event"",""trial"",""time""
""fullscreenenter"",""1"",""2929""
","
","","","","","","null","<div style=""font-size:60px;"">+</div>","null","","fixation","","","","","","","","",""
"memory-trial","125","414147","0.0-15.0-1.41","1668","2","""event"",""trial"",""time""
""focus"",""0"",""0""
""fullscreenenter"",""1"",""2929""
","
","""event"",""trial"",""time""
""focus"",""0"",""0""
","""event"",""trial"",""time""
""fullscreenenter"",""1"",""2929""
","
","","","","","","1109","images/chair5.png","","","memory_trial","1","definitely_old","","","","","","",""
"html-keyboard-response","126","414667","0.0-15.0-0.42","1668","2","""event"",""trial"",""time""
""focus"",""0"",""0""
""fullscreenenter"",""1"",""2929""
","
","""event"",""trial"",""time""
""focus"",""0"",""0""
","""event"",""trial"",""time""
""fullscreenenter"",""1"",""2929""
","
","","","","","","null","<div style=""font-size:60px;"">+</div>","null","","fixation","","","","","","","","",""
"memory-trial","127","416547","0.0-15.0-1.42","1668","2","""event"",""trial"",""time""
""focus"",""0"",""0""
""fullscreenenter"",""1"",""2929""
","
","""event"",""trial"",""time""
""focus"",""0"",""0""
","""event"",""trial"",""time""
""fullscreenenter"",""1"",""2929""
","
","","","","","","867","images/sheep2.png","","","memory_trial","1","definitely_old","","","","","","",""
"html-keyboard-response","128","417048","0.0-15.0-0.43","1668","2","""event"",""trial"",""time""
""focus"",""0"",""0""
""fullscreenenter"",""1"",""2929""
","
","""event"",""trial"",""time""
""focus"",""0"",""0""
","""event"",""trial"",""time""
""fullscreenenter"",""1"",""2929""
","
","","","","","","null","<div style=""font-size:60px;"">+</div>","null","","fixation","","","","","","","","",""
"memory-trial","129","418937","0.0-15.0-1.43","1668","2","""event"",""trial"",""time""
""focus"",""0"",""0""
""fullscreenenter"",""1"",""2929""
","
","""event"",""trial"",""time""
""focus"",""0"",""0""
","""event"",""trial"",""time""
""fullscreenenter"",""1"",""2929""
","
","","","","","","877","images/bush5.png","","","memory_trial","1","definitely_old","","","","","","",""
"html-keyboard-response","130","419457","0.0-15.0-0.44","1668","2","""event"",""trial"",""time""
""focus"",""0"",""0""
""fullscreenenter"",""1"",""2929""
","
","""event"",""trial"",""time""
""focus"",""0"",""0""
","""event"",""trial"",""time""
""fullscreenenter"",""1"",""2929""
","
","","","","","","null","<div style=""font-size:60px;"">+</div>","null","","fixation","","","","","","","","",""
"memory-trial","131","421977","0.0-15.0-1.44","1668","2","""event"",""trial"",""time""
""focus"",""0"",""0""
""fullscreenenter"",""1"",""2929""
","
","""event"",""trial"",""time""
""focus"",""0"",""0""
","""event"",""trial"",""time""
""fullscreenenter"",""1"",""2929""
","
","","","","","","1518","images/banana2.png","","","memory_trial","4","definitely_new","","","","","","",""
"html-keyboard-response","132","422497","0.0-15.0-0.45","1668","2","""event"",""trial"",""time""
""focus"",""0"",""0""
""fullscreenenter"",""1"",""2929""
","
","""event"",""trial"",""time""
""focus"",""0"",""0""
","""event"",""trial"",""time""
""fullscreenenter"",""1"",""2929""
","
","","","","","","null","<div style=""font-size:60px;"">+</div>","null","","fixation","","","","","","","","",""
"memory-trial","133","424334","0.0-15.0-1.45","1668","2","""event"",""trial"",""time""
""focus"",""0"",""0""
""fullscreenenter"",""1"",""2929""
","
","""event"",""trial"",""time""
""focus"",""0"",""0""
","""event"",""trial"",""time""
""fullscreenenter"",""1"",""2929""
","
","","","","","","825","images/chair4.png","","","memory_trial","1","definitely_old","","","","","","",""
"html-keyboard-response","134","424848","0.0-15.0-0.46","1668","2","""event"",""trial"",""time""
""focus"",""0"",""0""
""fullscreenenter"",""1"",""2929""
","
","""event"",""trial"",""time""
""focus"",""0"",""0""
","""event"",""trial"",""time""
""fullscreenenter"",""1"",""2929""
","
","","","","","","null","<div style=""font-size:60px;"">+</div>","null","","fixation","","","","","","","","",""
"memory-trial","135","427434","0.0-15.0-1.46","1668","2","""event"",""trial"",""time""
""focus"",""0"",""0""
""fullscreenenter"",""1"",""2929""
","
","""event"",""trial"",""time""
""focus"",""0"",""0""
","""event"",""trial"",""time""
""fullscreenenter"",""1"",""2929""
","
","","","","","","1575","images/train5.png","","","memory_trial","4","definitely_new","","","","","","",""
"html-button-response","136","429878","0.0-15.0-2.46-0.46","1668","2","""event"",""trial"",""time""
""focus"",""0"",""0""
""fullscreenenter"",""1"",""2929""
","
","""event"",""trial"",""time""
""focus"",""0"",""0""
","""event"",""trial"",""time""
""fullscreenenter"",""1"",""2929""
","
","","","","","","2443","<p> Take a break! </p><p> Click the button to continue. </p>","0","","break","","","","","","","","",""
"html-keyboard-response","137","430397","0.0-15.0-0.47","1668","2","""event"",""trial"",""time""
""focus"",""0"",""0""
""fullscreenenter"",""1"",""2929""
","
","""event"",""trial"",""time""
""focus"",""0"",""0""
","""event"",""trial"",""time""
""fullscreenenter"",""1"",""2929""
","
","","","","","","null","<div style=""font-size:60px;"">+</div>","null","","fixation","","","","","","","","",""
"memory-trial","138","432661","0.0-15.0-1.47","1668","2","""event"",""trial"",""time""
""focus"",""0"",""0""
""fullscreenenter"",""1"",""2929""
","
","""event"",""trial"",""time""
""focus"",""0"",""0""
","""event"",""trial"",""time""
""fullscreenenter"",""1"",""2929""
","
","","","","","","1254","images/dog2.png","","","memory_trial","1","definitely_old","","","","","","",""
"html-keyboard-response","139","433177","0.0-15.0-0.48","1668","2","""event"",""trial"",""time""
""focus"",""0"",""0""
""fullscreenenter"",""1"",""2929""
","
","""event"",""trial"",""time""
""focus"",""0"",""0""
","""event"",""trial"",""time""
""fullscreenenter"",""1"",""2929""
","
","","","","","","null","<div style=""font-size:60px;"">+</div>","null","","fixation","","","","","","","","",""
"memory-trial","140","437307","0.0-15.0-1.48","1668","2","""event"",""trial"",""time""
""focus"",""0"",""0""
""fullscreenenter"",""1"",""2929""
","
","""event"",""trial"",""time""
""focus"",""0"",""0""
","""event"",""trial"",""time""
""fullscreenenter"",""1"",""2929""
","
","","","","","","3112","images/flower1.png","","","memory_trial","3","maybe_new","","","","","","",""
"html-keyboard-response","141","437826","0.0-15.0-0.49","1668","2","""event"",""trial"",""time""
""focus"",""0"",""0""
""fullscreenenter"",""1"",""2929""
","
","""event"",""trial"",""time""
""focus"",""0"",""0""
","""event"",""trial"",""time""
""fullscreenenter"",""1"",""2929""
","
","","","","","","null","<div style=""font-size:60px;"">+</div>","null","","fixation","","","","","","","","",""
"memory-trial","142","442697","0.0-15.0-1.49","1668","2","""event"",""trial"",""time""
""focus"",""0"",""0""
""fullscreenenter"",""1"",""2929""
","
","""event"",""trial"",""time""
""focus"",""0"",""0""
","""event"",""trial"",""time""
""fullscreenenter"",""1"",""2929""
","
","","","","","","3850","images/bed1.png","","","memory_trial","3","maybe_new","","","","","","",""
"html-keyboard-response","143","443217","0.0-15.0-0.50","1668","2","""event"",""trial"",""time""
""focus"",""0"",""0""
""fullscreenenter"",""1"",""2929""
","
","""event"",""trial"",""time""
""focus"",""0"",""0""
","""event"",""trial"",""time""
""fullscreenenter"",""1"",""2929""
","
","","","","","","null","<div style=""font-size:60px;"">+</div>","null","","fixation","","","","","","","","",""
"memory-trial","144","445657","0.0-15.0-1.50","1668","2","""event"",""trial"",""time""
""focus"",""0"",""0""
""fullscreenenter"",""1"",""2929""
","
","""event"",""trial"",""time""
""focus"",""0"",""0""
","""event"",""trial"",""time""
""fullscreenenter"",""1"",""2929""
","
","","","","","","1439","images/orange5.png","","","memory_trial","1","definitely_old","","","","","","",""
"html-keyboard-response","145","446177","0.0-15.0-0.51","1668","2","""event"",""trial"",""time""
""focus"",""0"",""0""
""fullscreenenter"",""1"",""2929""
","
","""event"",""trial"",""time""
""focus"",""0"",""0""
","""event"",""trial"",""time""
""fullscreenenter"",""1"",""2929""
","
","","","","","","null","<div style=""font-size:60px;"">+</div>","null","","fixation","","","","","","","","",""
"memory-trial","146","447927","0.0-15.0-1.51","1668","2","""event"",""trial"",""time""
""focus"",""0"",""0""
""fullscreenenter"",""1"",""2929""
","
","""event"",""trial"",""time""
""focus"",""0"",""0""
","""event"",""trial"",""time""
""fullscreenenter"",""1"",""2929""
","
","","","","","","738","images/rabbit2.png","","","memory_trial","1","definitely_old","","","","","","",""
"html-keyboard-response","147","448447","0.0-15.0-0.52","1668","2","""event"",""trial"",""time""
""focus"",""0"",""0""
""fullscreenenter"",""1"",""2929""
","
","""event"",""trial"",""time""
""focus"",""0"",""0""
","""event"",""trial"",""time""
""fullscreenenter"",""1"",""2929""
","
","","","","","","null","<div style=""font-size:60px;"">+</div>","null","","fixation","","","","","","","","",""
"memory-trial","148","450548","0.0-15.0-1.52","1668","2","""event"",""trial"",""time""
""focus"",""0"",""0""
""fullscreenenter"",""1"",""2929""
","
","""event"",""trial"",""time""
""focus"",""0"",""0""
","""event"",""trial"",""time""
""fullscreenenter"",""1"",""2929""
","
","","","","","","1088","images/rabbit3.png","","","memory_trial","1","definitely_old","","","","","","",""
"html-keyboard-response","149","451057","0.0-15.0-0.53","1668","2","""event"",""trial"",""time""
""focus"",""0"",""0""
""fullscreenenter"",""1"",""2929""
","
","""event"",""trial"",""time""
""focus"",""0"",""0""
","""event"",""trial"",""time""
""fullscreenenter"",""1"",""2929""
","
","","","","","","null","<div style=""font-size:60px;"">+</div>","null","","fixation","","","","","","","","",""
"memory-trial","150","453557","0.0-15.0-1.53","1668","2","""event"",""trial"",""time""
""focus"",""0"",""0""
""fullscreenenter"",""1"",""2929""
","
","""event"",""trial"",""time""
""focus"",""0"",""0""
","""event"",""trial"",""time""
""fullscreenenter"",""1"",""2929""
","
","","","","","","1498","images/table2.png","","","memory_trial","4","definitely_new","","","","","","",""
"html-keyboard-response","151","454077","0.0-15.0-0.54","1668","2","""event"",""trial"",""time""
""focus"",""0"",""0""
""fullscreenenter"",""1"",""2929""
","
","""event"",""trial"",""time""
""focus"",""0"",""0""
","""event"",""trial"",""time""
""fullscreenenter"",""1"",""2929""
","
","","","","","","null","<div style=""font-size:60px;"">+</div>","null","","fixation","","","","","","","","",""
"memory-trial","152","456217","0.0-15.0-1.54","1668","2","""event"",""trial"",""time""
""focus"",""0"",""0""
""fullscreenenter"",""1"",""2929""
","
","""event"",""trial"",""time""
""focus"",""0"",""0""
","""event"",""trial"",""time""
""fullscreenenter"",""1"",""2929""
","
","","","","","","1125","images/feline1.png","","","memory_trial","1","definitely_old","","","","","","",""
"html-keyboard-response","153","456737","0.0-15.0-0.55","1668","2","""event"",""trial"",""time""
""focus"",""0"",""0""
""fullscreenenter"",""1"",""2929""
","
","""event"",""trial"",""time""
""focus"",""0"",""0""
","""event"",""trial"",""time""
""fullscreenenter"",""1"",""2929""
","
","","","","","","null","<div style=""font-size:60px;"">+</div>","null","","fixation","","","","","","","","",""
"memory-trial","154","458757","0.0-15.0-1.55","1668","2","""event"",""trial"",""time""
""focus"",""0"",""0""
""fullscreenenter"",""1"",""2929""
","
","""event"",""trial"",""time""
""focus"",""0"",""0""
","""event"",""trial"",""time""
""fullscreenenter"",""1"",""2929""
","
","","","","","","1014","images/truck2.png","","","memory_trial","1","definitely_old","","","","","","",""
"html-keyboard-response","155","459267","0.0-15.0-0.56","1668","2","""event"",""trial"",""time""
""focus"",""0"",""0""
""fullscreenenter"",""1"",""2929""
","
","""event"",""trial"",""time""
""focus"",""0"",""0""
","""event"",""trial"",""time""
""fullscreenenter"",""1"",""2929""
","
","","","","","","null","<div style=""font-size:60px;"">+</div>","null","","fixation","","","","","","","","",""
"memory-trial","156","461187","0.0-15.0-1.56","1668","2","""event"",""trial"",""time""
""focus"",""0"",""0""
""fullscreenenter"",""1"",""2929""
","
","""event"",""trial"",""time""
""focus"",""0"",""0""
","""event"",""trial"",""time""
""fullscreenenter"",""1"",""2929""
","
","","","","","","915","images/tree5.png","","","memory_trial","1","definitely_old","","","","","","",""
"html-keyboard-response","157","461707","0.0-15.0-0.57","1668","2","""event"",""trial"",""time""
""focus"",""0"",""0""
""fullscreenenter"",""1"",""2929""
","
","""event"",""trial"",""time""
""focus"",""0"",""0""
","""event"",""trial"",""time""
""fullscreenenter"",""1"",""2929""
","
","","","","","","null","<div style=""font-size:60px;"">+</div>","null","","fixation","","","","","","","","",""
"memory-trial","158","463467","0.0-15.0-1.57","1668","2","""event"",""trial"",""time""
""focus"",""0"",""0""
""fullscreenenter"",""1"",""2929""
","
","""event"",""trial"",""time""
""focus"",""0"",""0""
","""event"",""trial"",""time""
""fullscreenenter"",""1"",""2929""
","
","","","","","","752","images/chair3.png","","","memory_trial","1","definitely_old","","","","","","",""
"html-keyboard-response","159","463977","0.0-15.0-0.58","1668","2","""event"",""trial"",""time""
""focus"",""0"",""0""
""fullscreenenter"",""1"",""2929""
","
","""event"",""trial"",""time""
""focus"",""0"",""0""
","""event"",""trial"",""time""
""fullscreenenter"",""1"",""2929""
","
","","","","","","null","<div style=""font-size:60px;"">+</div>","null","","fixation","","","","","","","","",""
"memory-trial","160","467497","0.0-15.0-1.58","1668","2","""event"",""trial"",""time""
""focus"",""0"",""0""
""fullscreenenter"",""1"",""2929""
","
","""event"",""trial"",""time""
""focus"",""0"",""0""
","""event"",""trial"",""time""
""fullscreenenter"",""1"",""2929""
","
","","","","","","2502","images/chair2.png","","","memory_trial","3","maybe_new","","","","","","",""
"html-keyboard-response","161","468017","0.0-15.0-0.59","1668","2","""event"",""trial"",""time""
""focus"",""0"",""0""
""fullscreenenter"",""1"",""2929""
","
","""event"",""trial"",""time""
""focus"",""0"",""0""
","""event"",""trial"",""time""
""fullscreenenter"",""1"",""2929""
","
","","","","","","null","<div style=""font-size:60px;"">+</div>","null","","fixation","","","","","","","","",""
"memory-trial","162","470207","0.0-15.0-1.59","1668","2","""event"",""trial"",""time""
""focus"",""0"",""0""
""fullscreenenter"",""1"",""2929""
","
","""event"",""trial"",""time""
""focus"",""0"",""0""
","""event"",""trial"",""time""
""fullscreenenter"",""1"",""2929""
","
","","","","","","1175","images/tree4.png","","","memory_trial","4","definitely_new","","","","","","",""
"html-keyboard-response","163","470727","0.0-15.0-0.60","1668","2","""event"",""trial"",""time""
""focus"",""0"",""0""
""fullscreenenter"",""1"",""2929""
","
","""event"",""trial"",""time""
""focus"",""0"",""0""
","""event"",""trial"",""time""
""fullscreenenter"",""1"",""2929""
","
","","","","","","null","<div style=""font-size:60px;"">+</div>","null","","fixation","","","","","","","","",""
"memory-trial","164","473567","0.0-15.0-1.60","1668","2","""event"",""trial"",""time""
""focus"",""0"",""0""
""fullscreenenter"",""1"",""2929""
","
","""event"",""trial"",""time""
""focus"",""0"",""0""
","""event"",""trial"",""time""
""fullscreenenter"",""1"",""2929""
","
","","","","","","1821","images/cactus3.png","","","memory_trial","4","definitely_new","","","","","","",""
"html-keyboard-response","165","474087","0.0-15.0-0.61","1668","2","""event"",""trial"",""time""
""focus"",""0"",""0""
""fullscreenenter"",""1"",""2929""
","
","""event"",""trial"",""time""
""focus"",""0"",""0""
","""event"",""trial"",""time""
""fullscreenenter"",""1"",""2929""
","
","","","","","","null","<div style=""font-size:60px;"">+</div>","null","","fixation","","","","","","","","",""
"memory-trial","166","476697","0.0-15.0-1.61","1668","2","""event"",""trial"",""time""
""focus"",""0"",""0""
""fullscreenenter"",""1"",""2929""
","
","""event"",""trial"",""time""
""focus"",""0"",""0""
","""event"",""trial"",""time""
""fullscreenenter"",""1"",""2929""
","
","","","","","","1591","images/orange1.png","","","memory_trial","1","definitely_old","","","","","","",""
"html-keyboard-response","167","477207","0.0-15.0-0.62","1668","2","""event"",""trial"",""time""
""focus"",""0"",""0""
""fullscreenenter"",""1"",""2929""
","
","""event"",""trial"",""time""
""focus"",""0"",""0""
","""event"",""trial"",""time""
""fullscreenenter"",""1"",""2929""
","
","","","","","","null","<div style=""font-size:60px;"">+</div>","null","","fixation","","","","","","","","",""
"memory-trial","168","479797","0.0-15.0-1.62","1668","2","""event"",""trial"",""time""
""focus"",""0"",""0""
""fullscreenenter"",""1"",""2929""
","
","""event"",""trial"",""time""
""focus"",""0"",""0""
","""event"",""trial"",""time""
""fullscreenenter"",""1"",""2929""
","
","","","","","","1586","images/train1.png","","","memory_trial","4","definitely_new","","","","","","",""
"html-keyboard-response","169","480317","0.0-15.0-0.63","1668","2","""event"",""trial"",""time""
""focus"",""0"",""0""
""fullscreenenter"",""1"",""2929""
","
","""event"",""trial"",""time""
""focus"",""0"",""0""
","""event"",""trial"",""time""
""fullscreenenter"",""1"",""2929""
","
","","","","","","null","<div style=""font-size:60px;"">+</div>","null","","fixation","","","","","","","","",""
"memory-trial","170","483187","0.0-15.0-1.63","1668","2","""event"",""trial"",""time""
""focus"",""0"",""0""
""fullscreenenter"",""1"",""2929""
","
","""event"",""trial"",""time""
""focus"",""0"",""0""
","""event"",""trial"",""time""
""fullscreenenter"",""1"",""2929""
","
","","","","","","1858","images/rodent3.png","","","memory_trial","4","definitely_new","","","","","","",""
"html-keyboard-response","171","483707","0.0-15.0-0.64","1668","2","""event"",""trial"",""time""
""focus"",""0"",""0""
""fullscreenenter"",""1"",""2929""
","
","""event"",""trial"",""time""
""focus"",""0"",""0""
","""event"",""trial"",""time""
""fullscreenenter"",""1"",""2929""
","
","","","","","","null","<div style=""font-size:60px;"">+</div>","null","","fixation","","","","","","","","",""
"memory-trial","172","488297","0.0-15.0-1.64","1668","2","""event"",""trial"",""time""
""focus"",""0"",""0""
""fullscreenenter"",""1"",""2929""
","
","""event"",""trial"",""time""
""focus"",""0"",""0""
","""event"",""trial"",""time""
""fullscreenenter"",""1"",""2929""
","
","","","","","","3577","images/bush2.png","","","memory_trial","2","maybe_old","","","","","","",""
"html-keyboard-response","173","488817","0.0-15.0-0.65","1668","2","""event"",""trial"",""time""
""focus"",""0"",""0""
""fullscreenenter"",""1"",""2929""
","
","""event"",""trial"",""time""
""focus"",""0"",""0""
","""event"",""trial"",""time""
""fullscreenenter"",""1"",""2929""
","
","","","","","","null","<div style=""font-size:60px;"">+</div>","null","","fixation","","","","","","","","",""
"memory-trial","174","493427","0.0-15.0-1.65","1668","2","""event"",""trial"",""time""
""focus"",""0"",""0""
""fullscreenenter"",""1"",""2929""
","
","""event"",""trial"",""time""
""focus"",""0"",""0""
","""event"",""trial"",""time""
""fullscreenenter"",""1"",""2929""
","
","","","","","","3594","images/orange2.png","","","memory_trial","3","maybe_new","","","","","","",""
"html-keyboard-response","175","493947","0.0-15.0-0.66","1668","2","""event"",""trial"",""time""
""focus"",""0"",""0""
""fullscreenenter"",""1"",""2929""
","
","""event"",""trial"",""time""
""focus"",""0"",""0""
","""event"",""trial"",""time""
""fullscreenenter"",""1"",""2929""
","
","","","","","","null","<div style=""font-size:60px;"">+</div>","null","","fixation","","","","","","","","",""
"memory-trial","176","497167","0.0-15.0-1.66","1668","2","""event"",""trial"",""time""
""focus"",""0"",""0""
""fullscreenenter"",""1"",""2929""
","
","""event"",""trial"",""time""
""focus"",""0"",""0""
","""event"",""trial"",""time""
""fullscreenenter"",""1"",""2929""
","
","","","","","","2211","images/table1.png","","","memory_trial","4","definitely_new","","","","","","",""
"html-keyboard-response","177","497687","0.0-15.0-0.67","1668","2","""event"",""trial"",""time""
""focus"",""0"",""0""
""fullscreenenter"",""1"",""2929""
","
","""event"",""trial"",""time""
""focus"",""0"",""0""
","""event"",""trial"",""time""
""fullscreenenter"",""1"",""2929""
","
","","","","","","null","<div style=""font-size:60px;"">+</div>","null","","fixation","","","","","","","","",""
"memory-trial","178","501878","0.0-15.0-1.67","1668","2","""event"",""trial"",""time""
""focus"",""0"",""0""
""fullscreenenter"",""1"",""2929""
","
","""event"",""trial"",""time""
""focus"",""0"",""0""
","""event"",""trial"",""time""
""fullscreenenter"",""1"",""2929""
","
","","","","","","3186","images/sofa3.png","","","memory_trial","4","definitely_new","","","","","","",""
"html-keyboard-response","179","502398","0.0-15.0-0.68","1668","2","""event"",""trial"",""time""
""focus"",""0"",""0""
""fullscreenenter"",""1"",""2929""
","
","""event"",""trial"",""time""
""focus"",""0"",""0""
","""event"",""trial"",""time""
""fullscreenenter"",""1"",""2929""
","
","","","","","","null","<div style=""font-size:60px;"">+</div>","null","","fixation","","","","","","","","",""
"memory-trial","180","504727","0.0-15.0-1.68","1668","2","""event"",""trial"",""time""
""focus"",""0"",""0""
""fullscreenenter"",""1"",""2929""
","
","""event"",""trial"",""time""
""focus"",""0"",""0""
","""event"",""trial"",""time""
""fullscreenenter"",""1"",""2929""
","
","","","","","","1325","images/apple5.png","","","memory_trial","4","definitely_new","","","","","","",""
"html-keyboard-response","181","505228","0.0-15.0-0.69","1668","2","""event"",""trial"",""time""
""focus"",""0"",""0""
""fullscreenenter"",""1"",""2929""
","
","""event"",""trial"",""time""
""focus"",""0"",""0""
","""event"",""trial"",""time""
""fullscreenenter"",""1"",""2929""
","
","","","","","","null","<div style=""font-size:60px;"">+</div>","null","","fixation","","","","","","","","",""
"memory-trial","182","509397","0.0-15.0-1.69","1668","2","""event"",""trial"",""time""
""focus"",""0"",""0""
""fullscreenenter"",""1"",""2929""
","
","""event"",""trial"",""time""
""focus"",""0"",""0""
","""event"",""trial"",""time""
""fullscreenenter"",""1"",""2929""
","
","","","","","","3161","images/cow1.png","","","memory_trial","1","definitely_old","","","","","","",""
"html-keyboard-response","183","509917","0.0-15.0-0.70","1668","2","""event"",""trial"",""time""
""focus"",""0"",""0""
""fullscreenenter"",""1"",""2929""
","
","""event"",""trial"",""time""
""focus"",""0"",""0""
","""event"",""trial"",""time""
""fullscreenenter"",""1"",""2929""
","
","","","","","","null","<div style=""font-size:60px;"">+</div>","null","","fixation","","","","","","","","",""
"memory-trial","184","513885","0.0-15.0-1.70","1668","2","""event"",""trial"",""time""
""focus"",""0"",""0""
""fullscreenenter"",""1"",""2929""
","
","""event"",""trial"",""time""
""focus"",""0"",""0""
","""event"",""trial"",""time""
""fullscreenenter"",""1"",""2929""
","
","","","","","","2954","images/sofa1.png","","","memory_trial","4","definitely_new","","","","","","",""
"html-keyboard-response","185","514386","0.0-15.0-0.71","1668","2","""event"",""trial"",""time""
""focus"",""0"",""0""
""fullscreenenter"",""1"",""2929""
","
","""event"",""trial"",""time""
""focus"",""0"",""0""
","""event"",""trial"",""time""
""fullscreenenter"",""1"",""2929""
","
","","","","","","null","<div style=""font-size:60px;"">+</div>","null","","fixation","","","","","","","","",""
"memory-trial","186","516687","0.0-15.0-1.71","1668","2","""event"",""trial"",""time""
""focus"",""0"",""0""
""fullscreenenter"",""1"",""2929""
","
","""event"",""trial"",""time""
""focus"",""0"",""0""
","""event"",""trial"",""time""
""fullscreenenter"",""1"",""2929""
","
","","","","","","1292","images/flower2.png","","","memory_trial","4","definitely_new","","","","","","",""
"html-keyboard-response","187","517207","0.0-15.0-0.72","1668","2","""event"",""trial"",""time""
""focus"",""0"",""0""
""fullscreenenter"",""1"",""2929""
","
","""event"",""trial"",""time""
""focus"",""0"",""0""
","""event"",""trial"",""time""
""fullscreenenter"",""1"",""2929""
","
","","","","","","null","<div style=""font-size:60px;"">+</div>","null","","fixation","","","","","","","","",""
"memory-trial","188","519328","0.0-15.0-1.72","1668","2","""event"",""trial"",""time""
""focus"",""0"",""0""
""fullscreenenter"",""1"",""2929""
","
","""event"",""trial"",""time""
""focus"",""0"",""0""
","""event"",""trial"",""time""
""fullscreenenter"",""1"",""2929""
","
","","","","","","1108","images/cactus4.png","","","memory_trial","1","definitely_old","","","","","","",""
"html-keyboard-response","189","519837","0.0-15.0-0.73","1668","2","""event"",""trial"",""time""
""focus"",""0"",""0""
""fullscreenenter"",""1"",""2929""
","
","""event"",""trial"",""time""
""focus"",""0"",""0""
","""event"",""trial"",""time""
""fullscreenenter"",""1"",""2929""
","
","","","","","","null","<div style=""font-size:60px;"">+</div>","null","","fixation","","","","","","","","",""
"memory-trial","190","521798","0.0-15.0-1.73","1668","2","""event"",""trial"",""time""
""focus"",""0"",""0""
""fullscreenenter"",""1"",""2929""
","
","""event"",""trial"",""time""
""focus"",""0"",""0""
","""event"",""trial"",""time""
""fullscreenenter"",""1"",""2929""
","
","","","","","","949","images/bed3.png","","","memory_trial","1","definitely_old","","","","","","",""
"html-keyboard-response","191","522317","0.0-15.0-0.74","1668","2","""event"",""trial"",""time""
""focus"",""0"",""0""
""fullscreenenter"",""1"",""2929""
","
","""event"",""trial"",""time""
""focus"",""0"",""0""
","""event"",""trial"",""time""
""fullscreenenter"",""1"",""2929""
","
","","","","","","null","<div style=""font-size:60px;"">+</div>","null","","fixation","","","","","","","","",""
"memory-trial","192","526427","0.0-15.0-1.74","1668","2","""event"",""trial"",""time""
""focus"",""0"",""0""
""fullscreenenter"",""1"",""2929""
","
","""event"",""trial"",""time""
""focus"",""0"",""0""
","""event"",""trial"",""time""
""fullscreenenter"",""1"",""2929""
","
","","","","","","3100","images/bed5.png","","","memory_trial","4","definitely_new","","","","","","",""
"html-keyboard-response","193","526947","0.0-15.0-0.75","1668","2","""event"",""trial"",""time""
""focus"",""0"",""0""
""fullscreenenter"",""1"",""2929""
","
","""event"",""trial"",""time""
""focus"",""0"",""0""
","""event"",""trial"",""time""
""fullscreenenter"",""1"",""2929""
","
","","","","","","null","<div style=""font-size:60px;"">+</div>","null","","fixation","","","","","","","","",""
"memory-trial","194","528728","0.0-15.0-1.75","1668","2","""event"",""trial"",""time""
""focus"",""0"",""0""
""fullscreenenter"",""1"",""2929""
","
","""event"",""trial"",""time""
""focus"",""0"",""0""
","""event"",""trial"",""time""
""fullscreenenter"",""1"",""2929""
","
","","","","","","779","images/dog3.png","","","memory_trial","1","definitely_old","","","","","","",""
"html-keyboard-response","195","529237","0.0-15.0-0.76","1668","2","""event"",""trial"",""time""
""focus"",""0"",""0""
""fullscreenenter"",""1"",""2929""
","
","""event"",""trial"",""time""
""focus"",""0"",""0""
","""event"",""trial"",""time""
""fullscreenenter"",""1"",""2929""
","
","","","","","","null","<div style=""font-size:60px;"">+</div>","null","","fixation","","","","","","","","",""
"memory-trial","196","533337","0.0-15.0-1.76","1668","2","""event"",""trial"",""time""
""focus"",""0"",""0""
""fullscreenenter"",""1"",""2929""
","
","""event"",""trial"",""time""
""focus"",""0"",""0""
","""event"",""trial"",""time""
""fullscreenenter"",""1"",""2929""
","
","","","","","","3086","images/horse3.png","","","memory_trial","3","maybe_new","","","","","","",""
"html-keyboard-response","197","533857","0.0-15.0-0.77","1668","2","""event"",""trial"",""time""
""focus"",""0"",""0""
""fullscreenenter"",""1"",""2929""
","
","""event"",""trial"",""time""
""focus"",""0"",""0""
","""event"",""trial"",""time""
""fullscreenenter"",""1"",""2929""
","
","","","","","","null","<div style=""font-size:60px;"">+</div>","null","","fixation","","","","","","","","",""
"memory-trial","198","535737","0.0-15.0-1.77","1668","2","""event"",""trial"",""time""
""focus"",""0"",""0""
""fullscreenenter"",""1"",""2929""
","
","""event"",""trial"",""time""
""focus"",""0"",""0""
","""event"",""trial"",""time""
""fullscreenenter"",""1"",""2929""
","
","","","","","","875","images/bed2.png","","","memory_trial","1","definitely_old","","","","","","",""
"html-keyboard-response","199","536248","0.0-15.0-0.78","1668","2","""event"",""trial"",""time""
""focus"",""0"",""0""
""fullscreenenter"",""1"",""2929""
","
","""event"",""trial"",""time""
""focus"",""0"",""0""
","""event"",""trial"",""time""
""fullscreenenter"",""1"",""2929""
","
","","","","","","null","<div style=""font-size:60px;"">+</div>","null","","fixation","","","","","","","","",""
"memory-trial","200","538608","0.0-15.0-1.78","1668","2","""event"",""trial"",""time""
""focus"",""0"",""0""
""fullscreenenter"",""1"",""2929""
","
","""event"",""trial"",""time""
""focus"",""0"",""0""
","""event"",""trial"",""time""
""fullscreenenter"",""1"",""2929""
","
","","","","","","1358","images/dog5.png","","","memory_trial","4","definitely_new","","","","","","",""
"html-keyboard-response","201","539127","0.0-15.0-0.79","1668","2","""event"",""trial"",""time""
""focus"",""0"",""0""
""fullscreenenter"",""1"",""2929""
","
","""event"",""trial"",""time""
""focus"",""0"",""0""
","""event"",""trial"",""time""
""fullscreenenter"",""1"",""2929""
","
","","","","","","null","<div style=""font-size:60px;"">+</div>","null","","fixation","","","","","","","","",""
"memory-trial","202","541287","0.0-15.0-1.79","1668","2","""event"",""trial"",""time""
""focus"",""0"",""0""
""fullscreenenter"",""1"",""2929""
","
","""event"",""trial"",""time""
""focus"",""0"",""0""
","""event"",""trial"",""time""
""fullscreenenter"",""1"",""2929""
","
","","","","","","1145","images/bush3.png","","","memory_trial","1","definitely_old","","","","","","",""
"html-keyboard-response","203","541798","0.0-15.0-0.80","1668","2","""event"",""trial"",""time""
""focus"",""0"",""0""
""fullscreenenter"",""1"",""2929""
","
","""event"",""trial"",""time""
""focus"",""0"",""0""
","""event"",""trial"",""time""
""fullscreenenter"",""1"",""2929""
","
","","","","","","null","<div style=""font-size:60px;"">+</div>","null","","fixation","","","","","","","","",""
"memory-trial","204","544157","0.0-15.0-1.80","1668","2","""event"",""trial"",""time""
""focus"",""0"",""0""
""fullscreenenter"",""1"",""2929""
","
","""event"",""trial"",""time""
""focus"",""0"",""0""
","""event"",""trial"",""time""
""fullscreenenter"",""1"",""2929""
","
","","","","","","1354","images/cactus2.png","","","memory_trial","1","definitely_old","","","","","","",""
"html-keyboard-response","205","544677","0.0-15.0-0.81","1668","2","""event"",""trial"",""time""
""focus"",""0"",""0""
""fullscreenenter"",""1"",""2929""
","
","""event"",""trial"",""time""
""focus"",""0"",""0""
","""event"",""trial"",""time""
""fullscreenenter"",""1"",""2929""
","
","","","","","","null","<div style=""font-size:60px;"">+</div>","null","","fixation","","","","","","","","",""
"memory-trial","206","546707","0.0-15.0-1.81","1668","2","""event"",""trial"",""time""
""focus"",""0"",""0""
""fullscreenenter"",""1"",""2929""
","
","""event"",""trial"",""time""
""focus"",""0"",""0""
","""event"",""trial"",""time""
""fullscreenenter"",""1"",""2929""
","
","","","","","","1026","images/train2.png","","","memory_trial","4","definitely_new","","","","","","",""
"html-keyboard-response","207","547227","0.0-15.0-0.82","1668","2","""event"",""trial"",""time""
""focus"",""0"",""0""
""fullscreenenter"",""1"",""2929""
","
","""event"",""trial"",""time""
""focus"",""0"",""0""
","""event"",""trial"",""time""
""fullscreenenter"",""1"",""2929""
","
","","","","","","null","<div style=""font-size:60px;"">+</div>","null","","fixation","","","","","","","","",""
"memory-trial","208","549947","0.0-15.0-1.82","1668","2","""event"",""trial"",""time""
""focus"",""0"",""0""
""fullscreenenter"",""1"",""2929""
","
","""event"",""trial"",""time""
""focus"",""0"",""0""
","""event"",""trial"",""time""
""fullscreenenter"",""1"",""2929""
","
","","","","","","1701","images/bush1.png","","","memory_trial","4","definitely_new","","","","","","",""
"html-keyboard-response","209","550467","0.0-15.0-0.83","1668","2","""event"",""trial"",""time""
""focus"",""0"",""0""
""fullscreenenter"",""1"",""2929""
","
","""event"",""trial"",""time""
""focus"",""0"",""0""
","""event"",""trial"",""time""
""fullscreenenter"",""1"",""2929""
","
","","","","","","null","<div style=""font-size:60px;"">+</div>","null","","fixation","","","","","","","","",""
"memory-trial","210","552672","0.0-15.0-1.83","1668","2","""event"",""trial"",""time""
""focus"",""0"",""0""
""fullscreenenter"",""1"",""2929""
","
","""event"",""trial"",""time""
""focus"",""0"",""0""
","""event"",""trial"",""time""
""fullscreenenter"",""1"",""2929""
","
","","","","","","1205","images/cow3.png","","","memory_trial","4","definitely_new","","","","","","",""
"html-keyboard-response","211","553177","0.0-15.0-0.84","1668","2","""event"",""trial"",""time""
""focus"",""0"",""0""
""fullscreenenter"",""1"",""2929""
","
","""event"",""trial"",""time""
""focus"",""0"",""0""
","""event"",""trial"",""time""
""fullscreenenter"",""1"",""2929""
","
","","","","","","null","<div style=""font-size:60px;"">+</div>","null","","fixation","","","","","","","","",""
"memory-trial","212","555017","0.0-15.0-1.84","1668","2","""event"",""trial"",""time""
""focus"",""0"",""0""
""fullscreenenter"",""1"",""2929""
","
","""event"",""trial"",""time""
""focus"",""0"",""0""
","""event"",""trial"",""time""
""fullscreenenter"",""1"",""2929""
","
","","","","","","836","images/train4.png","","","memory_trial","4","definitely_new","","","","","","",""
"html-keyboard-response","213","555537","0.0-15.0-0.85","1668","2","""event"",""trial"",""time""
""focus"",""0"",""0""
""fullscreenenter"",""1"",""2929""
","
","""event"",""trial"",""time""
""focus"",""0"",""0""
","""event"",""trial"",""time""
""fullscreenenter"",""1"",""2929""
","
","","","","","","null","<div style=""font-size:60px;"">+</div>","null","","fixation","","","","","","","","",""
"memory-trial","214","557947","0.0-15.0-1.85","1668","2","""event"",""trial"",""time""
""focus"",""0"",""0""
""fullscreenenter"",""1"",""2929""
","
","""event"",""trial"",""time""
""focus"",""0"",""0""
","""event"",""trial"",""time""
""fullscreenenter"",""1"",""2929""
","
","","","","","","1403","images/rabbit4.png","","","memory_trial","1","definitely_old","","","","","","",""
"html-keyboard-response","215","558466","0.0-15.0-0.86","1668","2","""event"",""trial"",""time""
""focus"",""0"",""0""
""fullscreenenter"",""1"",""2929""
","
","""event"",""trial"",""time""
""focus"",""0"",""0""
","""event"",""trial"",""time""
""fullscreenenter"",""1"",""2929""
","
","","","","","","null","<div style=""font-size:60px;"">+</div>","null","","fixation","","","","","","","","",""
"memory-trial","216","564017","0.0-15.0-1.86","1668","2","""event"",""trial"",""time""
""focus"",""0"",""0""
""fullscreenenter"",""1"",""2929""
","
","""event"",""trial"",""time""
""focus"",""0"",""0""
","""event"",""trial"",""time""
""fullscreenenter"",""1"",""2929""
","
","","","","","","4537","images/bed4.png","","","memory_trial","3","maybe_new","","","","","","",""
"html-keyboard-response","217","564537","0.0-15.0-0.87","1668","2","""event"",""trial"",""time""
""focus"",""0"",""0""
""fullscreenenter"",""1"",""2929""
","
","""event"",""trial"",""time""
""focus"",""0"",""0""
","""event"",""trial"",""time""
""fullscreenenter"",""1"",""2929""
","
","","","","","","null","<div style=""font-size:60px;"">+</div>","null","","fixation","","","","","","","","",""
"memory-trial","218","566917","0.0-15.0-1.87","1668","2","""event"",""trial"",""time""
""focus"",""0"",""0""
""fullscreenenter"",""1"",""2929""
","
","""event"",""trial"",""time""
""focus"",""0"",""0""
","""event"",""trial"",""time""
""fullscreenenter"",""1"",""2929""
","
","","","","","","1375","images/apple1.png","","","memory_trial","1","definitely_old","","","","","","",""
"html-keyboard-response","219","567437","0.0-15.0-0.88","1668","2","""event"",""trial"",""time""
""focus"",""0"",""0""
""fullscreenenter"",""1"",""2929""
","
","""event"",""trial"",""time""
""focus"",""0"",""0""
","""event"",""trial"",""time""
""fullscreenenter"",""1"",""2929""
","
","","","","","","null","<div style=""font-size:60px;"">+</div>","null","","fixation","","","","","","","","",""
"memory-trial","220","571067","0.0-15.0-1.88","1668","2","""event"",""trial"",""time""
""focus"",""0"",""0""
""fullscreenenter"",""1"",""2929""
","
","""event"",""trial"",""time""
""focus"",""0"",""0""
","""event"",""trial"",""time""
""fullscreenenter"",""1"",""2929""
","
","","","","","","2615","images/straw4.png","","","memory_trial","3","maybe_new","","","","","","",""
"html-keyboard-response","221","571587","0.0-15.0-0.89","1668","2","""event"",""trial"",""time""
""focus"",""0"",""0""
""fullscreenenter"",""1"",""2929""
","
","""event"",""trial"",""time""
""focus"",""0"",""0""
","""event"",""trial"",""time""
""fullscreenenter"",""1"",""2929""
","
","","","","","","null","<div style=""font-size:60px;"">+</div>","null","","fixation","","","","","","","","",""
"memory-trial","222","576298","0.0-15.0-1.89","1668","2","""event"",""trial"",""time""
""focus"",""0"",""0""
""fullscreenenter"",""1"",""2929""
","
","""event"",""trial"",""time""
""focus"",""0"",""0""
","""event"",""trial"",""time""
""fullscreenenter"",""1"",""2929""
","
","","","","","","3691","images/truck5.png","","","memory_trial","4","definitely_new","","","","","","",""
"html-keyboard-response","223","576817","0.0-15.0-0.90","1668","2","""event"",""trial"",""time""
""focus"",""0"",""0""
""fullscreenenter"",""1"",""2929""
","
","""event"",""trial"",""time""
""focus"",""0"",""0""
","""event"",""trial"",""time""
""fullscreenenter"",""1"",""2929""
","
","","","","","","null","<div style=""font-size:60px;"">+</div>","null","","fixation","","","","","","","","",""
"memory-trial","224","578857","0.0-15.0-1.90","1668","2","""event"",""trial"",""time""
""focus"",""0"",""0""
""fullscreenenter"",""1"",""2929""
","
","""event"",""trial"",""time""
""focus"",""0"",""0""
","""event"",""trial"",""time""
""fullscreenenter"",""1"",""2929""
","
","","","","","","1021","images/sheep3.png","","","memory_trial","1","definitely_old","","","","","","",""
"html-keyboard-response","225","579377","0.0-15.0-0.91","1668","2","""event"",""trial"",""time""
""focus"",""0"",""0""
""fullscreenenter"",""1"",""2929""
","
","""event"",""trial"",""time""
""focus"",""0"",""0""
","""event"",""trial"",""time""
""fullscreenenter"",""1"",""2929""
","
","","","","","","null","<div style=""font-size:60px;"">+</div>","null","","fixation","","","","","","","","",""
"memory-trial","226","582787","0.0-15.0-1.91","1668","2","""event"",""trial"",""time""
""focus"",""0"",""0""
""fullscreenenter"",""1"",""2929""
","
","""event"",""trial"",""time""
""focus"",""0"",""0""
","""event"",""trial"",""time""
""fullscreenenter"",""1"",""2929""
","
","","","","","","2398","images/sheep5.png","","","memory_trial","4","definitely_new","","","","","","",""
"html-keyboard-response","227","583296","0.0-15.0-0.92","1668","2","""event"",""trial"",""time""
""focus"",""0"",""0""
""fullscreenenter"",""1"",""2929""
","
","""event"",""trial"",""time""
""focus"",""0"",""0""
","""event"",""trial"",""time""
""fullscreenenter"",""1"",""2929""
","
","","","","","","null","<div style=""font-size:60px;"">+</div>","null","","fixation","","","","","","","","",""
"memory-trial","228","585627","0.0-15.0-1.92","1668","2","""event"",""trial"",""time""
""focus"",""0"",""0""
""fullscreenenter"",""1"",""2929""
","
","""event"",""trial"",""time""
""focus"",""0"",""0""
","""event"",""trial"",""time""
""fullscreenenter"",""1"",""2929""
","
","","","","","","1317","images/apple3.png","","","memory_trial","4","definitely_new","","","","","","",""
"html-keyboard-response","229","586137","0.0-15.0-0.93","1668","2","""event"",""trial"",""time""
""focus"",""0"",""0""
""fullscreenenter"",""1"",""2929""
","
","""event"",""trial"",""time""
""focus"",""0"",""0""
","""event"",""trial"",""time""
""fullscreenenter"",""1"",""2929""
","
","","","","","","null","<div style=""font-size:60px;"">+</div>","null","","fixation","","","","","","","","",""
"memory-trial","230","590567","0.0-15.0-1.93","1668","2","""event"",""trial"",""time""
""focus"",""0"",""0""
""fullscreenenter"",""1"",""2929""
","
","""event"",""trial"",""time""
""focus"",""0"",""0""
","""event"",""trial"",""time""
""fullscreenenter"",""1"",""2929""
","
","","","","","","3423","images/straw3.png","","","memory_trial","3","maybe_new","","","","","","",""
"html-keyboard-response","231","591077","0.0-15.0-0.94","1668","2","""event"",""trial"",""time""
""focus"",""0"",""0""
""fullscreenenter"",""1"",""2929""
","
","""event"",""trial"",""time""
""focus"",""0"",""0""
","""event"",""trial"",""time""
""fullscreenenter"",""1"",""2929""
","
","","","","","","null","<div style=""font-size:60px;"">+</div>","null","","fixation","","","","","","","","",""
"memory-trial","232","593198","0.0-15.0-1.94","1668","2","""event"",""trial"",""time""
""focus"",""0"",""0""
""fullscreenenter"",""1"",""2929""
","
","""event"",""trial"",""time""
""focus"",""0"",""0""
","""event"",""trial"",""time""
""fullscreenenter"",""1"",""2929""
","
","","","","","","1108","images/dog1.png","","","memory_trial","4","definitely_new","","","","","","",""
"html-keyboard-response","233","593717","0.0-15.0-0.95","1668","2","""event"",""trial"",""time""
""focus"",""0"",""0""
""fullscreenenter"",""1"",""2929""
","
","""event"",""trial"",""time""
""focus"",""0"",""0""
","""event"",""trial"",""time""
""fullscreenenter"",""1"",""2929""
","
","","","","","","null","<div style=""font-size:60px;"">+</div>","null","","fixation","","","","","","","","",""
"memory-trial","234","596228","0.0-15.0-1.95","1668","2","""event"",""trial"",""time""
""focus"",""0"",""0""
""fullscreenenter"",""1"",""2929""
","
","""event"",""trial"",""time""
""focus"",""0"",""0""
","""event"",""trial"",""time""
""fullscreenenter"",""1"",""2929""
","
","","","","","","1508","images/boat3.png","","","memory_trial","1","definitely_old","","","","","","",""
"html-keyboard-response","235","596747","0.0-15.0-0.96","1668","2","""event"",""trial"",""time""
""focus"",""0"",""0""
""fullscreenenter"",""1"",""2929""
","
","""event"",""trial"",""time""
""focus"",""0"",""0""
","""event"",""trial"",""time""
""fullscreenenter"",""1"",""2929""
","
","","","","","","null","<div style=""font-size:60px;"">+</div>","null","","fixation","","","","","","","","",""
"memory-trial","236","598477","0.0-15.0-1.96","1668","2","""event"",""trial"",""time""
""focus"",""0"",""0""
""fullscreenenter"",""1"",""2929""
","
","""event"",""trial"",""time""
""focus"",""0"",""0""
","""event"",""trial"",""time""
""fullscreenenter"",""1"",""2929""
","
","","","","","","727","images/feline2.png","","","memory_trial","1","definitely_old","","","","","","",""
"html-keyboard-response","237","598997","0.0-15.0-0.97","1668","2","""event"",""trial"",""time""
""focus"",""0"",""0""
""fullscreenenter"",""1"",""2929""
","
","""event"",""trial"",""time""
""focus"",""0"",""0""
","""event"",""trial"",""time""
""fullscreenenter"",""1"",""2929""
","
","","","","","","null","<div style=""font-size:60px;"">+</div>","null","","fixation","","","","","","","","",""
"memory-trial","238","604177","0.0-15.0-1.97","1668","2","""event"",""trial"",""time""
""focus"",""0"",""0""
""fullscreenenter"",""1"",""2929""
","
","""event"",""trial"",""time""
""focus"",""0"",""0""
","""event"",""trial"",""time""
""fullscreenenter"",""1"",""2929""
","
","","","","","","4173","images/rodent5.png","","","memory_trial","4","definitely_new","","","","","","",""
"html-keyboard-response","239","604688","0.0-15.0-0.98","1668","2","""event"",""trial"",""time""
""focus"",""0"",""0""
""fullscreenenter"",""1"",""2929""
","
","""event"",""trial"",""time""
""focus"",""0"",""0""
","""event"",""trial"",""time""
""fullscreenenter"",""1"",""2929""
","
","","","","","","null","<div style=""font-size:60px;"">+</div>","null","","fixation","","","","","","","","",""
"memory-trial","240","606817","0.0-15.0-1.98","1668","2","""event"",""trial"",""time""
""focus"",""0"",""0""
""fullscreenenter"",""1"",""2929""
","
","""event"",""trial"",""time""
""focus"",""0"",""0""
","""event"",""trial"",""time""
""fullscreenenter"",""1"",""2929""
","
","","","","","","1118","images/table3.png","","","memory_trial","1","definitely_old","","","","","","",""
"html-keyboard-response","241","607327","0.0-15.0-0.99","1668","2","""event"",""trial"",""time""
""focus"",""0"",""0""
""fullscreenenter"",""1"",""2929""
","
","""event"",""trial"",""time""
""focus"",""0"",""0""
","""event"",""trial"",""time""
""fullscreenenter"",""1"",""2929""
","
","","","","","","null","<div style=""font-size:60px;"">+</div>","null","","fixation","","","","","","","","",""
"memory-trial","242","609707","0.0-15.0-1.99","1668","2","""event"",""trial"",""time""
""focus"",""0"",""0""
""fullscreenenter"",""1"",""2929""
","
","""event"",""trial"",""time""
""focus"",""0"",""0""
","""event"",""trial"",""time""
""fullscreenenter"",""1"",""2929""
","
","","","","","","1378","images/train3.png","","","memory_trial","4","definitely_new","","","","","","",""
"html-keyboard-response","243","610217","0.0-15.0-0.100","1668","2","""event"",""trial"",""time""
""focus"",""0"",""0""
""fullscreenenter"",""1"",""2929""
","
","""event"",""trial"",""time""
""focus"",""0"",""0""
","""event"",""trial"",""time""
""fullscreenenter"",""1"",""2929""
","
","","","","","","null","<div style=""font-size:60px;"">+</div>","null","","fixation","","","","","","","","",""
"memory-trial","244","612098","0.0-15.0-1.100","1668","2","""event"",""trial"",""time""
""focus"",""0"",""0""
""fullscreenenter"",""1"",""2929""
","
","""event"",""trial"",""time""
""focus"",""0"",""0""
","""event"",""trial"",""time""
""fullscreenenter"",""1"",""2929""
","
","","","","","","872","images/sheep1.png","","","memory_trial","1","definitely_old","","","","","","",""
"html-keyboard-response","245","612617","0.0-15.0-0.101","1668","2","""event"",""trial"",""time""
