"trial_type","trial_index","time_elapsed","internal_node_id","subject_id","task_version","interactions","blur_events","focus_events","fullscreenenter_events","fullscreenexit_events","success","timeout","failed_images","failed_audio","failed_video","rt","stimulus","response"
"pavlovia","0","7","0.0-0.0","1696","2","""event"",""trial"",""time""
""focus"",""0"",""2""
""fullscreenenter"",""1"",""2205""
","
","""event"",""trial"",""time""
""focus"",""0"",""2""
","""event"",""trial"",""time""
""fullscreenenter"",""1"",""2205""
","
","","","","","","","",""
"fullscreen","1","2921","0.0-1.0","1696","2","""event"",""trial"",""time""
""focus"",""0"",""2""
""fullscreenenter"",""1"",""2205""
","
","""event"",""trial"",""time""
""focus"",""0"",""2""
","""event"",""trial"",""time""
""fullscreenenter"",""1"",""2205""
","
","true","","","","","","",""
"preload","2","3082","0.0-2.0","1696","2","""event"",""trial"",""time""
""focus"",""0"",""2""
""fullscreenenter"",""1"",""2205""
","
","""event"",""trial"",""time""
""focus"",""0"",""2""
","""event"",""trial"",""time""
""fullscreenenter"",""1"",""2205""
","
","true","false","[]","[]","[]","","",""
"audio-keyboard-response","3","4348","0.0-3.0","1696","2","""event"",""trial"",""time""
""focus"",""0"",""2""
""fullscreenenter"",""1"",""2205""
","
","""event"",""trial"",""time""
""focus"",""0"",""2""
","""event"",""trial"",""time""
""fullscreenenter"",""1"",""2205""
","
","","","","","","1258.6666666666665","audio/beep_loop.wav"," "
"audio-button-response","4","5156","0.0-4.0","1696","2","""event"",""trial"",""time""
""focus"",""0"",""2""
""fullscreenenter"",""1"",""2205""
","
","""event"",""trial"",""time""
""focus"",""0"",""2""
","""event"",""trial"",""time""
""fullscreenenter"",""1"",""2205""
","
","","","","","","811","audio/turtle.wav","3"
"audio-button-response","5","6741","0.0-5.0","1696","2","""event"",""trial"",""time""
""focus"",""0"",""2""
""fullscreenenter"",""1"",""2205""
""fullscreenexit"",""6"",""9320""
""blur"",""6"",""10285""
""focus"",""6"",""4292971""
""blur"",""6"",""4295536""
""focus"",""6"",""4385478""
""blur"",""6"",""4389830""
""focus"",""6"",""4389831""
","""event"",""trial"",""time""
""blur"",""6"",""10285""
""blur"",""6"",""4295536""
""blur"",""6"",""4389830""
","""event"",""trial"",""time""
""focus"",""0"",""2""
""focus"",""6"",""4292971""
""focus"",""6"",""4385478""
""focus"",""6"",""4389831""
","""event"",""trial"",""time""
""fullscreenenter"",""1"",""2205""
","""event"",""trial"",""time""
""fullscreenexit"",""6"",""9320""
","","","","","","568","audio/shark.wav","2"
