"trial_type","trial_index","time_elapsed","internal_node_id","subject_id","task_version","interactions","blur_events","focus_events","fullscreenenter_events","fullscreenexit_events","success","timeout","failed_images","failed_audio","failed_video","rt","stimulus","response"
"pavlovia","0","2","0.0-0.0","1696","2","""event"",""trial"",""time""
""fullscreenenter"",""1"",""1257""
","
","
","""event"",""trial"",""time""
""fullscreenenter"",""1"",""1257""
","
","","","","","","","",""
"fullscreen","1","2222","0.0-1.0","1696","2","""event"",""trial"",""time""
""fullscreenenter"",""1"",""1257""
","
","
","""event"",""trial"",""time""
""fullscreenenter"",""1"",""1257""
","
","true","","","","","","",""
"preload","2","2307","0.0-2.0","1696","2","""event"",""trial"",""time""
""fullscreenenter"",""1"",""1257""
","
","
","""event"",""trial"",""time""
""fullscreenenter"",""1"",""1257""
","
","true","false","[]","[]","[]","","",""
"audio-keyboard-response","3","4633","0.0-3.0","1696","2","""event"",""trial"",""time""
""fullscreenenter"",""1"",""1257""
","
","
","""event"",""trial"",""time""
""fullscreenenter"",""1"",""1257""
","
","","","","","","1221.3333333333335","audio/beep_loop.wav"," "
"audio-button-response","4","6273","0.0-4.0","1696","2","""event"",""trial"",""time""
""fullscreenenter"",""1"",""1257""
","
","
","""event"",""trial"",""time""
""fullscreenenter"",""1"",""1257""
","
","","","","","","1632","audio/turtle.wav","3"
"audio-button-response","5","8287","0.0-5.0","1696","2","""event"",""trial"",""time""
""fullscreenenter"",""1"",""1257""
""fullscreenexit"",""6"",""13810""
""blur"",""6"",""23081""
""focus"",""6"",""27680""
""blur"",""6"",""624995""
""focus"",""6"",""647739""
""blur"",""6"",""650610""
""focus"",""6"",""650621""
","""event"",""trial"",""time""
""blur"",""6"",""23081""
""blur"",""6"",""624995""
""blur"",""6"",""650610""
","""event"",""trial"",""time""
""focus"",""6"",""27680""
""focus"",""6"",""647739""
""focus"",""6"",""650621""
","""event"",""trial"",""time""
""fullscreenenter"",""1"",""1257""
","""event"",""trial"",""time""
""fullscreenexit"",""6"",""13810""
","","","","","","1000","audio/shark.wav","2"
