"trial_type","trial_index","time_elapsed","internal_node_id","subject_id","task_version","interactions","blur_events","focus_events","fullscreenenter_events","fullscreenexit_events","success","timeout","failed_images","failed_audio","failed_video","rt","stimulus","response","button_pressed","task_part","key_press","answer","correct","left_choice","middle_choice","right_choice","choice_positions","option_selected","block"
"pavlovia","0","2","0.0-0.0","1635","2","""event"",""trial"",""time""
""fullscreenenter"",""1"",""1981""
","
","
","""event"",""trial"",""time""
""fullscreenenter"",""1"",""1981""
","
","","","","","","","","","","","","","","","","","","",""
"fullscreen","1","2971","0.0-1.0","1635","2","""event"",""trial"",""time""
""fullscreenenter"",""1"",""1981""
","
","
","""event"",""trial"",""time""
""fullscreenenter"",""1"",""1981""
","
","true","","","","","","","","","","","","","","","","","",""
"preload","2","3977","0.0-2.0","1635","2","""event"",""trial"",""time""
""fullscreenenter"",""1"",""1981""
","
","
","""event"",""trial"",""time""
""fullscreenenter"",""1"",""1981""
","
","true","false","[]","[]","[]","","","","","","","","","","","","","",""
"audio-keyboard-response","3","5857","0.0-3.0","1635","2","""event"",""trial"",""time""
""fullscreenenter"",""1"",""1981""
","
","
","""event"",""trial"",""time""
""fullscreenenter"",""1"",""1981""
","
","","","","","","1880","audio/beep_loop.wav"," ","","","","","","","","","","",""
"audio-button-response","4","7470","0.0-4.0","1635","2","""event"",""trial"",""time""
""fullscreenenter"",""1"",""1981""
","
","
","""event"",""trial"",""time""
""fullscreenenter"",""1"",""1981""
","
","","","","","","1608","audio/turtle.wav","3","","","","","","","","","","",""
"audio-button-response","5","10060","0.0-5.0","1635","2","""event"",""trial"",""time""
""fullscreenenter"",""1"",""1981""
","
","
","""event"",""trial"",""time""
""fullscreenenter"",""1"",""1981""
","
","","","","","","1587","audio/shark.wav","2","","","","","","","","","","",""
"preload","6","29040","0.0-6.0","1635","2","""event"",""trial"",""time""
""fullscreenenter"",""1"",""1981""
","
","
","""event"",""trial"",""time""
""fullscreenenter"",""1"",""1981""
","
","true","false","[]","[]","[]","","","","","","","","","","","","","",""
"learning-instructions","7","35110","0.0-7.0-0.0","1635","2","""event"",""trial"",""time""
""fullscreenenter"",""1"",""1981""
","
","
","""event"",""trial"",""time""
""fullscreenenter"",""1"",""1981""
","
","","","","","","1258.6000001430511","<p> Welcome back! </p><p> Last week, you had to make choices about lots of different items.  </p>","","0","instructions","","","","","","","","",""
"learning-instructions","8","42322","0.0-7.0-0.1","1635","2","""event"",""trial"",""time""
""fullscreenenter"",""1"",""1981""
","
","
","""event"",""trial"",""time""
""fullscreenenter"",""1"",""1981""
","
","","","","","","2901.2999999523163","<p> Today, we are going to ask you to try to remember all the items. </p>","","0","instructions","","","","","","","","",""
"learning-instructions","9","61330","0.0-7.0-0.2","1635","2","""event"",""trial"",""time""
""fullscreenenter"",""1"",""1981""
","
","
","""event"",""trial"",""time""
""fullscreenenter"",""1"",""1981""
","
","","","","","","8879.799999952316","<p> On every trial, you will see an image. </p><p> The image may be an OLD image you saw during the games last week or it may be a NEW image that was not presented. </p>","","0","instructions","","","","","","","","",""
"learning-instructions","10","70529","0.0-7.0-0.3","1635","2","""event"",""trial"",""time""
""fullscreenenter"",""1"",""1981""
","
","
","""event"",""trial"",""time""
""fullscreenenter"",""1"",""1981""
","
","","","","","","677.9000000953674","<p> You need to select whether the image is:  </p><p>  'Definitely old', 'Maybe old', 'Maybe new', or 'Definitely new.'  </p><div class=""mem-choice-instructions-grid""><div class=""choice-option"" id=""choice-option-1"" ><img src=""images/definitely_old_1.png"" id=""choice-option-img-1"" class=""choice-option-img"" stage=""1""></div><div class=""choice-option"" id=""choice-option-2"" ><img src=""images/maybe_old_1.png"" id=""choice-option-img-2"" class=""choice-option-img"" stage=""1""></div><div class=""choice-option"" id=""choice-option-3"" ><img src=""images/maybe_new_1.png"" id=""choice-option-img-3"" class=""choice-option-img"" stage=""1""></div><div class=""choice-option"" id=""choice-option-4"" > <img src=""images/definitely_new_1.png"" id=""choice-option-img-4"" class=""choice-option-img"" stage=""1""></div></div>","","0","instructions","","","","","","","","",""
"learning-instructions","11","77613","0.0-7.0-0.4","1635","2","""event"",""trial"",""time""
""fullscreenenter"",""1"",""1981""
","
","
","""event"",""trial"",""time""
""fullscreenenter"",""1"",""1981""
","
","","","","","","381.90000009536743","<p> You should use the 1, 2, 3, and 4 keys to make your responses.  </p><div class=""mem-choice-instructions-grid""><div class=""choice-option"" id=""choice-option-1"" ><img src=""images/definitely_old.png"" id=""choice-option-img-1"" class=""choice-option-img"" stage=""1""></div><div class=""choice-option"" id=""choice-option-2"" ><img src=""images/maybe_old.png"" id=""choice-option-img-2"" class=""choice-option-img"" stage=""1""></div><div class=""choice-option"" id=""choice-option-3"" ><img src=""images/maybe_new.png"" id=""choice-option-img-3"" class=""choice-option-img"" stage=""1""></div><div class=""choice-option"" id=""choice-option-4"" > <img src=""images/definitely_new.png"" id=""choice-option-img-4"" class=""choice-option-img"" stage=""1""></div></div>","","0","instructions","","","","","","","","",""
"learning-instructions","12","84721","0.0-7.0-0.5","1635","2","""event"",""trial"",""time""
""fullscreenenter"",""1"",""1981""
","
","
","""event"",""trial"",""time""
""fullscreenenter"",""1"",""1981""
","
","","","","","","350.30000019073486","<p> You will have 10 seconds to make each response.  </p><p>  Make sure to respond before time runs out! </p>","","0","instructions","","","","","","","","",""
"learning-instructions","13","93127","0.0-7.0-0.6","1635","2","""event"",""trial"",""time""
""fullscreenenter"",""1"",""1981""
","
","
","""event"",""trial"",""time""
""fullscreenenter"",""1"",""1981""
","
","","","","","","807.0999999046326","<p> Today, you will see each image ONCE only.  </p><p>  That means none of the images will repeat. </p>","","0","instructions","","","","","","","","",""
"learning-instructions","14","107106","0.0-7.0-0.7","1635","2","""event"",""trial"",""time""
""fullscreenenter"",""1"",""1981""
","
","
","""event"",""trial"",""time""
""fullscreenenter"",""1"",""1981""
","
","","","","","","1305.3999998569489","<p> Before you play the real game, it is time to practice. </p><p>  Just like in the real game, some of the images in the practice will be ones you have seen before. </p><p>  Others will be entirely new. </p>","","0","instructions","","","","","","","","",""
"html-button-response","15","109735","0.0-8.0","1635","2","""event"",""trial"",""time""
""fullscreenenter"",""1"",""1981""
","
","
","""event"",""trial"",""time""
""fullscreenenter"",""1"",""1981""
","
","","","","","","2524.399999856949","<p> Ready to practice? </p><p> Remember, use the 1, 2, 3, and 4 keys to make your responses. </p>","0","","instructions","","","","","","","","",""
"html-keyboard-response","16","110359","0.0-9.0-0.0","1635","2","""event"",""trial"",""time""
""fullscreenenter"",""1"",""1981""
","
","
","""event"",""trial"",""time""
""fullscreenenter"",""1"",""1981""
","
","","","","","","null","<div style=""font-size:60px;"">+</div>","null","","fixation","","","","","","","","",""
"memory-trial","17","113529","0.0-9.0-1.0","1635","2","""event"",""trial"",""time""
""fullscreenenter"",""1"",""1981""
","
","
","""event"",""trial"",""time""
""fullscreenenter"",""1"",""1981""
","
","","","","","","2152.5","images/ball1.png","","","practice","1","definitely_old","","","","","","",""
"html-keyboard-response","18","114049","0.0-9.0-0.1","1635","2","""event"",""trial"",""time""
""fullscreenenter"",""1"",""1981""
","
","
","""event"",""trial"",""time""
""fullscreenenter"",""1"",""1981""
","
","","","","","","null","<div style=""font-size:60px;"">+</div>","null","","fixation","","","","","","","","",""
"memory-trial","19","118039","0.0-9.0-1.1","1635","2","""event"",""trial"",""time""
""fullscreenenter"",""1"",""1981""
","
","
","""event"",""trial"",""time""
""fullscreenenter"",""1"",""1981""
","
","","","","","","2972.7999999523163","images/racket2.png","","","practice","3","maybe_new","","","","","","",""
"html-keyboard-response","20","118549","0.0-9.0-0.2","1635","2","""event"",""trial"",""time""
""fullscreenenter"",""1"",""1981""
","
","
","""event"",""trial"",""time""
""fullscreenenter"",""1"",""1981""
","
","","","","","","null","<div style=""font-size:60px;"">+</div>","null","","fixation","","","","","","","","",""
"memory-trial","21","121878","0.0-9.0-1.2","1635","2","""event"",""trial"",""time""
""fullscreenenter"",""1"",""1981""
","
","
","""event"",""trial"",""time""
""fullscreenenter"",""1"",""1981""
","
","","","","","","2320.2000000476837","images/ball4.png","","","practice","2","maybe_old","","","","","","",""
"html-keyboard-response","22","122388","0.0-9.0-0.3","1635","2","""event"",""trial"",""time""
""fullscreenenter"",""1"",""1981""
","
","
","""event"",""trial"",""time""
""fullscreenenter"",""1"",""1981""
","
","","","","","","null","<div style=""font-size:60px;"">+</div>","null","","fixation","","","","","","","","",""
"memory-trial","23","124607","0.0-9.0-1.3","1635","2","""event"",""trial"",""time""
""fullscreenenter"",""1"",""1981""
","
","
","""event"",""trial"",""time""
""fullscreenenter"",""1"",""1981""
","
","","","","","","1200.2000000476837","images/racket3.png","","","practice","1","definitely_old","","","","","","",""
"html-keyboard-response","24","125128","0.0-9.0-0.4","1635","2","""event"",""trial"",""time""
""fullscreenenter"",""1"",""1981""
","
","
","""event"",""trial"",""time""
""fullscreenenter"",""1"",""1981""
","
","","","","","","null","<div style=""font-size:60px;"">+</div>","null","","fixation","","","","","","","","",""
"memory-trial","25","128888","0.0-9.0-1.4","1635","2","""event"",""trial"",""time""
""fullscreenenter"",""1"",""1981""
","
","
","""event"",""trial"",""time""
""fullscreenenter"",""1"",""1981""
","
","","","","","","2753.5","images/racket1.png","","","practice","1","definitely_old","","","","","","",""
"html-keyboard-response","26","129403","0.0-9.0-0.5","1635","2","""event"",""trial"",""time""
""fullscreenenter"",""1"",""1981""
","
","
","""event"",""trial"",""time""
""fullscreenenter"",""1"",""1981""
","
","","","","","","null","<div style=""font-size:60px;"">+</div>","null","","fixation","","","","","","","","",""
"memory-trial","27","132058","0.0-9.0-1.5","1635","2","""event"",""trial"",""time""
""fullscreenenter"",""1"",""1981""
","
","
","""event"",""trial"",""time""
""fullscreenenter"",""1"",""1981""
","
","","","","","","1634.5","images/racket4.png","","","practice","4","definitely_new","","","","","","",""
"html-keyboard-response","28","132568","0.0-9.0-0.6","1635","2","""event"",""trial"",""time""
""fullscreenenter"",""1"",""1981""
","
","
","""event"",""trial"",""time""
""fullscreenenter"",""1"",""1981""
","
","","","","","","null","<div style=""font-size:60px;"">+</div>","null","","fixation","","","","","","","","",""
"memory-trial","29","135288","0.0-9.0-1.6","1635","2","""event"",""trial"",""time""
""fullscreenenter"",""1"",""1981""
","
","
","""event"",""trial"",""time""
""fullscreenenter"",""1"",""1981""
","
","","","","","","1704.2999999523163","images/ball3.png","","","practice","3","maybe_new","","","","","","",""
"html-keyboard-response","30","135800","0.0-9.0-0.7","1635","2","""event"",""trial"",""time""
""fullscreenenter"",""1"",""1981""
","
","
","""event"",""trial"",""time""
""fullscreenenter"",""1"",""1981""
","
","","","","","","null","<div style=""font-size:60px;"">+</div>","null","","fixation","","","","","","","","",""
"memory-trial","31","138542","0.0-9.0-1.7","1635","2","""event"",""trial"",""time""
""fullscreenenter"",""1"",""1981""
","
","
","""event"",""trial"",""time""
""fullscreenenter"",""1"",""1981""
","
","","","","","","1739.9000000953674","images/ball2.png","","","practice","2","maybe_old","","","","","","",""
"learning-instructions","32","147225","0.0-10.0-0.0","1635","2","""event"",""trial"",""time""
""fullscreenenter"",""1"",""1981""
","
","
","""event"",""trial"",""time""
""fullscreenenter"",""1"",""1981""
","
","","","","","","745.5","<p> Great! You have completed the practice. </p><p> Before you start, we're going to ask you a few questions about how the game works.  </p>","","0","instructions","","","","","","","","",""
"preload","33","159493","0.0-11.0","1635","2","""event"",""trial"",""time""
""fullscreenenter"",""1"",""1981""
","
","
","""event"",""trial"",""time""
""fullscreenenter"",""1"",""1981""
","
","true","false","[]","[]","[]","","","","","","","","","","","","","",""
"comp-q","34","167070","0.0-12.0-0.0","1635","2","""event"",""trial"",""time""
""fullscreenenter"",""1"",""1981""
","
","
","""event"",""trial"",""time""
""fullscreenenter"",""1"",""1981""
","
","","","","","","1749.8999998569489","<p> <b> True or False? </b> </p><p> In this game, you will only see each image once. </p>","","0","comp_question","","","true","","","","","",""
"comp-q","35","174221","0.0-12.0-1.0","1635","2","""event"",""trial"",""time""
""fullscreenenter"",""1"",""1981""
","
","
","""event"",""trial"",""time""
""fullscreenenter"",""1"",""1981""
","
","","","","","","791.8999998569489","<p> <b> That's right! </b> You will see many different images <i> one time each </i> in this game. </p>","","0","comp_answer","","","","","","","","",""
"comp-q","36","182665","0.0-12.0-0.1","1635","2","""event"",""trial"",""time""
""fullscreenenter"",""1"",""1981""
","
","
","""event"",""trial"",""time""
""fullscreenenter"",""1"",""1981""
","
","","","","","","2637","<p> <b> True or False? </b> </p><p> You should use the mouse and click to make your response. </p>","","1","comp_question","","","true","","","","","",""
"comp-q","37","191270","0.0-12.0-1.1","1635","2","""event"",""trial"",""time""
""fullscreenenter"",""1"",""1981""
","
","
","""event"",""trial"",""time""
""fullscreenenter"",""1"",""1981""
","
","","","","","","1262.4000000953674","<p><b> That's right! </b> You should use the '1', '2', '3', and '4' keys to make your response. </p>","","0","comp_answer","","","","","","","","",""
"comp-q","38","198260","0.0-12.0-0.2","1635","2","""event"",""trial"",""time""
""fullscreenenter"",""1"",""1981""
","
","
","""event"",""trial"",""time""
""fullscreenenter"",""1"",""1981""
","
","","","","","","992.9000000953674","<p> <b> True or False? </b> </p><p> You will have as much time as you want to make each choice. </p>","","1","comp_question","","","true","","","","","",""
"comp-q","39","204445","0.0-12.0-1.2","1635","2","""event"",""trial"",""time""
""fullscreenenter"",""1"",""1981""
","
","
","""event"",""trial"",""time""
""fullscreenenter"",""1"",""1981""
","
","","","","","","787.4000000953674","<p> <b> That's right! </b> You will only have 10 seconds to make each choice. </p>","","0","comp_answer","","","","","","","","",""
"learning-instructions","40","214049","0.0-13.0","1635","2","""event"",""trial"",""time""
""fullscreenenter"",""1"",""1981""
","
","
","""event"",""trial"",""time""
""fullscreenenter"",""1"",""1981""
","
","","","","","","941.2999999523163","<p> Great! You are now ready to begin the game. </p><p> Remember, use the 1, 2, 3, and 4 keys to make your responses. </p>","","0","instructions","","","","","","","","",""
"preload","41","226109","0.0-14.0","1635","2","""event"",""trial"",""time""
""fullscreenenter"",""1"",""1981""
","
","
","""event"",""trial"",""time""
""fullscreenenter"",""1"",""1981""
","
","true","false","[]","[]","[]","","","","","","","","","","","","","",""
"html-keyboard-response","42","226616","0.0-15.0-0.0","1635","2","""event"",""trial"",""time""
""fullscreenenter"",""1"",""1981""
","
","
","""event"",""trial"",""time""
""fullscreenenter"",""1"",""1981""
","
","","","","","","null","<div style=""font-size:60px;"">+</div>","null","","fixation","","","","","","","","",""
"memory-trial","43","229156","0.0-15.0-1.0","1635","2","""event"",""trial"",""time""
""fullscreenenter"",""1"",""1981""
","
","
","""event"",""trial"",""time""
""fullscreenenter"",""1"",""1981""
","
","","","","","","1527.7999999523163","images/bush5.png","","","memory_trial","4","definitely_new","","","","","","",""
"html-keyboard-response","44","229666","0.0-15.0-0.1","1635","2","""event"",""trial"",""time""
""fullscreenenter"",""1"",""1981""
","
","
","""event"",""trial"",""time""
""fullscreenenter"",""1"",""1981""
","
","","","","","","null","<div style=""font-size:60px;"">+</div>","null","","fixation","","","","","","","","",""
"memory-trial","45","233546","0.0-15.0-1.1","1635","2","""event"",""trial"",""time""
""fullscreenenter"",""1"",""1981""
","
","
","""event"",""trial"",""time""
""fullscreenenter"",""1"",""1981""
","
","","","","","","2874.4000000953674","images/rabbit5.png","","","memory_trial","3","maybe_new","","","","","","",""
"html-keyboard-response","46","234066","0.0-15.0-0.2","1635","2","""event"",""trial"",""time""
""fullscreenenter"",""1"",""1981""
","
","
","""event"",""trial"",""time""
""fullscreenenter"",""1"",""1981""
","
","","","","","","null","<div style=""font-size:60px;"">+</div>","null","","fixation","","","","","","","","",""
"memory-trial","47","237226","0.0-15.0-1.2","1635","2","""event"",""trial"",""time""
""fullscreenenter"",""1"",""1981""
","
","
","""event"",""trial"",""time""
""fullscreenenter"",""1"",""1981""
","
","","","","","","2140.5","images/table3.png","","","memory_trial","1","definitely_old","","","","","","",""
"html-keyboard-response","48","237735","0.0-15.0-0.3","1635","2","""event"",""trial"",""time""
""fullscreenenter"",""1"",""1981""
","
","
","""event"",""trial"",""time""
""fullscreenenter"",""1"",""1981""
","
","","","","","","null","<div style=""font-size:60px;"">+</div>","null","","fixation","","","","","","","","",""
"memory-trial","49","239876","0.0-15.0-1.3","1635","2","""event"",""trial"",""time""
""fullscreenenter"",""1"",""1981""
","
","
","""event"",""trial"",""time""
""fullscreenenter"",""1"",""1981""
","
","","","","","","1131.5","images/truck3.png","","","memory_trial","4","definitely_new","","","","","","",""
"html-keyboard-response","50","240396","0.0-15.0-0.4","1635","2","""event"",""trial"",""time""
""fullscreenenter"",""1"",""1981""
","
","
","""event"",""trial"",""time""
""fullscreenenter"",""1"",""1981""
","
","","","","","","null","<div style=""font-size:60px;"">+</div>","null","","fixation","","","","","","","","",""
"memory-trial","51","243981","0.0-15.0-1.4","1635","2","""event"",""trial"",""time""
""fullscreenenter"",""1"",""1981""
","
","
","""event"",""trial"",""time""
""fullscreenenter"",""1"",""1981""
","
","","","","","","2583.2999999523163","images/straw3.png","","","memory_trial","3","maybe_new","","","","","","",""
"html-keyboard-response","52","244482","0.0-15.0-0.5","1635","2","""event"",""trial"",""time""
""fullscreenenter"",""1"",""1981""
","
","
","""event"",""trial"",""time""
""fullscreenenter"",""1"",""1981""
","
","","","","","","null","<div style=""font-size:60px;"">+</div>","null","","fixation","","","","","","","","",""
"memory-trial","53","246551","0.0-15.0-1.5","1635","2","""event"",""trial"",""time""
""fullscreenenter"",""1"",""1981""
","
","
","""event"",""trial"",""time""
""fullscreenenter"",""1"",""1981""
","
","","","","","","1064.4000000953674","images/flower4.png","","","memory_trial","4","definitely_new","","","","","","",""
"html-keyboard-response","54","247052","0.0-15.0-0.6","1635","2","""event"",""trial"",""time""
""fullscreenenter"",""1"",""1981""
","
","
","""event"",""trial"",""time""
""fullscreenenter"",""1"",""1981""
","
","","","","","","null","<div style=""font-size:60px;"">+</div>","null","","fixation","","","","","","","","",""
"memory-trial","55","250980","0.0-15.0-1.6","1635","2","""event"",""trial"",""time""
""fullscreenenter"",""1"",""1981""
","
","
","""event"",""trial"",""time""
""fullscreenenter"",""1"",""1981""
","
","","","","","","2925.4000000953674","images/cactus1.png","","","memory_trial","4","definitely_new","","","","","","",""
"html-keyboard-response","56","251481","0.0-15.0-0.7","1635","2","""event"",""trial"",""time""
""fullscreenenter"",""1"",""1981""
","
","
","""event"",""trial"",""time""
""fullscreenenter"",""1"",""1981""
","
","","","","","","null","<div style=""font-size:60px;"">+</div>","null","","fixation","","","","","","","","",""
"memory-trial","57","254320","0.0-15.0-1.7","1635","2","""event"",""trial"",""time""
""fullscreenenter"",""1"",""1981""
","
","
","""event"",""trial"",""time""
""fullscreenenter"",""1"",""1981""
","
","","","","","","1836.2000000476837","images/apple3.png","","","memory_trial","4","definitely_new","","","","","","",""
"html-keyboard-response","58","254821","0.0-15.0-0.8","1635","2","""event"",""trial"",""time""
""fullscreenenter"",""1"",""1981""
","
","
","""event"",""trial"",""time""
""fullscreenenter"",""1"",""1981""
","
","","","","","","null","<div style=""font-size:60px;"">+</div>","null","","fixation","","","","","","","","",""
"memory-trial","59","257270","0.0-15.0-1.8","1635","2","""event"",""trial"",""time""
""fullscreenenter"",""1"",""1981""
","
","
","""event"",""trial"",""time""
""fullscreenenter"",""1"",""1981""
","
","","","","","","1447.8999998569489","images/goat5.png","","","memory_trial","4","definitely_new","","","","","","",""
"html-keyboard-response","60","257772","0.0-15.0-0.9","1635","2","""event"",""trial"",""time""
""fullscreenenter"",""1"",""1981""
","
","
","""event"",""trial"",""time""
""fullscreenenter"",""1"",""1981""
","
","","","","","","null","<div style=""font-size:60px;"">+</div>","null","","fixation","","","","","","","","",""
"memory-trial","61","260086","0.0-15.0-1.9","1635","2","""event"",""trial"",""time""
""fullscreenenter"",""1"",""1981""
","
","
","""event"",""trial"",""time""
""fullscreenenter"",""1"",""1981""
","
","","","","","","1312","images/flower5.png","","","memory_trial","4","definitely_new","","","","","","",""
"html-keyboard-response","62","260587","0.0-15.0-0.10","1635","2","""event"",""trial"",""time""
""fullscreenenter"",""1"",""1981""
","
","
","""event"",""trial"",""time""
""fullscreenenter"",""1"",""1981""
","
","","","","","","null","<div style=""font-size:60px;"">+</div>","null","","fixation","","","","","","","","",""
"memory-trial","63","264150","0.0-15.0-1.10","1635","2","""event"",""trial"",""time""
""fullscreenenter"",""1"",""1981""
","
","
","""event"",""trial"",""time""
""fullscreenenter"",""1"",""1981""
","
","","","","","","2560.5","images/truck2.png","","","memory_trial","1","definitely_old","","","","","","",""
"html-keyboard-response","64","264651","0.0-15.0-0.11","1635","2","""event"",""trial"",""time""
""fullscreenenter"",""1"",""1981""
","
","
","""event"",""trial"",""time""
""fullscreenenter"",""1"",""1981""
","
","","","","","","null","<div style=""font-size:60px;"">+</div>","null","","fixation","","","","","","","","",""
"memory-trial","65","267530","0.0-15.0-1.11","1635","2","""event"",""trial"",""time""
""fullscreenenter"",""1"",""1981""
","
","
","""event"",""trial"",""time""
""fullscreenenter"",""1"",""1981""
","
","","","","","","1876.1999998092651","images/feline5.png","","","memory_trial","1","definitely_old","","","","","","",""
"html-keyboard-response","66","268032","0.0-15.0-0.12","1635","2","""event"",""trial"",""time""
""fullscreenenter"",""1"",""1981""
","
","
","""event"",""trial"",""time""
""fullscreenenter"",""1"",""1981""
","
","","","","","","null","<div style=""font-size:60px;"">+</div>","null","","fixation","","","","","","","","",""
"memory-trial","67","270049","0.0-15.0-1.12","1635","2","""event"",""trial"",""time""
""fullscreenenter"",""1"",""1981""
","
","
","""event"",""trial"",""time""
""fullscreenenter"",""1"",""1981""
","
","","","","","","1013.3999998569489","images/bed4.png","","","memory_trial","4","definitely_new","","","","","","",""
"html-keyboard-response","68","270550","0.0-15.0-0.13","1635","2","""event"",""trial"",""time""
""fullscreenenter"",""1"",""1981""
","
","
","""event"",""trial"",""time""
""fullscreenenter"",""1"",""1981""
","
","","","","","","null","<div style=""font-size:60px;"">+</div>","null","","fixation","","","","","","","","",""
"memory-trial","69","272452","0.0-15.0-1.13","1635","2","""event"",""trial"",""time""
""fullscreenenter"",""1"",""1981""
","
","
","""event"",""trial"",""time""
""fullscreenenter"",""1"",""1981""
","
","","","","","","899.9000000953674","images/horse3.png","","","memory_trial","4","definitely_new","","","","","","",""
"html-keyboard-response","70","272953","0.0-15.0-0.14","1635","2","""event"",""trial"",""time""
""fullscreenenter"",""1"",""1981""
","
","
","""event"",""trial"",""time""
""fullscreenenter"",""1"",""1981""
","
","","","","","","null","<div style=""font-size:60px;"">+</div>","null","","fixation","","","","","","","","",""
"memory-trial","71","276066","0.0-15.0-1.14","1635","2","""event"",""trial"",""time""
""fullscreenenter"",""1"",""1981""
","
","
","""event"",""trial"",""time""
""fullscreenenter"",""1"",""1981""
","
","","","","","","2109.399999856949","images/chair3.png","","","memory_trial","1","definitely_old","","","","","","",""
"html-keyboard-response","72","276566","0.0-15.0-0.15","1635","2","""event"",""trial"",""time""
""fullscreenenter"",""1"",""1981""
","
","
","""event"",""trial"",""time""
""fullscreenenter"",""1"",""1981""
","
","","","","","","null","<div style=""font-size:60px;"">+</div>","null","","fixation","","","","","","","","",""
"memory-trial","73","279466","0.0-15.0-1.15","1635","2","""event"",""trial"",""time""
""fullscreenenter"",""1"",""1981""
","
","
","""event"",""trial"",""time""
""fullscreenenter"",""1"",""1981""
","
","","","","","","1897.2000000476837","images/bush1.png","","","memory_trial","1","definitely_old","","","","","","",""
"html-keyboard-response","74","279968","0.0-15.0-0.16","1635","2","""event"",""trial"",""time""
""fullscreenenter"",""1"",""1981""
","
","
","""event"",""trial"",""time""
""fullscreenenter"",""1"",""1981""
","
","","","","","","null","<div style=""font-size:60px;"">+</div>","null","","fixation","","","","","","","","",""
"memory-trial","75","281684","0.0-15.0-1.16","1635","2","""event"",""trial"",""time""
""fullscreenenter"",""1"",""1981""
","
","
","""event"",""trial"",""time""
""fullscreenenter"",""1"",""1981""
","
","","","","","","712.5","images/flower2.png","","","memory_trial","4","definitely_new","","","","","","",""
"html-keyboard-response","76","282185","0.0-15.0-0.17","1635","2","""event"",""trial"",""time""
""fullscreenenter"",""1"",""1981""
","
","
","""event"",""trial"",""time""
""fullscreenenter"",""1"",""1981""
","
","","","","","","null","<div style=""font-size:60px;"">+</div>","null","","fixation","","","","","","","","",""
"memory-trial","77","284758","0.0-15.0-1.17","1635","2","""event"",""trial"",""time""
""fullscreenenter"",""1"",""1981""
","
","
","""event"",""trial"",""time""
""fullscreenenter"",""1"",""1981""
","
","","","","","","1571","images/orange5.png","","","memory_trial","2","maybe_old","","","","","","",""
"html-keyboard-response","78","285259","0.0-15.0-0.18","1635","2","""event"",""trial"",""time""
""fullscreenenter"",""1"",""1981""
","
","
","""event"",""trial"",""time""
""fullscreenenter"",""1"",""1981""
","
","","","","","","null","<div style=""font-size:60px;"">+</div>","null","","fixation","","","","","","","","",""
"memory-trial","79","288471","0.0-15.0-1.18","1635","2","""event"",""trial"",""time""
""fullscreenenter"",""1"",""1981""
","
","
","""event"",""trial"",""time""
""fullscreenenter"",""1"",""1981""
","
","","","","","","2208.5","images/cactus4.png","","","memory_trial","3","maybe_new","","","","","","",""
"html-keyboard-response","80","288973","0.0-15.0-0.19","1635","2","""event"",""trial"",""time""
""fullscreenenter"",""1"",""1981""
","
","
","""event"",""trial"",""time""
""fullscreenenter"",""1"",""1981""
","
","","","","","","null","<div style=""font-size:60px;"">+</div>","null","","fixation","","","","","","","","",""
"memory-trial","81","292484","0.0-15.0-1.19","1635","2","""event"",""trial"",""time""
""fullscreenenter"",""1"",""1981""
","
","
","""event"",""trial"",""time""
""fullscreenenter"",""1"",""1981""
","
","","","","","","2508.899999856949","images/banana2.png","","","memory_trial","1","definitely_old","","","","","","",""
"html-keyboard-response","82","292985","0.0-15.0-0.20","1635","2","""event"",""trial"",""time""
""fullscreenenter"",""1"",""1981""
","
","
","""event"",""trial"",""time""
""fullscreenenter"",""1"",""1981""
","
","","","","","","null","<div style=""font-size:60px;"">+</div>","null","","fixation","","","","","","","","",""
"memory-trial","83","294700","0.0-15.0-1.20","1635","2","""event"",""trial"",""time""
""fullscreenenter"",""1"",""1981""
","
","
","""event"",""trial"",""time""
""fullscreenenter"",""1"",""1981""
","
","","","","","","713.8999998569489","images/flower3.png","","","memory_trial","4","definitely_new","","","","","","",""
"html-keyboard-response","84","295202","0.0-15.0-0.21","1635","2","""event"",""trial"",""time""
""fullscreenenter"",""1"",""1981""
","
","
","""event"",""trial"",""time""
""fullscreenenter"",""1"",""1981""
","
","","","","","","null","<div style=""font-size:60px;"">+</div>","null","","fixation","","","","","","","","",""
"memory-trial","85","298679","0.0-15.0-1.21","1635","2","""event"",""trial"",""time""
""fullscreenenter"",""1"",""1981""
","
","
","""event"",""trial"",""time""
""fullscreenenter"",""1"",""1981""
","
","","","","","","2474.899999856949","images/straw2.png","","","memory_trial","2","maybe_old","","","","","","",""
"html-keyboard-response","86","299180","0.0-15.0-0.22","1635","2","""event"",""trial"",""time""
""fullscreenenter"",""1"",""1981""
","
","
","""event"",""trial"",""time""
""fullscreenenter"",""1"",""1981""
","
","","","","","","null","<div style=""font-size:60px;"">+</div>","null","","fixation","","","","","","","","",""
"memory-trial","87","302774","0.0-15.0-1.22","1635","2","""event"",""trial"",""time""
""fullscreenenter"",""1"",""1981""
","
","
","""event"",""trial"",""time""
""fullscreenenter"",""1"",""1981""
","
","","","","","","2590.0999999046326","images/tree5.png","","","memory_trial","3","maybe_new","","","","","","",""
"html-keyboard-response","88","303275","0.0-15.0-0.23","1635","2","""event"",""trial"",""time""
""fullscreenenter"",""1"",""1981""
","
","
","""event"",""trial"",""time""
""fullscreenenter"",""1"",""1981""
","
","","","","","","null","<div style=""font-size:60px;"">+</div>","null","","fixation","","","","","","","","",""
"memory-trial","89","306972","0.0-15.0-1.23","1635","2","""event"",""trial"",""time""
""fullscreenenter"",""1"",""1981""
","
","
","""event"",""trial"",""time""
""fullscreenenter"",""1"",""1981""
","
","","","","","","2694.5999999046326","images/cow4.png","","","memory_trial","2","maybe_old","","","","","","",""
"html-keyboard-response","90","307473","0.0-15.0-0.24","1635","2","""event"",""trial"",""time""
""fullscreenenter"",""1"",""1981""
","
","
","""event"",""trial"",""time""
""fullscreenenter"",""1"",""1981""
","
","","","","","","null","<div style=""font-size:60px;"">+</div>","null","","fixation","","","","","","","","",""
"memory-trial","91","309280","0.0-15.0-1.24","1635","2","""event"",""trial"",""time""
""fullscreenenter"",""1"",""1981""
","
","
","""event"",""trial"",""time""
""fullscreenenter"",""1"",""1981""
","
","","","","","","804","images/horse2.png","","","memory_trial","4","definitely_new","","","","","","",""
"html-keyboard-response","92","309781","0.0-15.0-0.25","1635","2","""event"",""trial"",""time""
""fullscreenenter"",""1"",""1981""
","
","
","""event"",""trial"",""time""
""fullscreenenter"",""1"",""1981""
","
","","","","","","null","<div style=""font-size:60px;"">+</div>","null","","fixation","","","","","","","","",""
"memory-trial","93","311858","0.0-15.0-1.25","1635","2","""event"",""trial"",""time""
""fullscreenenter"",""1"",""1981""
","
","
","""event"",""trial"",""time""
""fullscreenenter"",""1"",""1981""
","
","","","","","","1074.9000000953674","images/boat1.png","","","memory_trial","4","definitely_new","","","","","","",""
"html-keyboard-response","94","312360","0.0-15.0-0.26","1635","2","""event"",""trial"",""time""
""fullscreenenter"",""1"",""1981""
","
","
","""event"",""trial"",""time""
""fullscreenenter"",""1"",""1981""
","
","","","","","","null","<div style=""font-size:60px;"">+</div>","null","","fixation","","","","","","","","",""
"memory-trial","95","314688","0.0-15.0-1.26","1635","2","""event"",""trial"",""time""
""fullscreenenter"",""1"",""1981""
","
","
","""event"",""trial"",""time""
""fullscreenenter"",""1"",""1981""
","
","","","","","","1324.5","images/dog2.png","","","memory_trial","4","definitely_new","","","","","","",""
"html-keyboard-response","96","315189","0.0-15.0-0.27","1635","2","""event"",""trial"",""time""
""fullscreenenter"",""1"",""1981""
","
","
","""event"",""trial"",""time""
""fullscreenenter"",""1"",""1981""
","
","","","","","","null","<div style=""font-size:60px;"">+</div>","null","","fixation","","","","","","","","",""
"memory-trial","97","317764","0.0-15.0-1.27","1635","2","""event"",""trial"",""time""
""fullscreenenter"",""1"",""1981""
","
","
","""event"",""trial"",""time""
""fullscreenenter"",""1"",""1981""
","
","","","","","","1571.7999999523163","images/rabbit3.png","","","memory_trial","3","maybe_new","","","","","","",""
"html-keyboard-response","98","318265","0.0-15.0-0.28","1635","2","""event"",""trial"",""time""
""fullscreenenter"",""1"",""1981""
","
","
","""event"",""trial"",""time""
""fullscreenenter"",""1"",""1981""
","
","","","","","","null","<div style=""font-size:60px;"">+</div>","null","","fixation","","","","","","","","",""
"memory-trial","99","321211","0.0-15.0-1.28","1635","2","""event"",""trial"",""time""
""fullscreenenter"",""1"",""1981""
","
","
","""event"",""trial"",""time""
""fullscreenenter"",""1"",""1981""
","
","","","","","","1943.2999999523163","images/truck5.png","","","memory_trial","3","maybe_new","","","","","","",""
"html-keyboard-response","100","321712","0.0-15.0-0.29","1635","2","""event"",""trial"",""time""
""fullscreenenter"",""1"",""1981""
","
","
","""event"",""trial"",""time""
""fullscreenenter"",""1"",""1981""
","
","","","","","","null","<div style=""font-size:60px;"">+</div>","null","","fixation","","","","","","","","",""
"memory-trial","101","326608","0.0-15.0-1.29","1635","2","""event"",""trial"",""time""
""fullscreenenter"",""1"",""1981""
","
","
","""event"",""trial"",""time""
""fullscreenenter"",""1"",""1981""
","
","","","","","","3893.5","images/bush3.png","","","memory_trial","1","definitely_old","","","","","","",""
"html-keyboard-response","102","327109","0.0-15.0-0.30","1635","2","""event"",""trial"",""time""
""fullscreenenter"",""1"",""1981""
","
","
","""event"",""trial"",""time""
""fullscreenenter"",""1"",""1981""
","
","","","","","","null","<div style=""font-size:60px;"">+</div>","null","","fixation","","","","","","","","",""
"memory-trial","103","330191","0.0-15.0-1.30","1635","2","""event"",""trial"",""time""
""fullscreenenter"",""1"",""1981""
","
","
","""event"",""trial"",""time""
""fullscreenenter"",""1"",""1981""
","
","","","","","","2077.7999999523163","images/sofa4.png","","","memory_trial","2","maybe_old","","","","","","",""
"html-keyboard-response","104","330692","0.0-15.0-0.31","1635","2","""event"",""trial"",""time""
""fullscreenenter"",""1"",""1981""
","
","
","""event"",""trial"",""time""
""fullscreenenter"",""1"",""1981""
","
","","","","","","null","<div style=""font-size:60px;"">+</div>","null","","fixation","","","","","","","","",""
"memory-trial","105","332956","0.0-15.0-1.31","1635","2","""event"",""trial"",""time""
""fullscreenenter"",""1"",""1981""
","
","
","""event"",""trial"",""time""
""fullscreenenter"",""1"",""1981""
","
","","","","","","1260.2000000476837","images/rabbit1.png","","","memory_trial","2","maybe_old","","","","","","",""
"html-keyboard-response","106","333458","0.0-15.0-0.32","1635","2","""event"",""trial"",""time""
""fullscreenenter"",""1"",""1981""
","
","
","""event"",""trial"",""time""
""fullscreenenter"",""1"",""1981""
","
","","","","","","null","<div style=""font-size:60px;"">+</div>","null","","fixation","","","","","","","","",""
"memory-trial","107","336035","0.0-15.0-1.32","1635","2","""event"",""trial"",""time""
""fullscreenenter"",""1"",""1981""
","
","
","""event"",""trial"",""time""
""fullscreenenter"",""1"",""1981""
","
","","","","","","1573.7000000476837","images/sheep4.png","","","memory_trial","1","definitely_old","","","","","","",""
"html-keyboard-response","108","336537","0.0-15.0-0.33","1635","2","""event"",""trial"",""time""
""fullscreenenter"",""1"",""1981""
","
","
","""event"",""trial"",""time""
""fullscreenenter"",""1"",""1981""
","
","","","","","","null","<div style=""font-size:60px;"">+</div>","null","","fixation","","","","","","","","",""
"memory-trial","109","338968","0.0-15.0-1.33","1635","2","""event"",""trial"",""time""
""fullscreenenter"",""1"",""1981""
","
","
","""event"",""trial"",""time""
""fullscreenenter"",""1"",""1981""
","
","","","","","","1429.3000001907349","images/plane4.png","","","memory_trial","2","maybe_old","","","","","","",""
"html-keyboard-response","110","339471","0.0-15.0-0.34","1635","2","""event"",""trial"",""time""
""fullscreenenter"",""1"",""1981""
","
","
","""event"",""trial"",""time""
""fullscreenenter"",""1"",""1981""
","
","","","","","","null","<div style=""font-size:60px;"">+</div>","null","","fixation","","","","","","","","",""
"memory-trial","111","341819","0.0-15.0-1.34","1635","2","""event"",""trial"",""time""
""fullscreenenter"",""1"",""1981""
","
","
","""event"",""trial"",""time""
""fullscreenenter"",""1"",""1981""
","
","","","","","","1345","images/cow1.png","","","memory_trial","2","maybe_old","","","","","","",""
"html-keyboard-response","112","342322","0.0-15.0-0.35","1635","2","""event"",""trial"",""time""
""fullscreenenter"",""1"",""1981""
","
","
","""event"",""trial"",""time""
""fullscreenenter"",""1"",""1981""
","
","","","","","","null","<div style=""font-size:60px;"">+</div>","null","","fixation","","","","","","","","",""
"memory-trial","113","346524","0.0-15.0-1.35","1635","2","""event"",""trial"",""time""
""fullscreenenter"",""1"",""1981""
","
","
","""event"",""trial"",""time""
""fullscreenenter"",""1"",""1981""
","
","","","","","","3200.5","images/dog4.png","","","memory_trial","4","definitely_new","","","","","","",""
"html-keyboard-response","114","347026","0.0-15.0-0.36","1635","2","""event"",""trial"",""time""
""fullscreenenter"",""1"",""1981""
","
","
","""event"",""trial"",""time""
""fullscreenenter"",""1"",""1981""
","
","","","","","","null","<div style=""font-size:60px;"">+</div>","null","","fixation","","","","","","","","",""
"memory-trial","115","349681","0.0-15.0-1.36","1635","2","""event"",""trial"",""time""
""fullscreenenter"",""1"",""1981""
","
","
","""event"",""trial"",""time""
""fullscreenenter"",""1"",""1981""
","
","","","","","","1651.0999999046326","images/cactus3.png","","","memory_trial","1","definitely_old","","","","","","",""
"html-keyboard-response","116","350183","0.0-15.0-0.37","1635","2","""event"",""trial"",""time""
""fullscreenenter"",""1"",""1981""
","
","
","""event"",""trial"",""time""
""fullscreenenter"",""1"",""1981""
","
","","","","","","null","<div style=""font-size:60px;"">+</div>","null","","fixation","","","","","","","","",""
"memory-trial","117","352644","0.0-15.0-1.37","1635","2","""event"",""trial"",""time""
""fullscreenenter"",""1"",""1981""
","
","
","""event"",""trial"",""time""
""fullscreenenter"",""1"",""1981""
","
","","","","","","1447.7999999523163","images/plane1.png","","","memory_trial","1","definitely_old","","","","","","",""
"html-keyboard-response","118","353145","0.0-15.0-0.38","1635","2","""event"",""trial"",""time""
""fullscreenenter"",""1"",""1981""
","
","
","""event"",""trial"",""time""
""fullscreenenter"",""1"",""1981""
","
","","","","","","null","<div style=""font-size:60px;"">+</div>","null","","fixation","","","","","","","","",""
"memory-trial","119","355318","0.0-15.0-1.38","1635","2","""event"",""trial"",""time""
""fullscreenenter"",""1"",""1981""
","
","
","""event"",""trial"",""time""
""fullscreenenter"",""1"",""1981""
","
","","","","","","1169.8999998569489","images/cow2.png","","","memory_trial","2","maybe_old","","","","","","",""
"html-keyboard-response","120","355819","0.0-15.0-0.39","1635","2","""event"",""trial"",""time""
""fullscreenenter"",""1"",""1981""
","
","
","""event"",""trial"",""time""
""fullscreenenter"",""1"",""1981""
","
","","","","","","null","<div style=""font-size:60px;"">+</div>","null","","fixation","","","","","","","","",""
"memory-trial","121","357682","0.0-15.0-1.39","1635","2","""event"",""trial"",""time""
""fullscreenenter"",""1"",""1981""
","
","
","""event"",""trial"",""time""
""fullscreenenter"",""1"",""1981""
","
","","","","","","860.5","images/horse5.png","","","memory_trial","4","definitely_new","","","","","","",""
"html-keyboard-response","122","358183","0.0-15.0-0.40","1635","2","""event"",""trial"",""time""
""fullscreenenter"",""1"",""1981""
","
","
","""event"",""trial"",""time""
""fullscreenenter"",""1"",""1981""
","
","","","","","","null","<div style=""font-size:60px;"">+</div>","null","","fixation","","","","","","","","",""
"memory-trial","123","360541","0.0-15.0-1.40","1635","2","""event"",""trial"",""time""
""fullscreenenter"",""1"",""1981""
","
","
","""event"",""trial"",""time""
""fullscreenenter"",""1"",""1981""
","
","","","","","","1355.5999999046326","images/sofa3.png","","","memory_trial","2","maybe_old","","","","","","",""
"html-keyboard-response","124","361042","0.0-15.0-0.41","1635","2","""event"",""trial"",""time""
""fullscreenenter"",""1"",""1981""
","
","
","""event"",""trial"",""time""
""fullscreenenter"",""1"",""1981""
","
","","","","","","null","<div style=""font-size:60px;"">+</div>","null","","fixation","","","","","","","","",""
"memory-trial","125","362973","0.0-15.0-1.41","1635","2","""event"",""trial"",""time""
""fullscreenenter"",""1"",""1981""
","
","
","""event"",""trial"",""time""
""fullscreenenter"",""1"",""1981""
","
","","","","","","929.0999999046326","images/bed5.png","","","memory_trial","4","definitely_new","","","","","","",""
"html-keyboard-response","126","363473","0.0-15.0-0.42","1635","2","""event"",""trial"",""time""
""fullscreenenter"",""1"",""1981""
","
","
","""event"",""trial"",""time""
""fullscreenenter"",""1"",""1981""
","
","","","","","","null","<div style=""font-size:60px;"">+</div>","null","","fixation","","","","","","","","",""
"memory-trial","127","366518","0.0-15.0-1.42","1635","2","""event"",""trial"",""time""
""fullscreenenter"",""1"",""1981""
","
","
","""event"",""trial"",""time""
""fullscreenenter"",""1"",""1981""
","
","","","","","","2042.6000001430511","images/rodent2.png","","","memory_trial","1","definitely_old","","","","","","",""
"html-keyboard-response","128","367019","0.0-15.0-0.43","1635","2","""event"",""trial"",""time""
""fullscreenenter"",""1"",""1981""
","
","
","""event"",""trial"",""time""
""fullscreenenter"",""1"",""1981""
","
","","","","","","null","<div style=""font-size:60px;"">+</div>","null","","fixation","","","","","","","","",""
"memory-trial","129","370332","0.0-15.0-1.43","1635","2","""event"",""trial"",""time""
""fullscreenenter"",""1"",""1981""
","
","
","""event"",""trial"",""time""
""fullscreenenter"",""1"",""1981""
","
","","","","","","2311.2000000476837","images/train4.png","","","memory_trial","1","definitely_old","","","","","","",""
"html-keyboard-response","130","370834","0.0-15.0-0.44","1635","2","""event"",""trial"",""time""
""fullscreenenter"",""1"",""1981""
","
","
","""event"",""trial"",""time""
""fullscreenenter"",""1"",""1981""
","
","","","","","","null","<div style=""font-size:60px;"">+</div>","null","","fixation","","","","","","","","",""
"memory-trial","131","373864","0.0-15.0-1.44","1635","2","""event"",""trial"",""time""
""fullscreenenter"",""1"",""1981""
","
","
","""event"",""trial"",""time""
""fullscreenenter"",""1"",""1981""
","
","","","","","","2027","images/tree2.png","","","memory_trial","1","definitely_old","","","","","","",""
"html-keyboard-response","132","374374","0.0-15.0-0.45","1635","2","""event"",""trial"",""time""
""fullscreenenter"",""1"",""1981""
","
","
","""event"",""trial"",""time""
""fullscreenenter"",""1"",""1981""
","
","","","","","","null","<div style=""font-size:60px;"">+</div>","null","","fixation","","","","","","","","",""
"memory-trial","133","376660","0.0-15.0-1.45","1635","2","""event"",""trial"",""time""
""fullscreenenter"",""1"",""1981""
","
","
","""event"",""trial"",""time""
""fullscreenenter"",""1"",""1981""
","
","","","","","","1283.5","images/chair5.png","","","memory_trial","3","maybe_new","","","","","","",""
"html-keyboard-response","134","377172","0.0-15.0-0.46","1635","2","""event"",""trial"",""time""
""fullscreenenter"",""1"",""1981""
","
","
","""event"",""trial"",""time""
""fullscreenenter"",""1"",""1981""
","
","","","","","","null","<div style=""font-size:60px;"">+</div>","null","","fixation","","","","","","","","",""
"memory-trial","135","379272","0.0-15.0-1.46","1635","2","""event"",""trial"",""time""
""fullscreenenter"",""1"",""1981""
","
","
","""event"",""trial"",""time""
""fullscreenenter"",""1"",""1981""
","
","","","","","","1097.2999999523163","images/rodent5.png","","","memory_trial","1","definitely_old","","","","","","",""
"html-button-response","136","395092","0.0-15.0-2.46-0.46","1635","2","""event"",""trial"",""time""
""fullscreenenter"",""1"",""1981""
","
","
","""event"",""trial"",""time""
""fullscreenenter"",""1"",""1981""
","
","","","","","","15818.900000095367","<p> Take a break! </p><p> Click the button to continue. </p>","0","","break","","","","","","","","",""
"html-keyboard-response","137","395594","0.0-15.0-0.47","1635","2","""event"",""trial"",""time""
""fullscreenenter"",""1"",""1981""
","
","
","""event"",""trial"",""time""
""fullscreenenter"",""1"",""1981""
","
","","","","","","null","<div style=""font-size:60px;"">+</div>","null","","fixation","","","","","","","","",""
"memory-trial","138","398269","0.0-15.0-1.47","1635","2","""event"",""trial"",""time""
""fullscreenenter"",""1"",""1981""
","
","
","""event"",""trial"",""time""
""fullscreenenter"",""1"",""1981""
","
","","","","","","1672","images/dog3.png","","","memory_trial","4","definitely_new","","","","","","",""
"html-keyboard-response","139","398770","0.0-15.0-0.48","1635","2","""event"",""trial"",""time""
""fullscreenenter"",""1"",""1981""
","
","
","""event"",""trial"",""time""
""fullscreenenter"",""1"",""1981""
","
","","","","","","null","<div style=""font-size:60px;"">+</div>","null","","fixation","","","","","","","","",""
"memory-trial","140","401295","0.0-15.0-1.48","1635","2","""event"",""trial"",""time""
""fullscreenenter"",""1"",""1981""
","
","
","""event"",""trial"",""time""
""fullscreenenter"",""1"",""1981""
","
","","","","","","1523.2000000476837","images/rabbit2.png","","","memory_trial","2","maybe_old","","","","","","",""
"html-keyboard-response","141","401797","0.0-15.0-0.49","1635","2","""event"",""trial"",""time""
""fullscreenenter"",""1"",""1981""
","
","
","""event"",""trial"",""time""
""fullscreenenter"",""1"",""1981""
","
","","","","","","null","<div style=""font-size:60px;"">+</div>","null","","fixation","","","","","","","","",""
"memory-trial","142","403834","0.0-15.0-1.49","1635","2","""event"",""trial"",""time""
""fullscreenenter"",""1"",""1981""
","
","
","""event"",""trial"",""time""
""fullscreenenter"",""1"",""1981""
","
","","","","","","1034.0999999046326","images/dog5.png","","","memory_trial","4","definitely_new","","","","","","",""
"html-keyboard-response","143","404336","0.0-15.0-0.50","1635","2","""event"",""trial"",""time""
""fullscreenenter"",""1"",""1981""
","
","
","""event"",""trial"",""time""
""fullscreenenter"",""1"",""1981""
","
","","","","","","null","<div style=""font-size:60px;"">+</div>","null","","fixation","","","","","","","","",""
"memory-trial","144","406859","0.0-15.0-1.50","1635","2","""event"",""trial"",""time""
""fullscreenenter"",""1"",""1981""
","
","
","""event"",""trial"",""time""
""fullscreenenter"",""1"",""1981""
","
","","","","","","1521","images/train3.png","","","memory_trial","1","definitely_old","","","","","","",""
"html-keyboard-response","145","407360","0.0-15.0-0.51","1635","2","""event"",""trial"",""time""
""fullscreenenter"",""1"",""1981""
","
","
","""event"",""trial"",""time""
""fullscreenenter"",""1"",""1981""
","
","","","","","","null","<div style=""font-size:60px;"">+</div>","null","","fixation","","","","","","","","",""
"memory-trial","146","409985","0.0-15.0-1.51","1635","2","""event"",""trial"",""time""
""fullscreenenter"",""1"",""1981""
","
","
","""event"",""trial"",""time""
""fullscreenenter"",""1"",""1981""
","
","","","","","","1621.7999999523163","images/sheep2.png","","","memory_trial","3","maybe_new","","","","","","",""
"html-keyboard-response","147","410487","0.0-15.0-0.52","1635","2","""event"",""trial"",""time""
""fullscreenenter"",""1"",""1981""
","
","
","""event"",""trial"",""time""
""fullscreenenter"",""1"",""1981""
","
","","","","","","null","<div style=""font-size:60px;"">+</div>","null","","fixation","","","","","","","","",""
"memory-trial","148","412949","0.0-15.0-1.52","1635","2","""event"",""trial"",""time""
""fullscreenenter"",""1"",""1981""
","
","
","""event"",""trial"",""time""
""fullscreenenter"",""1"",""1981""
","
","","","","","","1459.5","images/banana5.png","","","memory_trial","2","maybe_old","","","","","","",""
"html-keyboard-response","149","413451","0.0-15.0-0.53","1635","2","""event"",""trial"",""time""
""fullscreenenter"",""1"",""1981""
","
","
","""event"",""trial"",""time""
""fullscreenenter"",""1"",""1981""
","
","","","","","","null","<div style=""font-size:60px;"">+</div>","null","","fixation","","","","","","","","",""
"memory-trial","150","415914","0.0-15.0-1.53","1635","2","""event"",""trial"",""time""
""fullscreenenter"",""1"",""1981""
","
","
","""event"",""trial"",""time""
""fullscreenenter"",""1"",""1981""
","
","","","","","","1461.2999999523163","images/feline4.png","","","memory_trial","2","maybe_old","","","","","","",""
"html-keyboard-response","151","416415","0.0-15.0-0.54","1635","2","""event"",""trial"",""time""
""fullscreenenter"",""1"",""1981""
","
","
","""event"",""trial"",""time""
""fullscreenenter"",""1"",""1981""
","
","","","","","","null","<div style=""font-size:60px;"">+</div>","null","","fixation","","","","","","","","",""
"memory-trial","152","418929","0.0-15.0-1.54","1635","2","""event"",""trial"",""time""
""fullscreenenter"",""1"",""1981""
","
","
","""event"",""trial"",""time""
""fullscreenenter"",""1"",""1981""
","
","","","","","","1511.5","images/straw4.png","","","memory_trial","1","definitely_old","","","","","","",""
"html-keyboard-response","153","419430","0.0-15.0-0.55","1635","2","""event"",""trial"",""time""
""fullscreenenter"",""1"",""1981""
","
","
","""event"",""trial"",""time""
""fullscreenenter"",""1"",""1981""
","
","","","","","","null","<div style=""font-size:60px;"">+</div>","null","","fixation","","","","","","","","",""
"memory-trial","154","423193","0.0-15.0-1.55","1635","2","""event"",""trial"",""time""
""fullscreenenter"",""1"",""1981""
","
","
","""event"",""trial"",""time""
""fullscreenenter"",""1"",""1981""
","
","","","","","","2761.2999999523163","images/goat3.png","","","memory_trial","2","maybe_old","","","","","","",""
"html-keyboard-response","155","423695","0.0-15.0-0.56","1635","2","""event"",""trial"",""time""
""fullscreenenter"",""1"",""1981""
","
","
","""event"",""trial"",""time""
""fullscreenenter"",""1"",""1981""
","
","","","","","","null","<div style=""font-size:60px;"">+</div>","null","","fixation","","","","","","","","",""
"memory-trial","156","427142","0.0-15.0-1.56","1635","2","""event"",""trial"",""time""
""fullscreenenter"",""1"",""1981""
","
","
","""event"",""trial"",""time""
""fullscreenenter"",""1"",""1981""
","
","","","","","","2443.2999999523163","images/bush4.png","","","memory_trial","1","definitely_old","","","","","","",""
"html-keyboard-response","157","427643","0.0-15.0-0.57","1635","2","""event"",""trial"",""time""
""fullscreenenter"",""1"",""1981""
","
","
","""event"",""trial"",""time""
""fullscreenenter"",""1"",""1981""
","
","","","","","","null","<div style=""font-size:60px;"">+</div>","null","","fixation","","","","","","","","",""
"memory-trial","158","429867","0.0-15.0-1.57","1635","2","""event"",""trial"",""time""
""fullscreenenter"",""1"",""1981""
","
","
","""event"",""trial"",""time""
""fullscreenenter"",""1"",""1981""
","
","","","","","","1220.7000000476837","images/straw1.png","","","memory_trial","2","maybe_old","","","","","","",""
"html-keyboard-response","159","430368","0.0-15.0-0.58","1635","2","""event"",""trial"",""time""
""fullscreenenter"",""1"",""1981""
","
","
","""event"",""trial"",""time""
""fullscreenenter"",""1"",""1981""
","
","","","","","","null","<div style=""font-size:60px;"">+</div>","null","","fixation","","","","","","","","",""
"memory-trial","160","432480","0.0-15.0-1.58","1635","2","""event"",""trial"",""time""
""fullscreenenter"",""1"",""1981""
","
","
","""event"",""trial"",""time""
""fullscreenenter"",""1"",""1981""
","
","","","","","","1108.8999998569489","images/cactus5.png","","","memory_trial","1","definitely_old","","","","","","",""
"html-keyboard-response","161","432981","0.0-15.0-0.59","1635","2","""event"",""trial"",""time""
""fullscreenenter"",""1"",""1981""
","
","
","""event"",""trial"",""time""
""fullscreenenter"",""1"",""1981""
","
","","","","","","null","<div style=""font-size:60px;"">+</div>","null","","fixation","","","","","","","","",""
"memory-trial","162","435057","0.0-15.0-1.59","1635","2","""event"",""trial"",""time""
""fullscreenenter"",""1"",""1981""
","
","
","""event"",""trial"",""time""
""fullscreenenter"",""1"",""1981""
","
","","","","","","1073.0999999046326","images/horse4.png","","","memory_trial","4","definitely_new","","","","","","",""
"html-keyboard-response","163","435558","0.0-15.0-0.60","1635","2","""event"",""trial"",""time""
""fullscreenenter"",""1"",""1981""
","
","
","""event"",""trial"",""time""
""fullscreenenter"",""1"",""1981""
","
","","","","","","null","<div style=""font-size:60px;"">+</div>","null","","fixation","","","","","","","","",""
"memory-trial","164","439483","0.0-15.0-1.60","1635","2","""event"",""trial"",""time""
""fullscreenenter"",""1"",""1981""
","
","
","""event"",""trial"",""time""
""fullscreenenter"",""1"",""1981""
","
","","","","","","2922.7000000476837","images/truck4.png","","","memory_trial","1","definitely_old","","","","","","",""
"html-keyboard-response","165","439985","0.0-15.0-0.61","1635","2","""event"",""trial"",""time""
""fullscreenenter"",""1"",""1981""
","
","
","""event"",""trial"",""time""
""fullscreenenter"",""1"",""1981""
","
","","","","","","null","<div style=""font-size:60px;"">+</div>","null","","fixation","","","","","","","","",""
"memory-trial","166","443436","0.0-15.0-1.61","1635","2","""event"",""trial"",""time""
""fullscreenenter"",""1"",""1981""
","
","
","""event"",""trial"",""time""
""fullscreenenter"",""1"",""1981""
","
","","","","","","2448.4000000953674","images/cactus2.png","","","memory_trial","3","maybe_new","","","","","","",""
"html-keyboard-response","167","443939","0.0-15.0-0.62","1635","2","""event"",""trial"",""time""
""fullscreenenter"",""1"",""1981""
","
","
","""event"",""trial"",""time""
""fullscreenenter"",""1"",""1981""
","
","","","","","","null","<div style=""font-size:60px;"">+</div>","null","","fixation","","","","","","","","",""
"memory-trial","168","447573","0.0-15.0-1.62","1635","2","""event"",""trial"",""time""
""fullscreenenter"",""1"",""1981""
","
","
","""event"",""trial"",""time""
""fullscreenenter"",""1"",""1981""
","
","","","","","","2630.7000000476837","images/cow5.png","","","memory_trial","4","definitely_new","","","","","","",""
"html-keyboard-response","169","448075","0.0-15.0-0.63","1635","2","""event"",""trial"",""time""
""fullscreenenter"",""1"",""1981""
","
","
","""event"",""trial"",""time""
""fullscreenenter"",""1"",""1981""
","
","","","","","","null","<div style=""font-size:60px;"">+</div>","null","","fixation","","","","","","","","",""
"memory-trial","170","450744","0.0-15.0-1.63","1635","2","""event"",""trial"",""time""
""fullscreenenter"",""1"",""1981""
","
","
","""event"",""trial"",""time""
""fullscreenenter"",""1"",""1981""
","
","","","","","","1666.5999999046326","images/plane3.png","","","memory_trial","3","maybe_new","","","","","","",""
"html-keyboard-response","171","451245","0.0-15.0-0.64","1635","2","""event"",""trial"",""time""
""fullscreenenter"",""1"",""1981""
","
","
","""event"",""trial"",""time""
""fullscreenenter"",""1"",""1981""
","
","","","","","","null","<div style=""font-size:60px;"">+</div>","null","","fixation","","","","","","","","",""
"memory-trial","172","454847","0.0-15.0-1.64","1635","2","""event"",""trial"",""time""
""fullscreenenter"",""1"",""1981""
","
","
","""event"",""trial"",""time""
""fullscreenenter"",""1"",""1981""
","
","","","","","","2600.4000000953674","images/chair1.png","","","memory_trial","3","maybe_new","","","","","","",""
"html-keyboard-response","173","455348","0.0-15.0-0.65","1635","2","""event"",""trial"",""time""
""fullscreenenter"",""1"",""1981""
","
","
","""event"",""trial"",""time""
""fullscreenenter"",""1"",""1981""
","
","","","","","","null","<div style=""font-size:60px;"">+</div>","null","","fixation","","","","","","","","",""
"memory-trial","174","458323","0.0-15.0-1.65","1635","2","""event"",""trial"",""time""
""fullscreenenter"",""1"",""1981""
","
","
","""event"",""trial"",""time""
""fullscreenenter"",""1"",""1981""
","
","","","","","","1973.6000001430511","images/goat4.png","","","memory_trial","2","maybe_old","","","","","","",""
"html-keyboard-response","175","458825","0.0-15.0-0.66","1635","2","""event"",""trial"",""time""
""fullscreenenter"",""1"",""1981""
","
","
","""event"",""trial"",""time""
""fullscreenenter"",""1"",""1981""
","
","","","","","","null","<div style=""font-size:60px;"">+</div>","null","","fixation","","","","","","","","",""
"memory-trial","176","461544","0.0-15.0-1.66","1635","2","""event"",""trial"",""time""
""fullscreenenter"",""1"",""1981""
","
","
","""event"",""trial"",""time""
""fullscreenenter"",""1"",""1981""
","
","","","","","","1716.7000000476837","images/rabbit4.png","","","memory_trial","3","maybe_new","","","","","","",""
"html-keyboard-response","177","462045","0.0-15.0-0.67","1635","2","""event"",""trial"",""time""
""fullscreenenter"",""1"",""1981""
","
","
","""event"",""trial"",""time""
""fullscreenenter"",""1"",""1981""
","
","","","","","","null","<div style=""font-size:60px;"">+</div>","null","","fixation","","","","","","","","",""
"memory-trial","178","464585","0.0-15.0-1.67","1635","2","""event"",""trial"",""time""
""fullscreenenter"",""1"",""1981""
","
","
","""event"",""trial"",""time""
""fullscreenenter"",""1"",""1981""
","
","","","","","","1536.7999999523163","images/rodent4.png","","","memory_trial","3","maybe_new","","","","","","",""
"html-keyboard-response","179","465087","0.0-15.0-0.68","1635","2","""event"",""trial"",""time""
""fullscreenenter"",""1"",""1981""
","
","
","""event"",""trial"",""time""
""fullscreenenter"",""1"",""1981""
","
","","","","","","null","<div style=""font-size:60px;"">+</div>","null","","fixation","","","","","","","","",""
"memory-trial","180","468347","0.0-15.0-1.68","1635","2","""event"",""trial"",""time""
""fullscreenenter"",""1"",""1981""
","
","
","""event"",""trial"",""time""
""fullscreenenter"",""1"",""1981""
","
","","","","","","2258.2999999523163","images/boat5.png","","","memory_trial","4","definitely_new","","","","","","",""
"html-keyboard-response","181","468849","0.0-15.0-0.69","1635","2","""event"",""trial"",""time""
""fullscreenenter"",""1"",""1981""
","
","
","""event"",""trial"",""time""
""fullscreenenter"",""1"",""1981""
","
","","","","","","null","<div style=""font-size:60px;"">+</div>","null","","fixation","","","","","","","","",""
"memory-trial","182","471216","0.0-15.0-1.69","1635","2","""event"",""trial"",""time""
""fullscreenenter"",""1"",""1981""
","
","
","""event"",""trial"",""time""
""fullscreenenter"",""1"",""1981""
","
","","","","","","1364.9000000953674","images/bed1.png","","","memory_trial","4","definitely_new","","","","","","",""
"html-keyboard-response","183","471718","0.0-15.0-0.70","1635","2","""event"",""trial"",""time""
""fullscreenenter"",""1"",""1981""
","
","
","""event"",""trial"",""time""
""fullscreenenter"",""1"",""1981""
","
","","","","","","null","<div style=""font-size:60px;"">+</div>","null","","fixation","","","","","","","","",""
"memory-trial","184","473850","0.0-15.0-1.70","1635","2","""event"",""trial"",""time""
""fullscreenenter"",""1"",""1981""
","
","
","""event"",""trial"",""time""
""fullscreenenter"",""1"",""1981""
","
","","","","","","1129.2999999523163","images/bed2.png","","","memory_trial","4","definitely_new","","","","","","",""
"html-keyboard-response","185","474352","0.0-15.0-0.71","1635","2","""event"",""trial"",""time""
""fullscreenenter"",""1"",""1981""
","
","
","""event"",""trial"",""time""
""fullscreenenter"",""1"",""1981""
","
","","","","","","null","<div style=""font-size:60px;"">+</div>","null","","fixation","","","","","","","","",""
"memory-trial","186","477969","0.0-15.0-1.71","1635","2","""event"",""trial"",""time""
""fullscreenenter"",""1"",""1981""
","
","
","""event"",""trial"",""time""
""fullscreenenter"",""1"",""1981""
","
","","","","","","2615.2999999523163","images/rodent1.png","","","memory_trial","1","definitely_old","","","","","","",""
"html-keyboard-response","187","478471","0.0-15.0-0.72","1635","2","""event"",""trial"",""time""
""fullscreenenter"",""1"",""1981""
","
","
","""event"",""trial"",""time""
""fullscreenenter"",""1"",""1981""
","
","","","","","","null","<div style=""font-size:60px;"">+</div>","null","","fixation","","","","","","","","",""
"memory-trial","188","481326","0.0-15.0-1.72","1635","2","""event"",""trial"",""time""
""fullscreenenter"",""1"",""1981""
","
","
","""event"",""trial"",""time""
""fullscreenenter"",""1"",""1981""
","
","","","","","","1852.1999998092651","images/dog1.png","","","memory_trial","4","definitely_new","","","","","","",""
"html-keyboard-response","189","481827","0.0-15.0-0.73","1635","2","""event"",""trial"",""time""
""fullscreenenter"",""1"",""1981""
","
","
","""event"",""trial"",""time""
""fullscreenenter"",""1"",""1981""
","
","","","","","","null","<div style=""font-size:60px;"">+</div>","null","","fixation","","","","","","","","",""
"memory-trial","190","484052","0.0-15.0-1.73","1635","2","""event"",""trial"",""time""
""fullscreenenter"",""1"",""1981""
","
","
","""event"",""trial"",""time""
""fullscreenenter"",""1"",""1981""
","
","","","","","","1224.6999998092651","images/feline2.png","","","memory_trial","2","maybe_old","","","","","","",""
"html-keyboard-response","191","484552","0.0-15.0-0.74","1635","2","""event"",""trial"",""time""
""fullscreenenter"",""1"",""1981""
","
","
","""event"",""trial"",""time""
""fullscreenenter"",""1"",""1981""
","
","","","","","","null","<div style=""font-size:60px;"">+</div>","null","","fixation","","","","","","","","",""
"memory-trial","192","486923","0.0-15.0-1.74","1635","2","""event"",""trial"",""time""
""fullscreenenter"",""1"",""1981""
","
","
","""event"",""trial"",""time""
""fullscreenenter"",""1"",""1981""
","
","","","","","","1368.2000000476837","images/apple1.png","","","memory_trial","4","definitely_new","","","","","","",""
"html-keyboard-response","193","487425","0.0-15.0-0.75","1635","2","""event"",""trial"",""time""
""fullscreenenter"",""1"",""1981""
","
","
","""event"",""trial"",""time""
""fullscreenenter"",""1"",""1981""
","
","","","","","","null","<div style=""font-size:60px;"">+</div>","null","","fixation","","","","","","","","",""
"memory-trial","194","490660","0.0-15.0-1.75","1635","2","""event"",""trial"",""time""
""fullscreenenter"",""1"",""1981""
","
","
","""event"",""trial"",""time""
""fullscreenenter"",""1"",""1981""
","
","","","","","","2233.2000000476837","images/sofa5.png","","","memory_trial","3","maybe_new","","","","","","",""
"html-keyboard-response","195","491162","0.0-15.0-0.76","1635","2","""event"",""trial"",""time""
""fullscreenenter"",""1"",""1981""
","
","
","""event"",""trial"",""time""
""fullscreenenter"",""1"",""1981""
","
","","","","","","null","<div style=""font-size:60px;"">+</div>","null","","fixation","","","","","","","","",""
"memory-trial","196","494262","0.0-15.0-1.76","1635","2","""event"",""trial"",""time""
""fullscreenenter"",""1"",""1981""
","
","
","""event"",""trial"",""time""
""fullscreenenter"",""1"",""1981""
","
","","","","","","2097.5","images/train2.png","","","memory_trial","2","maybe_old","","","","","","",""
"html-keyboard-response","197","494765","0.0-15.0-0.77","1635","2","""event"",""trial"",""time""
""fullscreenenter"",""1"",""1981""
","
","
","""event"",""trial"",""time""
""fullscreenenter"",""1"",""1981""
","
","","","","","","null","<div style=""font-size:60px;"">+</div>","null","","fixation","","","","","","","","",""
"memory-trial","198","496649","0.0-15.0-1.77","1635","2","""event"",""trial"",""time""
""fullscreenenter"",""1"",""1981""
","
","
","""event"",""trial"",""time""
""fullscreenenter"",""1"",""1981""
","
","","","","","","882.1999998092651","images/apple2.png","","","memory_trial","4","definitely_new","","","","","","",""
"html-keyboard-response","199","497150","0.0-15.0-0.78","1635","2","""event"",""trial"",""time""
""fullscreenenter"",""1"",""1981""
","
","
","""event"",""trial"",""time""
""fullscreenenter"",""1"",""1981""
","
","","","","","","null","<div style=""font-size:60px;"">+</div>","null","","fixation","","","","","","","","",""
"memory-trial","200","500081","0.0-15.0-1.78","1635","2","""event"",""trial"",""time""
""fullscreenenter"",""1"",""1981""
","
","
","""event"",""trial"",""time""
""fullscreenenter"",""1"",""1981""
","
","","","","","","1928.9000000953674","images/apple4.png","","","memory_trial","4","definitely_new","","","","","","",""
"html-keyboard-response","201","500582","0.0-15.0-0.79","1635","2","""event"",""trial"",""time""
""fullscreenenter"",""1"",""1981""
","
","
","""event"",""trial"",""time""
""fullscreenenter"",""1"",""1981""
","
","","","","","","null","<div style=""font-size:60px;"">+</div>","null","","fixation","","","","","","","","",""
"memory-trial","202","502762","0.0-15.0-1.79","1635","2","""event"",""trial"",""time""
""fullscreenenter"",""1"",""1981""
","
","
","""event"",""trial"",""time""
""fullscreenenter"",""1"",""1981""
","
","","","","","","1176.4000000953674","images/truck1.png","","","memory_trial","2","maybe_old","","","","","","",""
"html-keyboard-response","203","503264","0.0-15.0-0.80","1635","2","""event"",""trial"",""time""
""fullscreenenter"",""1"",""1981""
","
","
","""event"",""trial"",""time""
""fullscreenenter"",""1"",""1981""
","
","","","","","","null","<div style=""font-size:60px;"">+</div>","null","","fixation","","","","","","","","",""
"memory-trial","204","505886","0.0-15.0-1.80","1635","2","""event"",""trial"",""time""
""fullscreenenter"",""1"",""1981""
","
","
","""event"",""trial"",""time""
""fullscreenenter"",""1"",""1981""
","
","","","","","","1621","images/cow3.png","","","memory_trial","3","maybe_new","","","","","","",""
"html-keyboard-response","205","506387","0.0-15.0-0.81","1635","2","""event"",""trial"",""time""
""fullscreenenter"",""1"",""1981""
","
","
","""event"",""trial"",""time""
""fullscreenenter"",""1"",""1981""
","
","","","","","","null","<div style=""font-size:60px;"">+</div>","null","","fixation","","","","","","","","",""
"memory-trial","206","508535","0.0-15.0-1.81","1635","2","""event"",""trial"",""time""
""fullscreenenter"",""1"",""1981""
","
","
","""event"",""trial"",""time""
""fullscreenenter"",""1"",""1981""
","
","","","","","","1145.5999999046326","images/boat4.png","","","memory_trial","4","definitely_new","","","","","","",""
"html-keyboard-response","207","509036","0.0-15.0-0.82","1635","2","""event"",""trial"",""time""
""fullscreenenter"",""1"",""1981""
","
","
","""event"",""trial"",""time""
""fullscreenenter"",""1"",""1981""
","
","","","","","","null","<div style=""font-size:60px;"">+</div>","null","","fixation","","","","","","","","",""
"memory-trial","208","511631","0.0-15.0-1.82","1635","2","""event"",""trial"",""time""
""fullscreenenter"",""1"",""1981""
","
","
","""event"",""trial"",""time""
""fullscreenenter"",""1"",""1981""
","
","","","","","","1592.5","images/apple5.png","","","memory_trial","4","definitely_new","","","","","","",""
"html-keyboard-response","209","512133","0.0-15.0-0.83","1635","2","""event"",""trial"",""time""
""fullscreenenter"",""1"",""1981""
","
","
","""event"",""trial"",""time""
""fullscreenenter"",""1"",""1981""
","
","","","","","","null","<div style=""font-size:60px;"">+</div>","null","","fixation","","","","","","","","",""
"memory-trial","210","514536","0.0-15.0-1.83","1635","2","""event"",""trial"",""time""
""fullscreenenter"",""1"",""1981""
","
","
","""event"",""trial"",""time""
""fullscreenenter"",""1"",""1981""
","
","","","","","","1400.3999998569489","images/orange1.png","","","memory_trial","2","maybe_old","","","","","","",""
"html-keyboard-response","211","515037","0.0-15.0-0.84","1635","2","""event"",""trial"",""time""
""fullscreenenter"",""1"",""1981""
","
","
","""event"",""trial"",""time""
""fullscreenenter"",""1"",""1981""
","
","","","","","","null","<div style=""font-size:60px;"">+</div>","null","","fixation","","","","","","","","",""
"memory-trial","212","517957","0.0-15.0-1.84","1635","2","""event"",""trial"",""time""
""fullscreenenter"",""1"",""1981""
","
","
","""event"",""trial"",""time""
""fullscreenenter"",""1"",""1981""
","
","","","","","","1917.4000000953674","images/tree1.png","","","memory_trial","1","definitely_old","","","","","","",""
"html-keyboard-response","213","518459","0.0-15.0-0.85","1635","2","""event"",""trial"",""time""
""fullscreenenter"",""1"",""1981""
","
","
","""event"",""trial"",""time""
""fullscreenenter"",""1"",""1981""
","
","","","","","","null","<div style=""font-size:60px;"">+</div>","null","","fixation","","","","","","","","",""
"memory-trial","214","520561","0.0-15.0-1.85","1635","2","""event"",""trial"",""time""
""fullscreenenter"",""1"",""1981""
","
","
","""event"",""trial"",""time""
""fullscreenenter"",""1"",""1981""
","
","","","","","","1089.5999999046326","images/table4.png","","","memory_trial","2","maybe_old","","","","","","",""
"html-keyboard-response","215","521063","0.0-15.0-0.86","1635","2","""event"",""trial"",""time""
""fullscreenenter"",""1"",""1981""
","
","
","""event"",""trial"",""time""
""fullscreenenter"",""1"",""1981""
","
","","","","","","null","<div style=""font-size:60px;"">+</div>","null","","fixation","","","","","","","","",""
"memory-trial","216","523756","0.0-15.0-1.86","1635","2","""event"",""trial"",""time""
""fullscreenenter"",""1"",""1981""
","
","
","""event"",""trial"",""time""
""fullscreenenter"",""1"",""1981""
","
","","","","","","1691.3999998569489","images/bush2.png","","","memory_trial","1","definitely_old","","","","","","",""
"html-keyboard-response","217","524258","0.0-15.0-0.87","1635","2","""event"",""trial"",""time""
""fullscreenenter"",""1"",""1981""
","
","
","""event"",""trial"",""time""
""fullscreenenter"",""1"",""1981""
","
","","","","","","null","<div style=""font-size:60px;"">+</div>","null","","fixation","","","","","","","","",""
"memory-trial","218","526778","0.0-15.0-1.87","1635","2","""event"",""trial"",""time""
""fullscreenenter"",""1"",""1981""
","
","
","""event"",""trial"",""time""
""fullscreenenter"",""1"",""1981""
","
","","","","","","1518.3000001907349","images/banana4.png","","","memory_trial","3","maybe_new","","","","","","",""
"html-keyboard-response","219","527280","0.0-15.0-0.88","1635","2","""event"",""trial"",""time""
""fullscreenenter"",""1"",""1981""
","
","
","""event"",""trial"",""time""
""fullscreenenter"",""1"",""1981""
","
","","","","","","null","<div style=""font-size:60px;"">+</div>","null","","fixation","","","","","","","","",""
"memory-trial","220","530128","0.0-15.0-1.88","1635","2","""event"",""trial"",""time""
""fullscreenenter"",""1"",""1981""
","
","
","""event"",""trial"",""time""
""fullscreenenter"",""1"",""1981""
","
","","","","","","1846.7999999523163","images/banana1.png","","","memory_trial","3","maybe_new","","","","","","",""
"html-keyboard-response","221","530629","0.0-15.0-0.89","1635","2","""event"",""trial"",""time""
""fullscreenenter"",""1"",""1981""
","
","
","""event"",""trial"",""time""
""fullscreenenter"",""1"",""1981""
","
","","","","","","null","<div style=""font-size:60px;"">+</div>","null","","fixation","","","","","","","","",""
"memory-trial","222","533069","0.0-15.0-1.89","1635","2","""event"",""trial"",""time""
""fullscreenenter"",""1"",""1981""
","
","
","""event"",""trial"",""time""
""fullscreenenter"",""1"",""1981""
","
","","","","","","1436.6000001430511","images/table1.png","","","memory_trial","4","definitely_new","","","","","","",""
"html-keyboard-response","223","533571","0.0-15.0-0.90","1635","2","""event"",""trial"",""time""
""fullscreenenter"",""1"",""1981""
","
","
","""event"",""trial"",""time""
""fullscreenenter"",""1"",""1981""
","
","","","","","","null","<div style=""font-size:60px;"">+</div>","null","","fixation","","","","","","","","",""
"memory-trial","224","535750","0.0-15.0-1.90","1635","2","""event"",""trial"",""time""
""fullscreenenter"",""1"",""1981""
","
","
","""event"",""trial"",""time""
""fullscreenenter"",""1"",""1981""
","
","","","","","","1177","images/plane5.png","","","memory_trial","2","maybe_old","","","","","","",""
"html-keyboard-response","225","536251","0.0-15.0-0.91","1635","2","""event"",""trial"",""time""
""fullscreenenter"",""1"",""1981""
","
","
","""event"",""trial"",""time""
""fullscreenenter"",""1"",""1981""
","
","","","","","","null","<div style=""font-size:60px;"">+</div>","null","","fixation","","","","","","","","",""
"memory-trial","226","539853","0.0-15.0-1.91","1635","2","""event"",""trial"",""time""
""fullscreenenter"",""1"",""1981""
","
","
","""event"",""trial"",""time""
""fullscreenenter"",""1"",""1981""
","
","","","","","","2598.7000000476837","images/feline3.png","","","memory_trial","3","maybe_new","","","","","","",""
"html-keyboard-response","227","540355","0.0-15.0-0.92","1635","2","""event"",""trial"",""time""
""fullscreenenter"",""1"",""1981""
","
","
","""event"",""trial"",""time""
""fullscreenenter"",""1"",""1981""
","
","","","","","","null","<div style=""font-size:60px;"">+</div>","null","","fixation","","","","","","","","",""
"memory-trial","228","542673","0.0-15.0-1.92","1635","2","""event"",""trial"",""time""
""fullscreenenter"",""1"",""1981""
","
","
","""event"",""trial"",""time""
""fullscreenenter"",""1"",""1981""
","
","","","","","","1314.1000001430511","images/chair4.png","","","memory_trial","4","definitely_new","","","","","","",""
"html-keyboard-response","229","543174","0.0-15.0-0.93","1635","2","""event"",""trial"",""time""
""fullscreenenter"",""1"",""1981""
","
","
","""event"",""trial"",""time""
""fullscreenenter"",""1"",""1981""
","
","","","","","","null","<div style=""font-size:60px;"">+</div>","null","","fixation","","","","","","","","",""
"memory-trial","230","545074","0.0-15.0-1.93","1635","2","""event"",""trial"",""time""
""fullscreenenter"",""1"",""1981""
","
","
","""event"",""trial"",""time""
""fullscreenenter"",""1"",""1981""
","
","","","","","","899.1999998092651","images/flower1.png","","","memory_trial","4","definitely_new","","","","","","",""
"html-keyboard-response","231","545576","0.0-15.0-0.94","1635","2","""event"",""trial"",""time""
""fullscreenenter"",""1"",""1981""
","
","
","""event"",""trial"",""time""
""fullscreenenter"",""1"",""1981""
","
","","","","","","null","<div style=""font-size:60px;"">+</div>","null","","fixation","","","","","","","","",""
"memory-trial","232","547889","0.0-15.0-1.94","1635","2","""event"",""trial"",""time""
""fullscreenenter"",""1"",""1981""
","
","
","""event"",""trial"",""time""
""fullscreenenter"",""1"",""1981""
","
","","","","","","1310.7999999523163","images/orange3.png","","","memory_trial","2","maybe_old","","","","","","",""
"html-keyboard-response","233","548390","0.0-15.0-0.95","1635","2","""event"",""trial"",""time""
""fullscreenenter"",""1"",""1981""
","
","
","""event"",""trial"",""time""
""fullscreenenter"",""1"",""1981""
","
","","","","","","null","<div style=""font-size:60px;"">+</div>","null","","fixation","","","","","","","","",""
"memory-trial","234","551305","0.0-15.0-1.95","1635","2","""event"",""trial"",""time""
""fullscreenenter"",""1"",""1981""
","
","
","""event"",""trial"",""time""
""fullscreenenter"",""1"",""1981""
","
","","","","","","1911.9000000953674","images/rodent3.png","","","memory_trial","3","maybe_new","","","","","","",""
"html-keyboard-response","235","551806","0.0-15.0-0.96","1635","2","""event"",""trial"",""time""
""fullscreenenter"",""1"",""1981""
","
","
","""event"",""trial"",""time""
""fullscreenenter"",""1"",""1981""
","
","","","","","","null","<div style=""font-size:60px;"">+</div>","null","","fixation","","","","","","","","",""
"memory-trial","236","555318","0.0-15.0-1.96","1635","2","""event"",""trial"",""time""
""fullscreenenter"",""1"",""1981""
","
","
","""event"",""trial"",""time""
""fullscreenenter"",""1"",""1981""
","
","","","","","","2509.0999999046326","images/orange4.png","","","memory_trial","2","maybe_old","","","","","","",""
"html-keyboard-response","237","555819","0.0-15.0-0.97","1635","2","""event"",""trial"",""time""
""fullscreenenter"",""1"",""1981""
","
","
","""event"",""trial"",""time""
""fullscreenenter"",""1"",""1981""
","
","","","","","","null","<div style=""font-size:60px;"">+</div>","null","","fixation","","","","","","","","",""
"memory-trial","238","557873","0.0-15.0-1.97","1635","2","""event"",""trial"",""time""
""fullscreenenter"",""1"",""1981""
","
","
","""event"",""trial"",""time""
""fullscreenenter"",""1"",""1981""
","
","","","","","","1050.7000000476837","images/bed3.png","","","memory_trial","4","definitely_new","","","","","","",""
"html-keyboard-response","239","558374","0.0-15.0-0.98","1635","2","""event"",""trial"",""time""
""fullscreenenter"",""1"",""1981""
","
","
","""event"",""trial"",""time""
""fullscreenenter"",""1"",""1981""
","
","","","","","","null","<div style=""font-size:60px;"">+</div>","null","","fixation","","","","","","","","",""
"memory-trial","240","560607","0.0-15.0-1.98","1635","2","""event"",""trial"",""time""
""fullscreenenter"",""1"",""1981""
","
","
","""event"",""trial"",""time""
""fullscreenenter"",""1"",""1981""
","
","","","","","","1230.4000000953674","images/train1.png","","","memory_trial","2","maybe_old","","","","","","",""
"html-keyboard-response","241","561110","0.0-15.0-0.99","1635","2","""event"",""trial"",""time""
""fullscreenenter"",""1"",""1981""
","
","
","""event"",""trial"",""time""
""fullscreenenter"",""1"",""1981""
","
","","","","","","null","<div style=""font-size:60px;"">+</div>","null","","fixation","","","","","","","","",""
"memory-trial","242","564541","0.0-15.0-1.99","1635","2","""event"",""trial"",""time""
""fullscreenenter"",""1"",""1981""
","
","
","""event"",""trial"",""time""
""fullscreenenter"",""1"",""1981""
","
","","","","","","2429.2000000476837","images/goat1.png","","","memory_trial","4","definitely_new","","","","","","",""
"html-keyboard-response","243","565044","0.0-15.0-0.100","1635","2","""event"",""trial"",""time""
""fullscreenenter"",""1"",""1981""
","
","
","""event"",""trial"",""time""
""fullscreenenter"",""1"",""1981""
","
","","","","","","null","<div style=""font-size:60px;"">+</div>","null","","fixation","","","","","","","","",""
"memory-trial","244","568458","0.0-15.0-1.100","1635","2","""event"",""trial"",""time""
""fullscreenenter"",""1"",""1981""
","
","
","""event"",""trial"",""time""
""fullscreenenter"",""1"",""1981""
","
","","","","","","2411.2000000476837","images/sheep1.png","","","memory_trial","3","maybe_new","","","","","","",""
"html-keyboard-response","245","568960","0.0-15.0-0.101","1635","2","""event"",""trial"",""time""
""fullscreenenter"",""1"",""1981""
","
","
","""event"",""trial"",""time""
""fullscreenenter"",""1"",""1981""
","
","","","","","","null","<div style=""font-size:60px;"">+</div>","null","","fixation","","","","","","","","",""
"memory-trial","246","571990","0.0-15.0-1.101","1635","2","""event"",""trial"",""time""
""fullscreenenter"",""1"",""1981""
","
","
","""event"",""trial"",""time""
""fullscreenenter"",""1"",""1981""
","
","","","","","","2027","images/orange2.png","","","memory_trial","2","maybe_old","","","","","","",""
"html-button-response","247","579718","0.0-15.0-2.101-0.101","1635","2","""event"",""trial"",""time""
""fullscreenenter"",""1"",""1981""
","
","
","""event"",""trial"",""time""
""fullscreenenter"",""1"",""1981""
","
","","","","","","7727.299999952316","<p> Take a break! </p><p> Click the button to continue. </p>","0","","break","","","","","","","","",""
"html-keyboard-response","248","580219","0.0-15.0-0.102","1635","2","""event"",""trial"",""time""
""fullscreenenter"",""1"",""1981""
","
","
","""event"",""trial"",""time""
""fullscreenenter"",""1"",""1981""
","
","","","","","","null","<div style=""font-size:60px;"">+</div>","null","","fixation","","","","","","","","",""
"memory-trial","249","582445","0.0-15.0-1.102","1635","2","""event"",""trial"",""time""
""fullscreenenter"",""1"",""1981""
","
","
","""event"",""trial"",""time""
""fullscreenenter"",""1"",""1981""
","
","","","","","","1222.7999999523163","images/boat3.png","","","memory_trial","4","definitely_new","","","","","","",""
"html-keyboard-response","250","582950","0.0-15.0-0.103","1635","2","""event"",""trial"",""time""
""fullscreenenter"",""1"",""1981""
","
","
","""event"",""trial"",""time""
""fullscreenenter"",""1"",""1981""
","
","","","","","","null","<div style=""font-size:60px;"">+</div>","null","","fixation","","","","","","","","",""
"memory-trial","251","586954","0.0-15.0-1.103","1635","2","""event"",""trial"",""time""
""fullscreenenter"",""1"",""1981""
","
","
","""event"",""trial"",""time""
""fullscreenenter"",""1"",""1981""
","
","","","","","","3002.899999856949","images/sofa2.png","","","memory_trial","1","definitely_old","","","","","","",""
"html-keyboard-response","252","587455","0.0-15.0-0.104","1635","2","""event"",""trial"",""time""
""fullscreenenter"",""1"",""1981""
","
","
","""event"",""trial"",""time""
""fullscreenenter"",""1"",""1981""
","
","","","","","","null","<div style=""font-size:60px;"">+</div>","null","","fixation","","","","","","","","",""
"memory-trial","253","589966","0.0-15.0-1.104","1635","2","""event"",""trial"",""time""
""fullscreenenter"",""1"",""1981""
","
","
","""event"",""trial"",""time""
""fullscreenenter"",""1"",""1981""
","
","","","","","","1508","images/train5.png","","","memory_trial","3","maybe_new","","","","","","",""
"html-keyboard-response","254","590468","0.0-15.0-0.105","1635","2","""event"",""trial"",""time""
""fullscreenenter"",""1"",""1981""
","
","
","""event"",""trial"",""time""
""fullscreenenter"",""1"",""1981""
","
","","","","","","null","<div style=""font-size:60px;"">+</div>","null","","fixation","","","","","","","","",""
"memory-trial","255","592827","0.0-15.0-1.105","1635","2","""event"",""trial"",""time""
""fullscreenenter"",""1"",""1981""
","
","
","""event"",""trial"",""time""
""fullscreenenter"",""1"",""1981""
","
","","","","","","1340.2000000476837","images/table5.png","","","memory_trial","3","maybe_new","","","","","","",""
"html-keyboard-response","256","593328","0.0-15.0-0.106","1635","2","""event"",""trial"",""time""
""fullscreenenter"",""1"",""1981""
","
","
","""event"",""trial"",""time""
""fullscreenenter"",""1"",""1981""
","
","","","","","","null","<div style=""font-size:60px;"">+</div>","null","","fixation","","","","","","","","",""
"memory-trial","257","596895","0.0-15.0-1.106","1635","2","""event"",""trial"",""time""
""fullscreenenter"",""1"",""1981""
","
","
","""event"",""trial"",""time""
""fullscreenenter"",""1"",""1981""
","
","","","","","","2564.2000000476837","images/banana3.png","","","memory_trial","3","maybe_new","","","","","","",""
"html-keyboard-response","258","597396","0.0-15.0-0.107","1635","2","""event"",""trial"",""time""
""fullscreenenter"",""1"",""1981""
","
","
","""event"",""trial"",""time""
""fullscreenenter"",""1"",""1981""
","
","","","","","","null","<div style=""font-size:60px;"">+</div>","null","","fixation","","","","","","","","",""
"memory-trial","259","599232","0.0-15.0-1.107","1635","2","""event"",""trial"",""time""
""fullscreenenter"",""1"",""1981""
","
","
","""event"",""trial"",""time""
""fullscreenenter"",""1"",""1981""
","
","","","","","","832.7000000476837","images/horse1.png","","","memory_trial","4","definitely_new","","","","","","",""
"html-keyboard-response","260","599733","0.0-15.0-0.108","1635","2","""event"",""trial"",""time""
""fullscreenenter"",""1"",""1981""
","
","
","""event"",""trial"",""time""
""fullscreenenter"",""1"",""1981""
","
","","","","","","null","<div style=""font-size:60px;"">+</div>","null","","fixation","","","","","","","","",""
"memory-trial","261","602273","0.0-15.0-1.108","1635","2","""event"",""trial"",""time""
""fullscreenenter"",""1"",""1981""
","
","
","""event"",""trial"",""time""
""fullscreenenter"",""1"",""1981""
","
","","","","","","1537.5999999046326","images/sheep3.png","","","memory_trial","1","definitely_old","","","","","","",""
"html-keyboard-response","262","602774","0.0-15.0-0.109","1635","2","""event"",""trial"",""time""
""fullscreenenter"",""1"",""1981""
","
","
","""event"",""trial"",""time""
""fullscreenenter"",""1"",""1981""
","
","","","","","","null","<div style=""font-size:60px;"">+</div>","null","","fixation","","","","","","","","",""
"memory-trial","263","605569","0.0-15.0-1.109","1635","2","""event"",""trial"",""time""
""fullscreenenter"",""1"",""1981""
","
","
","""event"",""trial"",""time""
""fullscreenenter"",""1"",""1981""
","
","","","","","","1792.0999999046326","images/feline1.png","","","memory_trial","2","maybe_old","","","","","","",""
"html-keyboard-response","264","606070","0.0-15.0-0.110","1635","2","""event"",""trial"",""time""
""fullscreenenter"",""1"",""1981""
","
","
","""event"",""trial"",""time""
""fullscreenenter"",""1"",""1981""
","
","","","","","","null","<div style=""font-size:60px;"">+</div>","null","","fixation","","","","","","","","",""
"memory-trial","265","609627","0.0-15.0-1.110","1635","2","""event"",""trial"",""time""
""fullscreenenter"",""1"",""1981""
","
","
","""event"",""trial"",""time""
""fullscreenenter"",""1"",""1981""
","
","","","","","","2554.600000143051","images/straw5.png","","","memory_trial","3","maybe_new","","","","","","",""
"html-keyboard-response","266","610128","0.0-15.0-0.111","1635","2","""event"",""trial"",""time""
""fullscreenenter"",""1"",""1981""
","
","
","""event"",""trial"",""time""
""fullscreenenter"",""1"",""1981""
","
","","","","","","null","<div style=""font-size:60px;"">+</div>","null","","fixation","","","","","","","","",""
"memory-trial","267","613615","0.0-15.0-1.111","1635","2","""event"",""trial"",""time""
""fullscreenenter"",""1"",""1981""
","
","
","""event"",""trial"",""time""
""fullscreenenter"",""1"",""1981""
","
","","","","","","2485.899999856949","images/plane2.png","","","memory_trial","1","definitely_old","","","","","","",""
"html-keyboard-response","268","614117","0.0-15.0-0.112","1635","2","""event"",""trial"",""time""
""fullscreenenter"",""1"",""1981""
","
","
","""event"",""trial"",""time""
""fullscreenenter"",""1"",""1981""
","
","","","","","","null","<div style=""font-size:60px;"">+</div>","null","","fixation","","","","","","","","",""
"memory-trial","269","617297","0.0-15.0-1.112","1635","2","""event"",""trial"",""time""
""fullscreenenter"",""1"",""1981""
","
","
","""event"",""trial"",""time""
""fullscreenenter"",""1"",""1981""
","
","","","","","","2177.7000000476837","images/table2.png","","","memory_trial","3","maybe_new","","","","","","",""
"html-keyboard-response","270","617799","0.0-15.0-0.113","1635","2","""event"",""trial"",""time""
""fullscreenenter"",""1"",""1981""
","
","
","""event"",""trial"",""time""
""fullscreenenter"",""1"",""1981""
","
","","","","","","null","<div style=""font-size:60px;"">+</div>","null","","fixation","","","","","","","","",""
"memory-trial","271","621919","0.0-15.0-1.113","1635","2","""event"",""trial"",""time""
""fullscreenenter"",""1"",""1981""
","
","
","""event"",""trial"",""time""
""fullscreenenter"",""1"",""1981""
","
","","","","","","3116.9000000953674","images/tree3.png","","","memory_trial","1","definitely_old","","","","","","",""
"html-keyboard-response","272","622420","0.0-15.0-0.114","1635","2","""event"",""trial"",""time""
""fullscreenenter"",""1"",""1981""
","
","
","""event"",""trial"",""time""
""fullscreenenter"",""1"",""1981""
","
","","","","","","null","<div style=""font-size:60px;"">+</div>","null","","fixation","","","","","","","","",""
"memory-trial","273","626965","0.0-15.0-1.114","1635","2","""event"",""trial"",""time""
""fullscreenenter"",""1"",""1981""
","
","
","""event"",""trial"",""time""
""fullscreenenter"",""1"",""1981""
","
","","","","","","3541.5999999046326","images/chair2.png","","","memory_trial","3","maybe_new","","","","","","",""
"html-keyboard-response","274","627466","0.0-15.0-0.115","1635","2","""event"",""trial"",""time""
""fullscreenenter"",""1"",""1981""
","
","
","""event"",""trial"",""time""
""fullscreenenter"",""1"",""1981""
","
","","","","","","null","<div style=""font-size:60px;"">+</div>","null","","fixation","","","","","","","","",""
"memory-trial","275","629344","0.0-15.0-1.115","1635","2","""event"",""trial"",""time""
""fullscreenenter"",""1"",""1981""
","
","
","""event"",""trial"",""time""
""fullscreenenter"",""1"",""1981""
","
","","","","","","874.0999999046326","images/boat2.png","","","memory_trial","4","definitely_new","","","","","","",""
"html-keyboard-response","276","629845","0.0-15.0-0.116","1635","2","""event"",""trial"",""time""
""fullscreenenter"",""1"",""1981""
","
","
","""event"",""trial"",""time""
""fullscreenenter"",""1"",""1981""
","
","","","","","","null","<div style=""font-size:60px;"">+</div>","null","","fixation","","","","","","","","",""
"memory-trial","277","632268","0.0-15.0-1.116","1635","2","""event"",""trial"",""time""
""fullscreenenter"",""1"",""1981""
","
","
","""event"",""trial"",""time""
""fullscreenenter"",""1"",""1981""
","
","","","","","","1420.8999998569489","images/sheep5.png","","","memory_trial","3","maybe_new","","","","","","",""
"html-keyboard-response","278","632770","0.0-15.0-0.117","1635","2","""event"",""trial"",""time""
""fullscreenenter"",""1"",""1981""
","
","
","""event"",""trial"",""time""
""fullscreenenter"",""1"",""1981""
","
","","","","","","null","<div style=""font-size:60px;"">+</div>","null","","fixation","","","","","","","","",""
"memory-trial","279","635358","0.0-15.0-1.117","1635","2","""event"",""trial"",""time""
""fullscreenenter"",""1"",""1981""
","
","
","""event"",""trial"",""time""
""fullscreenenter"",""1"",""1981""
","
","","","","","","1585.1000001430511","images/goat2.png","","","memory_trial","2","maybe_old","","","","","","",""
"html-keyboard-response","280","635859","0.0-15.0-0.118","1635","2","""event"",""trial"",""time""
""fullscreenenter"",""1"",""1981""
","
","
","""event"",""trial"",""time""
""fullscreenenter"",""1"",""1981""
","
","","","","","","null","<div style=""font-size:60px;"">+</div>","null","","fixation","","","","","","","","",""
"memory-trial","281","638332","0.0-15.0-1.118","1635","2","""event"",""trial"",""time""
""fullscreenenter"",""1"",""1981""
","
","
","""event"",""trial"",""time""
""fullscreenenter"",""1"",""1981""
","
","","","","","","1471.3999998569489","images/sofa1.png","","","memory_trial","3","maybe_new","","","","","","",""
"html-keyboard-response","282","638834","0.0-15.0-0.119","1635","2","""event"",""trial"",""time""
""fullscreenenter"",""1"",""1981""
","
","
","""event"",""trial"",""time""
""fullscreenenter"",""1"",""1981""
","
","","","","","","null","<div style=""font-size:60px;"">+</div>","null","","fixation","","","","","","","","",""
"memory-trial","283","641236","0.0-15.0-1.119","1635","2","""event"",""trial"",""time""
""fullscreenenter"",""1"",""1981""
","
","
","""event"",""trial"",""time""
""fullscreenenter"",""1"",""1981""
","
","","","","","","1399.8999998569489","images/tree4.png","","","memory_trial","1","definitely_old","","","","","","",""
"preload","284","646948","0.0-16.0","1635","2","""event"",""trial"",""time""
""fullscreenenter"",""1"",""1981""
","
","
","""event"",""trial"",""time""
""fullscreenenter"",""1"",""1981""
","
","true","false","[]","[]","[]","","","","","","","","","","","","","",""
"learning-instructions","285","651737","0.0-17.0-0.0-0.0-0.0","1635","2","""event"",""trial"",""time""
""fullscreenenter"",""1"",""1981""
","
","
","""event"",""trial"",""time""
""fullscreenenter"",""1"",""1981""
","
","","","","","","1550.3999998569489","<p> We're now going to ask you to buy fruit again. </p>","","0","instructions","","","","","","","","",""
"learning-instructions","286","658011","0.0-17.0-0.0-0.0-0.1","1635","2","""event"",""trial"",""time""
""fullscreenenter"",""1"",""1981""
","
","
","""event"",""trial"",""time""
""fullscreenenter"",""1"",""1981""
","
","","","","","","1405","<p> On each trial, you will see a fruit. Select the store where you think you can buy the fruit. </p>","","0","instructions","","","","","","","","",""
"learning-instructions","287","666498","0.0-17.0-0.0-0.0-0.2","1635","2","""event"",""trial"",""time""
""fullscreenenter"",""1"",""1981""
","
","
","""event"",""trial"",""time""
""fullscreenenter"",""1"",""1981""
","
","","","","","","1423","<p> To make your selection, think about what you learned last week. You will NOT receive any feedback about your choice. </p>","","0","instructions","","","","","","","","",""
"learning-instructions","288","675445","0.0-17.0-0.0-0.0-0.3","1635","2","""event"",""trial"",""time""
""fullscreenenter"",""1"",""1981""
","
","
","""event"",""trial"",""time""
""fullscreenenter"",""1"",""1981""
","
","","","","","","1359.2000000476837","<p> You should use the 1 key to select the store on the left, the 2 key to select the store in the middle, and the 3 key to select the store on the right. </p><br><div class=""choice-mem-instructions-grid""> <div class=""choice-mem-option""><img src=""images/fruit_choice1.png"" class=""choice-mem-option-img"" stage=""instructions"" position=""0"" ><div class=""choice-mem-option-text""> Press ""1."" </div></div><div class=""choice-mem-option""><img src=""images/fruit_choice2.png"" class=""choice-mem-option-img"" stage=""instructions"" position=""1"" ><div class=""choice-mem-option-text""> Press ""2."" </div></div><div class=""choice-mem-option""><img src=""images/fruit_choice3.png"" class=""choice-mem-option-img"" stage=""instructions"" position=""2"" ><div class=""choice-mem-option-text""> Press ""3."" </div></div></div>","","0","instructions","","","","","","","","",""
"learning-instructions","289","683738","0.0-17.0-0.0-0.0-0.4","1635","2","""event"",""trial"",""time""
""fullscreenenter"",""1"",""1981""
","
","
","""event"",""trial"",""time""
""fullscreenenter"",""1"",""1981""
","
","","","","","","2002.5","<p> You will have 10 seconds to make each selection. Try to respond before time runs out! </p>","","0","instructions","","","","","","","","",""
"learning-instructions","290","686483","0.0-17.0-0.0-1.0","1635","2","""event"",""trial"",""time""
""fullscreenenter"",""1"",""1981""
","
","
","""event"",""trial"",""time""
""fullscreenenter"",""1"",""1981""
","
","","","","","","677.7000000476837","<p> You are now ready to begin the game. </p>","","0","instructions","","","","","","","","",""
"html-keyboard-response","291","687104","0.0-17.0-0.0-2.0-0.0","1635","2","""event"",""trial"",""time""
""fullscreenenter"",""1"",""1981""
","
","
","""event"",""trial"",""time""
""fullscreenenter"",""1"",""1981""
","
","","","","","","null","<div style=""font-size:60px;"">+</div>","null","","fixation","","","","","","","","",""
"choice-memory-trial","292","690484","0.0-17.0-0.0-2.0-1.0","1635","2","""event"",""trial"",""time""
""fullscreenenter"",""1"",""1981""
","
","
","""event"",""trial"",""time""
""fullscreenenter"",""1"",""1981""
","
