"trial_type","trial_index","time_elapsed","internal_node_id","subject_id","task_version","interactions","blur_events","focus_events","fullscreenenter_events","fullscreenexit_events","success","timeout","failed_images","failed_audio","failed_video","rt","stimulus","response","button_pressed","task_part","key_press","answer","correct","left_choice","middle_choice","right_choice","choice_positions","option_selected","block"
"pavlovia","0","15","0.0-0.0","1649","2","""event"",""trial"",""time""
""fullscreenenter"",""1"",""1467""
","
","
","""event"",""trial"",""time""
""fullscreenenter"",""1"",""1467""
","
","","","","","","","","","","","","","","","","","","",""
"fullscreen","1","2424","0.0-1.0","1649","2","""event"",""trial"",""time""
""fullscreenenter"",""1"",""1467""
","
","
","""event"",""trial"",""time""
""fullscreenenter"",""1"",""1467""
","
","true","","","","","","","","","","","","","","","","","",""
"preload","2","3130","0.0-2.0","1649","2","""event"",""trial"",""time""
""fullscreenenter"",""1"",""1467""
","
","
","""event"",""trial"",""time""
""fullscreenenter"",""1"",""1467""
","
","true","false","[]","[]","[]","","","","","","","","","","","","","",""
"audio-keyboard-response","3","5521","0.0-3.0","1649","2","""event"",""trial"",""time""
""fullscreenenter"",""1"",""1467""
","
","
","""event"",""trial"",""time""
""fullscreenenter"",""1"",""1467""
","
","","","","","","2050.666666666667","audio/beep_loop.wav"," ","","","","","","","","","","",""
"audio-button-response","4","7111","0.0-4.0","1649","2","""event"",""trial"",""time""
""fullscreenenter"",""1"",""1467""
","
","
","""event"",""trial"",""time""
""fullscreenenter"",""1"",""1467""
","
","","","","","","1589","audio/turtle.wav","3","","","","","","","","","","",""
"audio-button-response","5","9639","0.0-5.0","1649","2","""event"",""trial"",""time""
""fullscreenenter"",""1"",""1467""
","
","
","""event"",""trial"",""time""
""fullscreenenter"",""1"",""1467""
","
","","","","","","1509","audio/shark.wav","2","","","","","","","","","","",""
"preload","6","15238","0.0-6.0","1649","2","""event"",""trial"",""time""
""fullscreenenter"",""1"",""1467""
","
","
","""event"",""trial"",""time""
""fullscreenenter"",""1"",""1467""
","
","true","false","[]","[]","[]","","","","","","","","","","","","","",""
"learning-instructions","7","25301","0.0-7.0-0.0","1649","2","""event"",""trial"",""time""
""fullscreenenter"",""1"",""1467""
","
","
","""event"",""trial"",""time""
""fullscreenenter"",""1"",""1467""
","
","","","","","","5250","<p> Welcome back! </p><p> Last week, you had to make choices about lots of different items.  </p>","","0","instructions","","","","","","","","",""
"learning-instructions","8","32161","0.0-7.0-0.1","1649","2","""event"",""trial"",""time""
""fullscreenenter"",""1"",""1467""
","
","
","""event"",""trial"",""time""
""fullscreenenter"",""1"",""1467""
","
","","","","","","2561.0999999046326","<p> Today, we are going to ask you to try to remember all the items. </p>","","0","instructions","","","","","","","","",""
"learning-instructions","9","45448","0.0-7.0-0.2","1649","2","""event"",""trial"",""time""
""fullscreenenter"",""1"",""1467""
","
","
","""event"",""trial"",""time""
""fullscreenenter"",""1"",""1467""
","
","","","","","","3148.2999999523163","<p> On every trial, you will see an image. </p><p> The image may be an OLD image you saw during the games last week or it may be a NEW image that was not presented. </p>","","0","instructions","","","","","","","","",""
"learning-instructions","10","56143","0.0-7.0-0.3","1649","2","""event"",""trial"",""time""
""fullscreenenter"",""1"",""1467""
","
","
","""event"",""trial"",""time""
""fullscreenenter"",""1"",""1467""
","
","","","","","","2192.600000143051","<p> You need to select whether the image is:  </p><p>  'Definitely old', 'Maybe old', 'Maybe new', or 'Definitely new.'  </p><div class=""mem-choice-instructions-grid""><div class=""choice-option"" id=""choice-option-1"" ><img src=""images/definitely_old_1.png"" id=""choice-option-img-1"" class=""choice-option-img"" stage=""1""></div><div class=""choice-option"" id=""choice-option-2"" ><img src=""images/maybe_old_1.png"" id=""choice-option-img-2"" class=""choice-option-img"" stage=""1""></div><div class=""choice-option"" id=""choice-option-3"" ><img src=""images/maybe_new_1.png"" id=""choice-option-img-3"" class=""choice-option-img"" stage=""1""></div><div class=""choice-option"" id=""choice-option-4"" > <img src=""images/definitely_new_1.png"" id=""choice-option-img-4"" class=""choice-option-img"" stage=""1""></div></div>","","0","instructions","","","","","","","","",""
"learning-instructions","11","67211","0.0-7.0-0.4","1649","2","""event"",""trial"",""time""
""fullscreenenter"",""1"",""1467""
","
","
","""event"",""trial"",""time""
""fullscreenenter"",""1"",""1467""
","
","","","","","","4351.300000190735","<p> You should use the 1, 2, 3, and 4 keys to make your responses.  </p><div class=""mem-choice-instructions-grid""><div class=""choice-option"" id=""choice-option-1"" ><img src=""images/definitely_old.png"" id=""choice-option-img-1"" class=""choice-option-img"" stage=""1""></div><div class=""choice-option"" id=""choice-option-2"" ><img src=""images/maybe_old.png"" id=""choice-option-img-2"" class=""choice-option-img"" stage=""1""></div><div class=""choice-option"" id=""choice-option-3"" ><img src=""images/maybe_new.png"" id=""choice-option-img-3"" class=""choice-option-img"" stage=""1""></div><div class=""choice-option"" id=""choice-option-4"" > <img src=""images/definitely_new.png"" id=""choice-option-img-4"" class=""choice-option-img"" stage=""1""></div></div>","","0","instructions","","","","","","","","",""
"learning-instructions","12","77741","0.0-7.0-0.5","1649","2","""event"",""trial"",""time""
""fullscreenenter"",""1"",""1467""
","
","
","""event"",""trial"",""time""
""fullscreenenter"",""1"",""1467""
","
","","","","","","3760.0999999046326","<p> You will have 10 seconds to make each response.  </p><p>  Make sure to respond before time runs out! </p>","","0","instructions","","","","","","","","",""
"learning-instructions","13","87540","0.0-7.0-0.6","1649","2","""event"",""trial"",""time""
""fullscreenenter"",""1"",""1467""
","
","
","""event"",""trial"",""time""
""fullscreenenter"",""1"",""1467""
","
","","","","","","2200","<p> Today, you will see each image ONCE only.  </p><p>  That means none of the images will repeat. </p>","","0","instructions","","","","","","","","",""
"learning-instructions","14","103244","0.0-7.0-0.7","1649","2","""event"",""trial"",""time""
""fullscreenenter"",""1"",""1467""
","
","
","""event"",""trial"",""time""
""fullscreenenter"",""1"",""1467""
","
","","","","","","3034.399999856949","<p> Before you play the real game, it is time to practice. </p><p>  Just like in the real game, some of the images in the practice will be ones you have seen before. </p><p>  Others will be entirely new. </p>","","0","instructions","","","","","","","","",""
"html-button-response","15","109963","0.0-8.0","1649","2","""event"",""trial"",""time""
""fullscreenenter"",""1"",""1467""
","
","
","""event"",""trial"",""time""
""fullscreenenter"",""1"",""1467""
","
","","","","","","6604.700000047684","<p> Ready to practice? </p><p> Remember, use the 1, 2, 3, and 4 keys to make your responses. </p>","0","","instructions","","","","","","","","",""
"html-keyboard-response","16","110579","0.0-9.0-0.0","1649","2","""event"",""trial"",""time""
""fullscreenenter"",""1"",""1467""
","
","
","""event"",""trial"",""time""
""fullscreenenter"",""1"",""1467""
","
","","","","","","null","<div style=""font-size:60px;"">+</div>","null","","fixation","","","","","","","","",""
"memory-trial","17","114159","0.0-9.0-1.0","1649","2","""event"",""trial"",""time""
""fullscreenenter"",""1"",""1467""
","
","
","""event"",""trial"",""time""
""fullscreenenter"",""1"",""1467""
","
","","","","","","2559.5999999046326","images/ball1.png","","","practice","1","definitely_old","","","","","","",""
"html-keyboard-response","18","114667","0.0-9.0-0.1","1649","2","""event"",""trial"",""time""
""fullscreenenter"",""1"",""1467""
","
","
","""event"",""trial"",""time""
""fullscreenenter"",""1"",""1467""
","
","","","","","","null","<div style=""font-size:60px;"">+</div>","null","","fixation","","","","","","","","",""
"memory-trial","19","118038","0.0-9.0-1.1","1649","2","""event"",""trial"",""time""
""fullscreenenter"",""1"",""1467""
","
","
","""event"",""trial"",""time""
""fullscreenenter"",""1"",""1467""
","
","","","","","","2357.2999999523163","images/racket2.png","","","practice","3","maybe_new","","","","","","",""
"html-keyboard-response","20","118558","0.0-9.0-0.2","1649","2","""event"",""trial"",""time""
""fullscreenenter"",""1"",""1467""
","
","
","""event"",""trial"",""time""
""fullscreenenter"",""1"",""1467""
","
","","","","","","null","<div style=""font-size:60px;"">+</div>","null","","fixation","","","","","","","","",""
"memory-trial","21","123099","0.0-9.0-1.2","1649","2","""event"",""trial"",""time""
""fullscreenenter"",""1"",""1467""
","
","
","""event"",""trial"",""time""
""fullscreenenter"",""1"",""1467""
","
","","","","","","3529.4000000953674","images/racket4.png","","","practice","4","definitely_new","","","","","","",""
"html-keyboard-response","22","123608","0.0-9.0-0.3","1649","2","""event"",""trial"",""time""
""fullscreenenter"",""1"",""1467""
","
","
","""event"",""trial"",""time""
""fullscreenenter"",""1"",""1467""
","
","","","","","","null","<div style=""font-size:60px;"">+</div>","null","","fixation","","","","","","","","",""
"memory-trial","23","125859","0.0-9.0-1.3","1649","2","""event"",""trial"",""time""
""fullscreenenter"",""1"",""1467""
","
","
","""event"",""trial"",""time""
""fullscreenenter"",""1"",""1467""
","
","","","","","","1244.5","images/racket3.png","","","practice","4","definitely_new","","","","","","",""
"html-keyboard-response","24","126368","0.0-9.0-0.4","1649","2","""event"",""trial"",""time""
""fullscreenenter"",""1"",""1467""
","
","
","""event"",""trial"",""time""
""fullscreenenter"",""1"",""1467""
","
","","","","","","null","<div style=""font-size:60px;"">+</div>","null","","fixation","","","","","","","","",""
"memory-trial","25","130118","0.0-9.0-1.4","1649","2","""event"",""trial"",""time""
""fullscreenenter"",""1"",""1467""
","
","
","""event"",""trial"",""time""
""fullscreenenter"",""1"",""1467""
","
","","","","","","2736.199999809265","images/racket1.png","","","practice","2","maybe_old","","","","","","",""
"html-keyboard-response","26","130621","0.0-9.0-0.5","1649","2","""event"",""trial"",""time""
""fullscreenenter"",""1"",""1467""
","
","
","""event"",""trial"",""time""
""fullscreenenter"",""1"",""1467""
","
","","","","","","null","<div style=""font-size:60px;"">+</div>","null","","fixation","","","","","","","","",""
"memory-trial","27","133593","0.0-9.0-1.5","1649","2","""event"",""trial"",""time""
""fullscreenenter"",""1"",""1467""
","
","
","""event"",""trial"",""time""
""fullscreenenter"",""1"",""1467""
","
","","","","","","1968","images/ball4.png","","","practice","4","definitely_new","","","","","","",""
"html-keyboard-response","28","134095","0.0-9.0-0.6","1649","2","""event"",""trial"",""time""
""fullscreenenter"",""1"",""1467""
","
","
","""event"",""trial"",""time""
""fullscreenenter"",""1"",""1467""
","
","","","","","","null","<div style=""font-size:60px;"">+</div>","null","","fixation","","","","","","","","",""
"memory-trial","29","139352","0.0-9.0-1.6","1649","2","""event"",""trial"",""time""
""fullscreenenter"",""1"",""1467""
","
","
","""event"",""trial"",""time""
""fullscreenenter"",""1"",""1467""
","
","","","","","","4253.600000143051","images/ball3.png","","","practice","1","definitely_old","","","","","","",""
"html-keyboard-response","30","139854","0.0-9.0-0.7","1649","2","""event"",""trial"",""time""
""fullscreenenter"",""1"",""1467""
","
","
","""event"",""trial"",""time""
""fullscreenenter"",""1"",""1467""
","
","","","","","","null","<div style=""font-size:60px;"">+</div>","null","","fixation","","","","","","","","",""
"memory-trial","31","144573","0.0-9.0-1.7","1649","2","""event"",""trial"",""time""
""fullscreenenter"",""1"",""1467""
","
","
","""event"",""trial"",""time""
""fullscreenenter"",""1"",""1467""
","
","","","","","","3714.9000000953674","images/ball2.png","","","practice","1","definitely_old","","","","","","",""
"learning-instructions","32","156225","0.0-10.0-0.0","1649","2","""event"",""trial"",""time""
""fullscreenenter"",""1"",""1467""
","
","
","""event"",""trial"",""time""
""fullscreenenter"",""1"",""1467""
","
","","","","","","3541.100000143051","<p> Great! You have completed the practice. </p><p> Before you start, we're going to ask you a few questions about how the game works.  </p>","","0","instructions","","","","","","","","",""
"preload","33","159618","0.0-11.0","1649","2","""event"",""trial"",""time""
""fullscreenenter"",""1"",""1467""
","
","
","""event"",""trial"",""time""
""fullscreenenter"",""1"",""1467""
","
","true","false","[]","[]","[]","","","","","","","","","","","","","",""
"comp-q","34","170992","0.0-12.0-0.0","1649","2","""event"",""trial"",""time""
""fullscreenenter"",""1"",""1467""
","
","
","""event"",""trial"",""time""
""fullscreenenter"",""1"",""1467""
","
","","","","","","5547.299999952316","<p> <b> True or False? </b> </p><p> In this game, you will only see each image once. </p>","","1","comp_question","","","false","","","","","",""
"comp-q","35","181696","0.0-12.0-1.0","1649","2","""event"",""trial"",""time""
""fullscreenenter"",""1"",""1467""
","
","
","""event"",""trial"",""time""
""fullscreenenter"",""1"",""1467""
","
","","","","","","4152.600000143051","<p> <b>Incorrect.</b> You will see many different images <i> one time each </i> in this game. </p>","","0","comp_answer","","","","","","","","",""
"comp-q","36","193885","0.0-12.0-0.1","1649","2","""event"",""trial"",""time""
""fullscreenenter"",""1"",""1467""
","
","
","""event"",""trial"",""time""
""fullscreenenter"",""1"",""1467""
","
","","","","","","6381","<p> <b> True or False? </b> </p><p> You should use the mouse and click to make your response. </p>","","1","comp_question","","","true","","","","","",""
"comp-q","37","206495","0.0-12.0-1.1","1649","2","""event"",""trial"",""time""
""fullscreenenter"",""1"",""1467""
","
","
","""event"",""trial"",""time""
""fullscreenenter"",""1"",""1467""
","
","","","","","","5242.100000143051","<p><b> That's right! </b> You should use the '1', '2', '3', and '4' keys to make your response. </p>","","0","comp_answer","","","","","","","","",""
"comp-q","38","213947","0.0-12.0-0.2","1649","2","""event"",""trial"",""time""
""fullscreenenter"",""1"",""1467""
","
","
","""event"",""trial"",""time""
""fullscreenenter"",""1"",""1467""
","
","","","","","","1454.3000001907349","<p> <b> True or False? </b> </p><p> You will have as much time as you want to make each choice. </p>","","1","comp_question","","","true","","","","","",""
"comp-q","39","222534","0.0-12.0-1.2","1649","2","""event"",""trial"",""time""
""fullscreenenter"",""1"",""1467""
","
","
","""event"",""trial"",""time""
""fullscreenenter"",""1"",""1467""
","
","","","","","","3191.4000000953674","<p> <b> That's right! </b> You will only have 10 seconds to make each choice. </p>","","0","comp_answer","","","","","","","","",""
"learning-instructions","40","235405","0.0-13.0","1649","2","""event"",""trial"",""time""
""fullscreenenter"",""1"",""1467""
","
","
","""event"",""trial"",""time""
""fullscreenenter"",""1"",""1467""
","
","","","","","","4191.400000095367","<p> Great! You are now ready to begin the game. </p><p> Remember, use the 1, 2, 3, and 4 keys to make your responses. </p>","","0","instructions","","","","","","","","",""
"preload","41","243480","0.0-14.0","1649","2","""event"",""trial"",""time""
""fullscreenenter"",""1"",""1467""
","
","
","""event"",""trial"",""time""
""fullscreenenter"",""1"",""1467""
","
","true","false","[]","[]","[]","","","","","","","","","","","","","",""
"html-keyboard-response","42","243992","0.0-15.0-0.0","1649","2","""event"",""trial"",""time""
""fullscreenenter"",""1"",""1467""
","
","
","""event"",""trial"",""time""
""fullscreenenter"",""1"",""1467""
","
","","","","","","null","<div style=""font-size:60px;"">+</div>","null","","fixation","","","","","","","","",""
"memory-trial","43","246582","0.0-15.0-1.0","1649","2","""event"",""trial"",""time""
""fullscreenenter"",""1"",""1467""
","
","
","""event"",""trial"",""time""
""fullscreenenter"",""1"",""1467""
","
","","","","","","1569","images/cow2.png","","","memory_trial","4","definitely_new","","","","","","",""
"html-keyboard-response","44","247102","0.0-15.0-0.1","1649","2","""event"",""trial"",""time""
""fullscreenenter"",""1"",""1467""
","
","
","""event"",""trial"",""time""
""fullscreenenter"",""1"",""1467""
","
","","","","","","null","<div style=""font-size:60px;"">+</div>","null","","fixation","","","","","","","","",""
"memory-trial","45","250042","0.0-15.0-1.1","1649","2","""event"",""trial"",""time""
""fullscreenenter"",""1"",""1467""
","
","
","""event"",""trial"",""time""
""fullscreenenter"",""1"",""1467""
","
","","","","","","1929.1999998092651","images/chair3.png","","","memory_trial","3","maybe_new","","","","","","",""
"html-keyboard-response","46","250552","0.0-15.0-0.2","1649","2","""event"",""trial"",""time""
""fullscreenenter"",""1"",""1467""
","
","
","""event"",""trial"",""time""
""fullscreenenter"",""1"",""1467""
","
","","","","","","null","<div style=""font-size:60px;"">+</div>","null","","fixation","","","","","","","","",""
"memory-trial","47","253821","0.0-15.0-1.2","1649","2","""event"",""trial"",""time""
""fullscreenenter"",""1"",""1467""
","
","
","""event"",""trial"",""time""
""fullscreenenter"",""1"",""1467""
","
","","","","","","2264.2999999523163","images/sheep2.png","","","memory_trial","1","definitely_old","","","","","","",""
"html-keyboard-response","48","254332","0.0-15.0-0.3","1649","2","""event"",""trial"",""time""
""fullscreenenter"",""1"",""1467""
","
","
","""event"",""trial"",""time""
""fullscreenenter"",""1"",""1467""
","
","","","","","","null","<div style=""font-size:60px;"">+</div>","null","","fixation","","","","","","","","",""
"memory-trial","49","257762","0.0-15.0-1.3","1649","2","""event"",""trial"",""time""
""fullscreenenter"",""1"",""1467""
","
","
","""event"",""trial"",""time""
""fullscreenenter"",""1"",""1467""
","
","","","","","","2415.600000143051","images/rabbit1.png","","","memory_trial","4","definitely_new","","","","","","",""
"html-keyboard-response","50","258282","0.0-15.0-0.4","1649","2","""event"",""trial"",""time""
""fullscreenenter"",""1"",""1467""
","
","
","""event"",""trial"",""time""
""fullscreenenter"",""1"",""1467""
","
","","","","","","null","<div style=""font-size:60px;"">+</div>","null","","fixation","","","","","","","","",""
"memory-trial","51","261395","0.0-15.0-1.4","1649","2","""event"",""trial"",""time""
""fullscreenenter"",""1"",""1467""
","
","
","""event"",""trial"",""time""
""fullscreenenter"",""1"",""1467""
","
","","","","","","2108.5","images/horse1.png","","","memory_trial","1","definitely_old","","","","","","",""
"html-keyboard-response","52","261897","0.0-15.0-0.5","1649","2","""event"",""trial"",""time""
""fullscreenenter"",""1"",""1467""
","
","
","""event"",""trial"",""time""
""fullscreenenter"",""1"",""1467""
","
","","","","","","null","<div style=""font-size:60px;"">+</div>","null","","fixation","","","","","","","","",""
"memory-trial","53","265872","0.0-15.0-1.5","1649","2","""event"",""trial"",""time""
""fullscreenenter"",""1"",""1467""
","
","
","""event"",""trial"",""time""
""fullscreenenter"",""1"",""1467""
","
","","","","","","2972.5","images/dog3.png","","","memory_trial","3","maybe_new","","","","","","",""
"html-keyboard-response","54","266375","0.0-15.0-0.6","1649","2","""event"",""trial"",""time""
""fullscreenenter"",""1"",""1467""
","
","
","""event"",""trial"",""time""
""fullscreenenter"",""1"",""1467""
","
","","","","","","null","<div style=""font-size:60px;"">+</div>","null","","fixation","","","","","","","","",""
"memory-trial","55","270210","0.0-15.0-1.6","1649","2","""event"",""trial"",""time""
""fullscreenenter"",""1"",""1467""
","
","
","""event"",""trial"",""time""
""fullscreenenter"",""1"",""1467""
","
","","","","","","2829.5999999046326","images/banana3.png","","","memory_trial","1","definitely_old","","","","","","",""
"html-keyboard-response","56","270712","0.0-15.0-0.7","1649","2","""event"",""trial"",""time""
""fullscreenenter"",""1"",""1467""
","
","
","""event"",""trial"",""time""
""fullscreenenter"",""1"",""1467""
","
","","","","","","null","<div style=""font-size:60px;"">+</div>","null","","fixation","","","","","","","","",""
"memory-trial","57","273007","0.0-15.0-1.7","1649","2","""event"",""trial"",""time""
""fullscreenenter"",""1"",""1467""
","
","
","""event"",""trial"",""time""
""fullscreenenter"",""1"",""1467""
","
","","","","","","1291.5999999046326","images/rodent5.png","","","memory_trial","1","definitely_old","","","","","","",""
"html-keyboard-response","58","273508","0.0-15.0-0.8","1649","2","""event"",""trial"",""time""
""fullscreenenter"",""1"",""1467""
","
","
","""event"",""trial"",""time""
""fullscreenenter"",""1"",""1467""
","
","","","","","","null","<div style=""font-size:60px;"">+</div>","null","","fixation","","","","","","","","",""
"memory-trial","59","276704","0.0-15.0-1.8","1649","2","""event"",""trial"",""time""
""fullscreenenter"",""1"",""1467""
","
","
","""event"",""trial"",""time""
""fullscreenenter"",""1"",""1467""
","
","","","","","","2192.9000000953674","images/feline2.png","","","memory_trial","4","definitely_new","","","","","","",""
"html-keyboard-response","60","277206","0.0-15.0-0.9","1649","2","""event"",""trial"",""time""
""fullscreenenter"",""1"",""1467""
","
","
","""event"",""trial"",""time""
""fullscreenenter"",""1"",""1467""
","
","","","","","","null","<div style=""font-size:60px;"">+</div>","null","","fixation","","","","","","","","",""
"memory-trial","61","280278","0.0-15.0-1.9","1649","2","""event"",""trial"",""time""
""fullscreenenter"",""1"",""1467""
","
","
","""event"",""trial"",""time""
""fullscreenenter"",""1"",""1467""
","
","","","","","","2068.399999856949","images/flower5.png","","","memory_trial","4","definitely_new","","","","","","",""
"html-keyboard-response","62","280779","0.0-15.0-0.10","1649","2","""event"",""trial"",""time""
""fullscreenenter"",""1"",""1467""
","
","
","""event"",""trial"",""time""
""fullscreenenter"",""1"",""1467""
","
","","","","","","null","<div style=""font-size:60px;"">+</div>","null","","fixation","","","","","","","","",""
"memory-trial","63","283036","0.0-15.0-1.10","1649","2","""event"",""trial"",""time""
""fullscreenenter"",""1"",""1467""
","
","
","""event"",""trial"",""time""
""fullscreenenter"",""1"",""1467""
","
","","","","","","1253.5","images/train3.png","","","memory_trial","4","definitely_new","","","","","","",""
"html-keyboard-response","64","283538","0.0-15.0-0.11","1649","2","""event"",""trial"",""time""
""fullscreenenter"",""1"",""1467""
","
","
","""event"",""trial"",""time""
""fullscreenenter"",""1"",""1467""
","
","","","","","","null","<div style=""font-size:60px;"">+</div>","null","","fixation","","","","","","","","",""
"memory-trial","65","285718","0.0-15.0-1.11","1649","2","""event"",""trial"",""time""
""fullscreenenter"",""1"",""1467""
","
","
","""event"",""trial"",""time""
""fullscreenenter"",""1"",""1467""
","
","","","","","","1178","images/horse2.png","","","memory_trial","1","definitely_old","","","","","","",""
"html-keyboard-response","66","286219","0.0-15.0-0.12","1649","2","""event"",""trial"",""time""
""fullscreenenter"",""1"",""1467""
","
","
","""event"",""trial"",""time""
""fullscreenenter"",""1"",""1467""
","
","","","","","","null","<div style=""font-size:60px;"">+</div>","null","","fixation","","","","","","","","",""
"memory-trial","67","288294","0.0-15.0-1.12","1649","2","""event"",""trial"",""time""
""fullscreenenter"",""1"",""1467""
","
","
","""event"",""trial"",""time""
""fullscreenenter"",""1"",""1467""
","
","","","","","","1070.7000000476837","images/orange5.png","","","memory_trial","1","definitely_old","","","","","","",""
"html-keyboard-response","68","288796","0.0-15.0-0.13","1649","2","""event"",""trial"",""time""
""fullscreenenter"",""1"",""1467""
","
","
","""event"",""trial"",""time""
""fullscreenenter"",""1"",""1467""
","
","","","","","","null","<div style=""font-size:60px;"">+</div>","null","","fixation","","","","","","","","",""
"memory-trial","69","291216","0.0-15.0-1.13","1649","2","""event"",""trial"",""time""
""fullscreenenter"",""1"",""1467""
","
","
","""event"",""trial"",""time""
""fullscreenenter"",""1"",""1467""
","
","","","","","","1417","images/table2.png","","","memory_trial","1","definitely_old","","","","","","",""
"html-keyboard-response","70","291717","0.0-15.0-0.14","1649","2","""event"",""trial"",""time""
""fullscreenenter"",""1"",""1467""
","
","
","""event"",""trial"",""time""
""fullscreenenter"",""1"",""1467""
","
","","","","","","null","<div style=""font-size:60px;"">+</div>","null","","fixation","","","","","","","","",""
"memory-trial","71","294576","0.0-15.0-1.14","1649","2","""event"",""trial"",""time""
""fullscreenenter"",""1"",""1467""
","
","
","""event"",""trial"",""time""
""fullscreenenter"",""1"",""1467""
","
","","","","","","1854.8000001907349","images/cactus1.png","","","memory_trial","3","maybe_new","","","","","","",""
"html-keyboard-response","72","295078","0.0-15.0-0.15","1649","2","""event"",""trial"",""time""
""fullscreenenter"",""1"",""1467""
","
","
","""event"",""trial"",""time""
""fullscreenenter"",""1"",""1467""
","
","","","","","","null","<div style=""font-size:60px;"">+</div>","null","","fixation","","","","","","","","",""
"memory-trial","73","298170","0.0-15.0-1.15","1649","2","""event"",""trial"",""time""
""fullscreenenter"",""1"",""1467""
","
","
","""event"",""trial"",""time""
""fullscreenenter"",""1"",""1467""
","
","","","","","","2086.5","images/apple2.png","","","memory_trial","4","definitely_new","","","","","","",""
"html-keyboard-response","74","298672","0.0-15.0-0.16","1649","2","""event"",""trial"",""time""
""fullscreenenter"",""1"",""1467""
","
","
","""event"",""trial"",""time""
""fullscreenenter"",""1"",""1467""
","
","","","","","","null","<div style=""font-size:60px;"">+</div>","null","","fixation","","","","","","","","",""
"memory-trial","75","301272","0.0-15.0-1.16","1649","2","""event"",""trial"",""time""
""fullscreenenter"",""1"",""1467""
","
","
","""event"",""trial"",""time""
""fullscreenenter"",""1"",""1467""
","
","","","","","","1596.0999999046326","images/bush3.png","","","memory_trial","1","definitely_old","","","","","","",""
"html-keyboard-response","76","301774","0.0-15.0-0.17","1649","2","""event"",""trial"",""time""
""fullscreenenter"",""1"",""1467""
","
","
","""event"",""trial"",""time""
""fullscreenenter"",""1"",""1467""
","
","","","","","","null","<div style=""font-size:60px;"">+</div>","null","","fixation","","","","","","","","",""
"memory-trial","77","305293","0.0-15.0-1.17","1649","2","""event"",""trial"",""time""
""fullscreenenter"",""1"",""1467""
","
","
","""event"",""trial"",""time""
""fullscreenenter"",""1"",""1467""
","
","","","","","","2515.5999999046326","images/horse3.png","","","memory_trial","1","definitely_old","","","","","","",""
"html-keyboard-response","78","305794","0.0-15.0-0.18","1649","2","""event"",""trial"",""time""
""fullscreenenter"",""1"",""1467""
","
","
","""event"",""trial"",""time""
""fullscreenenter"",""1"",""1467""
","
","","","","","","null","<div style=""font-size:60px;"">+</div>","null","","fixation","","","","","","","","",""
"memory-trial","79","308688","0.0-15.0-1.18","1649","2","""event"",""trial"",""time""
""fullscreenenter"",""1"",""1467""
","
","
","""event"",""trial"",""time""
""fullscreenenter"",""1"",""1467""
","
","","","","","","1889.8999998569489","images/tree4.png","","","memory_trial","1","definitely_old","","","","","","",""
"html-keyboard-response","80","309191","0.0-15.0-0.19","1649","2","""event"",""trial"",""time""
""fullscreenenter"",""1"",""1467""
","
","
","""event"",""trial"",""time""
""fullscreenenter"",""1"",""1467""
","
","","","","","","null","<div style=""font-size:60px;"">+</div>","null","","fixation","","","","","","","","",""
"memory-trial","81","312561","0.0-15.0-1.19","1649","2","""event"",""trial"",""time""
""fullscreenenter"",""1"",""1467""
","
","
","""event"",""trial"",""time""
""fullscreenenter"",""1"",""1467""
","
","","","","","","2366.2999999523163","images/cactus4.png","","","memory_trial","2","maybe_old","","","","","","",""
"html-keyboard-response","82","313064","0.0-15.0-0.20","1649","2","""event"",""trial"",""time""
""fullscreenenter"",""1"",""1467""
","
","
","""event"",""trial"",""time""
""fullscreenenter"",""1"",""1467""
","
","","","","","","null","<div style=""font-size:60px;"">+</div>","null","","fixation","","","","","","","","",""
"memory-trial","83","317179","0.0-15.0-1.20","1649","2","""event"",""trial"",""time""
""fullscreenenter"",""1"",""1467""
","
","
","""event"",""trial"",""time""
""fullscreenenter"",""1"",""1467""
","
","","","","","","3112.199999809265","images/flower1.png","","","memory_trial","4","definitely_new","","","","","","",""
"html-keyboard-response","84","317680","0.0-15.0-0.21","1649","2","""event"",""trial"",""time""
""fullscreenenter"",""1"",""1467""
","
","
","""event"",""trial"",""time""
""fullscreenenter"",""1"",""1467""
","
","","","","","","null","<div style=""font-size:60px;"">+</div>","null","","fixation","","","","","","","","",""
"memory-trial","85","319187","0.0-15.0-1.21","1649","2","""event"",""trial"",""time""
""fullscreenenter"",""1"",""1467""
","
","
","""event"",""trial"",""time""
""fullscreenenter"",""1"",""1467""
","
","","","","","","503.2999999523163","images/plane5.png","","","memory_trial","2","maybe_old","","","","","","",""
"html-keyboard-response","86","319689","0.0-15.0-0.22","1649","2","""event"",""trial"",""time""
""fullscreenenter"",""1"",""1467""
","
","
","""event"",""trial"",""time""
""fullscreenenter"",""1"",""1467""
","
","","","","","","null","<div style=""font-size:60px;"">+</div>","null","","fixation","","","","","","","","",""
"memory-trial","87","322720","0.0-15.0-1.22","1649","2","""event"",""trial"",""time""
""fullscreenenter"",""1"",""1467""
","
","
","""event"",""trial"",""time""
""fullscreenenter"",""1"",""1467""
","
","","","","","","2027.1000001430511","images/cow1.png","","","memory_trial","3","maybe_new","","","","","","",""
"html-keyboard-response","88","323222","0.0-15.0-0.23","1649","2","""event"",""trial"",""time""
""fullscreenenter"",""1"",""1467""
","
","
","""event"",""trial"",""time""
""fullscreenenter"",""1"",""1467""
","
","","","","","","null","<div style=""font-size:60px;"">+</div>","null","","fixation","","","","","","","","",""
"memory-trial","89","325728","0.0-15.0-1.23","1649","2","""event"",""trial"",""time""
""fullscreenenter"",""1"",""1467""
","
","
","""event"",""trial"",""time""
""fullscreenenter"",""1"",""1467""
","
","","","","","","1503.2999999523163","images/banana1.png","","","memory_trial","1","definitely_old","","","","","","",""
"html-keyboard-response","90","326230","0.0-15.0-0.24","1649","2","""event"",""trial"",""time""
""fullscreenenter"",""1"",""1467""
","
","
","""event"",""trial"",""time""
""fullscreenenter"",""1"",""1467""
","
","","","","","","null","<div style=""font-size:60px;"">+</div>","null","","fixation","","","","","","","","",""
"memory-trial","91","329181","0.0-15.0-1.24","1649","2","""event"",""trial"",""time""
""fullscreenenter"",""1"",""1467""
","
","
","""event"",""trial"",""time""
""fullscreenenter"",""1"",""1467""
","
","","","","","","1946.8999998569489","images/tree1.png","","","memory_trial","1","definitely_old","","","","","","",""
"html-keyboard-response","92","329682","0.0-15.0-0.25","1649","2","""event"",""trial"",""time""
""fullscreenenter"",""1"",""1467""
","
","
","""event"",""trial"",""time""
""fullscreenenter"",""1"",""1467""
","
","","","","","","null","<div style=""font-size:60px;"">+</div>","null","","fixation","","","","","","","","",""
"memory-trial","93","332149","0.0-15.0-1.25","1649","2","""event"",""trial"",""time""
""fullscreenenter"",""1"",""1467""
","
","
","""event"",""trial"",""time""
""fullscreenenter"",""1"",""1467""
","
","","","","","","1463.8999998569489","images/sheep3.png","","","memory_trial","1","definitely_old","","","","","","",""
"html-keyboard-response","94","332652","0.0-15.0-0.26","1649","2","""event"",""trial"",""time""
""fullscreenenter"",""1"",""1467""
","
","
","""event"",""trial"",""time""
""fullscreenenter"",""1"",""1467""
","
","","","","","","null","<div style=""font-size:60px;"">+</div>","null","","fixation","","","","","","","","",""
"memory-trial","95","334730","0.0-15.0-1.26","1649","2","""event"",""trial"",""time""
""fullscreenenter"",""1"",""1467""
","
","
","""event"",""trial"",""time""
""fullscreenenter"",""1"",""1467""
","
","","","","","","1074.3999998569489","images/plane2.png","","","memory_trial","4","definitely_new","","","","","","",""
"html-keyboard-response","96","335232","0.0-15.0-0.27","1649","2","""event"",""trial"",""time""
""fullscreenenter"",""1"",""1467""
","
","
","""event"",""trial"",""time""
""fullscreenenter"",""1"",""1467""
","
","","","","","","null","<div style=""font-size:60px;"">+</div>","null","","fixation","","","","","","","","",""
"memory-trial","97","338225","0.0-15.0-1.27","1649","2","""event"",""trial"",""time""
""fullscreenenter"",""1"",""1467""
","
","
","""event"",""trial"",""time""
""fullscreenenter"",""1"",""1467""
","
","","","","","","1989.8999998569489","images/chair5.png","","","memory_trial","2","maybe_old","","","","","","",""
"html-keyboard-response","98","338726","0.0-15.0-0.28","1649","2","""event"",""trial"",""time""
""fullscreenenter"",""1"",""1467""
","
","
","""event"",""trial"",""time""
""fullscreenenter"",""1"",""1467""
","
","","","","","","null","<div style=""font-size:60px;"">+</div>","null","","fixation","","","","","","","","",""
"memory-trial","99","342261","0.0-15.0-1.28","1649","2","""event"",""trial"",""time""
""fullscreenenter"",""1"",""1467""
","
","
","""event"",""trial"",""time""
""fullscreenenter"",""1"",""1467""
","
","","","","","","2531.100000143051","images/bush4.png","","","memory_trial","2","maybe_old","","","","","","",""
"html-keyboard-response","100","342763","0.0-15.0-0.29","1649","2","""event"",""trial"",""time""
""fullscreenenter"",""1"",""1467""
","
","
","""event"",""trial"",""time""
""fullscreenenter"",""1"",""1467""
","
","","","","","","null","<div style=""font-size:60px;"">+</div>","null","","fixation","","","","","","","","",""
"memory-trial","101","346010","0.0-15.0-1.29","1649","2","""event"",""trial"",""time""
""fullscreenenter"",""1"",""1467""
","
","
","""event"",""trial"",""time""
""fullscreenenter"",""1"",""1467""
","
","","","","","","2240.0999999046326","images/goat5.png","","","memory_trial","3","maybe_new","","","","","","",""
"html-keyboard-response","102","346512","0.0-15.0-0.30","1649","2","""event"",""trial"",""time""
""fullscreenenter"",""1"",""1467""
","
","
","""event"",""trial"",""time""
""fullscreenenter"",""1"",""1467""
","
","","","","","","null","<div style=""font-size:60px;"">+</div>","null","","fixation","","","","","","","","",""
"memory-trial","103","350213","0.0-15.0-1.30","1649","2","""event"",""trial"",""time""
""fullscreenenter"",""1"",""1467""
","
","
","""event"",""trial"",""time""
""fullscreenenter"",""1"",""1467""
","
","","","","","","2695.899999856949","images/dog2.png","","","memory_trial","4","definitely_new","","","","","","",""
"html-keyboard-response","104","350735","0.0-15.0-0.31","1649","2","""event"",""trial"",""time""
""fullscreenenter"",""1"",""1467""
","
","
","""event"",""trial"",""time""
""fullscreenenter"",""1"",""1467""
","
","","","","","","null","<div style=""font-size:60px;"">+</div>","null","","fixation","","","","","","","","",""
"memory-trial","105","353783","0.0-15.0-1.31","1649","2","""event"",""trial"",""time""
""fullscreenenter"",""1"",""1467""
","
","
","""event"",""trial"",""time""
""fullscreenenter"",""1"",""1467""
","
","","","","","","2038.7999999523163","images/cow3.png","","","memory_trial","4","definitely_new","","","","","","",""
"html-keyboard-response","106","354286","0.0-15.0-0.32","1649","2","""event"",""trial"",""time""
""fullscreenenter"",""1"",""1467""
","
","
","""event"",""trial"",""time""
""fullscreenenter"",""1"",""1467""
","
","","","","","","null","<div style=""font-size:60px;"">+</div>","null","","fixation","","","","","","","","",""
"memory-trial","107","358336","0.0-15.0-1.32","1649","2","""event"",""trial"",""time""
""fullscreenenter"",""1"",""1467""
","
","
","""event"",""trial"",""time""
""fullscreenenter"",""1"",""1467""
","
","","","","","","3047.2000000476837","images/straw5.png","","","memory_trial","2","maybe_old","","","","","","",""
"html-keyboard-response","108","358837","0.0-15.0-0.33","1649","2","""event"",""trial"",""time""
""fullscreenenter"",""1"",""1467""
","
","
","""event"",""trial"",""time""
""fullscreenenter"",""1"",""1467""
","
","","","","","","null","<div style=""font-size:60px;"">+</div>","null","","fixation","","","","","","","","",""
"memory-trial","109","362411","0.0-15.0-1.33","1649","2","""event"",""trial"",""time""
""fullscreenenter"",""1"",""1467""
","
","
","""event"",""trial"",""time""
""fullscreenenter"",""1"",""1467""
","
","","","","","","2570.600000143051","images/dog5.png","","","memory_trial","4","definitely_new","","","","","","",""
"html-keyboard-response","110","362914","0.0-15.0-0.34","1649","2","""event"",""trial"",""time""
""fullscreenenter"",""1"",""1467""
","
","
","""event"",""trial"",""time""
""fullscreenenter"",""1"",""1467""
","
","","","","","","null","<div style=""font-size:60px;"">+</div>","null","","fixation","","","","","","","","",""
"memory-trial","111","365842","0.0-15.0-1.34","1649","2","""event"",""trial"",""time""
""fullscreenenter"",""1"",""1467""
","
","
","""event"",""trial"",""time""
""fullscreenenter"",""1"",""1467""
","
","","","","","","1923.9000000953674","images/train4.png","","","memory_trial","4","definitely_new","","","","","","",""
"html-keyboard-response","112","366344","0.0-15.0-0.35","1649","2","""event"",""trial"",""time""
""fullscreenenter"",""1"",""1467""
","
","
","""event"",""trial"",""time""
""fullscreenenter"",""1"",""1467""
","
","","","","","","null","<div style=""font-size:60px;"">+</div>","null","","fixation","","","","","","","","",""
"memory-trial","113","369871","0.0-15.0-1.35","1649","2","""event"",""trial"",""time""
""fullscreenenter"",""1"",""1467""
","
","
","""event"",""trial"",""time""
""fullscreenenter"",""1"",""1467""
","
","","","","","","2523.4000000953674","images/train5.png","","","memory_trial","4","definitely_new","","","","","","",""
"html-keyboard-response","114","370372","0.0-15.0-0.36","1649","2","""event"",""trial"",""time""
""fullscreenenter"",""1"",""1467""
","
","
","""event"",""trial"",""time""
""fullscreenenter"",""1"",""1467""
","
","","","","","","null","<div style=""font-size:60px;"">+</div>","null","","fixation","","","","","","","","",""
"memory-trial","115","375147","0.0-15.0-1.36","1649","2","""event"",""trial"",""time""
""fullscreenenter"",""1"",""1467""
","
","
","""event"",""trial"",""time""
""fullscreenenter"",""1"",""1467""
","
","","","","","","3771.899999856949","images/boat4.png","","","memory_trial","4","definitely_new","","","","","","",""
"html-keyboard-response","116","375649","0.0-15.0-0.37","1649","2","""event"",""trial"",""time""
""fullscreenenter"",""1"",""1467""
","
","
","""event"",""trial"",""time""
""fullscreenenter"",""1"",""1467""
","
","","","","","","null","<div style=""font-size:60px;"">+</div>","null","","fixation","","","","","","","","",""
"memory-trial","117","378276","0.0-15.0-1.37","1649","2","""event"",""trial"",""time""
""fullscreenenter"",""1"",""1467""
","
","
","""event"",""trial"",""time""
""fullscreenenter"",""1"",""1467""
","
","","","","","","1623.5999999046326","images/cactus3.png","","","memory_trial","2","maybe_old","","","","","","",""
"html-keyboard-response","118","378778","0.0-15.0-0.38","1649","2","""event"",""trial"",""time""
""fullscreenenter"",""1"",""1467""
","
","
","""event"",""trial"",""time""
""fullscreenenter"",""1"",""1467""
","
","","","","","","null","<div style=""font-size:60px;"">+</div>","null","","fixation","","","","","","","","",""
"memory-trial","119","381400","0.0-15.0-1.38","1649","2","""event"",""trial"",""time""
""fullscreenenter"",""1"",""1467""
","
","
","""event"",""trial"",""time""
""fullscreenenter"",""1"",""1467""
","
","","","","","","1617.7999999523163","images/tree3.png","","","memory_trial","2","maybe_old","","","","","","",""
"html-keyboard-response","120","381902","0.0-15.0-0.39","1649","2","""event"",""trial"",""time""
""fullscreenenter"",""1"",""1467""
","
","
","""event"",""trial"",""time""
""fullscreenenter"",""1"",""1467""
","
","","","","","","null","<div style=""font-size:60px;"">+</div>","null","","fixation","","","","","","","","",""
"memory-trial","121","384229","0.0-15.0-1.39","1649","2","""event"",""trial"",""time""
""fullscreenenter"",""1"",""1467""
","
","
","""event"",""trial"",""time""
""fullscreenenter"",""1"",""1467""
","
","","","","","","1324.5","images/straw2.png","","","memory_trial","1","definitely_old","","","","","","",""
"html-keyboard-response","122","384731","0.0-15.0-0.40","1649","2","""event"",""trial"",""time""
""fullscreenenter"",""1"",""1467""
","
","
","""event"",""trial"",""time""
""fullscreenenter"",""1"",""1467""
","
","","","","","","null","<div style=""font-size:60px;"">+</div>","null","","fixation","","","","","","","","",""
"memory-trial","123","387937","0.0-15.0-1.40","1649","2","""event"",""trial"",""time""
""fullscreenenter"",""1"",""1467""
","
","
","""event"",""trial"",""time""
""fullscreenenter"",""1"",""1467""
","
","","","","","","2202.7999999523163","images/bed2.png","","","memory_trial","3","maybe_new","","","","","","",""
"html-keyboard-response","124","388439","0.0-15.0-0.41","1649","2","""event"",""trial"",""time""
""fullscreenenter"",""1"",""1467""
","
","
","""event"",""trial"",""time""
""fullscreenenter"",""1"",""1467""
","
","","","","","","null","<div style=""font-size:60px;"">+</div>","null","","fixation","","","","","","","","",""
"memory-trial","125","392057","0.0-15.0-1.41","1649","2","""event"",""trial"",""time""
""fullscreenenter"",""1"",""1467""
","
","
","""event"",""trial"",""time""
""fullscreenenter"",""1"",""1467""
","
","","","","","","2614.4000000953674","images/bed5.png","","","memory_trial","4","definitely_new","","","","","","",""
"html-keyboard-response","126","392560","0.0-15.0-0.42","1649","2","""event"",""trial"",""time""
""fullscreenenter"",""1"",""1467""
","
","
","""event"",""trial"",""time""
""fullscreenenter"",""1"",""1467""
","
","","","","","","null","<div style=""font-size:60px;"">+</div>","null","","fixation","","","","","","","","",""
"memory-trial","127","396418","0.0-15.0-1.42","1649","2","""event"",""trial"",""time""
""fullscreenenter"",""1"",""1467""
","
","
","""event"",""trial"",""time""
""fullscreenenter"",""1"",""1467""
","
","","","","","","2854.4000000953674","images/banana5.png","","","memory_trial","4","definitely_new","","","","","","",""
"html-keyboard-response","128","396920","0.0-15.0-0.43","1649","2","""event"",""trial"",""time""
""fullscreenenter"",""1"",""1467""
","
","
","""event"",""trial"",""time""
""fullscreenenter"",""1"",""1467""
","
","","","","","","null","<div style=""font-size:60px;"">+</div>","null","","fixation","","","","","","","","",""
"memory-trial","129","400148","0.0-15.0-1.43","1649","2","""event"",""trial"",""time""
""fullscreenenter"",""1"",""1467""
","
","
","""event"",""trial"",""time""
""fullscreenenter"",""1"",""1467""
","
","","","","","","2224.7000000476837","images/boat1.png","","","memory_trial","4","definitely_new","","","","","","",""
"html-keyboard-response","130","400651","0.0-15.0-0.44","1649","2","""event"",""trial"",""time""
""fullscreenenter"",""1"",""1467""
","
","
","""event"",""trial"",""time""
""fullscreenenter"",""1"",""1467""
","
","","","","","","null","<div style=""font-size:60px;"">+</div>","null","","fixation","","","","","","","","",""
"memory-trial","131","402841","0.0-15.0-1.44","1649","2","""event"",""trial"",""time""
""fullscreenenter"",""1"",""1467""
","
","
","""event"",""trial"",""time""
""fullscreenenter"",""1"",""1467""
","
","","","","","","1186.2999999523163","images/bed3.png","","","memory_trial","4","definitely_new","","","","","","",""
"html-keyboard-response","132","403344","0.0-15.0-0.45","1649","2","""event"",""trial"",""time""
""fullscreenenter"",""1"",""1467""
","
","
","""event"",""trial"",""time""
""fullscreenenter"",""1"",""1467""
","
","","","","","","null","<div style=""font-size:60px;"">+</div>","null","","fixation","","","","","","","","",""
"memory-trial","133","406287","0.0-15.0-1.45","1649","2","""event"",""trial"",""time""
""fullscreenenter"",""1"",""1467""
","
","
","""event"",""trial"",""time""
""fullscreenenter"",""1"",""1467""
","
","","","","","","1940.9000000953674","images/table5.png","","","memory_trial","4","definitely_new","","","","","","",""
"html-keyboard-response","134","406789","0.0-15.0-0.46","1649","2","""event"",""trial"",""time""
""fullscreenenter"",""1"",""1467""
","
","
","""event"",""trial"",""time""
""fullscreenenter"",""1"",""1467""
","
","","","","","","null","<div style=""font-size:60px;"">+</div>","null","","fixation","","","","","","","","",""
"memory-trial","135","411776","0.0-15.0-1.46","1649","2","""event"",""trial"",""time""
""fullscreenenter"",""1"",""1467""
","
","
","""event"",""trial"",""time""
""fullscreenenter"",""1"",""1467""
","
","","","","","","3983.7000000476837","images/chair4.png","","","memory_trial","4","definitely_new","","","","","","",""
"html-button-response","136","443931","0.0-15.0-2.46-0.46","1649","2","""event"",""trial"",""time""
""fullscreenenter"",""1"",""1467""
","
","
","""event"",""trial"",""time""
""fullscreenenter"",""1"",""1467""
","
","","","","","","32152.200000047684","<p> Take a break! </p><p> Click the button to continue. </p>","0","","break","","","","","","","","",""
"html-keyboard-response","137","444434","0.0-15.0-0.47","1649","2","""event"",""trial"",""time""
""fullscreenenter"",""1"",""1467""
","
","
","""event"",""trial"",""time""
""fullscreenenter"",""1"",""1467""
","
","","","","","","null","<div style=""font-size:60px;"">+</div>","null","","fixation","","","","","","","","",""
"memory-trial","138","447217","0.0-15.0-1.47","1649","2","""event"",""trial"",""time""
""fullscreenenter"",""1"",""1467""
","
","
","""event"",""trial"",""time""
""fullscreenenter"",""1"",""1467""
","
","","","","","","1778.7999999523163","images/boat2.png","","","memory_trial","1","definitely_old","","","","","","",""
"html-keyboard-response","139","447718","0.0-15.0-0.48","1649","2","""event"",""trial"",""time""
""fullscreenenter"",""1"",""1467""
","
","
","""event"",""trial"",""time""
""fullscreenenter"",""1"",""1467""
","
","","","","","","null","<div style=""font-size:60px;"">+</div>","null","","fixation","","","","","","","","",""
"memory-trial","140","451516","0.0-15.0-1.48","1649","2","""event"",""trial"",""time""
""fullscreenenter"",""1"",""1467""
","
","
","""event"",""trial"",""time""
""fullscreenenter"",""1"",""1467""
","
","","","","","","2794.5","images/train2.png","","","memory_trial","4","definitely_new","","","","","","",""
"html-keyboard-response","141","452018","0.0-15.0-0.49","1649","2","""event"",""trial"",""time""
""fullscreenenter"",""1"",""1467""
","
","
","""event"",""trial"",""time""
""fullscreenenter"",""1"",""1467""
","
","","","","","","null","<div style=""font-size:60px;"">+</div>","null","","fixation","","","","","","","","",""
"memory-trial","142","454342","0.0-15.0-1.49","1649","2","""event"",""trial"",""time""
""fullscreenenter"",""1"",""1467""
","
","
","""event"",""trial"",""time""
""fullscreenenter"",""1"",""1467""
","
","","","","","","1319.5999999046326","images/rabbit2.png","","","memory_trial","1","definitely_old","","","","","","",""
"html-keyboard-response","143","454843","0.0-15.0-0.50","1649","2","""event"",""trial"",""time""
""fullscreenenter"",""1"",""1467""
","
","
","""event"",""trial"",""time""
""fullscreenenter"",""1"",""1467""
","
","","","","","","null","<div style=""font-size:60px;"">+</div>","null","","fixation","","","","","","","","",""
"memory-trial","144","457130","0.0-15.0-1.50","1649","2","""event"",""trial"",""time""
""fullscreenenter"",""1"",""1467""
","
","
","""event"",""trial"",""time""
""fullscreenenter"",""1"",""1467""
","
","","","","","","1283.0999999046326","images/tree5.png","","","memory_trial","1","definitely_old","","","","","","",""
"html-keyboard-response","145","457631","0.0-15.0-0.51","1649","2","""event"",""trial"",""time""
""fullscreenenter"",""1"",""1467""
","
","
","""event"",""trial"",""time""
""fullscreenenter"",""1"",""1467""
","
","","","","","","null","<div style=""font-size:60px;"">+</div>","null","","fixation","","","","","","","","",""
"memory-trial","146","460710","0.0-15.0-1.51","1649","2","""event"",""trial"",""time""
""fullscreenenter"",""1"",""1467""
","
","
","""event"",""trial"",""time""
""fullscreenenter"",""1"",""1467""
","
","","","","","","2076.600000143051","images/goat2.png","","","memory_trial","3","maybe_new","","","","","","",""
"html-keyboard-response","147","461212","0.0-15.0-0.52","1649","2","""event"",""trial"",""time""
""fullscreenenter"",""1"",""1467""
","
","
","""event"",""trial"",""time""
""fullscreenenter"",""1"",""1467""
","
","","","","","","null","<div style=""font-size:60px;"">+</div>","null","","fixation","","","","","","","","",""
"memory-trial","148","465846","0.0-15.0-1.52","1649","2","""event"",""trial"",""time""
""fullscreenenter"",""1"",""1467""
","
","
","""event"",""trial"",""time""
""fullscreenenter"",""1"",""1467""
","
","","","","","","3629.7999999523163","images/plane4.png","","","memory_trial","2","maybe_old","","","","","","",""
"html-keyboard-response","149","466348","0.0-15.0-0.53","1649","2","""event"",""trial"",""time""
""fullscreenenter"",""1"",""1467""
","
","
","""event"",""trial"",""time""
""fullscreenenter"",""1"",""1467""
","
","","","","","","null","<div style=""font-size:60px;"">+</div>","null","","fixation","","","","","","","","",""
"memory-trial","150","469888","0.0-15.0-1.53","1649","2","""event"",""trial"",""time""
""fullscreenenter"",""1"",""1467""
","
","
","""event"",""trial"",""time""
""fullscreenenter"",""1"",""1467""
","
","","","","","","2535.7000000476837","images/apple4.png","","","memory_trial","4","definitely_new","","","","","","",""
"html-keyboard-response","151","470389","0.0-15.0-0.54","1649","2","""event"",""trial"",""time""
""fullscreenenter"",""1"",""1467""
","
","
","""event"",""trial"",""time""
""fullscreenenter"",""1"",""1467""
","
","","","","","","null","<div style=""font-size:60px;"">+</div>","null","","fixation","","","","","","","","",""
"memory-trial","152","473888","0.0-15.0-1.54","1649","2","""event"",""trial"",""time""
""fullscreenenter"",""1"",""1467""
","
","
","""event"",""trial"",""time""
""fullscreenenter"",""1"",""1467""
","
","","","","","","2495.2999999523163","images/truck3.png","","","memory_trial","2","maybe_old","","","","","","",""
"html-keyboard-response","153","474391","0.0-15.0-0.55","1649","2","""event"",""trial"",""time""
""fullscreenenter"",""1"",""1467""
","
","
","""event"",""trial"",""time""
""fullscreenenter"",""1"",""1467""
","
","","","","","","null","<div style=""font-size:60px;"">+</div>","null","","fixation","","","","","","","","",""
"memory-trial","154","477896","0.0-15.0-1.55","1649","2","""event"",""trial"",""time""
""fullscreenenter"",""1"",""1467""
","
","
","""event"",""trial"",""time""
""fullscreenenter"",""1"",""1467""
","
","","","","","","2500.600000143051","images/tree2.png","","","memory_trial","3","maybe_new","","","","","","",""
"html-keyboard-response","155","478398","0.0-15.0-0.56","1649","2","""event"",""trial"",""time""
""fullscreenenter"",""1"",""1467""
","
","
","""event"",""trial"",""time""
""fullscreenenter"",""1"",""1467""
","
","","","","","","null","<div style=""font-size:60px;"">+</div>","null","","fixation","","","","","","","","",""
"memory-trial","156","482044","0.0-15.0-1.56","1649","2","""event"",""trial"",""time""
""fullscreenenter"",""1"",""1467""
","
","
","""event"",""trial"",""time""
""fullscreenenter"",""1"",""1467""
","
","","","","","","2641.2999999523163","images/orange2.png","","","memory_trial","1","definitely_old","","","","","","",""
"html-keyboard-response","157","482546","0.0-15.0-0.57","1649","2","""event"",""trial"",""time""
""fullscreenenter"",""1"",""1467""
","
","
","""event"",""trial"",""time""
""fullscreenenter"",""1"",""1467""
","
","","","","","","null","<div style=""font-size:60px;"">+</div>","null","","fixation","","","","","","","","",""
"memory-trial","158","485314","0.0-15.0-1.57","1649","2","""event"",""trial"",""time""
""fullscreenenter"",""1"",""1467""
","
","
","""event"",""trial"",""time""
""fullscreenenter"",""1"",""1467""
","
","","","","","","1763.8999998569489","images/orange4.png","","","memory_trial","1","definitely_old","","","","","","",""
"html-keyboard-response","159","485817","0.0-15.0-0.58","1649","2","""event"",""trial"",""time""
""fullscreenenter"",""1"",""1467""
","
","
","""event"",""trial"",""time""
""fullscreenenter"",""1"",""1467""
","
","","","","","","null","<div style=""font-size:60px;"">+</div>","null","","fixation","","","","","","","","",""
"memory-trial","160","489541","0.0-15.0-1.58","1649","2","""event"",""trial"",""time""
""fullscreenenter"",""1"",""1467""
","
","
","""event"",""trial"",""time""
""fullscreenenter"",""1"",""1467""
","
","","","","","","2720.7999999523163","images/feline4.png","","","memory_trial","3","maybe_new","","","","","","",""
"html-keyboard-response","161","490042","0.0-15.0-0.59","1649","2","""event"",""trial"",""time""
""fullscreenenter"",""1"",""1467""
","
","
","""event"",""trial"",""time""
""fullscreenenter"",""1"",""1467""
","
","","","","","","null","<div style=""font-size:60px;"">+</div>","null","","fixation","","","","","","","","",""
"memory-trial","162","492912","0.0-15.0-1.59","1649","2","""event"",""trial"",""time""
""fullscreenenter"",""1"",""1467""
","
","
","""event"",""trial"",""time""
""fullscreenenter"",""1"",""1467""
","
","","","","","","1866.5999999046326","images/plane3.png","","","memory_trial","2","maybe_old","","","","","","",""
"html-keyboard-response","163","493415","0.0-15.0-0.60","1649","2","""event"",""trial"",""time""
""fullscreenenter"",""1"",""1467""
","
","
","""event"",""trial"",""time""
""fullscreenenter"",""1"",""1467""
","
","","","","","","null","<div style=""font-size:60px;"">+</div>","null","","fixation","","","","","","","","",""
"memory-trial","164","498560","0.0-15.0-1.60","1649","2","""event"",""trial"",""time""
""fullscreenenter"",""1"",""1467""
","
","
","""event"",""trial"",""time""
""fullscreenenter"",""1"",""1467""
","
","","","","","","4141.400000095367","images/sofa5.png","","","memory_trial","2","maybe_old","","","","","","",""
"html-keyboard-response","165","499063","0.0-15.0-0.61","1649","2","""event"",""trial"",""time""
""fullscreenenter"",""1"",""1467""
","
","
","""event"",""trial"",""time""
""fullscreenenter"",""1"",""1467""
","
","","","","","","null","<div style=""font-size:60px;"">+</div>","null","","fixation","","","","","","","","",""
"memory-trial","166","502051","0.0-15.0-1.61","1649","2","""event"",""trial"",""time""
""fullscreenenter"",""1"",""1467""
","
","
","""event"",""trial"",""time""
""fullscreenenter"",""1"",""1467""
","
","","","","","","1983.2999999523163","images/rabbit4.png","","","memory_trial","1","definitely_old","","","","","","",""
"html-keyboard-response","167","502552","0.0-15.0-0.62","1649","2","""event"",""trial"",""time""
""fullscreenenter"",""1"",""1467""
","
","
","""event"",""trial"",""time""
""fullscreenenter"",""1"",""1467""
","
","","","","","","null","<div style=""font-size:60px;"">+</div>","null","","fixation","","","","","","","","",""
"memory-trial","168","507075","0.0-15.0-1.62","1649","2","""event"",""trial"",""time""
""fullscreenenter"",""1"",""1467""
","
","
","""event"",""trial"",""time""
""fullscreenenter"",""1"",""1467""
","
","","","","","","3519.899999856949","images/boat3.png","","","memory_trial","1","definitely_old","","","","","","",""
"html-keyboard-response","169","507577","0.0-15.0-0.63","1649","2","""event"",""trial"",""time""
""fullscreenenter"",""1"",""1467""
","
","
","""event"",""trial"",""time""
""fullscreenenter"",""1"",""1467""
","
","","","","","","null","<div style=""font-size:60px;"">+</div>","null","","fixation","","","","","","","","",""
"memory-trial","170","510567","0.0-15.0-1.63","1649","2","""event"",""trial"",""time""
""fullscreenenter"",""1"",""1467""
","
","
","""event"",""trial"",""time""
""fullscreenenter"",""1"",""1467""
","
","","","","","","1985.8999998569489","images/rodent2.png","","","memory_trial","2","maybe_old","","","","","","",""
"html-keyboard-response","171","511069","0.0-15.0-0.64","1649","2","""event"",""trial"",""time""
""fullscreenenter"",""1"",""1467""
","
","
","""event"",""trial"",""time""
""fullscreenenter"",""1"",""1467""
","
","","","","","","null","<div style=""font-size:60px;"">+</div>","null","","fixation","","","","","","","","",""
"memory-trial","172","513947","0.0-15.0-1.64","1649","2","""event"",""trial"",""time""
""fullscreenenter"",""1"",""1467""
","
","
","""event"",""trial"",""time""
""fullscreenenter"",""1"",""1467""
","
","","","","","","1875.0999999046326","images/sheep1.png","","","memory_trial","1","definitely_old","","","","","","",""
"html-keyboard-response","173","514448","0.0-15.0-0.65","1649","2","""event"",""trial"",""time""
""fullscreenenter"",""1"",""1467""
","
","
","""event"",""trial"",""time""
""fullscreenenter"",""1"",""1467""
","
","","","","","","null","<div style=""font-size:60px;"">+</div>","null","","fixation","","","","","","","","",""
"memory-trial","174","517557","0.0-15.0-1.65","1649","2","""event"",""trial"",""time""
""fullscreenenter"",""1"",""1467""
","
","
","""event"",""trial"",""time""
""fullscreenenter"",""1"",""1467""
","
","","","","","","2105.600000143051","images/sofa2.png","","","memory_trial","2","maybe_old","","","","","","",""
"html-keyboard-response","175","518059","0.0-15.0-0.66","1649","2","""event"",""trial"",""time""
""fullscreenenter"",""1"",""1467""
","
","
","""event"",""trial"",""time""
""fullscreenenter"",""1"",""1467""
","
","","","","","","null","<div style=""font-size:60px;"">+</div>","null","","fixation","","","","","","","","",""
"memory-trial","176","521108","0.0-15.0-1.66","1649","2","""event"",""trial"",""time""
""fullscreenenter"",""1"",""1467""
","
","
","""event"",""trial"",""time""
""fullscreenenter"",""1"",""1467""
","
","","","","","","2045.3000001907349","images/cactus2.png","","","memory_trial","4","definitely_new","","","","","","",""
"html-keyboard-response","177","521610","0.0-15.0-0.67","1649","2","""event"",""trial"",""time""
""fullscreenenter"",""1"",""1467""
","
","
","""event"",""trial"",""time""
""fullscreenenter"",""1"",""1467""
","
","","","","","","null","<div style=""font-size:60px;"">+</div>","null","","fixation","","","","","","","","",""
"memory-trial","178","524314","0.0-15.0-1.67","1649","2","""event"",""trial"",""time""
""fullscreenenter"",""1"",""1467""
","
","
","""event"",""trial"",""time""
""fullscreenenter"",""1"",""1467""
","
","","","","","","1700.7999999523163","images/rodent4.png","","","memory_trial","1","definitely_old","","","","","","",""
"html-keyboard-response","179","524816","0.0-15.0-0.68","1649","2","""event"",""trial"",""time""
""fullscreenenter"",""1"",""1467""
","
","
","""event"",""trial"",""time""
""fullscreenenter"",""1"",""1467""
","
","","","","","","null","<div style=""font-size:60px;"">+</div>","null","","fixation","","","","","","","","",""
"memory-trial","180","528120","0.0-15.0-1.68","1649","2","""event"",""trial"",""time""
""fullscreenenter"",""1"",""1467""
","
","
","""event"",""trial"",""time""
""fullscreenenter"",""1"",""1467""
","
","","","","","","2301.7000000476837","images/table3.png","","","memory_trial","1","definitely_old","","","","","","",""
"html-keyboard-response","181","528622","0.0-15.0-0.69","1649","2","""event"",""trial"",""time""
""fullscreenenter"",""1"",""1467""
","
","
","""event"",""trial"",""time""
""fullscreenenter"",""1"",""1467""
","
","","","","","","null","<div style=""font-size:60px;"">+</div>","null","","fixation","","","","","","","","",""
"memory-trial","182","531358","0.0-15.0-1.69","1649","2","""event"",""trial"",""time""
""fullscreenenter"",""1"",""1467""
","
","
","""event"",""trial"",""time""
""fullscreenenter"",""1"",""1467""
","
","","","","","","1733.5","images/goat1.png","","","memory_trial","1","definitely_old","","","","","","",""
"html-keyboard-response","183","531861","0.0-15.0-0.70","1649","2","""event"",""trial"",""time""
""fullscreenenter"",""1"",""1467""
","
","
","""event"",""trial"",""time""
""fullscreenenter"",""1"",""1467""
","
","","","","","","null","<div style=""font-size:60px;"">+</div>","null","","fixation","","","","","","","","",""
"memory-trial","184","534764","0.0-15.0-1.70","1649","2","""event"",""trial"",""time""
""fullscreenenter"",""1"",""1467""
","
","
","""event"",""trial"",""time""
""fullscreenenter"",""1"",""1467""
","
","","","","","","1899.5999999046326","images/train1.png","","","memory_trial","4","definitely_new","","","","","","",""
"html-keyboard-response","185","535266","0.0-15.0-0.71","1649","2","""event"",""trial"",""time""
""fullscreenenter"",""1"",""1467""
","
","
","""event"",""trial"",""time""
""fullscreenenter"",""1"",""1467""
","
","","","","","","null","<div style=""font-size:60px;"">+</div>","null","","fixation","","","","","","","","",""
"memory-trial","186","538289","0.0-15.0-1.71","1649","2","""event"",""trial"",""time""
""fullscreenenter"",""1"",""1467""
","
","
","""event"",""trial"",""time""
""fullscreenenter"",""1"",""1467""
","
","","","","","","2019","images/cow5.png","","","memory_trial","4","definitely_new","","","","","","",""
"html-keyboard-response","187","538791","0.0-15.0-0.72","1649","2","""event"",""trial"",""time""
""fullscreenenter"",""1"",""1467""
","
","
","""event"",""trial"",""time""
""fullscreenenter"",""1"",""1467""
","
","","","","","","null","<div style=""font-size:60px;"">+</div>","null","","fixation","","","","","","","","",""
"memory-trial","188","541944","0.0-15.0-1.72","1649","2","""event"",""trial"",""time""
""fullscreenenter"",""1"",""1467""
","
","
","""event"",""trial"",""time""
""fullscreenenter"",""1"",""1467""
","
","","","","","","2149.100000143051","images/table1.png","","","memory_trial","2","maybe_old","","","","","","",""
"html-keyboard-response","189","542446","0.0-15.0-0.73","1649","2","""event"",""trial"",""time""
""fullscreenenter"",""1"",""1467""
","
","
","""event"",""trial"",""time""
""fullscreenenter"",""1"",""1467""
","
","","","","","","null","<div style=""font-size:60px;"">+</div>","null","","fixation","","","","","","","","",""
"memory-trial","190","545989","0.0-15.0-1.73","1649","2","""event"",""trial"",""time""
""fullscreenenter"",""1"",""1467""
","
","
","""event"",""trial"",""time""
""fullscreenenter"",""1"",""1467""
","
","","","","","","2539.699999809265","images/sheep5.png","","","memory_trial","4","definitely_new","","","","","","",""
"html-keyboard-response","191","546491","0.0-15.0-0.74","1649","2","""event"",""trial"",""time""
""fullscreenenter"",""1"",""1467""
","
","
","""event"",""trial"",""time""
""fullscreenenter"",""1"",""1467""
","
","","","","","","null","<div style=""font-size:60px;"">+</div>","null","","fixation","","","","","","","","",""
"memory-trial","192","551185","0.0-15.0-1.74","1649","2","""event"",""trial"",""time""
""fullscreenenter"",""1"",""1467""
","
","
","""event"",""trial"",""time""
""fullscreenenter"",""1"",""1467""
","
","","","","","","3689.9000000953674","images/bed4.png","","","memory_trial","4","definitely_new","","","","","","",""
"html-keyboard-response","193","551687","0.0-15.0-0.75","1649","2","""event"",""trial"",""time""
""fullscreenenter"",""1"",""1467""
","
","
","""event"",""trial"",""time""
""fullscreenenter"",""1"",""1467""
","
","","","","","","null","<div style=""font-size:60px;"">+</div>","null","","fixation","","","","","","","","",""
"memory-trial","194","555132","0.0-15.0-1.75","1649","2","""event"",""trial"",""time""
""fullscreenenter"",""1"",""1467""
","
","
","""event"",""trial"",""time""
""fullscreenenter"",""1"",""1467""
","
","","","","","","2442.600000143051","images/chair2.png","","","memory_trial","2","maybe_old","","","","","","",""
"html-keyboard-response","195","555634","0.0-15.0-0.76","1649","2","""event"",""trial"",""time""
""fullscreenenter"",""1"",""1467""
","
","
","""event"",""trial"",""time""
""fullscreenenter"",""1"",""1467""
","
","","","","","","null","<div style=""font-size:60px;"">+</div>","null","","fixation","","","","","","","","",""
"memory-trial","196","558207","0.0-15.0-1.76","1649","2","""event"",""trial"",""time""
""fullscreenenter"",""1"",""1467""
","
","
","""event"",""trial"",""time""
""fullscreenenter"",""1"",""1467""
","
","","","","","","1569","images/feline1.png","","","memory_trial","1","definitely_old","","","","","","",""
"html-keyboard-response","197","558708","0.0-15.0-0.77","1649","2","""event"",""trial"",""time""
""fullscreenenter"",""1"",""1467""
","
","
","""event"",""trial"",""time""
""fullscreenenter"",""1"",""1467""
","
","","","","","","null","<div style=""font-size:60px;"">+</div>","null","","fixation","","","","","","","","",""
"memory-trial","198","561299","0.0-15.0-1.77","1649","2","""event"",""trial"",""time""
""fullscreenenter"",""1"",""1467""
","
","
","""event"",""trial"",""time""
""fullscreenenter"",""1"",""1467""
","
","","","","","","1587.5","images/horse5.png","","","memory_trial","1","definitely_old","","","","","","",""
"html-keyboard-response","199","561801","0.0-15.0-0.78","1649","2","""event"",""trial"",""time""
""fullscreenenter"",""1"",""1467""
","
","
","""event"",""trial"",""time""
""fullscreenenter"",""1"",""1467""
","
","","","","","","null","<div style=""font-size:60px;"">+</div>","null","","fixation","","","","","","","","",""
"memory-trial","200","568795","0.0-15.0-1.78","1649","2","""event"",""trial"",""time""
""fullscreenenter"",""1"",""1467""
","
","
","""event"",""trial"",""time""
""fullscreenenter"",""1"",""1467""
","
","","","","","","5991.200000047684","images/sheep4.png","","","memory_trial","2","maybe_old","","","","","","",""
"html-keyboard-response","201","569298","0.0-15.0-0.79","1649","2","""event"",""trial"",""time""
""fullscreenenter"",""1"",""1467""
","
","
","""event"",""trial"",""time""
""fullscreenenter"",""1"",""1467""
","
","","","","","","null","<div style=""font-size:60px;"">+</div>","null","","fixation","","","","","","","","",""
"memory-trial","202","572008","0.0-15.0-1.79","1649","2","""event"",""trial"",""time""
""fullscreenenter"",""1"",""1467""
","
","
","""event"",""trial"",""time""
""fullscreenenter"",""1"",""1467""
","
","","","","","","1706.3000001907349","images/bush1.png","","","memory_trial","1","definitely_old","","","","","","",""
"html-keyboard-response","203","572518","0.0-15.0-0.80","1649","2","""event"",""trial"",""time""
""fullscreenenter"",""1"",""1467""
","
","
","""event"",""trial"",""time""
""fullscreenenter"",""1"",""1467""
","
","","","","","","null","<div style=""font-size:60px;"">+</div>","null","","fixation","","","","","","","","",""
"memory-trial","204","575617","0.0-15.0-1.80","1649","2","""event"",""trial"",""time""
""fullscreenenter"",""1"",""1467""
","
","
","""event"",""trial"",""time""
""fullscreenenter"",""1"",""1467""
","
","","","","","","2096","images/truck2.png","","","memory_trial","1","definitely_old","","","","","","",""
"html-keyboard-response","205","576118","0.0-15.0-0.81","1649","2","""event"",""trial"",""time""
""fullscreenenter"",""1"",""1467""
","
","
","""event"",""trial"",""time""
""fullscreenenter"",""1"",""1467""
","
","","","","","","null","<div style=""font-size:60px;"">+</div>","null","","fixation","","","","","","","","",""
"memory-trial","206","579325","0.0-15.0-1.81","1649","2","""event"",""trial"",""time""
""fullscreenenter"",""1"",""1467""
","
","
","""event"",""trial"",""time""
""fullscreenenter"",""1"",""1467""
","
","","","","","","2202.899999856949","images/truck5.png","","","memory_trial","1","definitely_old","","","","","","",""
"html-keyboard-response","207","579827","0.0-15.0-0.82","1649","2","""event"",""trial"",""time""
""fullscreenenter"",""1"",""1467""
","
","
","""event"",""trial"",""time""
""fullscreenenter"",""1"",""1467""
","
","","","","","","null","<div style=""font-size:60px;"">+</div>","null","","fixation","","","","","","","","",""
"memory-trial","208","583665","0.0-15.0-1.82","1649","2","""event"",""trial"",""time""
""fullscreenenter"",""1"",""1467""
","
","
","""event"",""trial"",""time""
""fullscreenenter"",""1"",""1467""
","
","","","","","","2833.0999999046326","images/apple1.png","","","memory_trial","4","definitely_new","","","","","","",""
"html-keyboard-response","209","584166","0.0-15.0-0.83","1649","2","""event"",""trial"",""time""
""fullscreenenter"",""1"",""1467""
","
","
","""event"",""trial"",""time""
""fullscreenenter"",""1"",""1467""
","
","","","","","","null","<div style=""font-size:60px;"">+</div>","null","","fixation","","","","","","","","",""
"memory-trial","210","586886","0.0-15.0-1.83","1649","2","""event"",""trial"",""time""
""fullscreenenter"",""1"",""1467""
","
","
","""event"",""trial"",""time""
""fullscreenenter"",""1"",""1467""
","
","","","","","","1716.0999999046326","images/rodent1.png","","","memory_trial","1","definitely_old","","","","","","",""
"html-keyboard-response","211","587388","0.0-15.0-0.84","1649","2","""event"",""trial"",""time""
""fullscreenenter"",""1"",""1467""
","
","
","""event"",""trial"",""time""
""fullscreenenter"",""1"",""1467""
","
","","","","","","null","<div style=""font-size:60px;"">+</div>","null","","fixation","","","","","","","","",""
"memory-trial","212","590106","0.0-15.0-1.84","1649","2","""event"",""trial"",""time""
""fullscreenenter"",""1"",""1467""
","
","
","""event"",""trial"",""time""
""fullscreenenter"",""1"",""1467""
","
","","","","","","1714.2999999523163","images/feline3.png","","","memory_trial","2","maybe_old","","","","","","",""
"html-keyboard-response","213","590608","0.0-15.0-0.85","1649","2","""event"",""trial"",""time""
""fullscreenenter"",""1"",""1467""
","
","
","""event"",""trial"",""time""
""fullscreenenter"",""1"",""1467""
","
","","","","","","null","<div style=""font-size:60px;"">+</div>","null","","fixation","","","","","","","","",""
"memory-trial","214","595710","0.0-15.0-1.85","1649","2","""event"",""trial"",""time""
""fullscreenenter"",""1"",""1467""
","
","
","""event"",""trial"",""time""
""fullscreenenter"",""1"",""1467""
","
","","","","","","4097.799999952316","images/chair1.png","","","memory_trial","2","maybe_old","","","","","","",""
"html-keyboard-response","215","596211","0.0-15.0-0.86","1649","2","""event"",""trial"",""time""
""fullscreenenter"",""1"",""1467""
","
","
","""event"",""trial"",""time""
""fullscreenenter"",""1"",""1467""
","
","","","","","","null","<div style=""font-size:60px;"">+</div>","null","","fixation","","","","","","","","",""
"memory-trial","216","598986","0.0-15.0-1.86","1649","2","""event"",""trial"",""time""
""fullscreenenter"",""1"",""1467""
","
","
","""event"",""trial"",""time""
""fullscreenenter"",""1"",""1467""
","
","","","","","","1771.5","images/feline5.png","","","memory_trial","1","definitely_old","","","","","","",""
"html-keyboard-response","217","599488","0.0-15.0-0.87","1649","2","""event"",""trial"",""time""
""fullscreenenter"",""1"",""1467""
","
","
","""event"",""trial"",""time""
""fullscreenenter"",""1"",""1467""
","
","","","","","","null","<div style=""font-size:60px;"">+</div>","null","","fixation","","","","","","","","",""
"memory-trial","218","602697","0.0-15.0-1.87","1649","2","""event"",""trial"",""time""
""fullscreenenter"",""1"",""1467""
","
","
","""event"",""trial"",""time""
""fullscreenenter"",""1"",""1467""
","
","","","","","","2206","images/sofa4.png","","","memory_trial","4","definitely_new","","","","","","",""
"html-keyboard-response","219","603199","0.0-15.0-0.88","1649","2","""event"",""trial"",""time""
""fullscreenenter"",""1"",""1467""
","
","
","""event"",""trial"",""time""
""fullscreenenter"",""1"",""1467""
","
","","","","","","null","<div style=""font-size:60px;"">+</div>","null","","fixation","","","","","","","","",""
"memory-trial","220","606274","0.0-15.0-1.88","1649","2","""event"",""trial"",""time""
""fullscreenenter"",""1"",""1467""
","
","
","""event"",""trial"",""time""
""fullscreenenter"",""1"",""1467""
","
","","","","","","2072.2000000476837","images/goat4.png","","","memory_trial","3","maybe_new","","","","","","",""
"html-keyboard-response","221","606776","0.0-15.0-0.89","1649","2","""event"",""trial"",""time""
""fullscreenenter"",""1"",""1467""
","
","
","""event"",""trial"",""time""
""fullscreenenter"",""1"",""1467""
","
","","","","","","null","<div style=""font-size:60px;"">+</div>","null","","fixation","","","","","","","","",""
"memory-trial","222","609918","0.0-15.0-1.89","1649","2","""event"",""trial"",""time""
""fullscreenenter"",""1"",""1467""
","
","
","""event"",""trial"",""time""
""fullscreenenter"",""1"",""1467""
","
","","","","","","2138.899999856949","images/apple3.png","","","memory_trial","4","definitely_new","","","","","","",""
"html-keyboard-response","223","610420","0.0-15.0-0.90","1649","2","""event"",""trial"",""time""
""fullscreenenter"",""1"",""1467""
","
","
","""event"",""trial"",""time""
""fullscreenenter"",""1"",""1467""
","
","","","","","","null","<div style=""font-size:60px;"">+</div>","null","","fixation","","","","","","","","",""
"memory-trial","224","613850","0.0-15.0-1.90","1649","2","""event"",""trial"",""time""
""fullscreenenter"",""1"",""1467""
","
","
","""event"",""trial"",""time""
""fullscreenenter"",""1"",""1467""
","
","","","","","","2426.5","images/dog1.png","","","memory_trial","4","definitely_new","","","","","","",""
"html-keyboard-response","225","614352","0.0-15.0-0.91","1649","2","""event"",""trial"",""time""
""fullscreenenter"",""1"",""1467""
","
","
","""event"",""trial"",""time""
""fullscreenenter"",""1"",""1467""
","
","","","","","","null","<div style=""font-size:60px;"">+</div>","null","","fixation","","","","","","","","",""
"memory-trial","226","617158","0.0-15.0-1.91","1649","2","""event"",""trial"",""time""
""fullscreenenter"",""1"",""1467""
","
","
","""event"",""trial"",""time""
""fullscreenenter"",""1"",""1467""
","
","","","","","","1802.7000000476837","images/horse4.png","","","memory_trial","1","definitely_old","","","","","","",""
"html-keyboard-response","227","617661","0.0-15.0-0.92","1649","2","""event"",""trial"",""time""
""fullscreenenter"",""1"",""1467""
","
","
","""event"",""trial"",""time""
""fullscreenenter"",""1"",""1467""
","
","","","","","","null","<div style=""font-size:60px;"">+</div>","null","","fixation","","","","","","","","",""
"memory-trial","228","621132","0.0-15.0-1.92","1649","2","""event"",""trial"",""time""
""fullscreenenter"",""1"",""1467""
","
","
","""event"",""trial"",""time""
""fullscreenenter"",""1"",""1467""
","
","","","","","","2465.600000143051","images/straw1.png","","","memory_trial","1","definitely_old","","","","","","",""
"html-keyboard-response","229","621634","0.0-15.0-0.93","1649","2","""event"",""trial"",""time""
""fullscreenenter"",""1"",""1467""
","
","
","""event"",""trial"",""time""
""fullscreenenter"",""1"",""1467""
","
","","","","","","null","<div style=""font-size:60px;"">+</div>","null","","fixation","","","","","","","","",""
"memory-trial","230","625318","0.0-15.0-1.93","1649","2","""event"",""trial"",""time""
""fullscreenenter"",""1"",""1467""
","
","
","""event"",""trial"",""time""
""fullscreenenter"",""1"",""1467""
","
","","","","","","2681.0999999046326","images/plane1.png","","","memory_trial","1","definitely_old","","","","","","",""
"html-keyboard-response","231","625820","0.0-15.0-0.94","1649","2","""event"",""trial"",""time""
""fullscreenenter"",""1"",""1467""
","
","
","""event"",""trial"",""time""
""fullscreenenter"",""1"",""1467""
","
","","","","","","null","<div style=""font-size:60px;"">+</div>","null","","fixation","","","","","","","","",""
"memory-trial","232","629259","0.0-15.0-1.94","1649","2","""event"",""trial"",""time""
""fullscreenenter"",""1"",""1467""
","
","
","""event"",""trial"",""time""
""fullscreenenter"",""1"",""1467""
","
","","","","","","2435.9000000953674","images/flower2.png","","","memory_trial","4","definitely_new","","","","","","",""
"html-keyboard-response","233","629761","0.0-15.0-0.95","1649","2","""event"",""trial"",""time""
""fullscreenenter"",""1"",""1467""
","
","
","""event"",""trial"",""time""
""fullscreenenter"",""1"",""1467""
","
","","","","","","null","<div style=""font-size:60px;"">+</div>","null","","fixation","","","","","","","","",""
"memory-trial","234","633063","0.0-15.0-1.95","1649","2","""event"",""trial"",""time""
""fullscreenenter"",""1"",""1467""
","
","
","""event"",""trial"",""time""
""fullscreenenter"",""1"",""1467""
","
","","","","","","2298.7000000476837","images/flower3.png","","","memory_trial","4","definitely_new","","","","","","",""
"html-keyboard-response","235","633575","0.0-15.0-0.96","1649","2","""event"",""trial"",""time""
""fullscreenenter"",""1"",""1467""
","
","
","""event"",""trial"",""time""
""fullscreenenter"",""1"",""1467""
","
","","","","","","null","<div style=""font-size:60px;"">+</div>","null","","fixation","","","","","","","","",""
"memory-trial","236","635977","0.0-15.0-1.96","1649","2","""event"",""trial"",""time""
""fullscreenenter"",""1"",""1467""
","
","
","""event"",""trial"",""time""
""fullscreenenter"",""1"",""1467""
","
","","","","","","1398.0999999046326","images/orange1.png","","","memory_trial","1","definitely_old","","","","","","",""
"html-keyboard-response","237","636479","0.0-15.0-0.97","1649","2","""event"",""trial"",""time""
""fullscreenenter"",""1"",""1467""
","
","
","""event"",""trial"",""time""
""fullscreenenter"",""1"",""1467""
","
","","","","","","null","<div style=""font-size:60px;"">+</div>","null","","fixation","","","","","","","","",""
"memory-trial","238","640748","0.0-15.0-1.97","1649","2","""event"",""trial"",""time""
""fullscreenenter"",""1"",""1467""
","
","
","""event"",""trial"",""time""
""fullscreenenter"",""1"",""1467""
","
","","","","","","3265.9000000953674","images/goat3.png","","","memory_trial","2","maybe_old","","","","","","",""
"html-keyboard-response","239","641251","0.0-15.0-0.98","1649","2","""event"",""trial"",""time""
""fullscreenenter"",""1"",""1467""
","
","
","""event"",""trial"",""time""
""fullscreenenter"",""1"",""1467""
","
","","","","","","null","<div style=""font-size:60px;"">+</div>","null","","fixation","","","","","","","","",""
"memory-trial","240","644152","0.0-15.0-1.98","1649","2","""event"",""trial"",""time""
""fullscreenenter"",""1"",""1467""
","
","
","""event"",""trial"",""time""
""fullscreenenter"",""1"",""1467""
","
","","","","","","1897.8999998569489","images/flower4.png","","","memory_trial","4","definitely_new","","","","","","",""
"html-keyboard-response","241","644654","0.0-15.0-0.99","1649","2","""event"",""trial"",""time""
""fullscreenenter"",""1"",""1467""
","
","
","""event"",""trial"",""time""
""fullscreenenter"",""1"",""1467""
","
","","","","","","null","<div style=""font-size:60px;"">+</div>","null","","fixation","","","","","","","","",""
"memory-trial","242","647899","0.0-15.0-1.99","1649","2","""event"",""trial"",""time""
""fullscreenenter"",""1"",""1467""
","
","
","""event"",""trial"",""time""
""fullscreenenter"",""1"",""1467""
","
","","","","","","2240.2999999523163","images/boat5.png","","","memory_trial","1","definitely_old","","","","","","",""
"html-keyboard-response","243","648401","0.0-15.0-0.100","1649","2","""event"",""trial"",""time""
""fullscreenenter"",""1"",""1467""
","
","
","""event"",""trial"",""time""
""fullscreenenter"",""1"",""1467""
","
","","","","","","null","<div style=""font-size:60px;"">+</div>","null","","fixation","","","","","","","","",""
"memory-trial","244","652630","0.0-15.0-1.100","1649","2","""event"",""trial"",""time""
""fullscreenenter"",""1"",""1467""
","
","
","""event"",""trial"",""time""
""fullscreenenter"",""1"",""1467""
","
","","","","","","3226.2000000476837","images/cow4.png","","","memory_trial","4","definitely_new","","","","","","",""
"html-keyboard-response","245","653133","0.0-15.0-0.101","1649","2","""event"",""trial"",""time""
""fullscreenenter"",""1"",""1467""
","
","
","""event"",""trial"",""time""
""fullscreenenter"",""1"",""1467""
","
","","","","","","null","<div style=""font-size:60px;"">+</div>","null","","fixation","","","","","","","","",""
"memory-trial","246","655607","0.0-15.0-1.101","1649","2","""event"",""trial"",""time""
""fullscreenenter"",""1"",""1467""
","
","
","""event"",""trial"",""time""
""fullscreenenter"",""1"",""1467""
","
","","","","","","1469.8000001907349","images/straw4.png","","","memory_trial","1","definitely_old","","","","","","",""
"html-button-response","247","685389","0.0-15.0-2.101-0.101","1649","2","""event"",""trial"",""time""
""fullscreenenter"",""1"",""1467""
","
","
","""event"",""trial"",""time""
""fullscreenenter"",""1"",""1467""
","
","","","","","","29779.5","<p> Take a break! </p><p> Click the button to continue. </p>","0","","break","","","","","","","","",""
"html-keyboard-response","248","685892","0.0-15.0-0.102","1649","2","""event"",""trial"",""time""
""fullscreenenter"",""1"",""1467""
","
","
","""event"",""trial"",""time""
""fullscreenenter"",""1"",""1467""
","
","","","","","","null","<div style=""font-size:60px;"">+</div>","null","","fixation","","","","","","","","",""
"memory-trial","249","689092","0.0-15.0-1.102","1649","2","""event"",""trial"",""time""
""fullscreenenter"",""1"",""1467""
","
","
","""event"",""trial"",""time""
""fullscreenenter"",""1"",""1467""
","
","","","","","","2196.2000000476837","images/dog4.png","","","memory_trial","4","definitely_new","","","","","","",""
"html-keyboard-response","250","689594","0.0-15.0-0.103","1649","2","""event"",""trial"",""time""
""fullscreenenter"",""1"",""1467""
","
","
","""event"",""trial"",""time""
""fullscreenenter"",""1"",""1467""
","
","","","","","","null","<div style=""font-size:60px;"">+</div>","null","","fixation","","","","","","","","",""
"memory-trial","251","693001","0.0-15.0-1.103","1649","2","""event"",""trial"",""time""
""fullscreenenter"",""1"",""1467""
","
","
","""event"",""trial"",""time""
""fullscreenenter"",""1"",""1467""
","
","","","","","","2402.5","images/apple5.png","","","memory_trial","4","definitely_new","","","","","","",""
"html-keyboard-response","252","693504","0.0-15.0-0.104","1649","2","""event"",""trial"",""time""
""fullscreenenter"",""1"",""1467""
","
","
","""event"",""trial"",""time""
""fullscreenenter"",""1"",""1467""
","
","","","","","","null","<div style=""font-size:60px;"">+</div>","null","","fixation","","","","","","","","",""
"memory-trial","253","696004","0.0-15.0-1.104","1649","2","""event"",""trial"",""time""
""fullscreenenter"",""1"",""1467""
","
","
","""event"",""trial"",""time""
""fullscreenenter"",""1"",""1467""
","
","","","","","","1494.9000000953674","images/bush2.png","","","memory_trial","1","definitely_old","","","","","","",""
"html-keyboard-response","254","696506","0.0-15.0-0.105","1649","2","""event"",""trial"",""time""
""fullscreenenter"",""1"",""1467""
","
","
","""event"",""trial"",""time""
""fullscreenenter"",""1"",""1467""
","
","","","","","","null","<div style=""font-size:60px;"">+</div>","null","","fixation","","","","","","","","",""
"memory-trial","255","699553","0.0-15.0-1.105","1649","2","""event"",""trial"",""time""
""fullscreenenter"",""1"",""1467""
","
","
","""event"",""trial"",""time""
""fullscreenenter"",""1"",""1467""
","
","","","","","","2043.7999999523163","images/sofa3.png","","","memory_trial","4","definitely_new","","","","","","",""
"html-keyboard-response","256","700055","0.0-15.0-0.106","1649","2","""event"",""trial"",""time""
""fullscreenenter"",""1"",""1467""
","
","
","""event"",""trial"",""time""
""fullscreenenter"",""1"",""1467""
","
","","","","","","null","<div style=""font-size:60px;"">+</div>","null","","fixation","","","","","","","","",""
"memory-trial","257","703425","0.0-15.0-1.106","1649","2","""event"",""trial"",""time""
""fullscreenenter"",""1"",""1467""
","
","
","""event"",""trial"",""time""
""fullscreenenter"",""1"",""1467""
","
","","","","","","2366.4000000953674","images/table4.png","","","memory_trial","4","definitely_new","","","","","","",""
"html-keyboard-response","258","703928","0.0-15.0-0.107","1649","2","""event"",""trial"",""time""
""fullscreenenter"",""1"",""1467""
","
","
","""event"",""trial"",""time""
""fullscreenenter"",""1"",""1467""
","
","","","","","","null","<div style=""font-size:60px;"">+</div>","null","","fixation","","","","","","","","",""
"memory-trial","259","706843","0.0-15.0-1.107","1649","2","""event"",""trial"",""time""
""fullscreenenter"",""1"",""1467""
","
","
","""event"",""trial"",""time""
""fullscreenenter"",""1"",""1467""
","
","","","","","","1911.5999999046326","images/bush5.png","","","memory_trial","4","definitely_new","","","","","","",""
"html-keyboard-response","260","707345","0.0-15.0-0.108","1649","2","""event"",""trial"",""time""
""fullscreenenter"",""1"",""1467""
","
","
","""event"",""trial"",""time""
""fullscreenenter"",""1"",""1467""
","
","","","","","","null","<div style=""font-size:60px;"">+</div>","null","","fixation","","","","","","","","",""
"memory-trial","261","710912","0.0-15.0-1.108","1649","2","""event"",""trial"",""time""
""fullscreenenter"",""1"",""1467""
","
","
","""event"",""trial"",""time""
""fullscreenenter"",""1"",""1467""
","
","","","","","","2563.4000000953674","images/rabbit3.png","","","memory_trial","4","definitely_new","","","","","","",""
"html-keyboard-response","262","711414","0.0-15.0-0.109","1649","2","""event"",""trial"",""time""
""fullscreenenter"",""1"",""1467""
","
","
","""event"",""trial"",""time""
""fullscreenenter"",""1"",""1467""
","
","","","","","","null","<div style=""font-size:60px;"">+</div>","null","","fixation","","","","","","","","",""
"memory-trial","263","714216","0.0-15.0-1.109","1649","2","""event"",""trial"",""time""
""fullscreenenter"",""1"",""1467""
","
","
","""event"",""trial"",""time""
""fullscreenenter"",""1"",""1467""
","
","","","","","","1799","images/banana4.png","","","memory_trial","4","definitely_new","","","","","","",""
"html-keyboard-response","264","714718","0.0-15.0-0.110","1649","2","""event"",""trial"",""time""
""fullscreenenter"",""1"",""1467""
","
","
","""event"",""trial"",""time""
""fullscreenenter"",""1"",""1467""
","
","","","","","","null","<div style=""font-size:60px;"">+</div>","null","","fixation","","","","","","","","",""
"memory-trial","265","719406","0.0-15.0-1.110","1649","2","""event"",""trial"",""time""
""fullscreenenter"",""1"",""1467""
","
","
","""event"",""trial"",""time""
""fullscreenenter"",""1"",""1467""
","
","","","","","","3683.7999999523163","images/sofa1.png","","","memory_trial","4","definitely_new","","","","","","",""
"html-keyboard-response","266","719908","0.0-15.0-0.111","1649","2","""event"",""trial"",""time""
""fullscreenenter"",""1"",""1467""
","
","
","""event"",""trial"",""time""
""fullscreenenter"",""1"",""1467""
","
","","","","","","null","<div style=""font-size:60px;"">+</div>","null","","fixation","","","","","","","","",""
"memory-trial","267","722859","0.0-15.0-1.111","1649","2","""event"",""trial"",""time""
""fullscreenenter"",""1"",""1467""
","
","
","""event"",""trial"",""time""
""fullscreenenter"",""1"",""1467""
","
","","","","","","1948.2000000476837","images/banana2.png","","","memory_trial","1","definitely_old","","","","","","",""
"html-keyboard-response","268","723361","0.0-15.0-0.112","1649","2","""event"",""trial"",""time""
""fullscreenenter"",""1"",""1467""
","
","
","""event"",""trial"",""time""
""fullscreenenter"",""1"",""1467""
","
","","","","","","null","<div style=""font-size:60px;"">+</div>","null","","fixation","","","","","","","","",""
"memory-trial","269","727050","0.0-15.0-1.112","1649","2","""event"",""trial"",""time""
""fullscreenenter"",""1"",""1467""
","
","
","""event"",""trial"",""time""
""fullscreenenter"",""1"",""1467""
","
","","","","","","2686.899999856949","images/orange3.png","","","memory_trial","1","definitely_old","","","","","","",""
"html-keyboard-response","270","727553","0.0-15.0-0.113","1649","2","""event"",""trial"",""time""
""fullscreenenter"",""1"",""1467""
","
","
","""event"",""trial"",""time""
""fullscreenenter"",""1"",""1467""
","
","","","","","","null","<div style=""font-size:60px;"">+</div>","null","","fixation","","","","","","","","",""
"memory-trial","271","732247","0.0-15.0-1.113","1649","2","""event"",""trial"",""time""
""fullscreenenter"",""1"",""1467""
","
","
","""event"",""trial"",""time""
""fullscreenenter"",""1"",""1467""
","
","","","","","","3689.5","images/rabbit5.png","","","memory_trial","4","definitely_new","","","","","","",""
"html-keyboard-response","272","732749","0.0-15.0-0.114","1649","2","""event"",""trial"",""time""
""fullscreenenter"",""1"",""1467""
","
","
","""event"",""trial"",""time""
""fullscreenenter"",""1"",""1467""
","
","","","","","","null","<div style=""font-size:60px;"">+</div>","null","","fixation","","","","","","","","",""
"memory-trial","273","737447","0.0-15.0-1.114","1649","2","""event"",""trial"",""time""
""fullscreenenter"",""1"",""1467""
","
","
","""event"",""trial"",""time""
""fullscreenenter"",""1"",""1467""
","
","","","","","","3694.899999856949","images/bed1.png","","","memory_trial","4","definitely_new","","","","","","",""
"html-keyboard-response","274","737949","0.0-15.0-0.115","1649","2","""event"",""trial"",""time""
""fullscreenenter"",""1"",""1467""
","
","
","""event"",""trial"",""time""
""fullscreenenter"",""1"",""1467""
","
","","","","","","null","<div style=""font-size:60px;"">+</div>","null","","fixation","","","","","","","","",""
"memory-trial","275","741120","0.0-15.0-1.115","1649","2","""event"",""trial"",""time""
""fullscreenenter"",""1"",""1467""
","
","
","""event"",""trial"",""time""
""fullscreenenter"",""1"",""1467""
","
","","","","","","2167.2999999523163","images/truck1.png","","","memory_trial","4","definitely_new","","","","","","",""
"html-keyboard-response","276","741623","0.0-15.0-0.116","1649","2","""event"",""trial"",""time""
""fullscreenenter"",""1"",""1467""
","
","
","""event"",""trial"",""time""
""fullscreenenter"",""1"",""1467""
","
","","","","","","null","<div style=""font-size:60px;"">+</div>","null","","fixation","","","","","","","","",""
"memory-trial","277","744257","0.0-15.0-1.116","1649","2","""event"",""trial"",""time""
""fullscreenenter"",""1"",""1467""
","
","
","""event"",""trial"",""time""
""fullscreenenter"",""1"",""1467""
","
","","","","","","1631.5999999046326","images/truck4.png","","","memory_trial","4","definitely_new","","","","","","",""
"html-keyboard-response","278","744760","0.0-15.0-0.117","1649","2","""event"",""trial"",""time""
""fullscreenenter"",""1"",""1467""
","
","
","""event"",""trial"",""time""
""fullscreenenter"",""1"",""1467""
","
","","","","","","null","<div style=""font-size:60px;"">+</div>","null","","fixation","","","","","","","","",""
"memory-trial","279","747656","0.0-15.0-1.117","1649","2","""event"",""trial"",""time""
""fullscreenenter"",""1"",""1467""
","
","
","""event"",""trial"",""time""
""fullscreenenter"",""1"",""1467""
","
","","","","","","1891.1000001430511","images/rodent3.png","","","memory_trial","1","definitely_old","","","","","","",""
"html-keyboard-response","280","748157","0.0-15.0-0.118","1649","2","""event"",""trial"",""time""
""fullscreenenter"",""1"",""1467""
","
","
","""event"",""trial"",""time""
""fullscreenenter"",""1"",""1467""
","
","","","","","","null","<div style=""font-size:60px;"">+</div>","null","","fixation","","","","","","","","",""
"memory-trial","281","751711","0.0-15.0-1.118","1649","2","""event"",""trial"",""time""
""fullscreenenter"",""1"",""1467""
","
","
","""event"",""trial"",""time""
""fullscreenenter"",""1"",""1467""
","
","","","","","","2550.5","images/straw3.png","","","memory_trial","1","definitely_old","","","","","","",""
"html-keyboard-response","282","752213","0.0-15.0-0.119","1649","2","""event"",""trial"",""time""
""fullscreenenter"",""1"",""1467""
","
","
","""event"",""trial"",""time""
""fullscreenenter"",""1"",""1467""
","
","","","","","","null","<div style=""font-size:60px;"">+</div>","null","","fixation","","","","","","","","",""
"memory-trial","283","756020","0.0-15.0-1.119","1649","2","""event"",""trial"",""time""
""fullscreenenter"",""1"",""1467""
","
","
","""event"",""trial"",""time""
""fullscreenenter"",""1"",""1467""
","
","","","","","","2803.399999856949","images/cactus5.png","","","memory_trial","2","maybe_old","","","","","","",""
"preload","284","761797","0.0-16.0","1649","2","""event"",""trial"",""time""
""fullscreenenter"",""1"",""1467""
","
","
","""event"",""trial"",""time""
""fullscreenenter"",""1"",""1467""
","
","true","false","[]","[]","[]","","","","","","","","","","","","","",""
"learning-instructions","285","773300","0.0-17.0-0.0-0.0-0.0","1649","2","""event"",""trial"",""time""
""fullscreenenter"",""1"",""1467""
","
","
","""event"",""trial"",""time""
""fullscreenenter"",""1"",""1467""
","
","","","","","","6841.799999952316","<p> We're now going to ask you to return your farm animals to barns again. </p>","","0","instructions","","","","","","","","",""
"learning-instructions","286","815795","0.0-17.0-0.0-0.0-0.1","1649","2","""event"",""trial"",""time""
""fullscreenenter"",""1"",""1467""
","
","
","""event"",""trial"",""time""
""fullscreenenter"",""1"",""1467""
","
","","","","","","37056.39999985695","<p> On each trial, you will see a farm animal. Select the barn where you think the animal belongs. </p>","","0","instructions","","","","","","","","",""
"learning-instructions","287","824520","0.0-17.0-0.0-0.0-0.2","1649","2","""event"",""trial"",""time""
""fullscreenenter"",""1"",""1467""
","
","
","""event"",""trial"",""time""
""fullscreenenter"",""1"",""1467""
","
","","","","","","1591.4000000953674","<p> To make your selection, think about what you learned last week. You will NOT receive any feedback about your choice. </p>","","0","instructions","","","","","","","","",""
"learning-instructions","288","834290","0.0-17.0-0.0-0.0-0.3","1649","2","""event"",""trial"",""time""
""fullscreenenter"",""1"",""1467""
","
","
","""event"",""trial"",""time""
""fullscreenenter"",""1"",""1467""
","
","","","","","","1661.0999999046326","<p> You should use the 1 key to select the barn on the left, the 2 key to select the barn in the middle, and the 3 key to select the barn on the right. </p><br><div class=""choice-mem-instructions-grid""> <div class=""choice-mem-option""><img src=""images/animals_choice1.png"" class=""choice-mem-option-img"" stage=""instructions"" position=""0"" ><div class=""choice-mem-option-text""> Press ""1."" </div></div><div class=""choice-mem-option""><img src=""images/animals_choice2.png"" class=""choice-mem-option-img"" stage=""instructions"" position=""1"" ><div class=""choice-mem-option-text""> Press ""2."" </div></div><div class=""choice-mem-option""><img src=""images/animals_choice3.png"" class=""choice-mem-option-img"" stage=""instructions"" position=""2"" ><div class=""choice-mem-option-text""> Press ""3."" </div></div></div>","","0","instructions","","","","","","","","",""
"learning-instructions","289","851190","0.0-17.0-0.0-0.0-0.4","1649","2","""event"",""trial"",""time""
""fullscreenenter"",""1"",""1467""
","
","
","""event"",""trial"",""time""
""fullscreenenter"",""1"",""1467""
","
","","","","","","10631.899999856949","<p> You will have 10 seconds to make each selection. Try to respond before time runs out! </p>","","0","instructions","","","","","","","","",""
"learning-instructions","290","865330","0.0-17.0-0.0-1.0","1649","2","""event"",""trial"",""time""
""fullscreenenter"",""1"",""1467""
","
","
","""event"",""trial"",""time""
""fullscreenenter"",""1"",""1467""
","
","","","","","","12071.700000047684","<p> You are now ready to begin the game. </p>","","0","instructions","","","","","","","","",""
"html-keyboard-response","291","865966","0.0-17.0-0.0-2.0-0.0","1649","2","""event"",""trial"",""time""
""fullscreenenter"",""1"",""1467""
","
","
","""event"",""trial"",""time""
""fullscreenenter"",""1"",""1467""
","
","","","","","","null","<div style=""font-size:60px;"">+</div>","null","","fixation","","","","","","","","",""
"choice-memory-trial","292","868337","0.0-17.0-0.0-2.0-1.0","1649","2","""event"",""trial"",""time""
""fullscreenenter"",""1"",""1467""
","
