"trial_type","trial_index","time_elapsed","internal_node_id","subject_id","task_version","interactions","blur_events","focus_events","fullscreenenter_events","fullscreenexit_events","success","timeout","failed_images","failed_audio","failed_video","rt","stimulus","response","button_pressed","task_part","key_press","answer","correct","left_choice","middle_choice","right_choice","choice_positions","option_selected","block"
"pavlovia","0","2","0.0-0.0","1636","2","""event"",""trial"",""time""
""fullscreenenter"",""1"",""1676""
","
","
","""event"",""trial"",""time""
""fullscreenenter"",""1"",""1676""
","
","","","","","","","","","","","","","","","","","","",""
"fullscreen","1","2671","0.0-1.0","1636","2","""event"",""trial"",""time""
""fullscreenenter"",""1"",""1676""
","
","
","""event"",""trial"",""time""
""fullscreenenter"",""1"",""1676""
","
","true","","","","","","","","","","","","","","","","","",""
"preload","2","3446","0.0-2.0","1636","2","""event"",""trial"",""time""
""fullscreenenter"",""1"",""1676""
","
","
","""event"",""trial"",""time""
""fullscreenenter"",""1"",""1676""
","
","true","false","[]","[]","[]","","","","","","","","","","","","","",""
"audio-keyboard-response","3","19175","0.0-3.0","1636","2","""event"",""trial"",""time""
""fullscreenenter"",""1"",""1676""
","
","
","""event"",""trial"",""time""
""fullscreenenter"",""1"",""1676""
","
","","","","","","15722.666666666666","audio/beep_loop.wav"," ","","","","","","","","","","",""
"audio-button-response","4","53664","0.0-4.0","1636","2","""event"",""trial"",""time""
""fullscreenenter"",""1"",""1676""
","
","
","""event"",""trial"",""time""
""fullscreenenter"",""1"",""1676""
","
","","","","","","34491","audio/turtle.wav","0","","","","","","","","","","",""
"audio-button-response","5","56581","0.0-5.0","1636","2","""event"",""trial"",""time""
""fullscreenenter"",""1"",""1676""
","
","
","""event"",""trial"",""time""
""fullscreenenter"",""1"",""1676""
","
","","","","","","1899","audio/shark.wav","2","","","","","","","","","","",""
"preload","6","60171","0.0-6.0","1636","2","""event"",""trial"",""time""
""fullscreenenter"",""1"",""1676""
","
","
","""event"",""trial"",""time""
""fullscreenenter"",""1"",""1676""
","
","true","false","[]","[]","[]","","","","","","","","","","","","","",""
"learning-instructions","7","68314","0.0-7.0-0.0","1636","2","""event"",""trial"",""time""
""fullscreenenter"",""1"",""1676""
","
","
","""event"",""trial"",""time""
""fullscreenenter"",""1"",""1676""
","
","","","","","","3338.7000000011176","<p> Welcome back! </p><p> Last week, you had to make choices about lots of different items.  </p>","","0","instructions","","","","","","","","",""
"learning-instructions","8","73164","0.0-7.0-0.1","1636","2","""event"",""trial"",""time""
""fullscreenenter"",""1"",""1676""
","
","
","""event"",""trial"",""time""
""fullscreenenter"",""1"",""1676""
","
","","","","","","545.7999999988824","<p> Today, we are going to ask you to try to remember all the items. </p>","","0","instructions","","","","","","","","",""
"learning-instructions","9","87998","0.0-7.0-0.2","1636","2","""event"",""trial"",""time""
""fullscreenenter"",""1"",""1676""
","
","
","""event"",""trial"",""time""
""fullscreenenter"",""1"",""1676""
","
","","","","","","4702.300000000745","<p> On every trial, you will see an image. </p><p> The image may be an OLD image you saw during the games last week or it may be a NEW image that was not presented. </p>","","0","instructions","","","","","","","","",""
"learning-instructions","10","97697","0.0-7.0-0.3","1636","2","""event"",""trial"",""time""
""fullscreenenter"",""1"",""1676""
","
","
","""event"",""trial"",""time""
""fullscreenenter"",""1"",""1676""
","
","","","","","","1201.5999999996275","<p> You need to select whether the image is:  </p><p>  'Definitely old', 'Maybe old', 'Maybe new', or 'Definitely new.'  </p><div class=""mem-choice-instructions-grid""><div class=""choice-option"" id=""choice-option-1"" ><img src=""images/definitely_old_1.png"" id=""choice-option-img-1"" class=""choice-option-img"" stage=""1""></div><div class=""choice-option"" id=""choice-option-2"" ><img src=""images/maybe_old_1.png"" id=""choice-option-img-2"" class=""choice-option-img"" stage=""1""></div><div class=""choice-option"" id=""choice-option-3"" ><img src=""images/maybe_new_1.png"" id=""choice-option-img-3"" class=""choice-option-img"" stage=""1""></div><div class=""choice-option"" id=""choice-option-4"" > <img src=""images/definitely_new_1.png"" id=""choice-option-img-4"" class=""choice-option-img"" stage=""1""></div></div>","","0","instructions","","","","","","","","",""
"learning-instructions","11","105331","0.0-7.0-0.4","1636","2","""event"",""trial"",""time""
""fullscreenenter"",""1"",""1676""
","
","
","""event"",""trial"",""time""
""fullscreenenter"",""1"",""1676""
","
","","","","","","940.1000000014901","<p> You should use the 1, 2, 3, and 4 keys to make your responses.  </p><div class=""mem-choice-instructions-grid""><div class=""choice-option"" id=""choice-option-1"" ><img src=""images/definitely_old.png"" id=""choice-option-img-1"" class=""choice-option-img"" stage=""1""></div><div class=""choice-option"" id=""choice-option-2"" ><img src=""images/maybe_old.png"" id=""choice-option-img-2"" class=""choice-option-img"" stage=""1""></div><div class=""choice-option"" id=""choice-option-3"" ><img src=""images/maybe_new.png"" id=""choice-option-img-3"" class=""choice-option-img"" stage=""1""></div><div class=""choice-option"" id=""choice-option-4"" > <img src=""images/definitely_new.png"" id=""choice-option-img-4"" class=""choice-option-img"" stage=""1""></div></div>","","0","instructions","","","","","","","","",""
"learning-instructions","12","112999","0.0-7.0-0.5","1636","2","""event"",""trial"",""time""
""fullscreenenter"",""1"",""1676""
","
","
","""event"",""trial"",""time""
""fullscreenenter"",""1"",""1676""
","
","","","","","","907.7999999988824","<p> You will have 10 seconds to make each response.  </p><p>  Make sure to respond before time runs out! </p>","","0","instructions","","","","","","","","",""
"learning-instructions","13","121631","0.0-7.0-0.6","1636","2","""event"",""trial"",""time""
""fullscreenenter"",""1"",""1676""
","
","
","""event"",""trial"",""time""
""fullscreenenter"",""1"",""1676""
","
","","","","","","1055.300000000745","<p> Today, you will see each image ONCE only.  </p><p>  That means none of the images will repeat. </p>","","0","instructions","","","","","","","","",""
"learning-instructions","14","135666","0.0-7.0-0.7","1636","2","""event"",""trial"",""time""
""fullscreenenter"",""1"",""1676""
","
","
","""event"",""trial"",""time""
""fullscreenenter"",""1"",""1676""
","
","","","","","","1366.8999999985099","<p> Before you play the real game, it is time to practice. </p><p>  Just like in the real game, some of the images in the practice will be ones you have seen before. </p><p>  Others will be entirely new. </p>","","0","instructions","","","","","","","","",""
"html-button-response","15","137515","0.0-8.0","1636","2","""event"",""trial"",""time""
""fullscreenenter"",""1"",""1676""
","
","
","""event"",""trial"",""time""
""fullscreenenter"",""1"",""1676""
","
","","","","","","1745.9000000003725","<p> Ready to practice? </p><p> Remember, use the 1, 2, 3, and 4 keys to make your responses. </p>","0","","instructions","","","","","","","","",""
"html-keyboard-response","16","138123","0.0-9.0-0.0","1636","2","""event"",""trial"",""time""
""fullscreenenter"",""1"",""1676""
","
","
","""event"",""trial"",""time""
""fullscreenenter"",""1"",""1676""
","
","","","","","","null","<div style=""font-size:60px;"">+</div>","null","","fixation","","","","","","","","",""
"memory-trial","17","143942","0.0-9.0-1.0","1636","2","""event"",""trial"",""time""
""fullscreenenter"",""1"",""1676""
","
","
","""event"",""trial"",""time""
""fullscreenenter"",""1"",""1676""
","
","","","","","","4815.4000000003725","images/racket3.png","","","practice","4","definitely_new","","","","","","",""
"html-keyboard-response","18","144448","0.0-9.0-0.1","1636","2","""event"",""trial"",""time""
""fullscreenenter"",""1"",""1676""
","
","
","""event"",""trial"",""time""
""fullscreenenter"",""1"",""1676""
","
","","","","","","null","<div style=""font-size:60px;"">+</div>","null","","fixation","","","","","","","","",""
"memory-trial","19","148973","0.0-9.0-1.1","1636","2","""event"",""trial"",""time""
""fullscreenenter"",""1"",""1676""
","
","
","""event"",""trial"",""time""
""fullscreenenter"",""1"",""1676""
","
","","","","","","3521.0999999996275","images/racket4.png","","","practice","1","definitely_old","","","","","","",""
"html-keyboard-response","20","149476","0.0-9.0-0.2","1636","2","""event"",""trial"",""time""
""fullscreenenter"",""1"",""1676""
","
","
","""event"",""trial"",""time""
""fullscreenenter"",""1"",""1676""
","
","","","","","","null","<div style=""font-size:60px;"">+</div>","null","","fixation","","","","","","","","",""
"memory-trial","21","153003","0.0-9.0-1.2","1636","2","""event"",""trial"",""time""
""fullscreenenter"",""1"",""1676""
","
","
","""event"",""trial"",""time""
""fullscreenenter"",""1"",""1676""
","
","","","","","","2520.699999999255","images/ball2.png","","","practice","4","definitely_new","","","","","","",""
"html-keyboard-response","22","153507","0.0-9.0-0.3","1636","2","""event"",""trial"",""time""
""fullscreenenter"",""1"",""1676""
","
","
","""event"",""trial"",""time""
""fullscreenenter"",""1"",""1676""
","
","","","","","","null","<div style=""font-size:60px;"">+</div>","null","","fixation","","","","","","","","",""
"memory-trial","23","155739","0.0-9.0-1.3","1636","2","""event"",""trial"",""time""
""fullscreenenter"",""1"",""1676""
","
","
","""event"",""trial"",""time""
""fullscreenenter"",""1"",""1676""
","
","","","","","","1227","images/ball3.png","","","practice","4","definitely_new","","","","","","",""
"html-keyboard-response","24","156245","0.0-9.0-0.4","1636","2","""event"",""trial"",""time""
""fullscreenenter"",""1"",""1676""
","
","
","""event"",""trial"",""time""
""fullscreenenter"",""1"",""1676""
","
","","","","","","null","<div style=""font-size:60px;"">+</div>","null","","fixation","","","","","","","","",""
"memory-trial","25","159328","0.0-9.0-1.4","1636","2","""event"",""trial"",""time""
""fullscreenenter"",""1"",""1676""
","
","
","""event"",""trial"",""time""
""fullscreenenter"",""1"",""1676""
","
","","","","","","2081.2000000011176","images/ball4.png","","","practice","1","definitely_old","","","","","","",""
"html-keyboard-response","26","159830","0.0-9.0-0.5","1636","2","""event"",""trial"",""time""
""fullscreenenter"",""1"",""1676""
","
","
","""event"",""trial"",""time""
""fullscreenenter"",""1"",""1676""
","
","","","","","","null","<div style=""font-size:60px;"">+</div>","null","","fixation","","","","","","","","",""
"memory-trial","27","162680","0.0-9.0-1.5","1636","2","""event"",""trial"",""time""
""fullscreenenter"",""1"",""1676""
","
","
","""event"",""trial"",""time""
""fullscreenenter"",""1"",""1676""
","
","","","","","","1845.7000000011176","images/racket1.png","","","practice","4","definitely_new","","","","","","",""
"html-keyboard-response","28","163182","0.0-9.0-0.6","1636","2","""event"",""trial"",""time""
""fullscreenenter"",""1"",""1676""
","
","
","""event"",""trial"",""time""
""fullscreenenter"",""1"",""1676""
","
","","","","","","null","<div style=""font-size:60px;"">+</div>","null","","fixation","","","","","","","","",""
"memory-trial","29","165909","0.0-9.0-1.6","1636","2","""event"",""trial"",""time""
""fullscreenenter"",""1"",""1676""
","
","
","""event"",""trial"",""time""
""fullscreenenter"",""1"",""1676""
","
","","","","","","1721.5999999996275","images/ball1.png","","","practice","1","definitely_old","","","","","","",""
"html-keyboard-response","30","166411","0.0-9.0-0.7","1636","2","""event"",""trial"",""time""
""fullscreenenter"",""1"",""1676""
","
","
","""event"",""trial"",""time""
""fullscreenenter"",""1"",""1676""
","
","","","","","","null","<div style=""font-size:60px;"">+</div>","null","","fixation","","","","","","","","",""
"memory-trial","31","168740","0.0-9.0-1.7","1636","2","""event"",""trial"",""time""
""fullscreenenter"",""1"",""1676""
","
","
","""event"",""trial"",""time""
""fullscreenenter"",""1"",""1676""
","
","","","","","","1324.0999999996275","images/racket2.png","","","practice","4","definitely_new","","","","","","",""
"learning-instructions","32","178032","0.0-10.0-0.0","1636","2","""event"",""trial"",""time""
""fullscreenenter"",""1"",""1676""
","
","
","""event"",""trial"",""time""
""fullscreenenter"",""1"",""1676""
","
","","","","","","1314.5999999996275","<p> Great! You have completed the practice. </p><p> Before you start, we're going to ask you a few questions about how the game works.  </p>","","0","instructions","","","","","","","","",""
"preload","33","179981","0.0-11.0","1636","2","""event"",""trial"",""time""
""fullscreenenter"",""1"",""1676""
","
","
","""event"",""trial"",""time""
""fullscreenenter"",""1"",""1676""
","
","true","false","[]","[]","[]","","","","","","","","","","","","","",""
"comp-q","34","186931","0.0-12.0-0.0","1636","2","""event"",""trial"",""time""
""fullscreenenter"",""1"",""1676""
","
","
","""event"",""trial"",""time""
""fullscreenenter"",""1"",""1676""
","
","","","","","","1120.9000000003725","<p> <b> True or False? </b> </p><p> In this game, you will only see each image once. </p>","","0","comp_question","","","true","","","","","",""
"comp-q","35","194498","0.0-12.0-1.0","1636","2","""event"",""trial"",""time""
""fullscreenenter"",""1"",""1676""
","
","
","""event"",""trial"",""time""
""fullscreenenter"",""1"",""1676""
","
","","","","","","1226.4000000003725","<p> <b> That's right! </b> You will see many different images <i> one time each </i> in this game. </p>","","0","comp_answer","","","","","","","","",""
"comp-q","36","201066","0.0-12.0-0.1","1636","2","""event"",""trial"",""time""
""fullscreenenter"",""1"",""1676""
","
","
","""event"",""trial"",""time""
""fullscreenenter"",""1"",""1676""
","
","","","","","","770.1999999992549","<p> <b> True or False? </b> </p><p> You should use the mouse and click to make your response. </p>","","0","comp_question","","","false","","","","","",""
"comp-q","37","208934","0.0-12.0-1.1","1636","2","""event"",""trial"",""time""
""fullscreenenter"",""1"",""1676""
","
","
","""event"",""trial"",""time""
""fullscreenenter"",""1"",""1676""
","
","","","","","","920.8000000007451","<p><b> Incorrect. </b> You should use the '1', '2', '3', and '4' keys to make your response. </p>","","0","comp_answer","","","","","","","","",""
"comp-q","38","215865","0.0-12.0-0.2","1636","2","""event"",""trial"",""time""
""fullscreenenter"",""1"",""1676""
","
","
","""event"",""trial"",""time""
""fullscreenenter"",""1"",""1676""
","
","","","","","","934.5","<p> <b> True or False? </b> </p><p> You will have as much time as you want to make each choice. </p>","","1","comp_question","","","true","","","","","",""
"comp-q","39","223231","0.0-12.0-1.2","1636","2","""event"",""trial"",""time""
""fullscreenenter"",""1"",""1676""
","
","
","""event"",""trial"",""time""
""fullscreenenter"",""1"",""1676""
","
","","","","","","1981","<p> <b> That's right! </b> You will only have 10 seconds to make each choice. </p>","","0","comp_answer","","","","","","","","",""
"learning-instructions","40","232698","0.0-13.0","1636","2","""event"",""trial"",""time""
""fullscreenenter"",""1"",""1676""
","
","
","""event"",""trial"",""time""
""fullscreenenter"",""1"",""1676""
","
","","","","","","802.5999999996275","<p> Great! You are now ready to begin the game. </p><p> Remember, use the 1, 2, 3, and 4 keys to make your responses. </p>","","0","instructions","","","","","","","","",""
"preload","41","236890","0.0-14.0","1636","2","""event"",""trial"",""time""
""fullscreenenter"",""1"",""1676""
","
","
","""event"",""trial"",""time""
""fullscreenenter"",""1"",""1676""
","
","true","false","[]","[]","[]","","","","","","","","","","","","","",""
"html-keyboard-response","42","237392","0.0-15.0-0.0","1636","2","""event"",""trial"",""time""
""fullscreenenter"",""1"",""1676""
","
","
","""event"",""trial"",""time""
""fullscreenenter"",""1"",""1676""
","
","","","","","","null","<div style=""font-size:60px;"">+</div>","null","","fixation","","","","","","","","",""
"memory-trial","43","247396","0.0-15.0-1.0","1636","2","""event"",""trial"",""time""
""fullscreenenter"",""1"",""1676""
","
","
","""event"",""trial"",""time""
""fullscreenenter"",""1"",""1676""
","
","","","","","","null","images/plane1.png","","","memory_trial","null","null","","","","","","",""
"html-keyboard-response","44","247902","0.0-15.0-0.1","1636","2","""event"",""trial"",""time""
""fullscreenenter"",""1"",""1676""
","
","
","""event"",""trial"",""time""
""fullscreenenter"",""1"",""1676""
","
","","","","","","null","<div style=""font-size:60px;"">+</div>","null","","fixation","","","","","","","","",""
"memory-trial","45","251658","0.0-15.0-1.1","1636","2","""event"",""trial"",""time""
""fullscreenenter"",""1"",""1676""
","
","
","""event"",""trial"",""time""
""fullscreenenter"",""1"",""1676""
","
","","","","","","2749.39999999851","images/apple4.png","","","memory_trial","4","definitely_new","","","","","","",""
"html-keyboard-response","46","252160","0.0-15.0-0.2","1636","2","""event"",""trial"",""time""
""fullscreenenter"",""1"",""1676""
","
","
","""event"",""trial"",""time""
""fullscreenenter"",""1"",""1676""
","
","","","","","","null","<div style=""font-size:60px;"">+</div>","null","","fixation","","","","","","","","",""
"memory-trial","47","255460","0.0-15.0-1.2","1636","2","""event"",""trial"",""time""
""fullscreenenter"",""1"",""1676""
","
","
","""event"",""trial"",""time""
""fullscreenenter"",""1"",""1676""
","
","","","","","","2296.699999999255","images/cactus5.png","","","memory_trial","1","definitely_old","","","","","","",""
"html-keyboard-response","48","255962","0.0-15.0-0.3","1636","2","""event"",""trial"",""time""
""fullscreenenter"",""1"",""1676""
","
","
","""event"",""trial"",""time""
""fullscreenenter"",""1"",""1676""
","
","","","","","","null","<div style=""font-size:60px;"">+</div>","null","","fixation","","","","","","","","",""
"memory-trial","49","258310","0.0-15.0-1.3","1636","2","""event"",""trial"",""time""
""fullscreenenter"",""1"",""1676""
","
","
","""event"",""trial"",""time""
""fullscreenenter"",""1"",""1676""
","
","","","","","","1342.300000000745","images/rodent4.png","","","memory_trial","4","definitely_new","","","","","","",""
"html-keyboard-response","50","258816","0.0-15.0-0.4","1636","2","""event"",""trial"",""time""
""fullscreenenter"",""1"",""1676""
","
","
","""event"",""trial"",""time""
""fullscreenenter"",""1"",""1676""
","
","","","","","","null","<div style=""font-size:60px;"">+</div>","null","","fixation","","","","","","","","",""
"memory-trial","51","260793","0.0-15.0-1.4","1636","2","""event"",""trial"",""time""
""fullscreenenter"",""1"",""1676""
","
","
","""event"",""trial"",""time""
""fullscreenenter"",""1"",""1676""
","
","","","","","","975.1000000014901","images/rodent1.png","","","memory_trial","4","definitely_new","","","","","","",""
"html-keyboard-response","52","261295","0.0-15.0-0.5","1636","2","""event"",""trial"",""time""
""fullscreenenter"",""1"",""1676""
","
","
","""event"",""trial"",""time""
""fullscreenenter"",""1"",""1676""
","
","","","","","","null","<div style=""font-size:60px;"">+</div>","null","","fixation","","","","","","","","",""
"memory-trial","53","262985","0.0-15.0-1.5","1636","2","""event"",""trial"",""time""
""fullscreenenter"",""1"",""1676""
","
","
","""event"",""trial"",""time""
""fullscreenenter"",""1"",""1676""
","
","","","","","","687.6999999992549","images/banana4.png","","","memory_trial","4","definitely_new","","","","","","",""
"html-keyboard-response","54","263486","0.0-15.0-0.6","1636","2","""event"",""trial"",""time""
""fullscreenenter"",""1"",""1676""
","
","
","""event"",""trial"",""time""
""fullscreenenter"",""1"",""1676""
","
","","","","","","null","<div style=""font-size:60px;"">+</div>","null","","fixation","","","","","","","","",""
"memory-trial","55","265347","0.0-15.0-1.6","1636","2","""event"",""trial"",""time""
""fullscreenenter"",""1"",""1676""
","
","
","""event"",""trial"",""time""
""fullscreenenter"",""1"",""1676""
","
","","","","","","856.6999999992549","images/straw2.png","","","memory_trial","4","definitely_new","","","","","","",""
"html-keyboard-response","56","265854","0.0-15.0-0.7","1636","2","""event"",""trial"",""time""
""fullscreenenter"",""1"",""1676""
","
","
","""event"",""trial"",""time""
""fullscreenenter"",""1"",""1676""
","
","","","","","","null","<div style=""font-size:60px;"">+</div>","null","","fixation","","","","","","","","",""
"memory-trial","57","267828","0.0-15.0-1.7","1636","2","""event"",""trial"",""time""
""fullscreenenter"",""1"",""1676""
","
","
","""event"",""trial"",""time""
""fullscreenenter"",""1"",""1676""
","
","","","","","","970","images/chair1.png","","","memory_trial","4","definitely_new","","","","","","",""
"html-keyboard-response","58","268334","0.0-15.0-0.8","1636","2","""event"",""trial"",""time""
""fullscreenenter"",""1"",""1676""
","
","
","""event"",""trial"",""time""
""fullscreenenter"",""1"",""1676""
","
","","","","","","null","<div style=""font-size:60px;"">+</div>","null","","fixation","","","","","","","","",""
"memory-trial","59","270131","0.0-15.0-1.8","1636","2","""event"",""trial"",""time""
""fullscreenenter"",""1"",""1676""
","
","
","""event"",""trial"",""time""
""fullscreenenter"",""1"",""1676""
","
","","","","","","791.8000000007451","images/bed3.png","","","memory_trial","4","definitely_new","","","","","","",""
"html-keyboard-response","60","270638","0.0-15.0-0.9","1636","2","""event"",""trial"",""time""
""fullscreenenter"",""1"",""1676""
","
","
","""event"",""trial"",""time""
""fullscreenenter"",""1"",""1676""
","
","","","","","","null","<div style=""font-size:60px;"">+</div>","null","","fixation","","","","","","","","",""
"memory-trial","61","272398","0.0-15.0-1.9","1636","2","""event"",""trial"",""time""
""fullscreenenter"",""1"",""1676""
","
","
","""event"",""trial"",""time""
""fullscreenenter"",""1"",""1676""
","
","","","","","","755.6999999992549","images/horse4.png","","","memory_trial","4","definitely_new","","","","","","",""
"html-keyboard-response","62","272905","0.0-15.0-0.10","1636","2","""event"",""trial"",""time""
""fullscreenenter"",""1"",""1676""
","
","
","""event"",""trial"",""time""
""fullscreenenter"",""1"",""1676""
","
","","","","","","null","<div style=""font-size:60px;"">+</div>","null","","fixation","","","","","","","","",""
"memory-trial","63","274793","0.0-15.0-1.10","1636","2","""event"",""trial"",""time""
""fullscreenenter"",""1"",""1676""
","
","
","""event"",""trial"",""time""
""fullscreenenter"",""1"",""1676""
","
","","","","","","881","images/rabbit2.png","","","memory_trial","1","definitely_old","","","","","","",""
"html-keyboard-response","64","275299","0.0-15.0-0.11","1636","2","""event"",""trial"",""time""
""fullscreenenter"",""1"",""1676""
","
","
","""event"",""trial"",""time""
""fullscreenenter"",""1"",""1676""
","
","","","","","","null","<div style=""font-size:60px;"">+</div>","null","","fixation","","","","","","","","",""
"memory-trial","65","277212","0.0-15.0-1.11","1636","2","""event"",""trial"",""time""
""fullscreenenter"",""1"",""1676""
","
","
","""event"",""trial"",""time""
""fullscreenenter"",""1"",""1676""
","
","","","","","","907.5999999996275","images/chair5.png","","","memory_trial","4","definitely_new","","","","","","",""
"html-keyboard-response","66","277715","0.0-15.0-0.12","1636","2","""event"",""trial"",""time""
""fullscreenenter"",""1"",""1676""
","
","
","""event"",""trial"",""time""
""fullscreenenter"",""1"",""1676""
","
","","","","","","null","<div style=""font-size:60px;"">+</div>","null","","fixation","","","","","","","","",""
"memory-trial","67","279854","0.0-15.0-1.12","1636","2","""event"",""trial"",""time""
""fullscreenenter"",""1"",""1676""
","
","
","""event"",""trial"",""time""
""fullscreenenter"",""1"",""1676""
","
","","","","","","1133.7999999988824","images/bed5.png","","","memory_trial","4","definitely_new","","","","","","",""
"html-keyboard-response","68","280357","0.0-15.0-0.13","1636","2","""event"",""trial"",""time""
""fullscreenenter"",""1"",""1676""
","
","
","""event"",""trial"",""time""
""fullscreenenter"",""1"",""1676""
","
","","","","","","null","<div style=""font-size:60px;"">+</div>","null","","fixation","","","","","","","","",""
"memory-trial","69","282073","0.0-15.0-1.13","1636","2","""event"",""trial"",""time""
""fullscreenenter"",""1"",""1676""
","
","
","""event"",""trial"",""time""
""fullscreenenter"",""1"",""1676""
","
","","","","","","710.7000000011176","images/cow5.png","","","memory_trial","4","definitely_new","","","","","","",""
"html-keyboard-response","70","282577","0.0-15.0-0.14","1636","2","""event"",""trial"",""time""
""fullscreenenter"",""1"",""1676""
","
","
","""event"",""trial"",""time""
""fullscreenenter"",""1"",""1676""
","
","","","","","","null","<div style=""font-size:60px;"">+</div>","null","","fixation","","","","","","","","",""
"memory-trial","71","284863","0.0-15.0-1.14","1636","2","""event"",""trial"",""time""
""fullscreenenter"",""1"",""1676""
","
","
","""event"",""trial"",""time""
""fullscreenenter"",""1"",""1676""
","
","","","","","","1279.199999999255","images/bush4.png","","","memory_trial","1","definitely_old","","","","","","",""
"html-keyboard-response","72","285368","0.0-15.0-0.15","1636","2","""event"",""trial"",""time""
""fullscreenenter"",""1"",""1676""
","
","
","""event"",""trial"",""time""
""fullscreenenter"",""1"",""1676""
","
","","","","","","null","<div style=""font-size:60px;"">+</div>","null","","fixation","","","","","","","","",""
"memory-trial","73","287038","0.0-15.0-1.15","1636","2","""event"",""trial"",""time""
""fullscreenenter"",""1"",""1676""
","
","
","""event"",""trial"",""time""
""fullscreenenter"",""1"",""1676""
","
","","","","","","663.7999999988824","images/sheep2.png","","","memory_trial","4","definitely_new","","","","","","",""
"html-keyboard-response","74","287544","0.0-15.0-0.16","1636","2","""event"",""trial"",""time""
""fullscreenenter"",""1"",""1676""
","
","
","""event"",""trial"",""time""
""fullscreenenter"",""1"",""1676""
","
","","","","","","null","<div style=""font-size:60px;"">+</div>","null","","fixation","","","","","","","","",""
"memory-trial","75","289546","0.0-15.0-1.16","1636","2","""event"",""trial"",""time""
""fullscreenenter"",""1"",""1676""
","
","
","""event"",""trial"",""time""
""fullscreenenter"",""1"",""1676""
","
","","","","","","995.8000000007451","images/dog3.png","","","memory_trial","4","definitely_new","","","","","","",""
"html-keyboard-response","76","290051","0.0-15.0-0.17","1636","2","""event"",""trial"",""time""
""fullscreenenter"",""1"",""1676""
","
","
","""event"",""trial"",""time""
""fullscreenenter"",""1"",""1676""
","
","","","","","","null","<div style=""font-size:60px;"">+</div>","null","","fixation","","","","","","","","",""
"memory-trial","77","291846","0.0-15.0-1.17","1636","2","""event"",""trial"",""time""
""fullscreenenter"",""1"",""1676""
","
","
","""event"",""trial"",""time""
""fullscreenenter"",""1"",""1676""
","
","","","","","","789.7000000011176","images/feline4.png","","","memory_trial","4","definitely_new","","","","","","",""
"html-keyboard-response","78","292352","0.0-15.0-0.18","1636","2","""event"",""trial"",""time""
""fullscreenenter"",""1"",""1676""
","
","
","""event"",""trial"",""time""
""fullscreenenter"",""1"",""1676""
","
","","","","","","null","<div style=""font-size:60px;"">+</div>","null","","fixation","","","","","","","","",""
"memory-trial","79","294994","0.0-15.0-1.18","1636","2","""event"",""trial"",""time""
""fullscreenenter"",""1"",""1676""
","
","
","""event"",""trial"",""time""
""fullscreenenter"",""1"",""1676""
","
","","","","","","1635","images/orange1.png","","","memory_trial","4","definitely_new","","","","","","",""
"html-keyboard-response","80","295496","0.0-15.0-0.19","1636","2","""event"",""trial"",""time""
""fullscreenenter"",""1"",""1676""
","
","
","""event"",""trial"",""time""
""fullscreenenter"",""1"",""1676""
","
","","","","","","null","<div style=""font-size:60px;"">+</div>","null","","fixation","","","","","","","","",""
"memory-trial","81","297449","0.0-15.0-1.19","1636","2","""event"",""trial"",""time""
""fullscreenenter"",""1"",""1676""
","
","
","""event"",""trial"",""time""
""fullscreenenter"",""1"",""1676""
","
","","","","","","950.3000000007451","images/table5.png","","","memory_trial","4","definitely_new","","","","","","",""
"html-keyboard-response","82","297955","0.0-15.0-0.20","1636","2","""event"",""trial"",""time""
""fullscreenenter"",""1"",""1676""
","
","
","""event"",""trial"",""time""
""fullscreenenter"",""1"",""1676""
","
","","","","","","null","<div style=""font-size:60px;"">+</div>","null","","fixation","","","","","","","","",""
"memory-trial","83","301016","0.0-15.0-1.20","1636","2","""event"",""trial"",""time""
""fullscreenenter"",""1"",""1676""
","
","
","""event"",""trial"",""time""
""fullscreenenter"",""1"",""1676""
","
","","","","","","2058.5","images/train1.png","","","memory_trial","1","definitely_old","","","","","","",""
"html-keyboard-response","84","301518","0.0-15.0-0.21","1636","2","""event"",""trial"",""time""
""fullscreenenter"",""1"",""1676""
","
","
","""event"",""trial"",""time""
""fullscreenenter"",""1"",""1676""
","
","","","","","","null","<div style=""font-size:60px;"">+</div>","null","","fixation","","","","","","","","",""
"memory-trial","85","303530","0.0-15.0-1.21","1636","2","""event"",""trial"",""time""
""fullscreenenter"",""1"",""1676""
","
","
","""event"",""trial"",""time""
""fullscreenenter"",""1"",""1676""
","
","","","","","","1008.9000000003725","images/chair3.png","","","memory_trial","4","definitely_new","","","","","","",""
"html-keyboard-response","86","304032","0.0-15.0-0.22","1636","2","""event"",""trial"",""time""
""fullscreenenter"",""1"",""1676""
","
","
","""event"",""trial"",""time""
""fullscreenenter"",""1"",""1676""
","
","","","","","","null","<div style=""font-size:60px;"">+</div>","null","","fixation","","","","","","","","",""
"memory-trial","87","305810","0.0-15.0-1.22","1636","2","""event"",""trial"",""time""
""fullscreenenter"",""1"",""1676""
","
","
","""event"",""trial"",""time""
""fullscreenenter"",""1"",""1676""
","
","","","","","","771.2999999988824","images/dog4.png","","","memory_trial","4","definitely_new","","","","","","",""
"html-keyboard-response","88","306313","0.0-15.0-0.23","1636","2","""event"",""trial"",""time""
""fullscreenenter"",""1"",""1676""
","
","
","""event"",""trial"",""time""
""fullscreenenter"",""1"",""1676""
","
","","","","","","null","<div style=""font-size:60px;"">+</div>","null","","fixation","","","","","","","","",""
"memory-trial","89","310270","0.0-15.0-1.23","1636","2","""event"",""trial"",""time""
""fullscreenenter"",""1"",""1676""
","
","
","""event"",""trial"",""time""
""fullscreenenter"",""1"",""1676""
","
","","","","","","2950.4000000003725","images/sheep5.png","","","memory_trial","2","maybe_old","","","","","","",""
"html-keyboard-response","90","310774","0.0-15.0-0.24","1636","2","""event"",""trial"",""time""
""fullscreenenter"",""1"",""1676""
","
","
","""event"",""trial"",""time""
""fullscreenenter"",""1"",""1676""
","
","","","","","","null","<div style=""font-size:60px;"">+</div>","null","","fixation","","","","","","","","",""
"memory-trial","91","312862","0.0-15.0-1.24","1636","2","""event"",""trial"",""time""
""fullscreenenter"",""1"",""1676""
","
","
","""event"",""trial"",""time""
""fullscreenenter"",""1"",""1676""
","
","","","","","","1082.300000000745","images/boat2.png","","","memory_trial","1","definitely_old","","","","","","",""
"html-keyboard-response","92","313367","0.0-15.0-0.25","1636","2","""event"",""trial"",""time""
""fullscreenenter"",""1"",""1676""
","
","
","""event"",""trial"",""time""
""fullscreenenter"",""1"",""1676""
","
","","","","","","null","<div style=""font-size:60px;"">+</div>","null","","fixation","","","","","","","","",""
"memory-trial","93","315219","0.0-15.0-1.25","1636","2","""event"",""trial"",""time""
""fullscreenenter"",""1"",""1676""
","
","
","""event"",""trial"",""time""
""fullscreenenter"",""1"",""1676""
","
","","","","","","849.0999999996275","images/chair4.png","","","memory_trial","4","definitely_new","","","","","","",""
"html-keyboard-response","94","315724","0.0-15.0-0.26","1636","2","""event"",""trial"",""time""
""fullscreenenter"",""1"",""1676""
","
","
","""event"",""trial"",""time""
""fullscreenenter"",""1"",""1676""
","
","","","","","","null","<div style=""font-size:60px;"">+</div>","null","","fixation","","","","","","","","",""
"memory-trial","95","317721","0.0-15.0-1.26","1636","2","""event"",""trial"",""time""
""fullscreenenter"",""1"",""1676""
","
","
","""event"",""trial"",""time""
""fullscreenenter"",""1"",""1676""
","
","","","","","","990.5","images/rabbit1.png","","","memory_trial","1","definitely_old","","","","","","",""
"html-keyboard-response","96","318224","0.0-15.0-0.27","1636","2","""event"",""trial"",""time""
""fullscreenenter"",""1"",""1676""
","
","
","""event"",""trial"",""time""
""fullscreenenter"",""1"",""1676""
","
","","","","","","null","<div style=""font-size:60px;"">+</div>","null","","fixation","","","","","","","","",""
"memory-trial","97","319896","0.0-15.0-1.27","1636","2","""event"",""trial"",""time""
""fullscreenenter"",""1"",""1676""
","
","
","""event"",""trial"",""time""
""fullscreenenter"",""1"",""1676""
","
","","","","","","665.4000000003725","images/bush5.png","","","memory_trial","1","definitely_old","","","","","","",""
"html-keyboard-response","98","320398","0.0-15.0-0.28","1636","2","""event"",""trial"",""time""
""fullscreenenter"",""1"",""1676""
","
","
","""event"",""trial"",""time""
""fullscreenenter"",""1"",""1676""
","
","","","","","","null","<div style=""font-size:60px;"">+</div>","null","","fixation","","","","","","","","",""
"memory-trial","99","322211","0.0-15.0-1.28","1636","2","""event"",""trial"",""time""
""fullscreenenter"",""1"",""1676""
","
","
","""event"",""trial"",""time""
""fullscreenenter"",""1"",""1676""
","
","","","","","","806.5","images/cow3.png","","","memory_trial","4","definitely_new","","","","","","",""
"html-keyboard-response","100","322717","0.0-15.0-0.29","1636","2","""event"",""trial"",""time""
""fullscreenenter"",""1"",""1676""
","
","
","""event"",""trial"",""time""
""fullscreenenter"",""1"",""1676""
","
","","","","","","null","<div style=""font-size:60px;"">+</div>","null","","fixation","","","","","","","","",""
"memory-trial","101","324552","0.0-15.0-1.29","1636","2","""event"",""trial"",""time""
""fullscreenenter"",""1"",""1676""
","
","
","""event"",""trial"",""time""
""fullscreenenter"",""1"",""1676""
","
","","","","","","829.1999999992549","images/table3.png","","","memory_trial","4","definitely_new","","","","","","",""
"html-keyboard-response","102","325057","0.0-15.0-0.30","1636","2","""event"",""trial"",""time""
""fullscreenenter"",""1"",""1676""
","
","
","""event"",""trial"",""time""
""fullscreenenter"",""1"",""1676""
","
","","","","","","null","<div style=""font-size:60px;"">+</div>","null","","fixation","","","","","","","","",""
"memory-trial","103","326814","0.0-15.0-1.30","1636","2","""event"",""trial"",""time""
""fullscreenenter"",""1"",""1676""
","
","
","""event"",""trial"",""time""
""fullscreenenter"",""1"",""1676""
","
","","","","","","755.9000000003725","images/plane5.png","","","memory_trial","1","definitely_old","","","","","","",""
"html-keyboard-response","104","327315","0.0-15.0-0.31","1636","2","""event"",""trial"",""time""
""fullscreenenter"",""1"",""1676""
","
","
","""event"",""trial"",""time""
""fullscreenenter"",""1"",""1676""
","
","","","","","","null","<div style=""font-size:60px;"">+</div>","null","","fixation","","","","","","","","",""
"memory-trial","105","329094","0.0-15.0-1.31","1636","2","""event"",""trial"",""time""
""fullscreenenter"",""1"",""1676""
","
","
","""event"",""trial"",""time""
""fullscreenenter"",""1"",""1676""
","
","","","","","","772.5999999996275","images/feline2.png","","","memory_trial","1","definitely_old","","","","","","",""
"html-keyboard-response","106","329598","0.0-15.0-0.32","1636","2","""event"",""trial"",""time""
""fullscreenenter"",""1"",""1676""
","
","
","""event"",""trial"",""time""
""fullscreenenter"",""1"",""1676""
","
","","","","","","null","<div style=""font-size:60px;"">+</div>","null","","fixation","","","","","","","","",""
"memory-trial","107","331246","0.0-15.0-1.32","1636","2","""event"",""trial"",""time""
""fullscreenenter"",""1"",""1676""
","
","
","""event"",""trial"",""time""
""fullscreenenter"",""1"",""1676""
","
","","","","","","644","images/cactus1.png","","","memory_trial","1","definitely_old","","","","","","",""
"html-keyboard-response","108","331748","0.0-15.0-0.33","1636","2","""event"",""trial"",""time""
""fullscreenenter"",""1"",""1676""
","
","
","""event"",""trial"",""time""
""fullscreenenter"",""1"",""1676""
","
","","","","","","null","<div style=""font-size:60px;"">+</div>","null","","fixation","","","","","","","","",""
"memory-trial","109","333630","0.0-15.0-1.33","1636","2","""event"",""trial"",""time""
""fullscreenenter"",""1"",""1676""
","
","
","""event"",""trial"",""time""
""fullscreenenter"",""1"",""1676""
","
","","","","","","877.5999999996275","images/rodent5.png","","","memory_trial","1","definitely_old","","","","","","",""
"html-keyboard-response","110","334136","0.0-15.0-0.34","1636","2","""event"",""trial"",""time""
""fullscreenenter"",""1"",""1676""
","
","
","""event"",""trial"",""time""
""fullscreenenter"",""1"",""1676""
","
","","","","","","null","<div style=""font-size:60px;"">+</div>","null","","fixation","","","","","","","","",""
"memory-trial","111","336297","0.0-15.0-1.34","1636","2","""event"",""trial"",""time""
""fullscreenenter"",""1"",""1676""
","
","
","""event"",""trial"",""time""
""fullscreenenter"",""1"",""1676""
","
","","","","","","1155.699999999255","images/feline5.png","","","memory_trial","4","definitely_new","","","","","","",""
"html-keyboard-response","112","336798","0.0-15.0-0.35","1636","2","""event"",""trial"",""time""
""fullscreenenter"",""1"",""1676""
","
","
","""event"",""trial"",""time""
""fullscreenenter"",""1"",""1676""
","
","","","","","","null","<div style=""font-size:60px;"">+</div>","null","","fixation","","","","","","","","",""
"memory-trial","113","338579","0.0-15.0-1.35","1636","2","""event"",""trial"",""time""
""fullscreenenter"",""1"",""1676""
","
","
","""event"",""trial"",""time""
""fullscreenenter"",""1"",""1676""
","
","","","","","","778.4000000003725","images/horse5.png","","","memory_trial","4","definitely_new","","","","","","",""
"html-keyboard-response","114","339081","0.0-15.0-0.36","1636","2","""event"",""trial"",""time""
""fullscreenenter"",""1"",""1676""
","
","
","""event"",""trial"",""time""
""fullscreenenter"",""1"",""1676""
","
","","","","","","null","<div style=""font-size:60px;"">+</div>","null","","fixation","","","","","","","","",""
"memory-trial","115","340947","0.0-15.0-1.36","1636","2","""event"",""trial"",""time""
""fullscreenenter"",""1"",""1676""
","
","
","""event"",""trial"",""time""
""fullscreenenter"",""1"",""1676""
","
","","","","","","859.5999999996275","images/dog2.png","","","memory_trial","1","definitely_old","","","","","","",""
"html-keyboard-response","116","341449","0.0-15.0-0.37","1636","2","""event"",""trial"",""time""
""fullscreenenter"",""1"",""1676""
","
","
","""event"",""trial"",""time""
""fullscreenenter"",""1"",""1676""
","
","","","","","","null","<div style=""font-size:60px;"">+</div>","null","","fixation","","","","","","","","",""
"memory-trial","117","343141","0.0-15.0-1.37","1636","2","""event"",""trial"",""time""
""fullscreenenter"",""1"",""1676""
","
","
","""event"",""trial"",""time""
""fullscreenenter"",""1"",""1676""
","
","","","","","","684.5","images/horse1.png","","","memory_trial","4","definitely_new","","","","","","",""
"html-keyboard-response","118","343646","0.0-15.0-0.38","1636","2","""event"",""trial"",""time""
""fullscreenenter"",""1"",""1676""
","
","
","""event"",""trial"",""time""
""fullscreenenter"",""1"",""1676""
","
","","","","","","null","<div style=""font-size:60px;"">+</div>","null","","fixation","","","","","","","","",""
"memory-trial","119","345502","0.0-15.0-1.38","1636","2","""event"",""trial"",""time""
""fullscreenenter"",""1"",""1676""
","
","
","""event"",""trial"",""time""
""fullscreenenter"",""1"",""1676""
","
","","","","","","853.4000000003725","images/sofa3.png","","","memory_trial","4","definitely_new","","","","","","",""
"html-keyboard-response","120","346010","0.0-15.0-0.39","1636","2","""event"",""trial"",""time""
""fullscreenenter"",""1"",""1676""
","
","
","""event"",""trial"",""time""
""fullscreenenter"",""1"",""1676""
","
","","","","","","null","<div style=""font-size:60px;"">+</div>","null","","fixation","","","","","","","","",""
"memory-trial","121","348270","0.0-15.0-1.39","1636","2","""event"",""trial"",""time""
""fullscreenenter"",""1"",""1676""
","
","
","""event"",""trial"",""time""
""fullscreenenter"",""1"",""1676""
","
","","","","","","1254.5","images/orange3.png","","","memory_trial","1","definitely_old","","","","","","",""
"html-keyboard-response","122","348774","0.0-15.0-0.40","1636","2","""event"",""trial"",""time""
""fullscreenenter"",""1"",""1676""
","
","
","""event"",""trial"",""time""
""fullscreenenter"",""1"",""1676""
","
","","","","","","null","<div style=""font-size:60px;"">+</div>","null","","fixation","","","","","","","","",""
"memory-trial","123","350590","0.0-15.0-1.40","1636","2","""event"",""trial"",""time""
""fullscreenenter"",""1"",""1676""
","
","
","""event"",""trial"",""time""
""fullscreenenter"",""1"",""1676""
","
","","","","","","811.3000000007451","images/orange4.png","","","memory_trial","1","definitely_old","","","","","","",""
"html-keyboard-response","124","351094","0.0-15.0-0.41","1636","2","""event"",""trial"",""time""
""fullscreenenter"",""1"",""1676""
","
","
","""event"",""trial"",""time""
""fullscreenenter"",""1"",""1676""
","
","","","","","","null","<div style=""font-size:60px;"">+</div>","null","","fixation","","","","","","","","",""
"memory-trial","125","353009","0.0-15.0-1.41","1636","2","""event"",""trial"",""time""
""fullscreenenter"",""1"",""1676""
","
","
","""event"",""trial"",""time""
""fullscreenenter"",""1"",""1676""
","
","","","","","","908.0999999996275","images/straw3.png","","","memory_trial","4","definitely_new","","","","","","",""
"html-keyboard-response","126","353513","0.0-15.0-0.42","1636","2","""event"",""trial"",""time""
""fullscreenenter"",""1"",""1676""
","
","
","""event"",""trial"",""time""
""fullscreenenter"",""1"",""1676""
","
","","","","","","null","<div style=""font-size:60px;"">+</div>","null","","fixation","","","","","","","","",""
"memory-trial","127","355491","0.0-15.0-1.42","1636","2","""event"",""trial"",""time""
""fullscreenenter"",""1"",""1676""
","
","
","""event"",""trial"",""time""
""fullscreenenter"",""1"",""1676""
","
","","","","","","972.5999999996275","images/apple3.png","","","memory_trial","4","definitely_new","","","","","","",""
"html-keyboard-response","128","355994","0.0-15.0-0.43","1636","2","""event"",""trial"",""time""
""fullscreenenter"",""1"",""1676""
","
","
","""event"",""trial"",""time""
""fullscreenenter"",""1"",""1676""
","
","","","","","","null","<div style=""font-size:60px;"">+</div>","null","","fixation","","","","","","","","",""
"memory-trial","129","357710","0.0-15.0-1.43","1636","2","""event"",""trial"",""time""
""fullscreenenter"",""1"",""1676""
","
","
","""event"",""trial"",""time""
""fullscreenenter"",""1"",""1676""
","
","","","","","","712","images/tree1.png","","","memory_trial","1","definitely_old","","","","","","",""
"html-keyboard-response","130","358211","0.0-15.0-0.44","1636","2","""event"",""trial"",""time""
""fullscreenenter"",""1"",""1676""
","
","
","""event"",""trial"",""time""
""fullscreenenter"",""1"",""1676""
","
","","","","","","null","<div style=""font-size:60px;"">+</div>","null","","fixation","","","","","","","","",""
"memory-trial","131","360067","0.0-15.0-1.44","1636","2","""event"",""trial"",""time""
""fullscreenenter"",""1"",""1676""
","
","
","""event"",""trial"",""time""
""fullscreenenter"",""1"",""1676""
","
","","","","","","850.7000000011176","images/bed2.png","","","memory_trial","4","definitely_new","","","","","","",""
"html-keyboard-response","132","360569","0.0-15.0-0.45","1636","2","""event"",""trial"",""time""
""fullscreenenter"",""1"",""1676""
","
","
","""event"",""trial"",""time""
""fullscreenenter"",""1"",""1676""
","
","","","","","","null","<div style=""font-size:60px;"">+</div>","null","","fixation","","","","","","","","",""
"memory-trial","133","362350","0.0-15.0-1.45","1636","2","""event"",""trial"",""time""
""fullscreenenter"",""1"",""1676""
","
","
","""event"",""trial"",""time""
""fullscreenenter"",""1"",""1676""
","
","","","","","","780.5999999996275","images/plane4.png","","","memory_trial","1","definitely_old","","","","","","",""
"html-keyboard-response","134","362852","0.0-15.0-0.46","1636","2","""event"",""trial"",""time""
""fullscreenenter"",""1"",""1676""
","
","
","""event"",""trial"",""time""
""fullscreenenter"",""1"",""1676""
","
","","","","","","null","<div style=""font-size:60px;"">+</div>","null","","fixation","","","","","","","","",""
"memory-trial","135","364414","0.0-15.0-1.46","1636","2","""event"",""trial"",""time""
""fullscreenenter"",""1"",""1676""
","
","
","""event"",""trial"",""time""
""fullscreenenter"",""1"",""1676""
","
","","","","","","558.2000000011176","images/cactus2.png","","","memory_trial","1","definitely_old","","","","","","",""
"html-button-response","136","367683","0.0-15.0-2.46-0.46","1636","2","""event"",""trial"",""time""
""fullscreenenter"",""1"",""1676""
","
","
","""event"",""trial"",""time""
""fullscreenenter"",""1"",""1676""
","
","","","","","","3267.89999999851","<p> Take a break! </p><p> Click the button to continue. </p>","0","","break","","","","","","","","",""
"html-keyboard-response","137","368185","0.0-15.0-0.47","1636","2","""event"",""trial"",""time""
""fullscreenenter"",""1"",""1676""
","
","
","""event"",""trial"",""time""
""fullscreenenter"",""1"",""1676""
","
","","","","","","null","<div style=""font-size:60px;"">+</div>","null","","fixation","","","","","","","","",""
"memory-trial","138","373251","0.0-15.0-1.47","1636","2","""event"",""trial"",""time""
""fullscreenenter"",""1"",""1676""
","
","
","""event"",""trial"",""time""
""fullscreenenter"",""1"",""1676""
","
","","","","","","4064.5","images/sofa2.png","","","memory_trial","3","maybe_new","","","","","","",""
"html-keyboard-response","139","373753","0.0-15.0-0.48","1636","2","""event"",""trial"",""time""
""fullscreenenter"",""1"",""1676""
","
","
","""event"",""trial"",""time""
""fullscreenenter"",""1"",""1676""
","
","","","","","","null","<div style=""font-size:60px;"">+</div>","null","","fixation","","","","","","","","",""
"memory-trial","140","375877","0.0-15.0-1.48","1636","2","""event"",""trial"",""time""
""fullscreenenter"",""1"",""1676""
","
","
","""event"",""trial"",""time""
""fullscreenenter"",""1"",""1676""
","
","","","","","","1118.300000000745","images/goat3.png","","","memory_trial","4","definitely_new","","","","","","",""
"html-keyboard-response","141","376382","0.0-15.0-0.49","1636","2","""event"",""trial"",""time""
""fullscreenenter"",""1"",""1676""
","
","
","""event"",""trial"",""time""
""fullscreenenter"",""1"",""1676""
","
","","","","","","null","<div style=""font-size:60px;"">+</div>","null","","fixation","","","","","","","","",""
"memory-trial","142","379391","0.0-15.0-1.49","1636","2","""event"",""trial"",""time""
""fullscreenenter"",""1"",""1676""
","
","
","""event"",""trial"",""time""
""fullscreenenter"",""1"",""1676""
","
","","","","","","2002.4000000003725","images/dog1.png","","","memory_trial","4","definitely_new","","","","","","",""
"html-keyboard-response","143","379894","0.0-15.0-0.50","1636","2","""event"",""trial"",""time""
""fullscreenenter"",""1"",""1676""
","
","
","""event"",""trial"",""time""
""fullscreenenter"",""1"",""1676""
","
","","","","","","null","<div style=""font-size:60px;"">+</div>","null","","fixation","","","","","","","","",""
"memory-trial","144","381518","0.0-15.0-1.50","1636","2","""event"",""trial"",""time""
""fullscreenenter"",""1"",""1676""
","
","
","""event"",""trial"",""time""
""fullscreenenter"",""1"",""1676""
","
","","","","","","622.5","images/truck2.png","","","memory_trial","1","definitely_old","","","","","","",""
"html-keyboard-response","145","382020","0.0-15.0-0.51","1636","2","""event"",""trial"",""time""
""fullscreenenter"",""1"",""1676""
","
","
","""event"",""trial"",""time""
""fullscreenenter"",""1"",""1676""
","
","","","","","","null","<div style=""font-size:60px;"">+</div>","null","","fixation","","","","","","","","",""
"memory-trial","146","383603","0.0-15.0-1.51","1636","2","""event"",""trial"",""time""
""fullscreenenter"",""1"",""1676""
","
","
","""event"",""trial"",""time""
""fullscreenenter"",""1"",""1676""
","
","","","","","","577.7000000011176","images/tree4.png","","","memory_trial","1","definitely_old","","","","","","",""
"html-keyboard-response","147","384108","0.0-15.0-0.52","1636","2","""event"",""trial"",""time""
""fullscreenenter"",""1"",""1676""
","
","
","""event"",""trial"",""time""
""fullscreenenter"",""1"",""1676""
","
","","","","","","null","<div style=""font-size:60px;"">+</div>","null","","fixation","","","","","","","","",""
"memory-trial","148","385936","0.0-15.0-1.52","1636","2","""event"",""trial"",""time""
""fullscreenenter"",""1"",""1676""
","
","
","""event"",""trial"",""time""
""fullscreenenter"",""1"",""1676""
","
","","","","","","822","images/sheep1.png","","","memory_trial","1","definitely_old","","","","","","",""
"html-keyboard-response","149","386441","0.0-15.0-0.53","1636","2","""event"",""trial"",""time""
""fullscreenenter"",""1"",""1676""
","
","
","""event"",""trial"",""time""
""fullscreenenter"",""1"",""1676""
","
","","","","","","null","<div style=""font-size:60px;"">+</div>","null","","fixation","","","","","","","","",""
"memory-trial","150","388097","0.0-15.0-1.53","1636","2","""event"",""trial"",""time""
""fullscreenenter"",""1"",""1676""
","
","
","""event"",""trial"",""time""
""fullscreenenter"",""1"",""1676""
","
","","","","","","651.0999999996275","images/train2.png","","","memory_trial","1","definitely_old","","","","","","",""
"html-keyboard-response","151","388601","0.0-15.0-0.54","1636","2","""event"",""trial"",""time""
""fullscreenenter"",""1"",""1676""
","
","
","""event"",""trial"",""time""
""fullscreenenter"",""1"",""1676""
","
","","","","","","null","<div style=""font-size:60px;"">+</div>","null","","fixation","","","","","","","","",""
"memory-trial","152","390361","0.0-15.0-1.54","1636","2","""event"",""trial"",""time""
""fullscreenenter"",""1"",""1676""
","
","
","""event"",""trial"",""time""
""fullscreenenter"",""1"",""1676""
","
","","","","","","755.9000000003725","images/tree5.png","","","memory_trial","1","definitely_old","","","","","","",""
"html-keyboard-response","153","390863","0.0-15.0-0.55","1636","2","""event"",""trial"",""time""
""fullscreenenter"",""1"",""1676""
","
","
","""event"",""trial"",""time""
""fullscreenenter"",""1"",""1676""
","
","","","","","","null","<div style=""font-size:60px;"">+</div>","null","","fixation","","","","","","","","",""
"memory-trial","154","392425","0.0-15.0-1.55","1636","2","""event"",""trial"",""time""
""fullscreenenter"",""1"",""1676""
","
","
","""event"",""trial"",""time""
""fullscreenenter"",""1"",""1676""
","
","","","","","","556.5999999996275","images/cactus4.png","","","memory_trial","1","definitely_old","","","","","","",""
"html-keyboard-response","155","392930","0.0-15.0-0.56","1636","2","""event"",""trial"",""time""
""fullscreenenter"",""1"",""1676""
","
","
","""event"",""trial"",""time""
""fullscreenenter"",""1"",""1676""
","
","","","","","","null","<div style=""font-size:60px;"">+</div>","null","","fixation","","","","","","","","",""
"memory-trial","156","394569","0.0-15.0-1.56","1636","2","""event"",""trial"",""time""
""fullscreenenter"",""1"",""1676""
","
","
","""event"",""trial"",""time""
""fullscreenenter"",""1"",""1676""
","
","","","","","","634.6000000014901","images/rodent2.png","","","memory_trial","1","definitely_old","","","","","","",""
"html-keyboard-response","157","395074","0.0-15.0-0.57","1636","2","""event"",""trial"",""time""
""fullscreenenter"",""1"",""1676""
","
","
","""event"",""trial"",""time""
""fullscreenenter"",""1"",""1676""
","
","","","","","","null","<div style=""font-size:60px;"">+</div>","null","","fixation","","","","","","","","",""
"memory-trial","158","396828","0.0-15.0-1.57","1636","2","""event"",""trial"",""time""
""fullscreenenter"",""1"",""1676""
","
","
","""event"",""trial"",""time""
""fullscreenenter"",""1"",""1676""
","
","","","","","","748.4000000003725","images/goat5.png","","","memory_trial","1","definitely_old","","","","","","",""
"html-keyboard-response","159","397332","0.0-15.0-0.58","1636","2","""event"",""trial"",""time""
""fullscreenenter"",""1"",""1676""
","
","
","""event"",""trial"",""time""
""fullscreenenter"",""1"",""1676""
","
","","","","","","null","<div style=""font-size:60px;"">+</div>","null","","fixation","","","","","","","","",""
"memory-trial","160","399119","0.0-15.0-1.58","1636","2","""event"",""trial"",""time""
""fullscreenenter"",""1"",""1676""
","
","
","""event"",""trial"",""time""
""fullscreenenter"",""1"",""1676""
","
","","","","","","779.8000000007451","images/dog5.png","","","memory_trial","1","definitely_old","","","","","","",""
"html-keyboard-response","161","399624","0.0-15.0-0.59","1636","2","""event"",""trial"",""time""
""fullscreenenter"",""1"",""1676""
","
","
","""event"",""trial"",""time""
""fullscreenenter"",""1"",""1676""
","
","","","","","","null","<div style=""font-size:60px;"">+</div>","null","","fixation","","","","","","","","",""
"memory-trial","162","401386","0.0-15.0-1.59","1636","2","""event"",""trial"",""time""
""fullscreenenter"",""1"",""1676""
","
","
","""event"",""trial"",""time""
""fullscreenenter"",""1"",""1676""
","
","","","","","","759.7000000011176","images/tree3.png","","","memory_trial","1","definitely_old","","","","","","",""
"html-keyboard-response","163","401891","0.0-15.0-0.60","1636","2","""event"",""trial"",""time""
""fullscreenenter"",""1"",""1676""
","
","
","""event"",""trial"",""time""
""fullscreenenter"",""1"",""1676""
","
","","","","","","null","<div style=""font-size:60px;"">+</div>","null","","fixation","","","","","","","","",""
"memory-trial","164","404594","0.0-15.0-1.60","1636","2","""event"",""trial"",""time""
""fullscreenenter"",""1"",""1676""
","
","
","""event"",""trial"",""time""
""fullscreenenter"",""1"",""1676""
","
","","","","","","1697.300000000745","images/train3.png","","","memory_trial","4","definitely_new","","","","","","",""
"html-keyboard-response","165","405097","0.0-15.0-0.61","1636","2","""event"",""trial"",""time""
""fullscreenenter"",""1"",""1676""
","
","
","""event"",""trial"",""time""
""fullscreenenter"",""1"",""1676""
","
","","","","","","null","<div style=""font-size:60px;"">+</div>","null","","fixation","","","","","","","","",""
"memory-trial","166","407119","0.0-15.0-1.61","1636","2","""event"",""trial"",""time""
""fullscreenenter"",""1"",""1676""
","
","
","""event"",""trial"",""time""
""fullscreenenter"",""1"",""1676""
","
","","","","","","1020.9000000003725","images/bed1.png","","","memory_trial","1","definitely_old","","","","","","",""
"html-keyboard-response","167","407623","0.0-15.0-0.62","1636","2","""event"",""trial"",""time""
""fullscreenenter"",""1"",""1676""
","
","
","""event"",""trial"",""time""
""fullscreenenter"",""1"",""1676""
","
","","","","","","null","<div style=""font-size:60px;"">+</div>","null","","fixation","","","","","","","","",""
"memory-trial","168","409540","0.0-15.0-1.62","1636","2","""event"",""trial"",""time""
""fullscreenenter"",""1"",""1676""
","
","
","""event"",""trial"",""time""
""fullscreenenter"",""1"",""1676""
","
","","","","","","911.7999999988824","images/goat1.png","","","memory_trial","1","definitely_old","","","","","","",""
"html-keyboard-response","169","410045","0.0-15.0-0.63","1636","2","""event"",""trial"",""time""
""fullscreenenter"",""1"",""1676""
","
","
","""event"",""trial"",""time""
""fullscreenenter"",""1"",""1676""
","
","","","","","","null","<div style=""font-size:60px;"">+</div>","null","","fixation","","","","","","","","",""
"memory-trial","170","411974","0.0-15.0-1.63","1636","2","""event"",""trial"",""time""
""fullscreenenter"",""1"",""1676""
","
","
","""event"",""trial"",""time""
""fullscreenenter"",""1"",""1676""
","
","","","","","","922.6999999992549","images/apple2.png","","","memory_trial","1","definitely_old","","","","","","",""
"html-keyboard-response","171","412478","0.0-15.0-0.64","1636","2","""event"",""trial"",""time""
""fullscreenenter"",""1"",""1676""
","
","
","""event"",""trial"",""time""
""fullscreenenter"",""1"",""1676""
","
","","","","","","null","<div style=""font-size:60px;"">+</div>","null","","fixation","","","","","","","","",""
"memory-trial","172","414236","0.0-15.0-1.64","1636","2","""event"",""trial"",""time""
""fullscreenenter"",""1"",""1676""
","
","
","""event"",""trial"",""time""
""fullscreenenter"",""1"",""1676""
","
","","","","","","752.7999999988824","images/table1.png","","","memory_trial","4","definitely_new","","","","","","",""
"html-keyboard-response","173","414741","0.0-15.0-0.65","1636","2","""event"",""trial"",""time""
""fullscreenenter"",""1"",""1676""
","
","
","""event"",""trial"",""time""
""fullscreenenter"",""1"",""1676""
","
","","","","","","null","<div style=""font-size:60px;"">+</div>","null","","fixation","","","","","","","","",""
"memory-trial","174","416649","0.0-15.0-1.65","1636","2","""event"",""trial"",""time""
""fullscreenenter"",""1"",""1676""
","
","
","""event"",""trial"",""time""
""fullscreenenter"",""1"",""1676""
","
","","","","","","905.7000000011176","images/tree2.png","","","memory_trial","4","definitely_new","","","","","","",""
"html-keyboard-response","175","417151","0.0-15.0-0.66","1636","2","""event"",""trial"",""time""
""fullscreenenter"",""1"",""1676""
","
","
","""event"",""trial"",""time""
""fullscreenenter"",""1"",""1676""
","
","","","","","","null","<div style=""font-size:60px;"">+</div>","null","","fixation","","","","","","","","",""
"memory-trial","176","419427","0.0-15.0-1.66","1636","2","""event"",""trial"",""time""
""fullscreenenter"",""1"",""1676""
","
","
","""event"",""trial"",""time""
""fullscreenenter"",""1"",""1676""
","
","","","","","","1269.5999999996275","images/sheep3.png","","","memory_trial","4","definitely_new","","","","","","",""
"html-keyboard-response","177","419929","0.0-15.0-0.67","1636","2","""event"",""trial"",""time""
""fullscreenenter"",""1"",""1676""
","
","
","""event"",""trial"",""time""
""fullscreenenter"",""1"",""1676""
","
","","","","","","null","<div style=""font-size:60px;"">+</div>","null","","fixation","","","","","","","","",""
"memory-trial","178","423753","0.0-15.0-1.67","1636","2","""event"",""trial"",""time""
""fullscreenenter"",""1"",""1676""
","
","
","""event"",""trial"",""time""
""fullscreenenter"",""1"",""1676""
","
","","","","","","2818.7000000011176","images/plane2.png","","","memory_trial","1","definitely_old","","","","","","",""
"html-keyboard-response","179","424258","0.0-15.0-0.68","1636","2","""event"",""trial"",""time""
""fullscreenenter"",""1"",""1676""
","
","
","""event"",""trial"",""time""
""fullscreenenter"",""1"",""1676""
","
","","","","","","null","<div style=""font-size:60px;"">+</div>","null","","fixation","","","","","","","","",""
"memory-trial","180","426935","0.0-15.0-1.68","1636","2","""event"",""trial"",""time""
""fullscreenenter"",""1"",""1676""
","
","
","""event"",""trial"",""time""
""fullscreenenter"",""1"",""1676""
","
","","","","","","1672.699999999255","images/boat3.png","","","memory_trial","2","maybe_old","","","","","","",""
"html-keyboard-response","181","427441","0.0-15.0-0.69","1636","2","""event"",""trial"",""time""
""fullscreenenter"",""1"",""1676""
","
","
","""event"",""trial"",""time""
""fullscreenenter"",""1"",""1676""
","
","","","","","","null","<div style=""font-size:60px;"">+</div>","null","","fixation","","","","","","","","",""
"memory-trial","182","429465","0.0-15.0-1.69","1636","2","""event"",""trial"",""time""
""fullscreenenter"",""1"",""1676""
","
","
","""event"",""trial"",""time""
""fullscreenenter"",""1"",""1676""
","
","","","","","","1019.8999999985099","images/cow1.png","","","memory_trial","1","definitely_old","","","","","","",""
"html-keyboard-response","183","429966","0.0-15.0-0.70","1636","2","""event"",""trial"",""time""
""fullscreenenter"",""1"",""1676""
","
","
","""event"",""trial"",""time""
""fullscreenenter"",""1"",""1676""
","
","","","","","","null","<div style=""font-size:60px;"">+</div>","null","","fixation","","","","","","","","",""
"memory-trial","184","432121","0.0-15.0-1.70","1636","2","""event"",""trial"",""time""
""fullscreenenter"",""1"",""1676""
","
","
","""event"",""trial"",""time""
""fullscreenenter"",""1"",""1676""
","
","","","","","","1151.5","images/sofa5.png","","","memory_trial","1","definitely_old","","","","","","",""
"html-keyboard-response","185","432624","0.0-15.0-0.71","1636","2","""event"",""trial"",""time""
""fullscreenenter"",""1"",""1676""
","
","
","""event"",""trial"",""time""
""fullscreenenter"",""1"",""1676""
","
","","","","","","null","<div style=""font-size:60px;"">+</div>","null","","fixation","","","","","","","","",""
"memory-trial","186","434494","0.0-15.0-1.71","1636","2","""event"",""trial"",""time""
""fullscreenenter"",""1"",""1676""
","
","
","""event"",""trial"",""time""
""fullscreenenter"",""1"",""1676""
","
","","","","","","865.0999999996275","images/flower4.png","","","memory_trial","4","definitely_new","","","","","","",""
"html-keyboard-response","187","434996","0.0-15.0-0.72","1636","2","""event"",""trial"",""time""
""fullscreenenter"",""1"",""1676""
","
","
","""event"",""trial"",""time""
""fullscreenenter"",""1"",""1676""
","
","","","","","","null","<div style=""font-size:60px;"">+</div>","null","","fixation","","","","","","","","",""
"memory-trial","188","436958","0.0-15.0-1.72","1636","2","""event"",""trial"",""time""
""fullscreenenter"",""1"",""1676""
","
","
","""event"",""trial"",""time""
""fullscreenenter"",""1"",""1676""
","
","","","","","","957.6000000014901","images/truck3.png","","","memory_trial","1","definitely_old","","","","","","",""
"html-keyboard-response","189","437461","0.0-15.0-0.73","1636","2","""event"",""trial"",""time""
""fullscreenenter"",""1"",""1676""
","
","
","""event"",""trial"",""time""
""fullscreenenter"",""1"",""1676""
","
","","","","","","null","<div style=""font-size:60px;"">+</div>","null","","fixation","","","","","","","","",""
"memory-trial","190","439578","0.0-15.0-1.73","1636","2","""event"",""trial"",""time""
""fullscreenenter"",""1"",""1676""
","
","
","""event"",""trial"",""time""
""fullscreenenter"",""1"",""1676""
","
","","","","","","1115.4000000003725","images/feline3.png","","","memory_trial","1","definitely_old","","","","","","",""
"html-keyboard-response","191","440084","0.0-15.0-0.74","1636","2","""event"",""trial"",""time""
""fullscreenenter"",""1"",""1676""
","
","
","""event"",""trial"",""time""
""fullscreenenter"",""1"",""1676""
","
","","","","","","null","<div style=""font-size:60px;"">+</div>","null","","fixation","","","","","","","","",""
"memory-trial","192","442478","0.0-15.0-1.74","1636","2","""event"",""trial"",""time""
""fullscreenenter"",""1"",""1676""
","
","
","""event"",""trial"",""time""
""fullscreenenter"",""1"",""1676""
","
","","","","","","1390.2000000011176","images/bed4.png","","","memory_trial","1","definitely_old","","","","","","",""
"html-keyboard-response","193","442980","0.0-15.0-0.75","1636","2","""event"",""trial"",""time""
""fullscreenenter"",""1"",""1676""
","
","
","""event"",""trial"",""time""
""fullscreenenter"",""1"",""1676""
","
","","","","","","null","<div style=""font-size:60px;"">+</div>","null","","fixation","","","","","","","","",""
"memory-trial","194","444878","0.0-15.0-1.75","1636","2","""event"",""trial"",""time""
""fullscreenenter"",""1"",""1676""
","
","
","""event"",""trial"",""time""
""fullscreenenter"",""1"",""1676""
","
","","","","","","894.2999999988824","images/bush2.png","","","memory_trial","1","definitely_old","","","","","","",""
"html-keyboard-response","195","445384","0.0-15.0-0.76","1636","2","""event"",""trial"",""time""
""fullscreenenter"",""1"",""1676""
","
","
","""event"",""trial"",""time""
""fullscreenenter"",""1"",""1676""
","
","","","","","","null","<div style=""font-size:60px;"">+</div>","null","","fixation","","","","","","","","",""
"memory-trial","196","447231","0.0-15.0-1.76","1636","2","""event"",""trial"",""time""
""fullscreenenter"",""1"",""1676""
","
","
","""event"",""trial"",""time""
""fullscreenenter"",""1"",""1676""
","
","","","","","","841.3000000007451","images/orange5.png","","","memory_trial","1","definitely_old","","","","","","",""
"html-keyboard-response","197","447737","0.0-15.0-0.77","1636","2","""event"",""trial"",""time""
""fullscreenenter"",""1"",""1676""
","
","
","""event"",""trial"",""time""
""fullscreenenter"",""1"",""1676""
","
","","","","","","null","<div style=""font-size:60px;"">+</div>","null","","fixation","","","","","","","","",""
"memory-trial","198","449845","0.0-15.0-1.77","1636","2","""event"",""trial"",""time""
""fullscreenenter"",""1"",""1676""
","
","
","""event"",""trial"",""time""
""fullscreenenter"",""1"",""1676""
","
","","","","","","1101.5","images/straw5.png","","","memory_trial","4","definitely_new","","","","","","",""
"html-keyboard-response","199","450350","0.0-15.0-0.78","1636","2","""event"",""trial"",""time""
""fullscreenenter"",""1"",""1676""
","
","
","""event"",""trial"",""time""
""fullscreenenter"",""1"",""1676""
","
","","","","","","null","<div style=""font-size:60px;"">+</div>","null","","fixation","","","","","","","","",""
"memory-trial","200","452990","0.0-15.0-1.78","1636","2","""event"",""trial"",""time""
""fullscreenenter"",""1"",""1676""
","
","
","""event"",""trial"",""time""
""fullscreenenter"",""1"",""1676""
","
","","","","","","1634.7000000011176","images/rabbit4.png","","","memory_trial","1","definitely_old","","","","","","",""
"html-keyboard-response","201","453494","0.0-15.0-0.79","1636","2","""event"",""trial"",""time""
""fullscreenenter"",""1"",""1676""
","
","
","""event"",""trial"",""time""
""fullscreenenter"",""1"",""1676""
","
","","","","","","null","<div style=""font-size:60px;"">+</div>","null","","fixation","","","","","","","","",""
"memory-trial","202","455412","0.0-15.0-1.79","1636","2","""event"",""trial"",""time""
""fullscreenenter"",""1"",""1676""
","
","
","""event"",""trial"",""time""
""fullscreenenter"",""1"",""1676""
","
","","","","","","911.8000000007451","images/straw4.png","","","memory_trial","4","definitely_new","","","","","","",""
"html-keyboard-response","203","455913","0.0-15.0-0.80","1636","2","""event"",""trial"",""time""
""fullscreenenter"",""1"",""1676""
","
","
","""event"",""trial"",""time""
""fullscreenenter"",""1"",""1676""
","
","","","","","","null","<div style=""font-size:60px;"">+</div>","null","","fixation","","","","","","","","",""
"memory-trial","204","459028","0.0-15.0-1.80","1636","2","""event"",""trial"",""time""
""fullscreenenter"",""1"",""1676""
","
","
","""event"",""trial"",""time""
""fullscreenenter"",""1"",""1676""
","
","","","","","","2107.7000000011176","images/bush1.png","","","memory_trial","1","definitely_old","","","","","","",""
"html-keyboard-response","205","459529","0.0-15.0-0.81","1636","2","""event"",""trial"",""time""
""fullscreenenter"",""1"",""1676""
","
","
","""event"",""trial"",""time""
""fullscreenenter"",""1"",""1676""
","
","","","","","","null","<div style=""font-size:60px;"">+</div>","null","","fixation","","","","","","","","",""
"memory-trial","206","461348","0.0-15.0-1.81","1636","2","""event"",""trial"",""time""
""fullscreenenter"",""1"",""1676""
","
","
","""event"",""trial"",""time""
""fullscreenenter"",""1"",""1676""
","
","","","","","","814.1999999992549","images/rabbit5.png","","","memory_trial","1","definitely_old","","","","","","",""
"html-keyboard-response","207","461849","0.0-15.0-0.82","1636","2","""event"",""trial"",""time""
""fullscreenenter"",""1"",""1676""
","
","
","""event"",""trial"",""time""
""fullscreenenter"",""1"",""1676""
","
","","","","","","null","<div style=""font-size:60px;"">+</div>","null","","fixation","","","","","","","","",""
"memory-trial","208","463566","0.0-15.0-1.82","1636","2","""event"",""trial"",""time""
""fullscreenenter"",""1"",""1676""
","
","
","""event"",""trial"",""time""
""fullscreenenter"",""1"",""1676""
","
","","","","","","714.4000000003725","images/banana5.png","","","memory_trial","1","definitely_old","","","","","","",""
"html-keyboard-response","209","464069","0.0-15.0-0.83","1636","2","""event"",""trial"",""time""
""fullscreenenter"",""1"",""1676""
","
","
","""event"",""trial"",""time""
""fullscreenenter"",""1"",""1676""
","
","","","","","","null","<div style=""font-size:60px;"">+</div>","null","","fixation","","","","","","","","",""
"memory-trial","210","465744","0.0-15.0-1.83","1636","2","""event"",""trial"",""time""
""fullscreenenter"",""1"",""1676""
","
","
","""event"",""trial"",""time""
""fullscreenenter"",""1"",""1676""
","
","","","","","","670.5999999996275","images/flower1.png","","","memory_trial","4","definitely_new","","","","","","",""
"html-keyboard-response","211","466249","0.0-15.0-0.84","1636","2","""event"",""trial"",""time""
""fullscreenenter"",""1"",""1676""
","
","
","""event"",""trial"",""time""
""fullscreenenter"",""1"",""1676""
","
","","","","","","null","<div style=""font-size:60px;"">+</div>","null","","fixation","","","","","","","","",""
"memory-trial","212","468474","0.0-15.0-1.84","1636","2","""event"",""trial"",""time""
""fullscreenenter"",""1"",""1676""
","
","
","""event"",""trial"",""time""
""fullscreenenter"",""1"",""1676""
","
","","","","","","1221.7999999988824","images/truck1.png","","","memory_trial","4","definitely_new","","","","","","",""
"html-keyboard-response","213","468980","0.0-15.0-0.85","1636","2","""event"",""trial"",""time""
""fullscreenenter"",""1"",""1676""
","
","
","""event"",""trial"",""time""
""fullscreenenter"",""1"",""1676""
","
","","","","","","null","<div style=""font-size:60px;"">+</div>","null","","fixation","","","","","","","","",""
"memory-trial","214","470767","0.0-15.0-1.85","1636","2","""event"",""trial"",""time""
""fullscreenenter"",""1"",""1676""
","
","
","""event"",""trial"",""time""
""fullscreenenter"",""1"",""1676""
","
","","","","","","781.3000000007451","images/horse2.png","","","memory_trial","4","definitely_new","","","","","","",""
"html-keyboard-response","215","471273","0.0-15.0-0.86","1636","2","""event"",""trial"",""time""
""fullscreenenter"",""1"",""1676""
","
","
","""event"",""trial"",""time""
""fullscreenenter"",""1"",""1676""
","
","","","","","","null","<div style=""font-size:60px;"">+</div>","null","","fixation","","","","","","","","",""
"memory-trial","216","473156","0.0-15.0-1.86","1636","2","""event"",""trial"",""time""
""fullscreenenter"",""1"",""1676""
","
","
","""event"",""trial"",""time""
""fullscreenenter"",""1"",""1676""
","
","","","","","","874.7000000011176","images/train5.png","","","memory_trial","4","definitely_new","","","","","","",""
"html-keyboard-response","217","473662","0.0-15.0-0.87","1636","2","""event"",""trial"",""time""
""fullscreenenter"",""1"",""1676""
","
","
","""event"",""trial"",""time""
""fullscreenenter"",""1"",""1676""
","
","","","","","","null","<div style=""font-size:60px;"">+</div>","null","","fixation","","","","","","","","",""
"memory-trial","218","475550","0.0-15.0-1.87","1636","2","""event"",""trial"",""time""
""fullscreenenter"",""1"",""1676""
","
","
","""event"",""trial"",""time""
""fullscreenenter"",""1"",""1676""
","
","","","","","","883","images/plane3.png","","","memory_trial","1","definitely_old","","","","","","",""
"html-keyboard-response","219","476052","0.0-15.0-0.88","1636","2","""event"",""trial"",""time""
""fullscreenenter"",""1"",""1676""
","
","
","""event"",""trial"",""time""
""fullscreenenter"",""1"",""1676""
","
","","","","","","null","<div style=""font-size:60px;"">+</div>","null","","fixation","","","","","","","","",""
"memory-trial","220","478052","0.0-15.0-1.88","1636","2","""event"",""trial"",""time""
""fullscreenenter"",""1"",""1676""
","
","
","""event"",""trial"",""time""
""fullscreenenter"",""1"",""1676""
","
","","","","","","997.2999999988824","images/banana3.png","","","memory_trial","4","definitely_new","","","","","","",""
"html-keyboard-response","221","478558","0.0-15.0-0.89","1636","2","""event"",""trial"",""time""
""fullscreenenter"",""1"",""1676""
","
","
","""event"",""trial"",""time""
""fullscreenenter"",""1"",""1676""
","
","","","","","","null","<div style=""font-size:60px;"">+</div>","null","","fixation","","","","","","","","",""
"memory-trial","222","480213","0.0-15.0-1.89","1636","2","""event"",""trial"",""time""
""fullscreenenter"",""1"",""1676""
","
","
","""event"",""trial"",""time""
""fullscreenenter"",""1"",""1676""
","
","","","","","","649","images/flower3.png","","","memory_trial","4","definitely_new","","","","","","",""
"html-keyboard-response","223","480718","0.0-15.0-0.90","1636","2","""event"",""trial"",""time""
""fullscreenenter"",""1"",""1676""
","
","
","""event"",""trial"",""time""
""fullscreenenter"",""1"",""1676""
","
","","","","","","null","<div style=""font-size:60px;"">+</div>","null","","fixation","","","","","","","","",""
"memory-trial","224","482628","0.0-15.0-1.90","1636","2","""event"",""trial"",""time""
""fullscreenenter"",""1"",""1676""
","
","
","""event"",""trial"",""time""
""fullscreenenter"",""1"",""1676""
","
","","","","","","904.7000000011176","images/chair2.png","","","memory_trial","1","definitely_old","","","","","","",""
"html-keyboard-response","225","483132","0.0-15.0-0.91","1636","2","""event"",""trial"",""time""
""fullscreenenter"",""1"",""1676""
","
","
","""event"",""trial"",""time""
""fullscreenenter"",""1"",""1676""
","
","","","","","","null","<div style=""font-size:60px;"">+</div>","null","","fixation","","","","","","","","",""
"memory-trial","226","484725","0.0-15.0-1.91","1636","2","""event"",""trial"",""time""
""fullscreenenter"",""1"",""1676""
","
","
","""event"",""trial"",""time""
""fullscreenenter"",""1"",""1676""
","
","","","","","","590.1999999992549","images/flower2.png","","","memory_trial","4","definitely_new","","","","","","",""
"html-keyboard-response","227","485231","0.0-15.0-0.92","1636","2","""event"",""trial"",""time""
""fullscreenenter"",""1"",""1676""
","
","
","""event"",""trial"",""time""
""fullscreenenter"",""1"",""1676""
","
","","","","","","null","<div style=""font-size:60px;"">+</div>","null","","fixation","","","","","","","","",""
"memory-trial","228","486830","0.0-15.0-1.92","1636","2","""event"",""trial"",""time""
""fullscreenenter"",""1"",""1676""
","
","
","""event"",""trial"",""time""
""fullscreenenter"",""1"",""1676""
","
","","","","","","595.2999999988824","images/flower5.png","","","memory_trial","4","definitely_new","","","","","","",""
"html-keyboard-response","229","487332","0.0-15.0-0.93","1636","2","""event"",""trial"",""time""
""fullscreenenter"",""1"",""1676""
","
","
","""event"",""trial"",""time""
""fullscreenenter"",""1"",""1676""
","
","","","","","","null","<div style=""font-size:60px;"">+</div>","null","","fixation","","","","","","","","",""
"memory-trial","230","489209","0.0-15.0-1.93","1636","2","""event"",""trial"",""time""
""fullscreenenter"",""1"",""1676""
","
","
","""event"",""trial"",""time""
""fullscreenenter"",""1"",""1676""
","
","","","","","","872.1999999992549","images/boat4.png","","","memory_trial","4","definitely_new","","","","","","",""
"html-keyboard-response","231","489711","0.0-15.0-0.94","1636","2","""event"",""trial"",""time""
""fullscreenenter"",""1"",""1676""
","
","
","""event"",""trial"",""time""
""fullscreenenter"",""1"",""1676""
","
","","","","","","null","<div style=""font-size:60px;"">+</div>","null","","fixation","","","","","","","","",""
"memory-trial","232","491535","0.0-15.0-1.94","1636","2","""event"",""trial"",""time""
""fullscreenenter"",""1"",""1676""
","
","
","""event"",""trial"",""time""
""fullscreenenter"",""1"",""1676""
","
","","","","","","817.7999999988824","images/table2.png","","","memory_trial","4","definitely_new","","","","","","",""
"html-keyboard-response","233","492041","0.0-15.0-0.95","1636","2","""event"",""trial"",""time""
""fullscreenenter"",""1"",""1676""
","
","
","""event"",""trial"",""time""
""fullscreenenter"",""1"",""1676""
","
","","","","","","null","<div style=""font-size:60px;"">+</div>","null","","fixation","","","","","","","","",""
"memory-trial","234","495258","0.0-15.0-1.95","1636","2","""event"",""trial"",""time""
""fullscreenenter"",""1"",""1676""
","
","
","""event"",""trial"",""time""
""fullscreenenter"",""1"",""1676""
","
","","","","","","2210.9000000003725","images/truck5.png","","","memory_trial","1","definitely_old","","","","","","",""
"html-keyboard-response","235","495761","0.0-15.0-0.96","1636","2","""event"",""trial"",""time""
""fullscreenenter"",""1"",""1676""
","
","
","""event"",""trial"",""time""
""fullscreenenter"",""1"",""1676""
","
","","","","","","null","<div style=""font-size:60px;"">+</div>","null","","fixation","","","","","","","","",""
"memory-trial","236","497553","0.0-15.0-1.96","1636","2","""event"",""trial"",""time""
""fullscreenenter"",""1"",""1676""
","
","
","""event"",""trial"",""time""
""fullscreenenter"",""1"",""1676""
","
","","","","","","786.5999999996275","images/cow4.png","","","memory_trial","4","definitely_new","","","","","","",""
"html-keyboard-response","237","498058","0.0-15.0-0.97","1636","2","""event"",""trial"",""time""
""fullscreenenter"",""1"",""1676""
","
","
","""event"",""trial"",""time""
""fullscreenenter"",""1"",""1676""
","
","","","","","","null","<div style=""font-size:60px;"">+</div>","null","","fixation","","","","","","","","",""
"memory-trial","238","499858","0.0-15.0-1.97","1636","2","""event"",""trial"",""time""
""fullscreenenter"",""1"",""1676""
","
","
","""event"",""trial"",""time""
""fullscreenenter"",""1"",""1676""
","
","","","","","","794.5","images/sofa4.png","","","memory_trial","4","definitely_new","","","","","","",""
"html-keyboard-response","239","500364","0.0-15.0-0.98","1636","2","""event"",""trial"",""time""
""fullscreenenter"",""1"",""1676""
","
","
","""event"",""trial"",""time""
""fullscreenenter"",""1"",""1676""
","
","","","","","","null","<div style=""font-size:60px;"">+</div>","null","","fixation","","","","","","","","",""
"memory-trial","240","504314","0.0-15.0-1.98","1636","2","""event"",""trial"",""time""
""fullscreenenter"",""1"",""1676""
","
","
","""event"",""trial"",""time""
""fullscreenenter"",""1"",""1676""
","
","","","","","","2943","images/banana1.png","","","memory_trial","4","definitely_new","","","","","","",""
"html-keyboard-response","241","504819","0.0-15.0-0.99","1636","2","""event"",""trial"",""time""
""fullscreenenter"",""1"",""1676""
","
","
","""event"",""trial"",""time""
""fullscreenenter"",""1"",""1676""
","
","","","","","","null","<div style=""font-size:60px;"">+</div>","null","","fixation","","","","","","","","",""
"memory-trial","242","506714","0.0-15.0-1.99","1636","2","""event"",""trial"",""time""
""fullscreenenter"",""1"",""1676""
","
","
","""event"",""trial"",""time""
""fullscreenenter"",""1"",""1676""
","
","","","","","","890.7999999988824","images/truck4.png","","","memory_trial","1","definitely_old","","","","","","",""
"html-keyboard-response","243","507214","0.0-15.0-0.100","1636","2","""event"",""trial"",""time""
""fullscreenenter"",""1"",""1676""
","
","
","""event"",""trial"",""time""
""fullscreenenter"",""1"",""1676""
","
","","","","","","null","<div style=""font-size:60px;"">+</div>","null","","fixation","","","","","","","","",""
"memory-trial","244","508777","0.0-15.0-1.100","1636","2","""event"",""trial"",""time""
""fullscreenenter"",""1"",""1676""
","
","
","""event"",""trial"",""time""
""fullscreenenter"",""1"",""1676""
","
","","","","","","556.3000000007451","images/boat1.png","","","memory_trial","1","definitely_old","","","","","","",""
"html-keyboard-response","245","509280","0.0-15.0-0.101","1636","2","""event"",""trial"",""time""
""fullscreenenter"",""1"",""1676""
","
","
","""event"",""trial"",""time""
""fullscreenenter"",""1"",""1676""
","
","","","","","","null","<div style=""font-size:60px;"">+</div>","null","","fixation","","","","","","","","",""
"memory-trial","246","510756","0.0-15.0-1.101","1636","2","""event"",""trial"",""time""
""fullscreenenter"",""1"",""1676""
","
","
","""event"",""trial"",""time""
""fullscreenenter"",""1"",""1676""
","
","","","","","","470","images/boat5.png","","","memory_trial","1","definitely_old","","","","","","",""
"html-button-response","247","512467","0.0-15.0-2.101-0.101","1636","2","""event"",""trial"",""time""
""fullscreenenter"",""1"",""1676""
","
","
","""event"",""trial"",""time""
""fullscreenenter"",""1"",""1676""
","
","","","","","","1709","<p> Take a break! </p><p> Click the button to continue. </p>","0","","break","","","","","","","","",""
"html-keyboard-response","248","512970","0.0-15.0-0.102","1636","2","""event"",""trial"",""time""
""fullscreenenter"",""1"",""1676""
","
","
","""event"",""trial"",""time""
""fullscreenenter"",""1"",""1676""
","
","","","","","","null","<div style=""font-size:60px;"">+</div>","null","","fixation","","","","","","","","",""
"memory-trial","249","514903","0.0-15.0-1.102","1636","2","""event"",""trial"",""time""
""fullscreenenter"",""1"",""1676""
","
","
","""event"",""trial"",""time""
""fullscreenenter"",""1"",""1676""
","
","","","","","","928.3000000007451","images/cactus3.png","","","memory_trial","1","definitely_old","","","","","","",""
"html-keyboard-response","250","515408","0.0-15.0-0.103","1636","2","""event"",""trial"",""time""
""fullscreenenter"",""1"",""1676""
","
","
","""event"",""trial"",""time""
""fullscreenenter"",""1"",""1676""
","
","","","","","","null","<div style=""font-size:60px;"">+</div>","null","","fixation","","","","","","","","",""
"memory-trial","251","517572","0.0-15.0-1.103","1636","2","""event"",""trial"",""time""
""fullscreenenter"",""1"",""1676""
","
","
","""event"",""trial"",""time""
""fullscreenenter"",""1"",""1676""
","
","","","","","","1158.300000000745","images/feline1.png","","","memory_trial","1","definitely_old","","","","","","",""
"html-keyboard-response","252","518074","0.0-15.0-0.104","1636","2","""event"",""trial"",""time""
""fullscreenenter"",""1"",""1676""
","
","
","""event"",""trial"",""time""
""fullscreenenter"",""1"",""1676""
","
","","","","","","null","<div style=""font-size:60px;"">+</div>","null","","fixation","","","","","","","","",""
"memory-trial","253","519871","0.0-15.0-1.104","1636","2","""event"",""trial"",""time""
""fullscreenenter"",""1"",""1676""
","
","
","""event"",""trial"",""time""
""fullscreenenter"",""1"",""1676""
","
","","","","","","789.5999999996275","images/goat2.png","","","memory_trial","1","definitely_old","","","","","","",""
"html-keyboard-response","254","520374","0.0-15.0-0.105","1636","2","""event"",""trial"",""time""
""fullscreenenter"",""1"",""1676""
","
","
","""event"",""trial"",""time""
""fullscreenenter"",""1"",""1676""
","
","","","","","","null","<div style=""font-size:60px;"">+</div>","null","","fixation","","","","","","","","",""
"memory-trial","255","522068","0.0-15.0-1.105","1636","2","""event"",""trial"",""time""
""fullscreenenter"",""1"",""1676""
","
","
","""event"",""trial"",""time""
""fullscreenenter"",""1"",""1676""
","
","","","","","","690.8999999985099","images/straw1.png","","","memory_trial","1","definitely_old","","","","","","",""
"html-keyboard-response","256","522569","0.0-15.0-0.106","1636","2","""event"",""trial"",""time""
""fullscreenenter"",""1"",""1676""
","
","
","""event"",""trial"",""time""
""fullscreenenter"",""1"",""1676""
","
","","","","","","null","<div style=""font-size:60px;"">+</div>","null","","fixation","","","","","","","","",""
"memory-trial","257","524428","0.0-15.0-1.106","1636","2","""event"",""trial"",""time""
""fullscreenenter"",""1"",""1676""
","
","
","""event"",""trial"",""time""
""fullscreenenter"",""1"",""1676""
","
","","","","","","851.9000000003725","images/rodent3.png","","","memory_trial","1","definitely_old","","","","","","",""
"html-keyboard-response","258","524932","0.0-15.0-0.107","1636","2","""event"",""trial"",""time""
""fullscreenenter"",""1"",""1676""
","
","
","""event"",""trial"",""time""
""fullscreenenter"",""1"",""1676""
","
","","","","","","null","<div style=""font-size:60px;"">+</div>","null","","fixation","","","","","","","","",""
"memory-trial","259","526764","0.0-15.0-1.107","1636","2","""event"",""trial"",""time""
""fullscreenenter"",""1"",""1676""
","
","
","""event"",""trial"",""time""
""fullscreenenter"",""1"",""1676""
","
","","","","","","825.0999999996275","images/banana2.png","","","memory_trial","1","definitely_old","","","","","","",""
"html-keyboard-response","260","527268","0.0-15.0-0.108","1636","2","""event"",""trial"",""time""
""fullscreenenter"",""1"",""1676""
","
","
","""event"",""trial"",""time""
""fullscreenenter"",""1"",""1676""
","
","","","","","","null","<div style=""font-size:60px;"">+</div>","null","","fixation","","","","","","","","",""
"memory-trial","261","529066","0.0-15.0-1.108","1636","2","""event"",""trial"",""time""
""fullscreenenter"",""1"",""1676""
","
","
","""event"",""trial"",""time""
""fullscreenenter"",""1"",""1676""
","
","","","","","","793.3000000007451","images/orange2.png","","","memory_trial","1","definitely_old","","","","","","",""
"html-keyboard-response","262","529570","0.0-15.0-0.109","1636","2","""event"",""trial"",""time""
""fullscreenenter"",""1"",""1676""
","
","
","""event"",""trial"",""time""
""fullscreenenter"",""1"",""1676""
","
","","","","","","null","<div style=""font-size:60px;"">+</div>","null","","fixation","","","","","","","","",""
"memory-trial","263","531364","0.0-15.0-1.109","1636","2","""event"",""trial"",""time""
""fullscreenenter"",""1"",""1676""
","
","
","""event"",""trial"",""time""
""fullscreenenter"",""1"",""1676""
","
","","","","","","789.8000000007451","images/sofa1.png","","","memory_trial","4","definitely_new","","","","","","",""
"html-keyboard-response","264","531865","0.0-15.0-0.110","1636","2","""event"",""trial"",""time""
""fullscreenenter"",""1"",""1676""
","
","
","""event"",""trial"",""time""
""fullscreenenter"",""1"",""1676""
","
","","","","","","null","<div style=""font-size:60px;"">+</div>","null","","fixation","","","","","","","","",""
"memory-trial","265","533947","0.0-15.0-1.110","1636","2","""event"",""trial"",""time""
""fullscreenenter"",""1"",""1676""
","
","
","""event"",""trial"",""time""
""fullscreenenter"",""1"",""1676""
","
","","","","","","1075.800000000745","images/sheep4.png","","","memory_trial","1","definitely_old","","","","","","",""
"html-keyboard-response","266","534453","0.0-15.0-0.111","1636","2","""event"",""trial"",""time""
""fullscreenenter"",""1"",""1676""
","
","
","""event"",""trial"",""time""
""fullscreenenter"",""1"",""1676""
","
","","","","","","null","<div style=""font-size:60px;"">+</div>","null","","fixation","","","","","","","","",""
"memory-trial","267","536313","0.0-15.0-1.111","1636","2","""event"",""trial"",""time""
""fullscreenenter"",""1"",""1676""
","
","
","""event"",""trial"",""time""
""fullscreenenter"",""1"",""1676""
","
","","","","","","858.6000000014901","images/apple5.png","","","memory_trial","4","definitely_new","","","","","","",""
"html-keyboard-response","268","536814","0.0-15.0-0.112","1636","2","""event"",""trial"",""time""
""fullscreenenter"",""1"",""1676""
","
","
","""event"",""trial"",""time""
""fullscreenenter"",""1"",""1676""
","
","","","","","","null","<div style=""font-size:60px;"">+</div>","null","","fixation","","","","","","","","",""
"memory-trial","269","539241","0.0-15.0-1.112","1636","2","""event"",""trial"",""time""
""fullscreenenter"",""1"",""1676""
","
","
","""event"",""trial"",""time""
""fullscreenenter"",""1"",""1676""
","
","","","","","","1423.4000000003725","images/apple1.png","","","memory_trial","4","definitely_new","","","","","","",""
"html-keyboard-response","270","539745","0.0-15.0-0.113","1636","2","""event"",""trial"",""time""
""fullscreenenter"",""1"",""1676""
","
","
","""event"",""trial"",""time""
""fullscreenenter"",""1"",""1676""
","
","","","","","","null","<div style=""font-size:60px;"">+</div>","null","","fixation","","","","","","","","",""
"memory-trial","271","541450","0.0-15.0-1.113","1636","2","""event"",""trial"",""time""
""fullscreenenter"",""1"",""1676""
","
","
","""event"",""trial"",""time""
""fullscreenenter"",""1"",""1676""
","
","","","","","","699.9000000003725","images/train4.png","","","memory_trial","1","definitely_old","","","","","","",""
"html-keyboard-response","272","541956","0.0-15.0-0.114","1636","2","""event"",""trial"",""time""
""fullscreenenter"",""1"",""1676""
","
","
","""event"",""trial"",""time""
""fullscreenenter"",""1"",""1676""
","
","","","","","","null","<div style=""font-size:60px;"">+</div>","null","","fixation","","","","","","","","",""
"memory-trial","273","544009","0.0-15.0-1.114","1636","2","""event"",""trial"",""time""
""fullscreenenter"",""1"",""1676""
","
","
","""event"",""trial"",""time""
""fullscreenenter"",""1"",""1676""
","
","","","","","","1046","images/table4.png","","","memory_trial","1","definitely_old","","","","","","",""
"html-keyboard-response","274","544514","0.0-15.0-0.115","1636","2","""event"",""trial"",""time""
""fullscreenenter"",""1"",""1676""
","
","
","""event"",""trial"",""time""
""fullscreenenter"",""1"",""1676""
","
","","","","","","null","<div style=""font-size:60px;"">+</div>","null","","fixation","","","","","","","","",""
"memory-trial","275","546196","0.0-15.0-1.115","1636","2","""event"",""trial"",""time""
""fullscreenenter"",""1"",""1676""
","
","
","""event"",""trial"",""time""
""fullscreenenter"",""1"",""1676""
","
","","","","","","677.6999999992549","images/rabbit3.png","","","memory_trial","1","definitely_old","","","","","","",""
"html-keyboard-response","276","546702","0.0-15.0-0.116","1636","2","""event"",""trial"",""time""
""fullscreenenter"",""1"",""1676""
","
","
","""event"",""trial"",""time""
""fullscreenenter"",""1"",""1676""
","
","","","","","","null","<div style=""font-size:60px;"">+</div>","null","","fixation","","","","","","","","",""
"memory-trial","277","548395","0.0-15.0-1.116","1636","2","""event"",""trial"",""time""
""fullscreenenter"",""1"",""1676""
","
","
","""event"",""trial"",""time""
""fullscreenenter"",""1"",""1676""
","
","","","","","","686.8999999985099","images/horse3.png","","","memory_trial","4","definitely_new","","","","","","",""
"html-keyboard-response","278","548900","0.0-15.0-0.117","1636","2","""event"",""trial"",""time""
""fullscreenenter"",""1"",""1676""
","
","
","""event"",""trial"",""time""
""fullscreenenter"",""1"",""1676""
","
","","","","","","null","<div style=""font-size:60px;"">+</div>","null","","fixation","","","","","","","","",""
"memory-trial","279","550836","0.0-15.0-1.117","1636","2","""event"",""trial"",""time""
""fullscreenenter"",""1"",""1676""
","
","
","""event"",""trial"",""time""
""fullscreenenter"",""1"",""1676""
","
","","","","","","930.5999999996275","images/goat4.png","","","memory_trial","4","definitely_new","","","","","","",""
"html-keyboard-response","280","551341","0.0-15.0-0.118","1636","2","""event"",""trial"",""time""
""fullscreenenter"",""1"",""1676""
","
","
","""event"",""trial"",""time""
""fullscreenenter"",""1"",""1676""
","
","","","","","","null","<div style=""font-size:60px;"">+</div>","null","","fixation","","","","","","","","",""
"memory-trial","281","553215","0.0-15.0-1.118","1636","2","""event"",""trial"",""time""
""fullscreenenter"",""1"",""1676""
","
","
","""event"",""trial"",""time""
""fullscreenenter"",""1"",""1676""
","
","","","","","","867.8000000007451","images/bush3.png","","","memory_trial","1","definitely_old","","","","","","",""
"html-keyboard-response","282","553721","0.0-15.0-0.119","1636","2","""event"",""trial"",""time""
""fullscreenenter"",""1"",""1676""
","
","
","""event"",""trial"",""time""
""fullscreenenter"",""1"",""1676""
","
","","","","","","null","<div style=""font-size:60px;"">+</div>","null","","fixation","","","","","","","","",""
"memory-trial","283","555882","0.0-15.0-1.119","1636","2","""event"",""trial"",""time""
""fullscreenenter"",""1"",""1676""
","
","
","""event"",""trial"",""time""
""fullscreenenter"",""1"",""1676""
","
","","","","","","1159.2999999988824","images/cow2.png","","","memory_trial","4","definitely_new","","","","","","",""
"preload","284","560594","0.0-16.0","1636","2","""event"",""trial"",""time""
""fullscreenenter"",""1"",""1676""
","
","
","""event"",""trial"",""time""
""fullscreenenter"",""1"",""1676""
","
","true","false","[]","[]","[]","","","","","","","","","","","","","",""
"learning-instructions","285","567634","0.0-17.0-0.0-0.0-0.0","1636","2","""event"",""trial"",""time""
""fullscreenenter"",""1"",""1676""
","
","
","""event"",""trial"",""time""
""fullscreenenter"",""1"",""1676""
","
","","","","","","2602.199999999255","<p> We're now going to ask you to return your farm animals to barns again. </p>","","0","instructions","","","","","","","","",""
"learning-instructions","286","573873","0.0-17.0-0.0-0.0-0.1","1636","2","""event"",""trial"",""time""
""fullscreenenter"",""1"",""1676""
""blur"",""287"",""721946""
""focus"",""287"",""885053""
","""event"",""trial"",""time""
""blur"",""287"",""721946""
","""event"",""trial"",""time""
""focus"",""287"",""885053""
","""event"",""trial"",""time""
""fullscreenenter"",""1"",""1676""
","
","","","","","","798.2999999988824","<p> On each trial, you will see a farm animal. Select the barn where you think the animal belongs. </p>","","0","instructions","","","","","","","","",""
"learning-instructions","287","888467","0.0-17.0-0.0-0.0-0.2","1636","2","""event"",""trial"",""time""
""fullscreenenter"",""1"",""1676""
""blur"",""287"",""721946""
""focus"",""287"",""885053""
","""event"",""trial"",""time""
""blur"",""287"",""721946""
","""event"",""trial"",""time""
""focus"",""287"",""885053""
","""event"",""trial"",""time""
""fullscreenenter"",""1"",""1676""
","
","","","","","","307535.8999999985","<p> To make your selection, think about what you learned last week. You will NOT receive any feedback about your choice. </p>","","0","instructions","","","","","","","","",""
"learning-instructions","288","903017","0.0-17.0-0.0-0.0-0.3","1636","2","""event"",""trial"",""time""
""fullscreenenter"",""1"",""1676""
""blur"",""287"",""721946""
""focus"",""287"",""885053""
","""event"",""trial"",""time""
""blur"",""287"",""721946""
","""event"",""trial"",""time""
""focus"",""287"",""885053""
","""event"",""trial"",""time""
""fullscreenenter"",""1"",""1676""
","
","","","","","","6421.700000001118","<p> You should use the 1 key to select the barn on the left, the 2 key to select the barn in the middle, and the 3 key to select the barn on the right. </p><br><div class=""choice-mem-instructions-grid""> <div class=""choice-mem-option""><img src=""images/animals_choice1.png"" class=""choice-mem-option-img"" stage=""instructions"" position=""0"" ><div class=""choice-mem-option-text""> Press ""1."" </div></div><div class=""choice-mem-option""><img src=""images/animals_choice2.png"" class=""choice-mem-option-img"" stage=""instructions"" position=""1"" ><div class=""choice-mem-option-text""> Press ""2."" </div></div><div class=""choice-mem-option""><img src=""images/animals_choice3.png"" class=""choice-mem-option-img"" stage=""instructions"" position=""2"" ><div class=""choice-mem-option-text""> Press ""3."" </div></div></div>","","0","instructions","","","","","","","","",""
"learning-instructions","289","920369","0.0-17.0-0.0-0.0-0.4","1636","2","""event"",""trial"",""time""
""fullscreenenter"",""1"",""1676""
""blur"",""287"",""721946""
""focus"",""287"",""885053""
","""event"",""trial"",""time""
""blur"",""287"",""721946""
","""event"",""trial"",""time""
""focus"",""287"",""885053""
","""event"",""trial"",""time""
""fullscreenenter"",""1"",""1676""
","
","","","","","","11084.89999999851","<p> You will have 10 seconds to make each selection. Try to respond before time runs out! </p>","","0","instructions","","","","","","","","",""
