"trial_type","trial_index","time_elapsed","internal_node_id","subject_id","task_version","interactions","blur_events","focus_events","fullscreenenter_events","fullscreenexit_events","success","timeout","failed_images","failed_audio","failed_video","rt","stimulus","response","button_pressed","task_part","key_press","answer","correct","left_choice","middle_choice","right_choice","choice_positions","option_selected","block"
"pavlovia","0","4","0.0-0.0","1693","2","""event"",""trial"",""time""
""fullscreenenter"",""1"",""2294""
","
","
","""event"",""trial"",""time""
""fullscreenenter"",""1"",""2294""
","
","","","","","","","","","","","","","","","","","","",""
"fullscreen","1","3268","0.0-1.0","1693","2","""event"",""trial"",""time""
""fullscreenenter"",""1"",""2294""
","
","
","""event"",""trial"",""time""
""fullscreenenter"",""1"",""2294""
","
","true","","","","","","","","","","","","","","","","","",""
"preload","2","3917","0.0-2.0","1693","2","""event"",""trial"",""time""
""fullscreenenter"",""1"",""2294""
","
","
","""event"",""trial"",""time""
""fullscreenenter"",""1"",""2294""
","
","true","false","[]","[]","[]","","","","","","","","","","","","","",""
"audio-keyboard-response","3","7099","0.0-3.0","1693","2","""event"",""trial"",""time""
""fullscreenenter"",""1"",""2294""
","
","
","""event"",""trial"",""time""
""fullscreenenter"",""1"",""2294""
","
","","","","","","3181.1337868480728","audio/beep_loop.wav"," ","","","","","","","","","","",""
"audio-button-response","4","8668","0.0-4.0","1693","2","""event"",""trial"",""time""
""fullscreenenter"",""1"",""2294""
","
","
","""event"",""trial"",""time""
""fullscreenenter"",""1"",""2294""
","
","","","","","","1559","audio/turtle.wav","3","","","","","","","","","","",""
"audio-button-response","5","10736","0.0-5.0","1693","2","""event"",""trial"",""time""
""fullscreenenter"",""1"",""2294""
","
","
","""event"",""trial"",""time""
""fullscreenenter"",""1"",""2294""
","
","","","","","","1059","audio/shark.wav","2","","","","","","","","","","",""
"preload","6","14854","0.0-6.0","1693","2","""event"",""trial"",""time""
""fullscreenenter"",""1"",""2294""
","
","
","""event"",""trial"",""time""
""fullscreenenter"",""1"",""2294""
","
","true","false","[]","[]","[]","","","","","","","","","","","","","",""
"learning-instructions","7","22027","0.0-7.0-0.0","1693","2","""event"",""trial"",""time""
""fullscreenenter"",""1"",""2294""
","
","
","""event"",""trial"",""time""
""fullscreenenter"",""1"",""2294""
","
","","","","","","2367.4000000953674","<p> Welcome back! </p><p> Last week, you had to make choices about lots of different items.  </p>","","0","instructions","","","","","","","","",""
"learning-instructions","8","27004","0.0-7.0-0.1","1693","2","""event"",""trial"",""time""
""fullscreenenter"",""1"",""2294""
","
","
","""event"",""trial"",""time""
""fullscreenenter"",""1"",""2294""
","
","","","","","","675.5","<p> Today, we are going to ask you to try to remember all the items. </p>","","0","instructions","","","","","","","","",""
"learning-instructions","9","38145","0.0-7.0-0.2","1693","2","""event"",""trial"",""time""
""fullscreenenter"",""1"",""2294""
","
","
","""event"",""trial"",""time""
""fullscreenenter"",""1"",""2294""
","
","","","","","","1005.9000000953674","<p> On every trial, you will see an image. </p><p> The image may be an OLD image you saw during the games last week or it may be a NEW image that was not presented. </p>","","0","instructions","","","","","","","","",""
"learning-instructions","10","47298","0.0-7.0-0.3","1693","2","""event"",""trial"",""time""
""fullscreenenter"",""1"",""2294""
","
","
","""event"",""trial"",""time""
""fullscreenenter"",""1"",""2294""
","
","","","","","","648.5","<p> You need to select whether the image is:  </p><p>  'Definitely old', 'Maybe old', 'Maybe new', or 'Definitely new.'  </p><div class=""mem-choice-instructions-grid""><div class=""choice-option"" id=""choice-option-1"" ><img src=""images/definitely_old_1.png"" id=""choice-option-img-1"" class=""choice-option-img"" stage=""1""></div><div class=""choice-option"" id=""choice-option-2"" ><img src=""images/maybe_old_1.png"" id=""choice-option-img-2"" class=""choice-option-img"" stage=""1""></div><div class=""choice-option"" id=""choice-option-3"" ><img src=""images/maybe_new_1.png"" id=""choice-option-img-3"" class=""choice-option-img"" stage=""1""></div><div class=""choice-option"" id=""choice-option-4"" > <img src=""images/definitely_new_1.png"" id=""choice-option-img-4"" class=""choice-option-img"" stage=""1""></div></div>","","0","instructions","","","","","","","","",""
"learning-instructions","11","58822","0.0-7.0-0.4","1693","2","""event"",""trial"",""time""
""fullscreenenter"",""1"",""2294""
","
","
","""event"",""trial"",""time""
""fullscreenenter"",""1"",""2294""
","
","","","","","","4812.299999952316","<p> You should use the 1, 2, 3, and 4 keys to make your responses.  </p><div class=""mem-choice-instructions-grid""><div class=""choice-option"" id=""choice-option-1"" ><img src=""images/definitely_old.png"" id=""choice-option-img-1"" class=""choice-option-img"" stage=""1""></div><div class=""choice-option"" id=""choice-option-2"" ><img src=""images/maybe_old.png"" id=""choice-option-img-2"" class=""choice-option-img"" stage=""1""></div><div class=""choice-option"" id=""choice-option-3"" ><img src=""images/maybe_new.png"" id=""choice-option-img-3"" class=""choice-option-img"" stage=""1""></div><div class=""choice-option"" id=""choice-option-4"" > <img src=""images/definitely_new.png"" id=""choice-option-img-4"" class=""choice-option-img"" stage=""1""></div></div>","","0","instructions","","","","","","","","",""
"learning-instructions","12","67164","0.0-7.0-0.5","1693","2","""event"",""trial"",""time""
""fullscreenenter"",""1"",""2294""
","
","
","""event"",""trial"",""time""
""fullscreenenter"",""1"",""2294""
","
","","","","","","1564.8999998569489","<p> You will have 10 seconds to make each response.  </p><p>  Make sure to respond before time runs out! </p>","","0","instructions","","","","","","","","",""
"learning-instructions","13","76138","0.0-7.0-0.6","1693","2","""event"",""trial"",""time""
""fullscreenenter"",""1"",""2294""
","
","
","""event"",""trial"",""time""
""fullscreenenter"",""1"",""2294""
","
","","","","","","1388.5","<p> Today, you will see each image ONCE only.  </p><p>  That means none of the images will repeat. </p>","","0","instructions","","","","","","","","",""
"learning-instructions","14","89859","0.0-7.0-0.7","1693","2","""event"",""trial"",""time""
""fullscreenenter"",""1"",""2294""
","
","
","""event"",""trial"",""time""
""fullscreenenter"",""1"",""2294""
","
","","","","","","1039.2000000476837","<p> Before you play the real game, it is time to practice. </p><p>  Just like in the real game, some of the images in the practice will be ones you have seen before. </p><p>  Others will be entirely new. </p>","","0","instructions","","","","","","","","",""
"html-button-response","15","93315","0.0-8.0","1693","2","""event"",""trial"",""time""
""fullscreenenter"",""1"",""2294""
","
","
","""event"",""trial"",""time""
""fullscreenenter"",""1"",""2294""
","
","","","","","","3335.600000143051","<p> Ready to practice? </p><p> Remember, use the 1, 2, 3, and 4 keys to make your responses. </p>","0","","instructions","","","","","","","","",""
"html-keyboard-response","16","93929","0.0-9.0-0.0","1693","2","""event"",""trial"",""time""
""fullscreenenter"",""1"",""2294""
","
","
","""event"",""trial"",""time""
""fullscreenenter"",""1"",""2294""
","
","","","","","","null","<div style=""font-size:60px;"">+</div>","null","","fixation","","","","","","","","",""
"memory-trial","17","98139","0.0-9.0-1.0","1693","2","""event"",""trial"",""time""
""fullscreenenter"",""1"",""2294""
","
","
","""event"",""trial"",""time""
""fullscreenenter"",""1"",""2294""
","
","","","","","","3201.5999999046326","images/ball2.png","","","practice","1","definitely_old","","","","","","",""
"html-keyboard-response","18","98658","0.0-9.0-0.1","1693","2","""event"",""trial"",""time""
""fullscreenenter"",""1"",""2294""
","
","
","""event"",""trial"",""time""
""fullscreenenter"",""1"",""2294""
","
","","","","","","null","<div style=""font-size:60px;"">+</div>","null","","fixation","","","","","","","","",""
"memory-trial","19","101749","0.0-9.0-1.1","1693","2","""event"",""trial"",""time""
""fullscreenenter"",""1"",""2294""
","
","
","""event"",""trial"",""time""
""fullscreenenter"",""1"",""2294""
","
","","","","","","2072.4000000953674","images/racket2.png","","","practice","4","definitely_new","","","","","","",""
"html-keyboard-response","20","102258","0.0-9.0-0.2","1693","2","""event"",""trial"",""time""
""fullscreenenter"",""1"",""2294""
","
","
","""event"",""trial"",""time""
""fullscreenenter"",""1"",""2294""
","
","","","","","","null","<div style=""font-size:60px;"">+</div>","null","","fixation","","","","","","","","",""
"memory-trial","21","105819","0.0-9.0-1.2","1693","2","""event"",""trial"",""time""
""fullscreenenter"",""1"",""2294""
","
","
","""event"",""trial"",""time""
""fullscreenenter"",""1"",""2294""
","
","","","","","","2553.2000000476837","images/ball1.png","","","practice","1","definitely_old","","","","","","",""
"html-keyboard-response","22","106339","0.0-9.0-0.3","1693","2","""event"",""trial"",""time""
""fullscreenenter"",""1"",""2294""
","
","
","""event"",""trial"",""time""
""fullscreenenter"",""1"",""2294""
","
","","","","","","null","<div style=""font-size:60px;"">+</div>","null","","fixation","","","","","","","","",""
"memory-trial","23","108798","0.0-9.0-1.3","1693","2","""event"",""trial"",""time""
""fullscreenenter"",""1"",""2294""
","
","
","""event"",""trial"",""time""
""fullscreenenter"",""1"",""2294""
","
","","","","","","1441","images/racket3.png","","","practice","1","definitely_old","","","","","","",""
"html-keyboard-response","24","109308","0.0-9.0-0.4","1693","2","""event"",""trial"",""time""
""fullscreenenter"",""1"",""2294""
","
","
","""event"",""trial"",""time""
""fullscreenenter"",""1"",""2294""
","
","","","","","","null","<div style=""font-size:60px;"">+</div>","null","","fixation","","","","","","","","",""
"memory-trial","25","111678","0.0-9.0-1.4","1693","2","""event"",""trial"",""time""
""fullscreenenter"",""1"",""2294""
","
","
","""event"",""trial"",""time""
""fullscreenenter"",""1"",""2294""
","
","","","","","","1366.4000000953674","images/ball4.png","","","practice","2","maybe_old","","","","","","",""
"html-keyboard-response","26","112198","0.0-9.0-0.5","1693","2","""event"",""trial"",""time""
""fullscreenenter"",""1"",""2294""
","
","
","""event"",""trial"",""time""
""fullscreenenter"",""1"",""2294""
","
","","","","","","null","<div style=""font-size:60px;"">+</div>","null","","fixation","","","","","","","","",""
"memory-trial","27","115499","0.0-9.0-1.5","1693","2","""event"",""trial"",""time""
""fullscreenenter"",""1"",""2294""
","
","
","""event"",""trial"",""time""
""fullscreenenter"",""1"",""2294""
","
","","","","","","2296.2000000476837","images/racket1.png","","","practice","3","maybe_new","","","","","","",""
"html-keyboard-response","28","116015","0.0-9.0-0.6","1693","2","""event"",""trial"",""time""
""fullscreenenter"",""1"",""2294""
","
","
","""event"",""trial"",""time""
""fullscreenenter"",""1"",""2294""
","
","","","","","","null","<div style=""font-size:60px;"">+</div>","null","","fixation","","","","","","","","",""
"memory-trial","29","118719","0.0-9.0-1.6","1693","2","""event"",""trial"",""time""
""fullscreenenter"",""1"",""2294""
","
","
","""event"",""trial"",""time""
""fullscreenenter"",""1"",""2294""
","
","","","","","","1693.2000000476837","images/ball3.png","","","practice","4","definitely_new","","","","","","",""
"html-keyboard-response","30","119221","0.0-9.0-0.7","1693","2","""event"",""trial"",""time""
""fullscreenenter"",""1"",""2294""
","
","
","""event"",""trial"",""time""
""fullscreenenter"",""1"",""2294""
","
","","","","","","null","<div style=""font-size:60px;"">+</div>","null","","fixation","","","","","","","","",""
"memory-trial","31","122103","0.0-9.0-1.7","1693","2","""event"",""trial"",""time""
""fullscreenenter"",""1"",""2294""
","
","
","""event"",""trial"",""time""
""fullscreenenter"",""1"",""2294""
","
","","","","","","1875.4000000953674","images/racket4.png","","","practice","2","maybe_old","","","","","","",""
"learning-instructions","32","131159","0.0-10.0-0.0","1693","2","""event"",""trial"",""time""
""fullscreenenter"",""1"",""2294""
","
","
","""event"",""trial"",""time""
""fullscreenenter"",""1"",""2294""
","
","","","","","","1108.4000000953674","<p> Great! You have completed the practice. </p><p> Before you start, we're going to ask you a few questions about how the game works.  </p>","","0","instructions","","","","","","","","",""
"preload","33","133732","0.0-11.0","1693","2","""event"",""trial"",""time""
""fullscreenenter"",""1"",""2294""
","
","
","""event"",""trial"",""time""
""fullscreenenter"",""1"",""2294""
","
","true","false","[]","[]","[]","","","","","","","","","","","","","",""
"comp-q","34","140561","0.0-12.0-0.0","1693","2","""event"",""trial"",""time""
""fullscreenenter"",""1"",""2294""
","
","
","""event"",""trial"",""time""
""fullscreenenter"",""1"",""2294""
","
","","","","","","1000.7999999523163","<p> <b> True or False? </b> </p><p> In this game, you will only see each image once. </p>","","0","comp_question","","","true","","","","","",""
"comp-q","35","147855","0.0-12.0-1.0","1693","2","""event"",""trial"",""time""
""fullscreenenter"",""1"",""2294""
","
","
","""event"",""trial"",""time""
""fullscreenenter"",""1"",""2294""
","
","","","","","","955.4000000953674","<p> <b> That's right! </b> You will see many different images <i> one time each </i> in this game. </p>","","0","comp_answer","","","","","","","","",""
"comp-q","36","154385","0.0-12.0-0.1","1693","2","""event"",""trial"",""time""
""fullscreenenter"",""1"",""2294""
","
","
","""event"",""trial"",""time""
""fullscreenenter"",""1"",""2294""
","
","","","","","","725.2000000476837","<p> <b> True or False? </b> </p><p> You should use the mouse and click to make your response. </p>","","1","comp_question","","","true","","","","","",""
"comp-q","37","162583","0.0-12.0-1.1","1693","2","""event"",""trial"",""time""
""fullscreenenter"",""1"",""2294""
","
","
","""event"",""trial"",""time""
""fullscreenenter"",""1"",""2294""
","
","","","","","","842.7000000476837","<p><b> That's right! </b> You should use the '1', '2', '3', and '4' keys to make your response. </p>","","0","comp_answer","","","","","","","","",""
"comp-q","38","169221","0.0-12.0-0.2","1693","2","""event"",""trial"",""time""
""fullscreenenter"",""1"",""2294""
","
","
","""event"",""trial"",""time""
""fullscreenenter"",""1"",""2294""
","
","","","","","","630.4000000953674","<p> <b> True or False? </b> </p><p> You will have as much time as you want to make each choice. </p>","","1","comp_question","","","true","","","","","",""
"comp-q","39","175510","0.0-12.0-1.2","1693","2","""event"",""trial"",""time""
""fullscreenenter"",""1"",""2294""
","
","
","""event"",""trial"",""time""
""fullscreenenter"",""1"",""2294""
","
","","","","","","889.4000000953674","<p> <b> That's right! </b> You will only have 10 seconds to make each choice. </p>","","0","comp_answer","","","","","","","","",""
"learning-instructions","40","185619","0.0-13.0","1693","2","""event"",""trial"",""time""
""fullscreenenter"",""1"",""2294""
","
","
","""event"",""trial"",""time""
""fullscreenenter"",""1"",""2294""
","
","","","","","","1418.9000000953674","<p> Great! You are now ready to begin the game. </p><p> Remember, use the 1, 2, 3, and 4 keys to make your responses. </p>","","0","instructions","","","","","","","","",""
"preload","41","191278","0.0-14.0","1693","2","""event"",""trial"",""time""
""fullscreenenter"",""1"",""2294""
","
","
","""event"",""trial"",""time""
""fullscreenenter"",""1"",""2294""
","
","true","false","[]","[]","[]","","","","","","","","","","","","","",""
"html-keyboard-response","42","191789","0.0-15.0-0.0","1693","2","""event"",""trial"",""time""
""fullscreenenter"",""1"",""2294""
","
","
","""event"",""trial"",""time""
""fullscreenenter"",""1"",""2294""
","
","","","","","","null","<div style=""font-size:60px;"">+</div>","null","","fixation","","","","","","","","",""
"memory-trial","43","194908","0.0-15.0-1.0","1693","2","""event"",""trial"",""time""
""fullscreenenter"",""1"",""2294""
","
","
","""event"",""trial"",""time""
""fullscreenenter"",""1"",""2294""
","
","","","","","","2105.7000000476837","images/truck2.png","","","memory_trial","2","maybe_old","","","","","","",""
"html-keyboard-response","44","195418","0.0-15.0-0.1","1693","2","""event"",""trial"",""time""
""fullscreenenter"",""1"",""2294""
","
","
","""event"",""trial"",""time""
""fullscreenenter"",""1"",""2294""
","
","","","","","","null","<div style=""font-size:60px;"">+</div>","null","","fixation","","","","","","","","",""
"memory-trial","45","197738","0.0-15.0-1.1","1693","2","""event"",""trial"",""time""
""fullscreenenter"",""1"",""2294""
","
","
","""event"",""trial"",""time""
""fullscreenenter"",""1"",""2294""
","
","","","","","","1316.8999998569489","images/bed4.png","","","memory_trial","1","definitely_old","","","","","","",""
"html-keyboard-response","46","198258","0.0-15.0-0.2","1693","2","""event"",""trial"",""time""
""fullscreenenter"",""1"",""2294""
","
","
","""event"",""trial"",""time""
""fullscreenenter"",""1"",""2294""
","
","","","","","","null","<div style=""font-size:60px;"">+</div>","null","","fixation","","","","","","","","",""
"memory-trial","47","201469","0.0-15.0-1.2","1693","2","""event"",""trial"",""time""
""fullscreenenter"",""1"",""2294""
","
","
","""event"",""trial"",""time""
""fullscreenenter"",""1"",""2294""
","
","","","","","","2206.2999999523163","images/boat2.png","","","memory_trial","4","definitely_new","","","","","","",""
"html-keyboard-response","48","201988","0.0-15.0-0.3","1693","2","""event"",""trial"",""time""
""fullscreenenter"",""1"",""2294""
","
","
","""event"",""trial"",""time""
""fullscreenenter"",""1"",""2294""
","
","","","","","","null","<div style=""font-size:60px;"">+</div>","null","","fixation","","","","","","","","",""
"memory-trial","49","205439","0.0-15.0-1.3","1693","2","""event"",""trial"",""time""
""fullscreenenter"",""1"",""2294""
","
","
","""event"",""trial"",""time""
""fullscreenenter"",""1"",""2294""
","
","","","","","","2438","images/feline4.png","","","memory_trial","2","maybe_old","","","","","","",""
"html-keyboard-response","50","205948","0.0-15.0-0.4","1693","2","""event"",""trial"",""time""
""fullscreenenter"",""1"",""2294""
","
","
","""event"",""trial"",""time""
""fullscreenenter"",""1"",""2294""
","
","","","","","","null","<div style=""font-size:60px;"">+</div>","null","","fixation","","","","","","","","",""
"memory-trial","51","210478","0.0-15.0-1.4","1693","2","""event"",""trial"",""time""
""fullscreenenter"",""1"",""2294""
","
","
","""event"",""trial"",""time""
""fullscreenenter"",""1"",""2294""
","
","","","","","","3525.600000143051","images/plane3.png","","","memory_trial","2","maybe_old","","","","","","",""
"html-keyboard-response","52","210988","0.0-15.0-0.5","1693","2","""event"",""trial"",""time""
""fullscreenenter"",""1"",""2294""
","
","
","""event"",""trial"",""time""
""fullscreenenter"",""1"",""2294""
","
","","","","","","null","<div style=""font-size:60px;"">+</div>","null","","fixation","","","","","","","","",""
"memory-trial","53","213799","0.0-15.0-1.5","1693","2","""event"",""trial"",""time""
""fullscreenenter"",""1"",""2294""
","
","
","""event"",""trial"",""time""
""fullscreenenter"",""1"",""2294""
","
","","","","","","1798.7000000476837","images/bed5.png","","","memory_trial","2","maybe_old","","","","","","",""
"html-keyboard-response","54","214301","0.0-15.0-0.6","1693","2","""event"",""trial"",""time""
""fullscreenenter"",""1"",""2294""
","
","
","""event"",""trial"",""time""
""fullscreenenter"",""1"",""2294""
","
","","","","","","null","<div style=""font-size:60px;"">+</div>","null","","fixation","","","","","","","","",""
"memory-trial","55","217365","0.0-15.0-1.6","1693","2","""event"",""trial"",""time""
""fullscreenenter"",""1"",""2294""
","
","
","""event"",""trial"",""time""
""fullscreenenter"",""1"",""2294""
","
","","","","","","2061.7000000476837","images/goat5.png","","","memory_trial","3","maybe_new","","","","","","",""
"html-keyboard-response","56","217868","0.0-15.0-0.7","1693","2","""event"",""trial"",""time""
""fullscreenenter"",""1"",""2294""
","
","
","""event"",""trial"",""time""
""fullscreenenter"",""1"",""2294""
","
","","","","","","null","<div style=""font-size:60px;"">+</div>","null","","fixation","","","","","","","","",""
"memory-trial","57","220358","0.0-15.0-1.7","1693","2","""event"",""trial"",""time""
""fullscreenenter"",""1"",""2294""
","
","
","""event"",""trial"",""time""
""fullscreenenter"",""1"",""2294""
","
","","","","","","1487.4000000953674","images/table3.png","","","memory_trial","2","maybe_old","","","","","","",""
"html-keyboard-response","58","220860","0.0-15.0-0.8","1693","2","""event"",""trial"",""time""
""fullscreenenter"",""1"",""2294""
","
","
","""event"",""trial"",""time""
""fullscreenenter"",""1"",""2294""
","
","","","","","","null","<div style=""font-size:60px;"">+</div>","null","","fixation","","","","","","","","",""
"memory-trial","59","223864","0.0-15.0-1.8","1693","2","""event"",""trial"",""time""
""fullscreenenter"",""1"",""2294""
","
","
","""event"",""trial"",""time""
""fullscreenenter"",""1"",""2294""
","
","","","","","","2001.6999998092651","images/sheep2.png","","","memory_trial","2","maybe_old","","","","","","",""
"html-keyboard-response","60","224365","0.0-15.0-0.9","1693","2","""event"",""trial"",""time""
""fullscreenenter"",""1"",""2294""
","
","
","""event"",""trial"",""time""
""fullscreenenter"",""1"",""2294""
","
","","","","","","null","<div style=""font-size:60px;"">+</div>","null","","fixation","","","","","","","","",""
"memory-trial","61","227328","0.0-15.0-1.9","1693","2","""event"",""trial"",""time""
""fullscreenenter"",""1"",""2294""
","
","
","""event"",""trial"",""time""
""fullscreenenter"",""1"",""2294""
","
","","","","","","1960.5","images/dog5.png","","","memory_trial","3","maybe_new","","","","","","",""
"html-keyboard-response","62","227830","0.0-15.0-0.10","1693","2","""event"",""trial"",""time""
""fullscreenenter"",""1"",""2294""
","
","
","""event"",""trial"",""time""
""fullscreenenter"",""1"",""2294""
","
","","","","","","null","<div style=""font-size:60px;"">+</div>","null","","fixation","","","","","","","","",""
"memory-trial","63","230461","0.0-15.0-1.10","1693","2","""event"",""trial"",""time""
""fullscreenenter"",""1"",""2294""
","
","
","""event"",""trial"",""time""
""fullscreenenter"",""1"",""2294""
","
","","","","","","1627.3000001907349","images/train2.png","","","memory_trial","1","definitely_old","","","","","","",""
"html-keyboard-response","64","230962","0.0-15.0-0.11","1693","2","""event"",""trial"",""time""
""fullscreenenter"",""1"",""2294""
","
","
","""event"",""trial"",""time""
""fullscreenenter"",""1"",""2294""
","
","","","","","","null","<div style=""font-size:60px;"">+</div>","null","","fixation","","","","","","","","",""
"memory-trial","65","232904","0.0-15.0-1.11","1693","2","""event"",""trial"",""time""
""fullscreenenter"",""1"",""2294""
","
","
","""event"",""trial"",""time""
""fullscreenenter"",""1"",""2294""
","
","","","","","","939.0999999046326","images/rodent1.png","","","memory_trial","1","definitely_old","","","","","","",""
"html-keyboard-response","66","233405","0.0-15.0-0.12","1693","2","""event"",""trial"",""time""
""fullscreenenter"",""1"",""2294""
","
","
","""event"",""trial"",""time""
""fullscreenenter"",""1"",""2294""
","
","","","","","","null","<div style=""font-size:60px;"">+</div>","null","","fixation","","","","","","","","",""
"memory-trial","67","235465","0.0-15.0-1.12","1693","2","""event"",""trial"",""time""
""fullscreenenter"",""1"",""2294""
","
","
","""event"",""trial"",""time""
""fullscreenenter"",""1"",""2294""
","
","","","","","","1056.7999999523163","images/bush4.png","","","memory_trial","1","definitely_old","","","","","","",""
"html-keyboard-response","68","235966","0.0-15.0-0.13","1693","2","""event"",""trial"",""time""
""fullscreenenter"",""1"",""2294""
","
","
","""event"",""trial"",""time""
""fullscreenenter"",""1"",""2294""
","
","","","","","","null","<div style=""font-size:60px;"">+</div>","null","","fixation","","","","","","","","",""
"memory-trial","69","238396","0.0-15.0-1.13","1693","2","""event"",""trial"",""time""
""fullscreenenter"",""1"",""2294""
","
","
","""event"",""trial"",""time""
""fullscreenenter"",""1"",""2294""
","
","","","","","","1427.2000000476837","images/horse1.png","","","memory_trial","4","definitely_new","","","","","","",""
"html-keyboard-response","70","238898","0.0-15.0-0.14","1693","2","""event"",""trial"",""time""
""fullscreenenter"",""1"",""2294""
","
","
","""event"",""trial"",""time""
""fullscreenenter"",""1"",""2294""
","
","","","","","","null","<div style=""font-size:60px;"">+</div>","null","","fixation","","","","","","","","",""
"memory-trial","71","241126","0.0-15.0-1.14","1693","2","""event"",""trial"",""time""
""fullscreenenter"",""1"",""2294""
","
","
","""event"",""trial"",""time""
""fullscreenenter"",""1"",""2294""
","
","","","","","","1225.3999998569489","images/sheep5.png","","","memory_trial","4","definitely_new","","","","","","",""
"html-keyboard-response","72","241628","0.0-15.0-0.15","1693","2","""event"",""trial"",""time""
""fullscreenenter"",""1"",""2294""
","
","
","""event"",""trial"",""time""
""fullscreenenter"",""1"",""2294""
","
","","","","","","null","<div style=""font-size:60px;"">+</div>","null","","fixation","","","","","","","","",""
"memory-trial","73","244762","0.0-15.0-1.15","1693","2","""event"",""trial"",""time""
""fullscreenenter"",""1"",""2294""
","
","
","""event"",""trial"",""time""
""fullscreenenter"",""1"",""2294""
","
","","","","","","2130.7000000476837","images/bush3.png","","","memory_trial","1","definitely_old","","","","","","",""
"html-keyboard-response","74","245275","0.0-15.0-0.16","1693","2","""event"",""trial"",""time""
""fullscreenenter"",""1"",""2294""
","
","
","""event"",""trial"",""time""
""fullscreenenter"",""1"",""2294""
","
","","","","","","null","<div style=""font-size:60px;"">+</div>","null","","fixation","","","","","","","","",""
"memory-trial","75","247384","0.0-15.0-1.16","1693","2","""event"",""trial"",""time""
""fullscreenenter"",""1"",""2294""
","
","
","""event"",""trial"",""time""
""fullscreenenter"",""1"",""2294""
","
","","","","","","1106.5","images/boat3.png","","","memory_trial","4","definitely_new","","","","","","",""
"html-keyboard-response","76","247886","0.0-15.0-0.17","1693","2","""event"",""trial"",""time""
""fullscreenenter"",""1"",""2294""
","
","
","""event"",""trial"",""time""
""fullscreenenter"",""1"",""2294""
","
","","","","","","null","<div style=""font-size:60px;"">+</div>","null","","fixation","","","","","","","","",""
"memory-trial","77","249929","0.0-15.0-1.17","1693","2","""event"",""trial"",""time""
""fullscreenenter"",""1"",""2294""
","
","
","""event"",""trial"",""time""
""fullscreenenter"",""1"",""2294""
","
","","","","","","1040.5","images/plane2.png","","","memory_trial","4","definitely_new","","","","","","",""
"html-keyboard-response","78","250431","0.0-15.0-0.18","1693","2","""event"",""trial"",""time""
""fullscreenenter"",""1"",""2294""
","
","
","""event"",""trial"",""time""
""fullscreenenter"",""1"",""2294""
","
","","","","","","null","<div style=""font-size:60px;"">+</div>","null","","fixation","","","","","","","","",""
"memory-trial","79","253799","0.0-15.0-1.18","1693","2","""event"",""trial"",""time""
""fullscreenenter"",""1"",""2294""
","
","
","""event"",""trial"",""time""
""fullscreenenter"",""1"",""2294""
","
","","","","","","2365.5","images/cow4.png","","","memory_trial","4","definitely_new","","","","","","",""
"html-keyboard-response","80","254300","0.0-15.0-0.19","1693","2","""event"",""trial"",""time""
""fullscreenenter"",""1"",""2294""
","
","
","""event"",""trial"",""time""
""fullscreenenter"",""1"",""2294""
","
","","","","","","null","<div style=""font-size:60px;"">+</div>","null","","fixation","","","","","","","","",""
"memory-trial","81","258241","0.0-15.0-1.19","1693","2","""event"",""trial"",""time""
""fullscreenenter"",""1"",""2294""
","
","
","""event"",""trial"",""time""
""fullscreenenter"",""1"",""2294""
","
","","","","","","2937","images/banana1.png","","","memory_trial","3","maybe_new","","","","","","",""
"html-keyboard-response","82","258743","0.0-15.0-0.20","1693","2","""event"",""trial"",""time""
""fullscreenenter"",""1"",""2294""
","
","
","""event"",""trial"",""time""
""fullscreenenter"",""1"",""2294""
","
","","","","","","null","<div style=""font-size:60px;"">+</div>","null","","fixation","","","","","","","","",""
"memory-trial","83","261111","0.0-15.0-1.20","1693","2","""event"",""trial"",""time""
""fullscreenenter"",""1"",""2294""
","
","
","""event"",""trial"",""time""
""fullscreenenter"",""1"",""2294""
","
","","","","","","1365.7000000476837","images/flower3.png","","","memory_trial","1","definitely_old","","","","","","",""
"html-keyboard-response","84","261612","0.0-15.0-0.21","1693","2","""event"",""trial"",""time""
""fullscreenenter"",""1"",""2294""
","
","
","""event"",""trial"",""time""
""fullscreenenter"",""1"",""2294""
","
","","","","","","null","<div style=""font-size:60px;"">+</div>","null","","fixation","","","","","","","","",""
"memory-trial","85","263659","0.0-15.0-1.21","1693","2","""event"",""trial"",""time""
""fullscreenenter"",""1"",""2294""
","
","
","""event"",""trial"",""time""
""fullscreenenter"",""1"",""2294""
","
","","","","","","1044.4000000953674","images/dog3.png","","","memory_trial","1","definitely_old","","","","","","",""
"html-keyboard-response","86","264160","0.0-15.0-0.22","1693","2","""event"",""trial"",""time""
""fullscreenenter"",""1"",""2294""
","
","
","""event"",""trial"",""time""
""fullscreenenter"",""1"",""2294""
","
","","","","","","null","<div style=""font-size:60px;"">+</div>","null","","fixation","","","","","","","","",""
"memory-trial","87","267490","0.0-15.0-1.22","1693","2","""event"",""trial"",""time""
""fullscreenenter"",""1"",""2294""
","
","
","""event"",""trial"",""time""
""fullscreenenter"",""1"",""2294""
","
","","","","","","2327.0999999046326","images/goat2.png","","","memory_trial","4","definitely_new","","","","","","",""
"html-keyboard-response","88","267992","0.0-15.0-0.23","1693","2","""event"",""trial"",""time""
""fullscreenenter"",""1"",""2294""
","
","
","""event"",""trial"",""time""
""fullscreenenter"",""1"",""2294""
","
","","","","","","null","<div style=""font-size:60px;"">+</div>","null","","fixation","","","","","","","","",""
"memory-trial","89","270082","0.0-15.0-1.23","1693","2","""event"",""trial"",""time""
""fullscreenenter"",""1"",""2294""
","
","
","""event"",""trial"",""time""
""fullscreenenter"",""1"",""2294""
","
","","","","","","1087.7999999523163","images/truck4.png","","","memory_trial","1","definitely_old","","","","","","",""
"html-keyboard-response","90","270584","0.0-15.0-0.24","1693","2","""event"",""trial"",""time""
""fullscreenenter"",""1"",""2294""
","
","
","""event"",""trial"",""time""
""fullscreenenter"",""1"",""2294""
","
","","","","","","null","<div style=""font-size:60px;"">+</div>","null","","fixation","","","","","","","","",""
"memory-trial","91","272673","0.0-15.0-1.24","1693","2","""event"",""trial"",""time""
""fullscreenenter"",""1"",""2294""
","
","
","""event"",""trial"",""time""
""fullscreenenter"",""1"",""2294""
","
","","","","","","1086.7000000476837","images/orange3.png","","","memory_trial","1","definitely_old","","","","","","",""
"html-keyboard-response","92","273175","0.0-15.0-0.25","1693","2","""event"",""trial"",""time""
""fullscreenenter"",""1"",""2294""
","
","
","""event"",""trial"",""time""
""fullscreenenter"",""1"",""2294""
","
","","","","","","null","<div style=""font-size:60px;"">+</div>","null","","fixation","","","","","","","","",""
"memory-trial","93","275626","0.0-15.0-1.25","1693","2","""event"",""trial"",""time""
""fullscreenenter"",""1"",""2294""
","
","
","""event"",""trial"",""time""
""fullscreenenter"",""1"",""2294""
","
","","","","","","1448.4000000953674","images/cactus5.png","","","memory_trial","3","maybe_new","","","","","","",""
"html-keyboard-response","94","276127","0.0-15.0-0.26","1693","2","""event"",""trial"",""time""
""fullscreenenter"",""1"",""2294""
","
","
","""event"",""trial"",""time""
""fullscreenenter"",""1"",""2294""
","
","","","","","","null","<div style=""font-size:60px;"">+</div>","null","","fixation","","","","","","","","",""
"memory-trial","95","278830","0.0-15.0-1.26","1693","2","""event"",""trial"",""time""
""fullscreenenter"",""1"",""2294""
","
","
","""event"",""trial"",""time""
""fullscreenenter"",""1"",""2294""
","
","","","","","","1700.9000000953674","images/straw2.png","","","memory_trial","2","maybe_old","","","","","","",""
"html-keyboard-response","96","279332","0.0-15.0-0.27","1693","2","""event"",""trial"",""time""
""fullscreenenter"",""1"",""2294""
","
","
","""event"",""trial"",""time""
""fullscreenenter"",""1"",""2294""
","
","","","","","","null","<div style=""font-size:60px;"">+</div>","null","","fixation","","","","","","","","",""
"memory-trial","97","281747","0.0-15.0-1.27","1693","2","""event"",""trial"",""time""
""fullscreenenter"",""1"",""2294""
","
","
","""event"",""trial"",""time""
""fullscreenenter"",""1"",""2294""
","
","","","","","","1411.6999998092651","images/truck3.png","","","memory_trial","2","maybe_old","","","","","","",""
"html-keyboard-response","98","282248","0.0-15.0-0.28","1693","2","""event"",""trial"",""time""
""fullscreenenter"",""1"",""2294""
","
","
","""event"",""trial"",""time""
""fullscreenenter"",""1"",""2294""
","
","","","","","","null","<div style=""font-size:60px;"">+</div>","null","","fixation","","","","","","","","",""
"memory-trial","99","284777","0.0-15.0-1.28","1693","2","""event"",""trial"",""time""
""fullscreenenter"",""1"",""2294""
","
","
","""event"",""trial"",""time""
""fullscreenenter"",""1"",""2294""
","
","","","","","","1525.7999999523163","images/bed1.png","","","memory_trial","1","definitely_old","","","","","","",""
"html-keyboard-response","100","285278","0.0-15.0-0.29","1693","2","""event"",""trial"",""time""
""fullscreenenter"",""1"",""2294""
","
","
","""event"",""trial"",""time""
""fullscreenenter"",""1"",""2294""
","
","","","","","","null","<div style=""font-size:60px;"">+</div>","null","","fixation","","","","","","","","",""
"memory-trial","101","287643","0.0-15.0-1.29","1693","2","""event"",""trial"",""time""
""fullscreenenter"",""1"",""2294""
","
","
","""event"",""trial"",""time""
""fullscreenenter"",""1"",""2294""
","
","","","","","","1362.5","images/sheep4.png","","","memory_trial","3","maybe_new","","","","","","",""
"html-keyboard-response","102","288145","0.0-15.0-0.30","1693","2","""event"",""trial"",""time""
""fullscreenenter"",""1"",""2294""
","
","
","""event"",""trial"",""time""
""fullscreenenter"",""1"",""2294""
","
","","","","","","null","<div style=""font-size:60px;"">+</div>","null","","fixation","","","","","","","","",""
"memory-trial","103","290541","0.0-15.0-1.30","1693","2","""event"",""trial"",""time""
""fullscreenenter"",""1"",""2294""
","
","
","""event"",""trial"",""time""
""fullscreenenter"",""1"",""2294""
","
","","","","","","1393.5","images/bed2.png","","","memory_trial","4","definitely_new","","","","","","",""
"html-keyboard-response","104","291043","0.0-15.0-0.31","1693","2","""event"",""trial"",""time""
""fullscreenenter"",""1"",""2294""
","
","
","""event"",""trial"",""time""
""fullscreenenter"",""1"",""2294""
","
","","","","","","null","<div style=""font-size:60px;"">+</div>","null","","fixation","","","","","","","","",""
"memory-trial","105","293904","0.0-15.0-1.31","1693","2","""event"",""trial"",""time""
""fullscreenenter"",""1"",""2294""
","
","
","""event"",""trial"",""time""
""fullscreenenter"",""1"",""2294""
","
","","","","","","1859.2000000476837","images/banana3.png","","","memory_trial","3","maybe_new","","","","","","",""
"html-keyboard-response","106","294405","0.0-15.0-0.32","1693","2","""event"",""trial"",""time""
""fullscreenenter"",""1"",""2294""
","
","
","""event"",""trial"",""time""
""fullscreenenter"",""1"",""2294""
","
","","","","","","null","<div style=""font-size:60px;"">+</div>","null","","fixation","","","","","","","","",""
"memory-trial","107","297005","0.0-15.0-1.32","1693","2","""event"",""trial"",""time""
""fullscreenenter"",""1"",""2294""
","
","
","""event"",""trial"",""time""
""fullscreenenter"",""1"",""2294""
","
","","","","","","1597.4000000953674","images/dog1.png","","","memory_trial","3","maybe_new","","","","","","",""
"html-keyboard-response","108","297507","0.0-15.0-0.33","1693","2","""event"",""trial"",""time""
""fullscreenenter"",""1"",""2294""
","
","
","""event"",""trial"",""time""
""fullscreenenter"",""1"",""2294""
","
","","","","","","null","<div style=""font-size:60px;"">+</div>","null","","fixation","","","","","","","","",""
"memory-trial","109","299918","0.0-15.0-1.33","1693","2","""event"",""trial"",""time""
""fullscreenenter"",""1"",""2294""
","
","
","""event"",""trial"",""time""
""fullscreenenter"",""1"",""2294""
","
","","","","","","1408.8000001907349","images/bush1.png","","","memory_trial","4","definitely_new","","","","","","",""
"html-keyboard-response","110","300426","0.0-15.0-0.34","1693","2","""event"",""trial"",""time""
""fullscreenenter"",""1"",""2294""
","
","
","""event"",""trial"",""time""
""fullscreenenter"",""1"",""2294""
","
","","","","","","null","<div style=""font-size:60px;"">+</div>","null","","fixation","","","","","","","","",""
"memory-trial","111","302833","0.0-15.0-1.34","1693","2","""event"",""trial"",""time""
""fullscreenenter"",""1"",""2294""
","
","
","""event"",""trial"",""time""
""fullscreenenter"",""1"",""2294""
","
","","","","","","1404.9000000953674","images/orange4.png","","","memory_trial","2","maybe_old","","","","","","",""
"html-keyboard-response","112","303334","0.0-15.0-0.35","1693","2","""event"",""trial"",""time""
""fullscreenenter"",""1"",""2294""
","
","
","""event"",""trial"",""time""
""fullscreenenter"",""1"",""2294""
","
","","","","","","null","<div style=""font-size:60px;"">+</div>","null","","fixation","","","","","","","","",""
"memory-trial","113","305407","0.0-15.0-1.35","1693","2","""event"",""trial"",""time""
""fullscreenenter"",""1"",""2294""
","
","
","""event"",""trial"",""time""
""fullscreenenter"",""1"",""2294""
","
","","","","","","1069.8000001907349","images/rodent2.png","","","memory_trial","1","definitely_old","","","","","","",""
"html-keyboard-response","114","305909","0.0-15.0-0.36","1693","2","""event"",""trial"",""time""
""fullscreenenter"",""1"",""2294""
","
","
","""event"",""trial"",""time""
""fullscreenenter"",""1"",""2294""
","
","","","","","","null","<div style=""font-size:60px;"">+</div>","null","","fixation","","","","","","","","",""
"memory-trial","115","309301","0.0-15.0-1.36","1693","2","""event"",""trial"",""time""
""fullscreenenter"",""1"",""2294""
","
","
","""event"",""trial"",""time""
""fullscreenenter"",""1"",""2294""
","
","","","","","","2389.5","images/boat1.png","","","memory_trial","4","definitely_new","","","","","","",""
"html-keyboard-response","116","309803","0.0-15.0-0.37","1693","2","""event"",""trial"",""time""
""fullscreenenter"",""1"",""2294""
","
","
","""event"",""trial"",""time""
""fullscreenenter"",""1"",""2294""
","
","","","","","","null","<div style=""font-size:60px;"">+</div>","null","","fixation","","","","","","","","",""
"memory-trial","117","312663","0.0-15.0-1.37","1693","2","""event"",""trial"",""time""
""fullscreenenter"",""1"",""2294""
","
","
","""event"",""trial"",""time""
""fullscreenenter"",""1"",""2294""
","
","","","","","","1854.3999998569489","images/plane1.png","","","memory_trial","4","definitely_new","","","","","","",""
"html-keyboard-response","118","313165","0.0-15.0-0.38","1693","2","""event"",""trial"",""time""
""fullscreenenter"",""1"",""2294""
","
","
","""event"",""trial"",""time""
""fullscreenenter"",""1"",""2294""
","
","","","","","","null","<div style=""font-size:60px;"">+</div>","null","","fixation","","","","","","","","",""
"memory-trial","119","316030","0.0-15.0-1.38","1693","2","""event"",""trial"",""time""
""fullscreenenter"",""1"",""2294""
","
","
","""event"",""trial"",""time""
""fullscreenenter"",""1"",""2294""
","
","","","","","","1862.2999999523163","images/table4.png","","","memory_trial","2","maybe_old","","","","","","",""
"html-keyboard-response","120","316532","0.0-15.0-0.39","1693","2","""event"",""trial"",""time""
""fullscreenenter"",""1"",""2294""
","
","
","""event"",""trial"",""time""
""fullscreenenter"",""1"",""2294""
","
","","","","","","null","<div style=""font-size:60px;"">+</div>","null","","fixation","","","","","","","","",""
"memory-trial","121","320243","0.0-15.0-1.39","1693","2","""event"",""trial"",""time""
""fullscreenenter"",""1"",""2294""
","
","
","""event"",""trial"",""time""
""fullscreenenter"",""1"",""2294""
","
","","","","","","2707.5","images/rodent3.png","","","memory_trial","2","maybe_old","","","","","","",""
"html-keyboard-response","122","320744","0.0-15.0-0.40","1693","2","""event"",""trial"",""time""
""fullscreenenter"",""1"",""2294""
","
","
","""event"",""trial"",""time""
""fullscreenenter"",""1"",""2294""
","
","","","","","","null","<div style=""font-size:60px;"">+</div>","null","","fixation","","","","","","","","",""
"memory-trial","123","323444","0.0-15.0-1.40","1693","2","""event"",""trial"",""time""
""fullscreenenter"",""1"",""2294""
","
","
","""event"",""trial"",""time""
""fullscreenenter"",""1"",""2294""
","
","","","","","","1697.3999998569489","images/sofa2.png","","","memory_trial","4","definitely_new","","","","","","",""
"html-keyboard-response","124","323946","0.0-15.0-0.41","1693","2","""event"",""trial"",""time""
""fullscreenenter"",""1"",""2294""
","
","
","""event"",""trial"",""time""
""fullscreenenter"",""1"",""2294""
","
","","","","","","null","<div style=""font-size:60px;"">+</div>","null","","fixation","","","","","","","","",""
"memory-trial","125","326043","0.0-15.0-1.41","1693","2","""event"",""trial"",""time""
""fullscreenenter"",""1"",""2294""
","
","
","""event"",""trial"",""time""
""fullscreenenter"",""1"",""2294""
","
","","","","","","1094.9000000953674","images/rabbit2.png","","","memory_trial","2","maybe_old","","","","","","",""
"html-keyboard-response","126","326545","0.0-15.0-0.42","1693","2","""event"",""trial"",""time""
""fullscreenenter"",""1"",""2294""
","
","
","""event"",""trial"",""time""
""fullscreenenter"",""1"",""2294""
","
","","","","","","null","<div style=""font-size:60px;"">+</div>","null","","fixation","","","","","","","","",""
"memory-trial","127","329190","0.0-15.0-1.42","1693","2","""event"",""trial"",""time""
""fullscreenenter"",""1"",""2294""
","
","
","""event"",""trial"",""time""
""fullscreenenter"",""1"",""2294""
","
","","","","","","1640.7999999523163","images/rodent4.png","","","memory_trial","2","maybe_old","","","","","","",""
"html-keyboard-response","128","329692","0.0-15.0-0.43","1693","2","""event"",""trial"",""time""
""fullscreenenter"",""1"",""2294""
","
","
","""event"",""trial"",""time""
""fullscreenenter"",""1"",""2294""
","
","","","","","","null","<div style=""font-size:60px;"">+</div>","null","","fixation","","","","","","","","",""
"memory-trial","129","331668","0.0-15.0-1.43","1693","2","""event"",""trial"",""time""
""fullscreenenter"",""1"",""2294""
","
","
","""event"",""trial"",""time""
""fullscreenenter"",""1"",""2294""
","
","","","","","","973.5","images/truck1.png","","","memory_trial","1","definitely_old","","","","","","",""
"html-keyboard-response","130","332170","0.0-15.0-0.44","1693","2","""event"",""trial"",""time""
""fullscreenenter"",""1"",""2294""
","
","
","""event"",""trial"",""time""
""fullscreenenter"",""1"",""2294""
","
","","","","","","null","<div style=""font-size:60px;"">+</div>","null","","fixation","","","","","","","","",""
"memory-trial","131","335792","0.0-15.0-1.44","1693","2","""event"",""trial"",""time""
""fullscreenenter"",""1"",""2294""
","
","
","""event"",""trial"",""time""
""fullscreenenter"",""1"",""2294""
","
","","","","","","2619","images/sofa5.png","","","memory_trial","4","definitely_new","","","","","","",""
"html-keyboard-response","132","336294","0.0-15.0-0.45","1693","2","""event"",""trial"",""time""
""fullscreenenter"",""1"",""2294""
","
","
","""event"",""trial"",""time""
""fullscreenenter"",""1"",""2294""
","
","","","","","","null","<div style=""font-size:60px;"">+</div>","null","","fixation","","","","","","","","",""
"memory-trial","133","339295","0.0-15.0-1.45","1693","2","""event"",""trial"",""time""
""fullscreenenter"",""1"",""2294""
","
","
","""event"",""trial"",""time""
""fullscreenenter"",""1"",""2294""
","
","","","","","","1997.6999998092651","images/cow1.png","","","memory_trial","3","maybe_new","","","","","","",""
"html-keyboard-response","134","339797","0.0-15.0-0.46","1693","2","""event"",""trial"",""time""
""fullscreenenter"",""1"",""2294""
","
","
","""event"",""trial"",""time""
""fullscreenenter"",""1"",""2294""
","
","","","","","","null","<div style=""font-size:60px;"">+</div>","null","","fixation","","","","","","","","",""
"memory-trial","135","344265","0.0-15.0-1.46","1693","2","""event"",""trial"",""time""
""fullscreenenter"",""1"",""2294""
","
","
","""event"",""trial"",""time""
""fullscreenenter"",""1"",""2294""
","
","","","","","","3465.2000000476837","images/plane5.png","","","memory_trial","2","maybe_old","","","","","","",""
"html-button-response","136","346752","0.0-15.0-2.46-0.46","1693","2","""event"",""trial"",""time""
""fullscreenenter"",""1"",""2294""
","
","
","""event"",""trial"",""time""
""fullscreenenter"",""1"",""2294""
","
","","","","","","2486.7000000476837","<p> Take a break! </p><p> Click the button to continue. </p>","0","","break","","","","","","","","",""
"html-keyboard-response","137","347253","0.0-15.0-0.47","1693","2","""event"",""trial"",""time""
""fullscreenenter"",""1"",""2294""
","
","
","""event"",""trial"",""time""
""fullscreenenter"",""1"",""2294""
","
","","","","","","null","<div style=""font-size:60px;"">+</div>","null","","fixation","","","","","","","","",""
"memory-trial","138","351932","0.0-15.0-1.47","1693","2","""event"",""trial"",""time""
""fullscreenenter"",""1"",""2294""
","
","
","""event"",""trial"",""time""
""fullscreenenter"",""1"",""2294""
","
","","","","","","3676.4000000953674","images/flower1.png","","","memory_trial","3","maybe_new","","","","","","",""
"html-keyboard-response","139","352435","0.0-15.0-0.48","1693","2","""event"",""trial"",""time""
""fullscreenenter"",""1"",""2294""
","
","
","""event"",""trial"",""time""
""fullscreenenter"",""1"",""2294""
","
","","","","","","null","<div style=""font-size:60px;"">+</div>","null","","fixation","","","","","","","","",""
"memory-trial","140","354549","0.0-15.0-1.48","1693","2","""event"",""trial"",""time""
""fullscreenenter"",""1"",""2294""
","
","
","""event"",""trial"",""time""
""fullscreenenter"",""1"",""2294""
","
","","","","","","1111.5999999046326","images/chair3.png","","","memory_trial","3","maybe_new","","","","","","",""
"html-keyboard-response","141","355051","0.0-15.0-0.49","1693","2","""event"",""trial"",""time""
""fullscreenenter"",""1"",""2294""
","
","
","""event"",""trial"",""time""
""fullscreenenter"",""1"",""2294""
","
","","","","","","null","<div style=""font-size:60px;"">+</div>","null","","fixation","","","","","","","","",""
"memory-trial","142","357392","0.0-15.0-1.49","1693","2","""event"",""trial"",""time""
""fullscreenenter"",""1"",""2294""
","
","
","""event"",""trial"",""time""
""fullscreenenter"",""1"",""2294""
","
","","","","","","1338.2000000476837","images/goat1.png","","","memory_trial","3","maybe_new","","","","","","",""
"html-keyboard-response","143","357893","0.0-15.0-0.50","1693","2","""event"",""trial"",""time""
""fullscreenenter"",""1"",""2294""
","
","
","""event"",""trial"",""time""
""fullscreenenter"",""1"",""2294""
","
","","","","","","null","<div style=""font-size:60px;"">+</div>","null","","fixation","","","","","","","","",""
"memory-trial","144","359878","0.0-15.0-1.50","1693","2","""event"",""trial"",""time""
""fullscreenenter"",""1"",""2294""
","
","
","""event"",""trial"",""time""
""fullscreenenter"",""1"",""2294""
","
","","","","","","974.7999999523163","images/tree1.png","","","memory_trial","4","definitely_new","","","","","","",""
"html-keyboard-response","145","360381","0.0-15.0-0.51","1693","2","""event"",""trial"",""time""
""fullscreenenter"",""1"",""2294""
","
","
","""event"",""trial"",""time""
""fullscreenenter"",""1"",""2294""
","
","","","","","","null","<div style=""font-size:60px;"">+</div>","null","","fixation","","","","","","","","",""
"memory-trial","146","362558","0.0-15.0-1.51","1693","2","""event"",""trial"",""time""
""fullscreenenter"",""1"",""2294""
","
","
","""event"",""trial"",""time""
""fullscreenenter"",""1"",""2294""
","
","","","","","","1174.7000000476837","images/flower5.png","","","memory_trial","4","definitely_new","","","","","","",""
"html-keyboard-response","147","363061","0.0-15.0-0.52","1693","2","""event"",""trial"",""time""
""fullscreenenter"",""1"",""2294""
","
","
","""event"",""trial"",""time""
""fullscreenenter"",""1"",""2294""
","
","","","","","","null","<div style=""font-size:60px;"">+</div>","null","","fixation","","","","","","","","",""
"memory-trial","148","365065","0.0-15.0-1.52","1693","2","""event"",""trial"",""time""
""fullscreenenter"",""1"",""2294""
","
","
","""event"",""trial"",""time""
""fullscreenenter"",""1"",""2294""
","
","","","","","","1001.7999999523163","images/flower4.png","","","memory_trial","1","definitely_old","","","","","","",""
"html-keyboard-response","149","365567","0.0-15.0-0.53","1693","2","""event"",""trial"",""time""
""fullscreenenter"",""1"",""2294""
","
","
","""event"",""trial"",""time""
""fullscreenenter"",""1"",""2294""
","
","","","","","","null","<div style=""font-size:60px;"">+</div>","null","","fixation","","","","","","","","",""
"memory-trial","150","368227","0.0-15.0-1.53","1693","2","""event"",""trial"",""time""
""fullscreenenter"",""1"",""2294""
","
","
","""event"",""trial"",""time""
""fullscreenenter"",""1"",""2294""
","
","","","","","","1657.6000001430511","images/straw1.png","","","memory_trial","2","maybe_old","","","","","","",""
"html-keyboard-response","151","368728","0.0-15.0-0.54","1693","2","""event"",""trial"",""time""
""fullscreenenter"",""1"",""2294""
","
","
","""event"",""trial"",""time""
""fullscreenenter"",""1"",""2294""
","
","","","","","","null","<div style=""font-size:60px;"">+</div>","null","","fixation","","","","","","","","",""
"memory-trial","152","371169","0.0-15.0-1.54","1693","2","""event"",""trial"",""time""
""fullscreenenter"",""1"",""2294""
","
","
","""event"",""trial"",""time""
""fullscreenenter"",""1"",""2294""
","
","","","","","","1437.5999999046326","images/apple1.png","","","memory_trial","2","maybe_old","","","","","","",""
"html-keyboard-response","153","371670","0.0-15.0-0.55","1693","2","""event"",""trial"",""time""
""fullscreenenter"",""1"",""2294""
","
","
","""event"",""trial"",""time""
""fullscreenenter"",""1"",""2294""
","
","","","","","","null","<div style=""font-size:60px;"">+</div>","null","","fixation","","","","","","","","",""
"memory-trial","154","374140","0.0-15.0-1.55","1693","2","""event"",""trial"",""time""
""fullscreenenter"",""1"",""2294""
","
","
","""event"",""trial"",""time""
""fullscreenenter"",""1"",""2294""
","
","","","","","","1467.2000000476837","images/truck5.png","","","memory_trial","3","maybe_new","","","","","","",""
"html-keyboard-response","155","374641","0.0-15.0-0.56","1693","2","""event"",""trial"",""time""
""fullscreenenter"",""1"",""2294""
","
","
","""event"",""trial"",""time""
""fullscreenenter"",""1"",""2294""
","
","","","","","","null","<div style=""font-size:60px;"">+</div>","null","","fixation","","","","","","","","",""
"memory-trial","156","376764","0.0-15.0-1.56","1693","2","""event"",""trial"",""time""
""fullscreenenter"",""1"",""2294""
","
","
","""event"",""trial"",""time""
""fullscreenenter"",""1"",""2294""
","
","","","","","","1119.7000000476837","images/feline5.png","","","memory_trial","4","definitely_new","","","","","","",""
"html-keyboard-response","157","377266","0.0-15.0-0.57","1693","2","""event"",""trial"",""time""
""fullscreenenter"",""1"",""2294""
","
","
","""event"",""trial"",""time""
""fullscreenenter"",""1"",""2294""
","
","","","","","","null","<div style=""font-size:60px;"">+</div>","null","","fixation","","","","","","","","",""
"memory-trial","158","379718","0.0-15.0-1.57","1693","2","""event"",""trial"",""time""
""fullscreenenter"",""1"",""2294""
","
","
","""event"",""trial"",""time""
""fullscreenenter"",""1"",""2294""
","
","","","","","","1450.3000001907349","images/goat4.png","","","memory_trial","2","maybe_old","","","","","","",""
"html-keyboard-response","159","380220","0.0-15.0-0.58","1693","2","""event"",""trial"",""time""
""fullscreenenter"",""1"",""2294""
","
","
","""event"",""trial"",""time""
""fullscreenenter"",""1"",""2294""
","
","","","","","","null","<div style=""font-size:60px;"">+</div>","null","","fixation","","","","","","","","",""
"memory-trial","160","382857","0.0-15.0-1.58","1693","2","""event"",""trial"",""time""
""fullscreenenter"",""1"",""2294""
","
","
","""event"",""trial"",""time""
""fullscreenenter"",""1"",""2294""
","
","","","","","","1635.5","images/boat4.png","","","memory_trial","4","definitely_new","","","","","","",""
"html-keyboard-response","161","383359","0.0-15.0-0.59","1693","2","""event"",""trial"",""time""
""fullscreenenter"",""1"",""2294""
","
","
","""event"",""trial"",""time""
""fullscreenenter"",""1"",""2294""
","
","","","","","","null","<div style=""font-size:60px;"">+</div>","null","","fixation","","","","","","","","",""
"memory-trial","162","385438","0.0-15.0-1.59","1693","2","""event"",""trial"",""time""
""fullscreenenter"",""1"",""2294""
","
","
","""event"",""trial"",""time""
""fullscreenenter"",""1"",""2294""
","
","","","","","","1077.2000000476837","images/bed3.png","","","memory_trial","3","maybe_new","","","","","","",""
"html-keyboard-response","163","385940","0.0-15.0-0.60","1693","2","""event"",""trial"",""time""
""fullscreenenter"",""1"",""2294""
","
","
","""event"",""trial"",""time""
""fullscreenenter"",""1"",""2294""
","
","","","","","","null","<div style=""font-size:60px;"">+</div>","null","","fixation","","","","","","","","",""
"memory-trial","164","387817","0.0-15.0-1.60","1693","2","""event"",""trial"",""time""
""fullscreenenter"",""1"",""2294""
","
","
","""event"",""trial"",""time""
""fullscreenenter"",""1"",""2294""
","
","","","","","","875.5","images/boat5.png","","","memory_trial","3","maybe_new","","","","","","",""
"html-keyboard-response","165","388321","0.0-15.0-0.61","1693","2","""event"",""trial"",""time""
""fullscreenenter"",""1"",""2294""
","
","
","""event"",""trial"",""time""
""fullscreenenter"",""1"",""2294""
","
","","","","","","null","<div style=""font-size:60px;"">+</div>","null","","fixation","","","","","","","","",""
"memory-trial","166","390516","0.0-15.0-1.61","1693","2","""event"",""trial"",""time""
""fullscreenenter"",""1"",""2294""
","
","
","""event"",""trial"",""time""
""fullscreenenter"",""1"",""2294""
","
","","","","","","1191.6000001430511","images/orange5.png","","","memory_trial","1","definitely_old","","","","","","",""
"html-keyboard-response","167","391017","0.0-15.0-0.62","1693","2","""event"",""trial"",""time""
""fullscreenenter"",""1"",""2294""
","
","
","""event"",""trial"",""time""
""fullscreenenter"",""1"",""2294""
","
","","","","","","null","<div style=""font-size:60px;"">+</div>","null","","fixation","","","","","","","","",""
"memory-trial","168","394616","0.0-15.0-1.62","1693","2","""event"",""trial"",""time""
""fullscreenenter"",""1"",""2294""
","
","
","""event"",""trial"",""time""
""fullscreenenter"",""1"",""2294""
","
","","","","","","2597","images/train1.png","","","memory_trial","1","definitely_old","","","","","","",""
"html-keyboard-response","169","395117","0.0-15.0-0.63","1693","2","""event"",""trial"",""time""
""fullscreenenter"",""1"",""2294""
","
","
","""event"",""trial"",""time""
""fullscreenenter"",""1"",""2294""
","
","","","","","","null","<div style=""font-size:60px;"">+</div>","null","","fixation","","","","","","","","",""
"memory-trial","170","397286","0.0-15.0-1.63","1693","2","""event"",""trial"",""time""
""fullscreenenter"",""1"",""2294""
","
","
","""event"",""trial"",""time""
""fullscreenenter"",""1"",""2294""
","
","","","","","","1165.6000001430511","images/apple3.png","","","memory_trial","3","maybe_new","","","","","","",""
"html-keyboard-response","171","397788","0.0-15.0-0.64","1693","2","""event"",""trial"",""time""
""fullscreenenter"",""1"",""2294""
","
","
","""event"",""trial"",""time""
""fullscreenenter"",""1"",""2294""
","
","","","","","","null","<div style=""font-size:60px;"">+</div>","null","","fixation","","","","","","","","",""
"memory-trial","172","400567","0.0-15.0-1.64","1693","2","""event"",""trial"",""time""
""fullscreenenter"",""1"",""2294""
","
","
","""event"",""trial"",""time""
""fullscreenenter"",""1"",""2294""
","
","","","","","","1777.2999999523163","images/sofa4.png","","","memory_trial","4","definitely_new","","","","","","",""
"html-keyboard-response","173","401069","0.0-15.0-0.65","1693","2","""event"",""trial"",""time""
""fullscreenenter"",""1"",""2294""
","
","
","""event"",""trial"",""time""
""fullscreenenter"",""1"",""2294""
","
","","","","","","null","<div style=""font-size:60px;"">+</div>","null","","fixation","","","","","","","","",""
"memory-trial","174","403489","0.0-15.0-1.65","1693","2","""event"",""trial"",""time""
""fullscreenenter"",""1"",""2294""
","
","
","""event"",""trial"",""time""
""fullscreenenter"",""1"",""2294""
","
","","","","","","1417.3999998569489","images/flower2.png","","","memory_trial","2","maybe_old","","","","","","",""
"html-keyboard-response","175","403991","0.0-15.0-0.66","1693","2","""event"",""trial"",""time""
""fullscreenenter"",""1"",""2294""
","
","
","""event"",""trial"",""time""
""fullscreenenter"",""1"",""2294""
","
","","","","","","null","<div style=""font-size:60px;"">+</div>","null","","fixation","","","","","","","","",""
"memory-trial","176","406430","0.0-15.0-1.66","1693","2","""event"",""trial"",""time""
""fullscreenenter"",""1"",""2294""
","
","
","""event"",""trial"",""time""
""fullscreenenter"",""1"",""2294""
","
","","","","","","1435.0999999046326","images/banana2.png","","","memory_trial","3","maybe_new","","","","","","",""
"html-keyboard-response","177","406931","0.0-15.0-0.67","1693","2","""event"",""trial"",""time""
""fullscreenenter"",""1"",""2294""
","
","
","""event"",""trial"",""time""
""fullscreenenter"",""1"",""2294""
","
","","","","","","null","<div style=""font-size:60px;"">+</div>","null","","fixation","","","","","","","","",""
"memory-trial","178","410302","0.0-15.0-1.67","1693","2","""event"",""trial"",""time""
""fullscreenenter"",""1"",""2294""
","
","
","""event"",""trial"",""time""
""fullscreenenter"",""1"",""2294""
","
","","","","","","2368.7000000476837","images/plane4.png","","","memory_trial","3","maybe_new","","","","","","",""
"html-keyboard-response","179","410804","0.0-15.0-0.68","1693","2","""event"",""trial"",""time""
""fullscreenenter"",""1"",""2294""
","
","
","""event"",""trial"",""time""
""fullscreenenter"",""1"",""2294""
","
","","","","","","null","<div style=""font-size:60px;"">+</div>","null","","fixation","","","","","","","","",""
"memory-trial","180","412872","0.0-15.0-1.68","1693","2","""event"",""trial"",""time""
""fullscreenenter"",""1"",""2294""
","
","
","""event"",""trial"",""time""
""fullscreenenter"",""1"",""2294""
","
","","","","","","1064.8999998569489","images/rabbit1.png","","","memory_trial","1","definitely_old","","","","","","",""
"html-keyboard-response","181","413374","0.0-15.0-0.69","1693","2","""event"",""trial"",""time""
""fullscreenenter"",""1"",""2294""
","
","
","""event"",""trial"",""time""
""fullscreenenter"",""1"",""2294""
","
","","","","","","null","<div style=""font-size:60px;"">+</div>","null","","fixation","","","","","","","","",""
"memory-trial","182","415501","0.0-15.0-1.69","1693","2","""event"",""trial"",""time""
""fullscreenenter"",""1"",""2294""
","
","
","""event"",""trial"",""time""
""fullscreenenter"",""1"",""2294""
","
","","","","","","1123.5999999046326","images/straw5.png","","","memory_trial","1","definitely_old","","","","","","",""
"html-keyboard-response","183","416002","0.0-15.0-0.70","1693","2","""event"",""trial"",""time""
""fullscreenenter"",""1"",""2294""
","
","
","""event"",""trial"",""time""
""fullscreenenter"",""1"",""2294""
","
","","","","","","null","<div style=""font-size:60px;"">+</div>","null","","fixation","","","","","","","","",""
"memory-trial","184","418183","0.0-15.0-1.70","1693","2","""event"",""trial"",""time""
""fullscreenenter"",""1"",""2294""
","
","
","""event"",""trial"",""time""
""fullscreenenter"",""1"",""2294""
","
","","","","","","1178.2999999523163","images/horse3.png","","","memory_trial","2","maybe_old","","","","","","",""
"html-keyboard-response","185","418685","0.0-15.0-0.71","1693","2","""event"",""trial"",""time""
""fullscreenenter"",""1"",""2294""
","
","
","""event"",""trial"",""time""
""fullscreenenter"",""1"",""2294""
","
","","","","","","null","<div style=""font-size:60px;"">+</div>","null","","fixation","","","","","","","","",""
"memory-trial","186","421058","0.0-15.0-1.71","1693","2","""event"",""trial"",""time""
""fullscreenenter"",""1"",""2294""
","
","
","""event"",""trial"",""time""
""fullscreenenter"",""1"",""2294""
","
","","","","","","1369","images/goat3.png","","","memory_trial","1","definitely_old","","","","","","",""
"html-keyboard-response","187","421560","0.0-15.0-0.72","1693","2","""event"",""trial"",""time""
""fullscreenenter"",""1"",""2294""
","
","
","""event"",""trial"",""time""
""fullscreenenter"",""1"",""2294""
","
","","","","","","null","<div style=""font-size:60px;"">+</div>","null","","fixation","","","","","","","","",""
"memory-trial","188","423614","0.0-15.0-1.72","1693","2","""event"",""trial"",""time""
""fullscreenenter"",""1"",""2294""
","
","
","""event"",""trial"",""time""
""fullscreenenter"",""1"",""2294""
","
","","","","","","1052.2999999523163","images/cactus1.png","","","memory_trial","1","definitely_old","","","","","","",""
"html-keyboard-response","189","424116","0.0-15.0-0.73","1693","2","""event"",""trial"",""time""
""fullscreenenter"",""1"",""2294""
","
","
","""event"",""trial"",""time""
""fullscreenenter"",""1"",""2294""
","
","","","","","","null","<div style=""font-size:60px;"">+</div>","null","","fixation","","","","","","","","",""
"memory-trial","190","426063","0.0-15.0-1.73","1693","2","""event"",""trial"",""time""
""fullscreenenter"",""1"",""2294""
","
","
","""event"",""trial"",""time""
""fullscreenenter"",""1"",""2294""
","
","","","","","","944.2999999523163","images/feline3.png","","","memory_trial","4","definitely_new","","","","","","",""
"html-keyboard-response","191","426564","0.0-15.0-0.74","1693","2","""event"",""trial"",""time""
""fullscreenenter"",""1"",""2294""
","
","
","""event"",""trial"",""time""
""fullscreenenter"",""1"",""2294""
","
","","","","","","null","<div style=""font-size:60px;"">+</div>","null","","fixation","","","","","","","","",""
"memory-trial","192","429038","0.0-15.0-1.74","1693","2","""event"",""trial"",""time""
""fullscreenenter"",""1"",""2294""
","
","
","""event"",""trial"",""time""
""fullscreenenter"",""1"",""2294""
","
","","","","","","1472.2000000476837","images/chair5.png","","","memory_trial","2","maybe_old","","","","","","",""
"html-keyboard-response","193","429540","0.0-15.0-0.75","1693","2","""event"",""trial"",""time""
""fullscreenenter"",""1"",""2294""
","
","
","""event"",""trial"",""time""
""fullscreenenter"",""1"",""2294""
","
","","","","","","null","<div style=""font-size:60px;"">+</div>","null","","fixation","","","","","","","","",""
"memory-trial","194","432561","0.0-15.0-1.75","1693","2","""event"",""trial"",""time""
""fullscreenenter"",""1"",""2294""
","
","
","""event"",""trial"",""time""
""fullscreenenter"",""1"",""2294""
","
","","","","","","2017.8999998569489","images/train3.png","","","memory_trial","3","maybe_new","","","","","","",""
"html-keyboard-response","195","433063","0.0-15.0-0.76","1693","2","""event"",""trial"",""time""
""fullscreenenter"",""1"",""2294""
","
","
","""event"",""trial"",""time""
""fullscreenenter"",""1"",""2294""
","
","","","","","","null","<div style=""font-size:60px;"">+</div>","null","","fixation","","","","","","","","",""
"memory-trial","196","435297","0.0-15.0-1.76","1693","2","""event"",""trial"",""time""
""fullscreenenter"",""1"",""2294""
","
","
","""event"",""trial"",""time""
""fullscreenenter"",""1"",""2294""
","
","","","","","","1231.2000000476837","images/apple2.png","","","memory_trial","1","definitely_old","","","","","","",""
"html-keyboard-response","197","435799","0.0-15.0-0.77","1693","2","""event"",""trial"",""time""
""fullscreenenter"",""1"",""2294""
","
","
","""event"",""trial"",""time""
""fullscreenenter"",""1"",""2294""
","
","","","","","","null","<div style=""font-size:60px;"">+</div>","null","","fixation","","","","","","","","",""
"memory-trial","198","437986","0.0-15.0-1.77","1693","2","""event"",""trial"",""time""
""fullscreenenter"",""1"",""2294""
","
","
","""event"",""trial"",""time""
""fullscreenenter"",""1"",""2294""
","
","","","","","","1183.4000000953674","images/feline2.png","","","memory_trial","4","definitely_new","","","","","","",""
"html-keyboard-response","199","438494","0.0-15.0-0.78","1693","2","""event"",""trial"",""time""
""fullscreenenter"",""1"",""2294""
","
","
","""event"",""trial"",""time""
""fullscreenenter"",""1"",""2294""
","
","","","","","","null","<div style=""font-size:60px;"">+</div>","null","","fixation","","","","","","","","",""
"memory-trial","200","440594","0.0-15.0-1.78","1693","2","""event"",""trial"",""time""
""fullscreenenter"",""1"",""2294""
","
","
","""event"",""trial"",""time""
""fullscreenenter"",""1"",""2294""
","
","","","","","","1097.0999999046326","images/straw3.png","","","memory_trial","2","maybe_old","","","","","","",""
"html-keyboard-response","201","441095","0.0-15.0-0.79","1693","2","""event"",""trial"",""time""
""fullscreenenter"",""1"",""2294""
","
","
","""event"",""trial"",""time""
""fullscreenenter"",""1"",""2294""
","
","","","","","","null","<div style=""font-size:60px;"">+</div>","null","","fixation","","","","","","","","",""
"memory-trial","202","443553","0.0-15.0-1.79","1693","2","""event"",""trial"",""time""
""fullscreenenter"",""1"",""2294""
","
","
","""event"",""trial"",""time""
""fullscreenenter"",""1"",""2294""
","
","","","","","","1455.2000000476837","images/table1.png","","","memory_trial","2","maybe_old","","","","","","",""
"html-keyboard-response","203","444056","0.0-15.0-0.80","1693","2","""event"",""trial"",""time""
""fullscreenenter"",""1"",""2294""
","
","
","""event"",""trial"",""time""
""fullscreenenter"",""1"",""2294""
","
","","","","","","null","<div style=""font-size:60px;"">+</div>","null","","fixation","","","","","","","","",""
"memory-trial","204","445909","0.0-15.0-1.80","1693","2","""event"",""trial"",""time""
""fullscreenenter"",""1"",""2294""
","
","
","""event"",""trial"",""time""
""fullscreenenter"",""1"",""2294""
","
","","","","","","850.7999999523163","images/rabbit4.png","","","memory_trial","1","definitely_old","","","","","","",""
"html-keyboard-response","205","446412","0.0-15.0-0.81","1693","2","""event"",""trial"",""time""
""fullscreenenter"",""1"",""2294""
","
","
","""event"",""trial"",""time""
""fullscreenenter"",""1"",""2294""
","
","","","","","","null","<div style=""font-size:60px;"">+</div>","null","","fixation","","","","","","","","",""
"memory-trial","206","448260","0.0-15.0-1.81","1693","2","""event"",""trial"",""time""
""fullscreenenter"",""1"",""2294""
","
","
","""event"",""trial"",""time""
""fullscreenenter"",""1"",""2294""
","
","","","","","","845.7999999523163","images/tree4.png","","","memory_trial","4","definitely_new","","","","","","",""
"html-keyboard-response","207","448762","0.0-15.0-0.82","1693","2","""event"",""trial"",""time""
""fullscreenenter"",""1"",""2294""
","
","
","""event"",""trial"",""time""
""fullscreenenter"",""1"",""2294""
","
","","","","","","null","<div style=""font-size:60px;"">+</div>","null","","fixation","","","","","","","","",""
"memory-trial","208","451102","0.0-15.0-1.82","1693","2","""event"",""trial"",""time""
""fullscreenenter"",""1"",""2294""
","
","
","""event"",""trial"",""time""
""fullscreenenter"",""1"",""2294""
","
","","","","","","1336","images/train4.png","","","memory_trial","1","definitely_old","","","","","","",""
"html-keyboard-response","209","451603","0.0-15.0-0.83","1693","2","""event"",""trial"",""time""
""fullscreenenter"",""1"",""2294""
","
","
","""event"",""trial"",""time""
""fullscreenenter"",""1"",""2294""
","
","","","","","","null","<div style=""font-size:60px;"">+</div>","null","","fixation","","","","","","","","",""
"memory-trial","210","454175","0.0-15.0-1.83","1693","2","""event"",""trial"",""time""
""fullscreenenter"",""1"",""2294""
","
","
","""event"",""trial"",""time""
""fullscreenenter"",""1"",""2294""
","
","","","","","","1569.7000000476837","images/banana4.png","","","memory_trial","4","definitely_new","","","","","","",""
"html-keyboard-response","211","454677","0.0-15.0-0.84","1693","2","""event"",""trial"",""time""
""fullscreenenter"",""1"",""2294""
","
","
","""event"",""trial"",""time""
""fullscreenenter"",""1"",""2294""
","
","","","","","","null","<div style=""font-size:60px;"">+</div>","null","","fixation","","","","","","","","",""
"memory-trial","212","456642","0.0-15.0-1.84","1693","2","""event"",""trial"",""time""
""fullscreenenter"",""1"",""2294""
","
","
","""event"",""trial"",""time""
""fullscreenenter"",""1"",""2294""
","
","","","","","","961.4000000953674","images/chair2.png","","","memory_trial","3","maybe_new","","","","","","",""
"html-keyboard-response","213","457144","0.0-15.0-0.85","1693","2","""event"",""trial"",""time""
""fullscreenenter"",""1"",""2294""
","
","
","""event"",""trial"",""time""
""fullscreenenter"",""1"",""2294""
","
","","","","","","null","<div style=""font-size:60px;"">+</div>","null","","fixation","","","","","","","","",""
"memory-trial","214","459300","0.0-15.0-1.85","1693","2","""event"",""trial"",""time""
""fullscreenenter"",""1"",""2294""
","
","
","""event"",""trial"",""time""
""fullscreenenter"",""1"",""2294""
","
","","","","","","1153.8000001907349","images/horse5.png","","","memory_trial","2","maybe_old","","","","","","",""
"html-keyboard-response","215","459802","0.0-15.0-0.86","1693","2","""event"",""trial"",""time""
""fullscreenenter"",""1"",""2294""
","
","
","""event"",""trial"",""time""
""fullscreenenter"",""1"",""2294""
","
","","","","","","null","<div style=""font-size:60px;"">+</div>","null","","fixation","","","","","","","","",""
"memory-trial","216","461994","0.0-15.0-1.86","1693","2","""event"",""trial"",""time""
""fullscreenenter"",""1"",""2294""
","
","
","""event"",""trial"",""time""
""fullscreenenter"",""1"",""2294""
","
","","","","","","1190.5","images/train5.png","","","memory_trial","1","definitely_old","","","","","","",""
"html-keyboard-response","217","462496","0.0-15.0-0.87","1693","2","""event"",""trial"",""time""
""fullscreenenter"",""1"",""2294""
","
","
","""event"",""trial"",""time""
""fullscreenenter"",""1"",""2294""
","
","","","","","","null","<div style=""font-size:60px;"">+</div>","null","","fixation","","","","","","","","",""
"memory-trial","218","464534","0.0-15.0-1.87","1693","2","""event"",""trial"",""time""
""fullscreenenter"",""1"",""2294""
","
","
","""event"",""trial"",""time""
""fullscreenenter"",""1"",""2294""
","
","","","","","","1035.4000000953674","images/cactus2.png","","","memory_trial","2","maybe_old","","","","","","",""
"html-keyboard-response","219","465036","0.0-15.0-0.88","1693","2","""event"",""trial"",""time""
""fullscreenenter"",""1"",""2294""
","
","
","""event"",""trial"",""time""
""fullscreenenter"",""1"",""2294""
","
","","","","","","null","<div style=""font-size:60px;"">+</div>","null","","fixation","","","","","","","","",""
"memory-trial","220","467130","0.0-15.0-1.88","1693","2","""event"",""trial"",""time""
""fullscreenenter"",""1"",""2294""
","
","
","""event"",""trial"",""time""
""fullscreenenter"",""1"",""2294""
","
","","","","","","1090.0999999046326","images/rabbit5.png","","","memory_trial","4","definitely_new","","","","","","",""
"html-keyboard-response","221","467647","0.0-15.0-0.89","1693","2","""event"",""trial"",""time""
""fullscreenenter"",""1"",""2294""
","
","
","""event"",""trial"",""time""
""fullscreenenter"",""1"",""2294""
","
","","","","","","null","<div style=""font-size:60px;"">+</div>","null","","fixation","","","","","","","","",""
"memory-trial","222","469528","0.0-15.0-1.89","1693","2","""event"",""trial"",""time""
""fullscreenenter"",""1"",""2294""
","
","
","""event"",""trial"",""time""
""fullscreenenter"",""1"",""2294""
","
","","","","","","878.2999999523163","images/rodent5.png","","","memory_trial","1","definitely_old","","","","","","",""
"html-keyboard-response","223","470031","0.0-15.0-0.90","1693","2","""event"",""trial"",""time""
""fullscreenenter"",""1"",""2294""
","
","
","""event"",""trial"",""time""
""fullscreenenter"",""1"",""2294""
","
","","","","","","null","<div style=""font-size:60px;"">+</div>","null","","fixation","","","","","","","","",""
"memory-trial","224","475180","0.0-15.0-1.90","1693","2","""event"",""trial"",""time""
""fullscreenenter"",""1"",""2294""
","
","
","""event"",""trial"",""time""
""fullscreenenter"",""1"",""2294""
","
","","","","","","4147","images/cactus4.png","","","memory_trial","1","definitely_old","","","","","","",""
"html-keyboard-response","225","475682","0.0-15.0-0.91","1693","2","""event"",""trial"",""time""
""fullscreenenter"",""1"",""2294""
","
","
","""event"",""trial"",""time""
""fullscreenenter"",""1"",""2294""
","
","","","","","","null","<div style=""font-size:60px;"">+</div>","null","","fixation","","","","","","","","",""
"memory-trial","226","478465","0.0-15.0-1.91","1693","2","""event"",""trial"",""time""
""fullscreenenter"",""1"",""2294""
","
","
","""event"",""trial"",""time""
""fullscreenenter"",""1"",""2294""
","
","","","","","","1781","images/apple4.png","","","memory_trial","4","definitely_new","","","","","","",""
"html-keyboard-response","227","478966","0.0-15.0-0.92","1693","2","""event"",""trial"",""time""
""fullscreenenter"",""1"",""2294""
","
","
","""event"",""trial"",""time""
""fullscreenenter"",""1"",""2294""
","
","","","","","","null","<div style=""font-size:60px;"">+</div>","null","","fixation","","","","","","","","",""
"memory-trial","228","480890","0.0-15.0-1.92","1693","2","""event"",""trial"",""time""
""fullscreenenter"",""1"",""2294""
","
","
","""event"",""trial"",""time""
""fullscreenenter"",""1"",""2294""
","
","","","","","","921.2000000476837","images/feline1.png","","","memory_trial","4","definitely_new","","","","","","",""
"html-keyboard-response","229","481391","0.0-15.0-0.93","1693","2","""event"",""trial"",""time""
""fullscreenenter"",""1"",""2294""
","
","
","""event"",""trial"",""time""
""fullscreenenter"",""1"",""2294""
","
","","","","","","null","<div style=""font-size:60px;"">+</div>","null","","fixation","","","","","","","","",""
"memory-trial","230","483427","0.0-15.0-1.93","1693","2","""event"",""trial"",""time""
""fullscreenenter"",""1"",""2294""
","
","
","""event"",""trial"",""time""
""fullscreenenter"",""1"",""2294""
","
","","","","","","1033.1000001430511","images/table2.png","","","memory_trial","4","definitely_new","","","","","","",""
"html-keyboard-response","231","483929","0.0-15.0-0.94","1693","2","""event"",""trial"",""time""
""fullscreenenter"",""1"",""2294""
","
","
","""event"",""trial"",""time""
""fullscreenenter"",""1"",""2294""
","
","","","","","","null","<div style=""font-size:60px;"">+</div>","null","","fixation","","","","","","","","",""
"memory-trial","232","487639","0.0-15.0-1.94","1693","2","""event"",""trial"",""time""
""fullscreenenter"",""1"",""2294""
","
","
","""event"",""trial"",""time""
""fullscreenenter"",""1"",""2294""
","
","","","","","","2706.800000190735","images/horse2.png","","","memory_trial","3","maybe_new","","","","","","",""
"html-keyboard-response","233","488141","0.0-15.0-0.95","1693","2","""event"",""trial"",""time""
""fullscreenenter"",""1"",""2294""
","
","
","""event"",""trial"",""time""
""fullscreenenter"",""1"",""2294""
","
","","","","","","null","<div style=""font-size:60px;"">+</div>","null","","fixation","","","","","","","","",""
"memory-trial","234","489964","0.0-15.0-1.95","1693","2","""event"",""trial"",""time""
""fullscreenenter"",""1"",""2294""
","
","
","""event"",""trial"",""time""
""fullscreenenter"",""1"",""2294""
","
","","","","","","820.3000001907349","images/tree2.png","","","memory_trial","4","definitely_new","","","","","","",""
"html-keyboard-response","235","490465","0.0-15.0-0.96","1693","2","""event"",""trial"",""time""
""fullscreenenter"",""1"",""2294""
","
","
","""event"",""trial"",""time""
""fullscreenenter"",""1"",""2294""
","
","","","","","","null","<div style=""font-size:60px;"">+</div>","null","","fixation","","","","","","","","",""
"memory-trial","236","492610","0.0-15.0-1.96","1693","2","""event"",""trial"",""time""
""fullscreenenter"",""1"",""2294""
","
","
","""event"",""trial"",""time""
""fullscreenenter"",""1"",""2294""
","
","","","","","","1143","images/cow5.png","","","memory_trial","1","definitely_old","","","","","","",""
"html-keyboard-response","237","493111","0.0-15.0-0.97","1693","2","""event"",""trial"",""time""
""fullscreenenter"",""1"",""2294""
","
","
","""event"",""trial"",""time""
""fullscreenenter"",""1"",""2294""
","
","","","","","","null","<div style=""font-size:60px;"">+</div>","null","","fixation","","","","","","","","",""
"memory-trial","238","495691","0.0-15.0-1.97","1693","2","""event"",""trial"",""time""
""fullscreenenter"",""1"",""2294""
","
","
","""event"",""trial"",""time""
""fullscreenenter"",""1"",""2294""
","
","","","","","","1578.2000000476837","images/chair1.png","","","memory_trial","3","maybe_new","","","","","","",""
"html-keyboard-response","239","496192","0.0-15.0-0.98","1693","2","""event"",""trial"",""time""
""fullscreenenter"",""1"",""2294""
","
","
","""event"",""trial"",""time""
""fullscreenenter"",""1"",""2294""
","
","","","","","","null","<div style=""font-size:60px;"">+</div>","null","","fixation","","","","","","","","",""
"memory-trial","240","499444","0.0-15.0-1.98","1693","2","""event"",""trial"",""time""
""fullscreenenter"",""1"",""2294""
","
","
","""event"",""trial"",""time""
""fullscreenenter"",""1"",""2294""
","
","","","","","","2248.600000143051","images/cow3.png","","","memory_trial","2","maybe_old","","","","","","",""
"html-keyboard-response","241","499945","0.0-15.0-0.99","1693","2","""event"",""trial"",""time""
""fullscreenenter"",""1"",""2294""
","
","
","""event"",""trial"",""time""
""fullscreenenter"",""1"",""2294""
","
","","","","","","null","<div style=""font-size:60px;"">+</div>","null","","fixation","","","","","","","","",""
"memory-trial","242","502187","0.0-15.0-1.99","1693","2","""event"",""trial"",""time""
""fullscreenenter"",""1"",""2294""
","
","
","""event"",""trial"",""time""
""fullscreenenter"",""1"",""2294""
","
","","","","","","1239.4000000953674","images/sheep1.png","","","memory_trial","3","maybe_new","","","","","","",""
"html-keyboard-response","243","502690","0.0-15.0-0.100","1693","2","""event"",""trial"",""time""
""fullscreenenter"",""1"",""2294""
","
","
","""event"",""trial"",""time""
""fullscreenenter"",""1"",""2294""
","
","","","","","","null","<div style=""font-size:60px;"">+</div>","null","","fixation","","","","","","","","",""
"memory-trial","244","505125","0.0-15.0-1.100","1693","2","""event"",""trial"",""time""
""fullscreenenter"",""1"",""2294""
","
","
","""event"",""trial"",""time""
""fullscreenenter"",""1"",""2294""
","
","","","","","","1432.7999999523163","images/rabbit3.png","","","memory_trial","1","definitely_old","","","","","","",""
"html-keyboard-response","245","505628","0.0-15.0-0.101","1693","2","""event"",""trial"",""time""
""fullscreenenter"",""1"",""2294""
","
","
","""event"",""trial"",""time""
""fullscreenenter"",""1"",""2294""
","
","","","","","","null","<div style=""font-size:60px;"">+</div>","null","","fixation","","","","","","","","",""
"memory-trial","246","508705","0.0-15.0-1.101","1693","2","""event"",""trial"",""time""
""fullscreenenter"",""1"",""2294""
","
","
","""event"",""trial"",""time""
""fullscreenenter"",""1"",""2294""
","
","","","","","","2074.5","images/bush2.png","","","memory_trial","2","maybe_old","","","","","","",""
"html-button-response","247","510893","0.0-15.0-2.101-0.101","1693","2","""event"",""trial"",""time""
""fullscreenenter"",""1"",""2294""
","
","
","""event"",""trial"",""time""
""fullscreenenter"",""1"",""2294""
","
","","","","","","2186.5","<p> Take a break! </p><p> Click the button to continue. </p>","0","","break","","","","","","","","",""
"html-keyboard-response","248","511394","0.0-15.0-0.102","1693","2","""event"",""trial"",""time""
""fullscreenenter"",""1"",""2294""
","
","
","""event"",""trial"",""time""
""fullscreenenter"",""1"",""2294""
","
","","","","","","null","<div style=""font-size:60px;"">+</div>","null","","fixation","","","","","","","","",""
"memory-trial","249","513430","0.0-15.0-1.102","1693","2","""event"",""trial"",""time""
""fullscreenenter"",""1"",""2294""
","
","
","""event"",""trial"",""time""
""fullscreenenter"",""1"",""2294""
","
","","","","","","1032.5","images/apple5.png","","","memory_trial","4","definitely_new","","","","","","",""
"html-keyboard-response","250","513932","0.0-15.0-0.103","1693","2","""event"",""trial"",""time""
""fullscreenenter"",""1"",""2294""
","
","
","""event"",""trial"",""time""
""fullscreenenter"",""1"",""2294""
","
","","","","","","null","<div style=""font-size:60px;"">+</div>","null","","fixation","","","","","","","","",""
"memory-trial","251","516206","0.0-15.0-1.103","1693","2","""event"",""trial"",""time""
""fullscreenenter"",""1"",""2294""
","
","
","""event"",""trial"",""time""
""fullscreenenter"",""1"",""2294""
","
","","","","","","1272.2999999523163","images/table5.png","","","memory_trial","2","maybe_old","","","","","","",""
"html-keyboard-response","252","516708","0.0-15.0-0.104","1693","2","""event"",""trial"",""time""
""fullscreenenter"",""1"",""2294""
","
","
","""event"",""trial"",""time""
""fullscreenenter"",""1"",""2294""
","
","","","","","","null","<div style=""font-size:60px;"">+</div>","null","","fixation","","","","","","","","",""
"memory-trial","253","518903","0.0-15.0-1.104","1693","2","""event"",""trial"",""time""
""fullscreenenter"",""1"",""2294""
","
","
","""event"",""trial"",""time""
""fullscreenenter"",""1"",""2294""
","
","","","","","","1191.6000001430511","images/dog2.png","","","memory_trial","4","definitely_new","","","","","","",""
"html-keyboard-response","254","519404","0.0-15.0-0.105","1693","2","""event"",""trial"",""time""
""fullscreenenter"",""1"",""2294""
","
","
","""event"",""trial"",""time""
""fullscreenenter"",""1"",""2294""
","
","","","","","","null","<div style=""font-size:60px;"">+</div>","null","","fixation","","","","","","","","",""
"memory-trial","255","521115","0.0-15.0-1.105","1693","2","""event"",""trial"",""time""
""fullscreenenter"",""1"",""2294""
","
","
","""event"",""trial"",""time""
""fullscreenenter"",""1"",""2294""
","
","","","","","","708.1999998092651","images/tree5.png","","","memory_trial","4","definitely_new","","","","","","",""
"html-keyboard-response","256","521617","0.0-15.0-0.106","1693","2","""event"",""trial"",""time""
""fullscreenenter"",""1"",""2294""
","
","
","""event"",""trial"",""time""
""fullscreenenter"",""1"",""2294""
","
","","","","","","null","<div style=""font-size:60px;"">+</div>","null","","fixation","","","","","","","","",""
"memory-trial","257","524118","0.0-15.0-1.106","1693","2","""event"",""trial"",""time""
""fullscreenenter"",""1"",""2294""
","
","
","""event"",""trial"",""time""
""fullscreenenter"",""1"",""2294""
","
","","","","","","1498.7999999523163","images/sheep3.png","","","memory_trial","4","definitely_new","","","","","","",""
"html-keyboard-response","258","524621","0.0-15.0-0.107","1693","2","""event"",""trial"",""time""
""fullscreenenter"",""1"",""2294""
","
","
","""event"",""trial"",""time""
""fullscreenenter"",""1"",""2294""
","
","","","","","","null","<div style=""font-size:60px;"">+</div>","null","","fixation","","","","","","","","",""
"memory-trial","259","526730","0.0-15.0-1.107","1693","2","""event"",""trial"",""time""
""fullscreenenter"",""1"",""2294""
","
","
","""event"",""trial"",""time""
""fullscreenenter"",""1"",""2294""
","
","","","","","","1105.2000000476837","images/horse4.png","","","memory_trial","1","definitely_old","","","","","","",""
"html-keyboard-response","260","527232","0.0-15.0-0.108","1693","2","""event"",""trial"",""time""
""fullscreenenter"",""1"",""2294""
","
","
","""event"",""trial"",""time""
""fullscreenenter"",""1"",""2294""
","
","","","","","","null","<div style=""font-size:60px;"">+</div>","null","","fixation","","","","","","","","",""
"memory-trial","261","528957","0.0-15.0-1.108","1693","2","""event"",""trial"",""time""
""fullscreenenter"",""1"",""2294""
","
","
","""event"",""trial"",""time""
""fullscreenenter"",""1"",""2294""
","
","","","","","","723.3000001907349","images/tree3.png","","","memory_trial","4","definitely_new","","","","","","",""
"html-keyboard-response","262","529459","0.0-15.0-0.109","1693","2","""event"",""trial"",""time""
""fullscreenenter"",""1"",""2294""
","
","
","""event"",""trial"",""time""
""fullscreenenter"",""1"",""2294""
","
","","","","","","null","<div style=""font-size:60px;"">+</div>","null","","fixation","","","","","","","","",""
"memory-trial","263","531312","0.0-15.0-1.109","1693","2","""event"",""trial"",""time""
""fullscreenenter"",""1"",""2294""
","
","
","""event"",""trial"",""time""
""fullscreenenter"",""1"",""2294""
","
","","","","","","850.2000000476837","images/sofa3.png","","","memory_trial","4","definitely_new","","","","","","",""
"html-keyboard-response","264","531814","0.0-15.0-0.110","1693","2","""event"",""trial"",""time""
""fullscreenenter"",""1"",""2294""
","
","
","""event"",""trial"",""time""
""fullscreenenter"",""1"",""2294""
","
","","","","","","null","<div style=""font-size:60px;"">+</div>","null","","fixation","","","","","","","","",""
"memory-trial","265","535105","0.0-15.0-1.110","1693","2","""event"",""trial"",""time""
""fullscreenenter"",""1"",""2294""
","
","
","""event"",""trial"",""time""
""fullscreenenter"",""1"",""2294""
","
","","","","","","2286.199999809265","images/banana5.png","","","memory_trial","3","maybe_new","","","","","","",""
"html-keyboard-response","266","535607","0.0-15.0-0.111","1693","2","""event"",""trial"",""time""
""fullscreenenter"",""1"",""2294""
","
","
","""event"",""trial"",""time""
""fullscreenenter"",""1"",""2294""
","
","","","","","","null","<div style=""font-size:60px;"">+</div>","null","","fixation","","","","","","","","",""
"memory-trial","267","538614","0.0-15.0-1.111","1693","2","""event"",""trial"",""time""
""fullscreenenter"",""1"",""2294""
","
","
","""event"",""trial"",""time""
""fullscreenenter"",""1"",""2294""
","
","","","","","","2004.3999998569489","images/dog4.png","","","memory_trial","1","definitely_old","","","","","","",""
"html-keyboard-response","268","539115","0.0-15.0-0.112","1693","2","""event"",""trial"",""time""
""fullscreenenter"",""1"",""2294""
","
","
","""event"",""trial"",""time""
""fullscreenenter"",""1"",""2294""
","
","","","","","","null","<div style=""font-size:60px;"">+</div>","null","","fixation","","","","","","","","",""
"memory-trial","269","541322","0.0-15.0-1.112","1693","2","""event"",""trial"",""time""
""fullscreenenter"",""1"",""2294""
","
","
","""event"",""trial"",""time""
""fullscreenenter"",""1"",""2294""
","
","","","","","","1204.9000000953674","images/straw4.png","","","memory_trial","2","maybe_old","","","","","","",""
"html-keyboard-response","270","541824","0.0-15.0-0.113","1693","2","""event"",""trial"",""time""
""fullscreenenter"",""1"",""2294""
","
","
","""event"",""trial"",""time""
""fullscreenenter"",""1"",""2294""
","
","","","","","","null","<div style=""font-size:60px;"">+</div>","null","","fixation","","","","","","","","",""
"memory-trial","271","543706","0.0-15.0-1.113","1693","2","""event"",""trial"",""time""
""fullscreenenter"",""1"",""2294""
","
","
","""event"",""trial"",""time""
""fullscreenenter"",""1"",""2294""
","
","","","","","","879.7000000476837","images/chair4.png","","","memory_trial","4","definitely_new","","","","","","",""
"html-keyboard-response","272","544207","0.0-15.0-0.114","1693","2","""event"",""trial"",""time""
""fullscreenenter"",""1"",""2294""
","
","
","""event"",""trial"",""time""
""fullscreenenter"",""1"",""2294""
","
","","","","","","null","<div style=""font-size:60px;"">+</div>","null","","fixation","","","","","","","","",""
"memory-trial","273","546416","0.0-15.0-1.114","1693","2","""event"",""trial"",""time""
""fullscreenenter"",""1"",""2294""
","
","
","""event"",""trial"",""time""
""fullscreenenter"",""1"",""2294""
","
","","","","","","1190.3999998569489","images/orange2.png","","","memory_trial","2","maybe_old","","","","","","",""
"html-keyboard-response","274","546917","0.0-15.0-0.115","1693","2","""event"",""trial"",""time""
""fullscreenenter"",""1"",""2294""
","
","
","""event"",""trial"",""time""
""fullscreenenter"",""1"",""2294""
","
","","","","","","null","<div style=""font-size:60px;"">+</div>","null","","fixation","","","","","","","","",""
"memory-trial","275","549522","0.0-15.0-1.115","1693","2","""event"",""trial"",""time""
""fullscreenenter"",""1"",""2294""
","
","
","""event"",""trial"",""time""
""fullscreenenter"",""1"",""2294""
","
","","","","","","1602.1000001430511","images/cow2.png","","","memory_trial","3","maybe_new","","","","","","",""
"html-keyboard-response","276","550024","0.0-15.0-0.116","1693","2","""event"",""trial"",""time""
""fullscreenenter"",""1"",""2294""
","
","
","""event"",""trial"",""time""
""fullscreenenter"",""1"",""2294""
","
","","","","","","null","<div style=""font-size:60px;"">+</div>","null","","fixation","","","","","","","","",""
"memory-trial","277","553079","0.0-15.0-1.116","1693","2","""event"",""trial"",""time""
""fullscreenenter"",""1"",""2294""
","
","
","""event"",""trial"",""time""
""fullscreenenter"",""1"",""2294""
","
","","","","","","2052.7999999523163","images/cactus3.png","","","memory_trial","4","definitely_new","","","","","","",""
"html-keyboard-response","278","553585","0.0-15.0-0.117","1693","2","""event"",""trial"",""time""
""fullscreenenter"",""1"",""2294""
","
","
","""event"",""trial"",""time""
""fullscreenenter"",""1"",""2294""
","
","","","","","","null","<div style=""font-size:60px;"">+</div>","null","","fixation","","","","","","","","",""
"memory-trial","279","555990","0.0-15.0-1.117","1693","2","""event"",""trial"",""time""
""fullscreenenter"",""1"",""2294""
","
","
","""event"",""trial"",""time""
""fullscreenenter"",""1"",""2294""
","
","","","","","","1402.5","images/sofa1.png","","","memory_trial","3","maybe_new","","","","","","",""
"html-keyboard-response","280","556492","0.0-15.0-0.118","1693","2","""event"",""trial"",""time""
""fullscreenenter"",""1"",""2294""
","
","
","""event"",""trial"",""time""
""fullscreenenter"",""1"",""2294""
","
","","","","","","null","<div style=""font-size:60px;"">+</div>","null","","fixation","","","","","","","","",""
"memory-trial","281","559030","0.0-15.0-1.118","1693","2","""event"",""trial"",""time""
""fullscreenenter"",""1"",""2294""
","
","
","""event"",""trial"",""time""
""fullscreenenter"",""1"",""2294""
","
","","","","","","1535.7000000476837","images/bush5.png","","","memory_trial","1","definitely_old","","","","","","",""
"html-keyboard-response","282","559541","0.0-15.0-0.119","1693","2","""event"",""trial"",""time""
""fullscreenenter"",""1"",""2294""
","
","
","""event"",""trial"",""time""
""fullscreenenter"",""1"",""2294""
","
","","","","","","null","<div style=""font-size:60px;"">+</div>","null","","fixation","","","","","","","","",""
"memory-trial","283","562369","0.0-15.0-1.119","1693","2","""event"",""trial"",""time""
""fullscreenenter"",""1"",""2294""
","
","
","""event"",""trial"",""time""
""fullscreenenter"",""1"",""2294""
","
","","","","","","1825.5","images/orange1.png","","","memory_trial","3","maybe_new","","","","","","",""
"preload","284","568066","0.0-16.0","1693","2","""event"",""trial"",""time""
""fullscreenenter"",""1"",""2294""
","
","
","""event"",""trial"",""time""
""fullscreenenter"",""1"",""2294""
","
","true","false","[]","[]","[]","","","","","","","","","","","","","",""
"learning-instructions","285","573611","0.0-17.0-0.0-0.0-0.0","1693","2","""event"",""trial"",""time""
""fullscreenenter"",""1"",""2294""
","
","
","""event"",""trial"",""time""
""fullscreenenter"",""1"",""2294""
","
","","","","","","2540.699999809265","<p> We're now going to ask you to water your plants again. </p>","","0","instructions","","","","","","","","",""
"learning-instructions","286","580127","0.0-17.0-0.0-0.0-0.1","1693","2","""event"",""trial"",""time""
""fullscreenenter"",""1"",""2294""
","
","
","""event"",""trial"",""time""
""fullscreenenter"",""1"",""2294""
","
","","","","","","647.3999998569489","<p> On each trial, you will see a plant. Select the watering can that you think will make the plant grow. </p>","","0","instructions","","","","","","","","",""
"learning-instructions","287","588329","0.0-17.0-0.0-0.0-0.2","1693","2","""event"",""trial"",""time""
""fullscreenenter"",""1"",""2294""
","
","
","""event"",""trial"",""time""
""fullscreenenter"",""1"",""2294""
","
","","","","","","1129.7999999523163","<p> To make your selection, think about what you learned last week. You will NOT receive any feedback about your choice. </p>","","0","instructions","","","","","","","","",""
"learning-instructions","288","597855","0.0-17.0-0.0-0.0-0.3","1693","2","""event"",""trial"",""time""
""fullscreenenter"",""1"",""2294""
","
","
","""event"",""trial"",""time""
""fullscreenenter"",""1"",""2294""
","
","","","","","","394.59999990463257","<p> You should use the 1 key to select the watering can on the left, the 2 key to select the watering can in the middle, and the 3 key to select the watering can on the right. </p><br><div class=""choice-mem-instructions-grid""> <div class=""choice-mem-option""><img src=""images/plants_choice1.png"" class=""choice-mem-option-img"" stage=""instructions"" position=""0"" ><div class=""choice-mem-option-text""> Press ""1."" </div></div><div class=""choice-mem-option""><img src=""images/plants_choice2.png"" class=""choice-mem-option-img"" stage=""instructions"" position=""1"" ><div class=""choice-mem-option-text""> Press ""2."" </div></div><div class=""choice-mem-option""><img src=""images/plants_choice3.png"" class=""choice-mem-option-img"" stage=""instructions"" position=""2"" ><div class=""choice-mem-option-text""> Press ""3."" </div></div></div>","","0","instructions","","","","","","","","",""
"learning-instructions","289","605103","0.0-17.0-0.0-0.0-0.4","1693","2","""event"",""trial"",""time""
""fullscreenenter"",""1"",""2294""
","
","
","""event"",""trial"",""time""
""fullscreenenter"",""1"",""2294""
","
","","","","","","973.7999999523163","<p> You will have 10 seconds to make each selection. Try to respond before time runs out! </p>","","0","instructions","","","","","","","","",""
"learning-instructions","290","608543","0.0-17.0-0.0-1.0","1693","2","""event"",""trial"",""time""
""fullscreenenter"",""1"",""2294""
","
","
","""event"",""trial"",""time""
""fullscreenenter"",""1"",""2294""
","
","","","","","","1373","<p> You are now ready to begin the game. </p>","","0","instructions","","","","","","","","",""
"html-keyboard-response","291","609169","0.0-17.0-0.0-2.0-0.0","1693","2","""event"",""trial"",""time""
""fullscreenenter"",""1"",""2294""
","
","
","""event"",""trial"",""time""
""fullscreenenter"",""1"",""2294""
","
","","","","","","null","<div style=""font-size:60px;"">+</div>","null","","fixation","","","","","","","","",""
"choice-memory-trial","292","611689","0.0-17.0-0.0-2.0-1.0","1693","2","""event"",""trial"",""time""
""fullscreenenter"",""1"",""2294""
","
","
","""event"",""trial"",""time""
""fullscreenenter"",""1"",""2294""
","
