"trial_type","trial_index","time_elapsed","internal_node_id","subject_id","task_version","interactions","blur_events","focus_events","fullscreenenter_events","fullscreenexit_events","success","timeout","failed_images","failed_audio","failed_video","rt","stimulus","response"
"pavlovia","0","7","0.0-0.0","1696","2","""event"",""trial"",""time""
""focus"",""1"",""2090""
""fullscreenenter"",""1"",""3087""
","
","""event"",""trial"",""time""
""focus"",""1"",""2090""
","""event"",""trial"",""time""
""fullscreenenter"",""1"",""3087""
","
","","","","","","","",""
"fullscreen","1","3874","0.0-1.0","1696","2","""event"",""trial"",""time""
""focus"",""1"",""2090""
""fullscreenenter"",""1"",""3087""
","
","""event"",""trial"",""time""
""focus"",""1"",""2090""
","""event"",""trial"",""time""
""fullscreenenter"",""1"",""3087""
","
","true","","","","","","",""
"preload","2","4010","0.0-2.0","1696","2","""event"",""trial"",""time""
""focus"",""1"",""2090""
""fullscreenenter"",""1"",""3087""
""fullscreenexit"",""3"",""4785""
","
","""event"",""trial"",""time""
""focus"",""1"",""2090""
","""event"",""trial"",""time""
""fullscreenenter"",""1"",""3087""
","""event"",""trial"",""time""
""fullscreenexit"",""3"",""4785""
","true","false","[]","[]","[]","","",""
"audio-keyboard-response","3","5681","0.0-3.0","1696","2","""event"",""trial"",""time""
""focus"",""1"",""2090""
""fullscreenenter"",""1"",""3087""
""fullscreenexit"",""3"",""4785""
","
","""event"",""trial"",""time""
""focus"",""1"",""2090""
","""event"",""trial"",""time""
""fullscreenenter"",""1"",""3087""
","""event"",""trial"",""time""
""fullscreenexit"",""3"",""4785""
","","","","","","1669.3333333333333","audio/beep_loop.wav"," "
"audio-button-response","4","6509","0.0-4.0","1696","2","""event"",""trial"",""time""
""focus"",""1"",""2090""
""fullscreenenter"",""1"",""3087""
""fullscreenexit"",""3"",""4785""
","
","""event"",""trial"",""time""
""focus"",""1"",""2090""
","""event"",""trial"",""time""
""fullscreenenter"",""1"",""3087""
","""event"",""trial"",""time""
""fullscreenexit"",""3"",""4785""
","","","","","","829","audio/turtle.wav","3"
"audio-button-response","5","8037","0.0-5.0","1696","2","""event"",""trial"",""time""
""focus"",""1"",""2090""
""fullscreenenter"",""1"",""3087""
""fullscreenexit"",""3"",""4785""
""blur"",""6"",""9967""
""focus"",""6"",""19899""
""blur"",""6"",""20511""
""focus"",""6"",""259127""
""blur"",""6"",""259954""
""focus"",""6"",""861744""
""blur"",""6"",""865469""
""focus"",""6"",""865469""
","""event"",""trial"",""time""
""blur"",""6"",""9967""
""blur"",""6"",""20511""
""blur"",""6"",""259954""
""blur"",""6"",""865469""
","""event"",""trial"",""time""
""focus"",""1"",""2090""
""focus"",""6"",""19899""
""focus"",""6"",""259127""
""focus"",""6"",""861744""
""focus"",""6"",""865469""
","""event"",""trial"",""time""
""fullscreenenter"",""1"",""3087""
","""event"",""trial"",""time""
""fullscreenexit"",""3"",""4785""
","","","","","","509","audio/shark.wav","2"
