"trial_type","trial_index","time_elapsed","internal_node_id","subject_id","task_version","interactions","blur_events","focus_events","fullscreenenter_events","fullscreenexit_events","success","timeout","failed_images","failed_audio","failed_video","rt","stimulus","response","button_pressed","task_part","key_press","answer","correct","left_choice","middle_choice","right_choice","choice_positions","option_selected","block"
"pavlovia","0","2","0.0-0.0","1997","2","""event"",""trial"",""time""
""fullscreenenter"",""1"",""2897""
","
","
","""event"",""trial"",""time""
""fullscreenenter"",""1"",""2897""
","
","","","","","","","","","","","","","","","","","","",""
"fullscreen","1","3868","0.0-1.0","1997","2","""event"",""trial"",""time""
""fullscreenenter"",""1"",""2897""
","
","
","""event"",""trial"",""time""
""fullscreenenter"",""1"",""2897""
","
","true","","","","","","","","","","","","","","","","","",""
"preload","2","4861","0.0-2.0","1997","2","""event"",""trial"",""time""
""fullscreenenter"",""1"",""2897""
","
","
","""event"",""trial"",""time""
""fullscreenenter"",""1"",""2897""
","
","true","false","[]","[]","[]","","","","","","","","","","","","","",""
"audio-keyboard-response","3","7958","0.0-3.0","1997","2","""event"",""trial"",""time""
""fullscreenenter"",""1"",""2897""
","
","
","""event"",""trial"",""time""
""fullscreenenter"",""1"",""2897""
","
","","","","","","3094.058956916099","audio/beep_loop.wav"," ","","","","","","","","","","",""
"audio-button-response","4","10333","0.0-4.0","1997","2","""event"",""trial"",""time""
""fullscreenenter"",""1"",""2897""
","
","
","""event"",""trial"",""time""
""fullscreenenter"",""1"",""2897""
","
","","","","","","2374","audio/turtle.wav","3","","","","","","","","","","",""
"audio-button-response","5","16054","0.0-5.0","1997","2","""event"",""trial"",""time""
""fullscreenenter"",""1"",""2897""
","
","
","""event"",""trial"",""time""
""fullscreenenter"",""1"",""2897""
","
","","","","","","4714","audio/shark.wav","2","","","","","","","","","","",""
"preload","6","31419","0.0-6.0","1997","2","""event"",""trial"",""time""
""fullscreenenter"",""1"",""2897""
","
","
","""event"",""trial"",""time""
""fullscreenenter"",""1"",""2897""
","
","true","false","[]","[]","[]","","","","","","","","","","","","","",""
"learning-instructions","7","40404","0.0-7.0-0.0","1997","2","""event"",""trial"",""time""
""fullscreenenter"",""1"",""2897""
","
","
","""event"",""trial"",""time""
""fullscreenenter"",""1"",""2897""
","
","","","","","","4175","<p> Welcome back! </p><p> Last week, you had to make choices about lots of different items.  </p>","","0","instructions","","","","","","","","",""
"learning-instructions","8","46933","0.0-7.0-0.1","1997","2","""event"",""trial"",""time""
""fullscreenenter"",""1"",""2897""
","
","
","""event"",""trial"",""time""
""fullscreenenter"",""1"",""2897""
","
","","","","","","2228.7000000001863","<p> Today, we are going to ask you to try to remember all the items. </p>","","0","instructions","","","","","","","","",""
"learning-instructions","9","58183","0.0-7.0-0.2","1997","2","""event"",""trial"",""time""
""fullscreenenter"",""1"",""2897""
","
","
","""event"",""trial"",""time""
""fullscreenenter"",""1"",""2897""
","
","","","","","","1120.0999999996275","<p> On every trial, you will see an image. </p><p> The image may be an OLD image you saw during the games last week or it may be a NEW image that was not presented. </p>","","0","instructions","","","","","","","","",""
"learning-instructions","10","72528","0.0-7.0-0.3","1997","2","""event"",""trial"",""time""
""fullscreenenter"",""1"",""2897""
","
","
","""event"",""trial"",""time""
""fullscreenenter"",""1"",""2897""
","
","","","","","","5846.300000000745","<p> You need to select whether the image is:  </p><p>  'Definitely old', 'Maybe old', 'Maybe new', or 'Definitely new.'  </p><div class=""mem-choice-instructions-grid""><div class=""choice-option"" id=""choice-option-1"" ><img src=""images/definitely_old_1.png"" id=""choice-option-img-1"" class=""choice-option-img"" stage=""1""></div><div class=""choice-option"" id=""choice-option-2"" ><img src=""images/maybe_old_1.png"" id=""choice-option-img-2"" class=""choice-option-img"" stage=""1""></div><div class=""choice-option"" id=""choice-option-3"" ><img src=""images/maybe_new_1.png"" id=""choice-option-img-3"" class=""choice-option-img"" stage=""1""></div><div class=""choice-option"" id=""choice-option-4"" > <img src=""images/definitely_new_1.png"" id=""choice-option-img-4"" class=""choice-option-img"" stage=""1""></div></div>","","0","instructions","","","","","","","","",""
"learning-instructions","11","80112","0.0-7.0-0.4","1997","2","""event"",""trial"",""time""
""fullscreenenter"",""1"",""2897""
","
","
","""event"",""trial"",""time""
""fullscreenenter"",""1"",""2897""
","
","","","","","","890.0999999996275","<p> You should use the 1, 2, 3, and 4 keys to make your responses.  </p><div class=""mem-choice-instructions-grid""><div class=""choice-option"" id=""choice-option-1"" ><img src=""images/definitely_old.png"" id=""choice-option-img-1"" class=""choice-option-img"" stage=""1""></div><div class=""choice-option"" id=""choice-option-2"" ><img src=""images/maybe_old.png"" id=""choice-option-img-2"" class=""choice-option-img"" stage=""1""></div><div class=""choice-option"" id=""choice-option-3"" ><img src=""images/maybe_new.png"" id=""choice-option-img-3"" class=""choice-option-img"" stage=""1""></div><div class=""choice-option"" id=""choice-option-4"" > <img src=""images/definitely_new.png"" id=""choice-option-img-4"" class=""choice-option-img"" stage=""1""></div></div>","","0","instructions","","","","","","","","",""
"learning-instructions","12","87777","0.0-7.0-0.5","1997","2","""event"",""trial"",""time""
""fullscreenenter"",""1"",""2897""
","
","
","""event"",""trial"",""time""
""fullscreenenter"",""1"",""2897""
","
","","","","","","905.7999999998137","<p> You will have 10 seconds to make each response.  </p><p>  Make sure to respond before time runs out! </p>","","0","instructions","","","","","","","","",""
"learning-instructions","13","98171","0.0-7.0-0.6","1997","2","""event"",""trial"",""time""
""fullscreenenter"",""1"",""2897""
","
","
","""event"",""trial"",""time""
""fullscreenenter"",""1"",""2897""
","
","","","","","","2812.2999999998137","<p> Today, you will see each image ONCE only.  </p><p>  That means none of the images will repeat. </p>","","0","instructions","","","","","","","","",""
"learning-instructions","14","111887","0.0-7.0-0.7","1997","2","""event"",""trial"",""time""
""fullscreenenter"",""1"",""2897""
","
","
","""event"",""trial"",""time""
""fullscreenenter"",""1"",""2897""
","
","","","","","","1052.5","<p> Before you play the real game, it is time to practice. </p><p>  Just like in the real game, some of the images in the practice will be ones you have seen before. </p><p>  Others will be entirely new. </p>","","0","instructions","","","","","","","","",""
"html-button-response","15","114489","0.0-8.0","1997","2","""event"",""trial"",""time""
""fullscreenenter"",""1"",""2897""
","
","
","""event"",""trial"",""time""
""fullscreenenter"",""1"",""2897""
","
","","","","","","2497.100000000559","<p> Ready to practice? </p><p> Remember, use the 1, 2, 3, and 4 keys to make your responses. </p>","0","","instructions","","","","","","","","",""
"html-keyboard-response","16","115097","0.0-9.0-0.0","1997","2","""event"",""trial"",""time""
""fullscreenenter"",""1"",""2897""
","
","
","""event"",""trial"",""time""
""fullscreenenter"",""1"",""2897""
","
","","","","","","null","<div style=""font-size:60px;"">+</div>","null","","fixation","","","","","","","","",""
"memory-trial","17","118026","0.0-9.0-1.0","1997","2","""event"",""trial"",""time""
""fullscreenenter"",""1"",""2897""
","
","
","""event"",""trial"",""time""
""fullscreenenter"",""1"",""2897""
","
","","","","","","1922.199999999255","images/racket2.png","","","practice","1","definitely_old","","","","","","",""
"html-keyboard-response","18","118530","0.0-9.0-0.1","1997","2","""event"",""trial"",""time""
""fullscreenenter"",""1"",""2897""
","
","
","""event"",""trial"",""time""
""fullscreenenter"",""1"",""2897""
","
","","","","","","null","<div style=""font-size:60px;"">+</div>","null","","fixation","","","","","","","","",""
"memory-trial","19","121269","0.0-9.0-1.1","1997","2","""event"",""trial"",""time""
""fullscreenenter"",""1"",""2897""
","
","
","""event"",""trial"",""time""
""fullscreenenter"",""1"",""2897""
","
","","","","","","1731.6000000005588","images/racket4.png","","","practice","3","maybe_new","","","","","","",""
"html-keyboard-response","20","121773","0.0-9.0-0.2","1997","2","""event"",""trial"",""time""
""fullscreenenter"",""1"",""2897""
","
","
","""event"",""trial"",""time""
""fullscreenenter"",""1"",""2897""
","
","","","","","","null","<div style=""font-size:60px;"">+</div>","null","","fixation","","","","","","","","",""
"memory-trial","21","124523","0.0-9.0-1.2","1997","2","""event"",""trial"",""time""
""fullscreenenter"",""1"",""2897""
","
","
","""event"",""trial"",""time""
""fullscreenenter"",""1"",""2897""
","
","","","","","","1744.7000000001863","images/racket3.png","","","practice","3","maybe_new","","","","","","",""
"html-keyboard-response","22","125026","0.0-9.0-0.3","1997","2","""event"",""trial"",""time""
""fullscreenenter"",""1"",""2897""
","
","
","""event"",""trial"",""time""
""fullscreenenter"",""1"",""2897""
","
","","","","","","null","<div style=""font-size:60px;"">+</div>","null","","fixation","","","","","","","","",""
"memory-trial","23","127340","0.0-9.0-1.3","1997","2","""event"",""trial"",""time""
""fullscreenenter"",""1"",""2897""
","
","
","""event"",""trial"",""time""
""fullscreenenter"",""1"",""2897""
","
","","","","","","1310.4000000003725","images/racket1.png","","","practice","1","definitely_old","","","","","","",""
"html-keyboard-response","24","127846","0.0-9.0-0.4","1997","2","""event"",""trial"",""time""
""fullscreenenter"",""1"",""2897""
","
","
","""event"",""trial"",""time""
""fullscreenenter"",""1"",""2897""
","
","","","","","","null","<div style=""font-size:60px;"">+</div>","null","","fixation","","","","","","","","",""
"memory-trial","25","130165","0.0-9.0-1.4","1997","2","""event"",""trial"",""time""
""fullscreenenter"",""1"",""2897""
","
","
","""event"",""trial"",""time""
""fullscreenenter"",""1"",""2897""
","
","","","","","","1311.8999999994412","images/ball3.png","","","practice","1","definitely_old","","","","","","",""
"html-keyboard-response","26","130667","0.0-9.0-0.5","1997","2","""event"",""trial"",""time""
""fullscreenenter"",""1"",""2897""
","
","
","""event"",""trial"",""time""
""fullscreenenter"",""1"",""2897""
","
","","","","","","null","<div style=""font-size:60px;"">+</div>","null","","fixation","","","","","","","","",""
"memory-trial","27","133493","0.0-9.0-1.5","1997","2","""event"",""trial"",""time""
""fullscreenenter"",""1"",""2897""
","
","
","""event"",""trial"",""time""
""fullscreenenter"",""1"",""2897""
","
","","","","","","1818.2999999998137","images/ball2.png","","","practice","1","definitely_old","","","","","","",""
"html-keyboard-response","28","133997","0.0-9.0-0.6","1997","2","""event"",""trial"",""time""
""fullscreenenter"",""1"",""2897""
","
","
","""event"",""trial"",""time""
""fullscreenenter"",""1"",""2897""
","
","","","","","","null","<div style=""font-size:60px;"">+</div>","null","","fixation","","","","","","","","",""
"memory-trial","29","135964","0.0-9.0-1.6","1997","2","""event"",""trial"",""time""
""fullscreenenter"",""1"",""2897""
","
","
","""event"",""trial"",""time""
""fullscreenenter"",""1"",""2897""
","
","","","","","","963.4000000003725","images/ball1.png","","","practice","1","definitely_old","","","","","","",""
"html-keyboard-response","30","136469","0.0-9.0-0.7","1997","2","""event"",""trial"",""time""
""fullscreenenter"",""1"",""2897""
","
","
","""event"",""trial"",""time""
""fullscreenenter"",""1"",""2897""
","
","","","","","","null","<div style=""font-size:60px;"">+</div>","null","","fixation","","","","","","","","",""
"memory-trial","31","140349","0.0-9.0-1.7","1997","2","""event"",""trial"",""time""
""fullscreenenter"",""1"",""2897""
","
","
","""event"",""trial"",""time""
""fullscreenenter"",""1"",""2897""
","
","","","","","","2872.399999999441","images/ball4.png","","","practice","3","maybe_new","","","","","","",""
"learning-instructions","32","150647","0.0-10.0-0.0","1997","2","""event"",""trial"",""time""
""fullscreenenter"",""1"",""2897""
","
","
","""event"",""trial"",""time""
""fullscreenenter"",""1"",""2897""
","
","","","","","","2347.0999999996275","<p> Great! You have completed the practice. </p><p> Before you start, we're going to ask you a few questions about how the game works.  </p>","","0","instructions","","","","","","","","",""
"preload","33","154152","0.0-11.0","1997","2","""event"",""trial"",""time""
""fullscreenenter"",""1"",""2897""
","
","
","""event"",""trial"",""time""
""fullscreenenter"",""1"",""2897""
","
","true","false","[]","[]","[]","","","","","","","","","","","","","",""
"comp-q","34","161007","0.0-12.0-0.0","1997","2","""event"",""trial"",""time""
""fullscreenenter"",""1"",""2897""
","
","
","""event"",""trial"",""time""
""fullscreenenter"",""1"",""2897""
","
","","","","","","1027.8999999994412","<p> <b> True or False? </b> </p><p> In this game, you will only see each image once. </p>","","0","comp_question","","","true","","","","","",""
"comp-q","35","169358","0.0-12.0-1.0","1997","2","""event"",""trial"",""time""
""fullscreenenter"",""1"",""2897""
","
","
","""event"",""trial"",""time""
""fullscreenenter"",""1"",""2897""
","
","","","","","","2013.0999999996275","<p> <b> That's right! </b> You will see many different images <i> one time each </i> in this game. </p>","","0","comp_answer","","","","","","","","",""
"comp-q","36","175943","0.0-12.0-0.1","1997","2","""event"",""trial"",""time""
""fullscreenenter"",""1"",""2897""
","
","
","""event"",""trial"",""time""
""fullscreenenter"",""1"",""2897""
","
","","","","","","783.5999999996275","<p> <b> True or False? </b> </p><p> You should use the mouse and click to make your response. </p>","","1","comp_question","","","true","","","","","",""
"comp-q","37","185812","0.0-12.0-1.1","1997","2","""event"",""trial"",""time""
""fullscreenenter"",""1"",""2897""
","
","
","""event"",""trial"",""time""
""fullscreenenter"",""1"",""2897""
","
","","","","","","2520.600000000559","<p><b> That's right! </b> You should use the '1', '2', '3', and '4' keys to make your response. </p>","","0","comp_answer","","","","","","","","",""
"comp-q","38","194324","0.0-12.0-0.2","1997","2","""event"",""trial"",""time""
""fullscreenenter"",""1"",""2897""
","
","
","""event"",""trial"",""time""
""fullscreenenter"",""1"",""2897""
","
","","","","","","2516.899999999441","<p> <b> True or False? </b> </p><p> You will have as much time as you want to make each choice. </p>","","0","comp_question","","","false","","","","","",""
"comp-q","39","205322","0.0-12.0-1.2","1997","2","""event"",""trial"",""time""
""fullscreenenter"",""1"",""2897""
","
","
","""event"",""trial"",""time""
""fullscreenenter"",""1"",""2897""
","
","","","","","","5678.4000000003725","<p> <b>Incorrect.</b> You will only have 10 seconds to make each choice.</p>","","0","comp_answer","","","","","","","","",""
"learning-instructions","40","215842","0.0-13.0","1997","2","""event"",""trial"",""time""
""fullscreenenter"",""1"",""2897""
","
","
","""event"",""trial"",""time""
""fullscreenenter"",""1"",""2897""
","
","","","","","","1848.300000000745","<p> Great! You are now ready to begin the game. </p><p> Remember, use the 1, 2, 3, and 4 keys to make your responses. </p>","","0","instructions","","","","","","","","",""
"preload","41","223875","0.0-14.0","1997","2","""event"",""trial"",""time""
""fullscreenenter"",""1"",""2897""
","
","
","""event"",""trial"",""time""
""fullscreenenter"",""1"",""2897""
","
","true","false","[]","[]","[]","","","","","","","","","","","","","",""
"html-keyboard-response","42","224381","0.0-15.0-0.0","1997","2","""event"",""trial"",""time""
""fullscreenenter"",""1"",""2897""
","
","
","""event"",""trial"",""time""
""fullscreenenter"",""1"",""2897""
","
","","","","","","null","<div style=""font-size:60px;"">+</div>","null","","fixation","","","","","","","","",""
"memory-trial","43","227194","0.0-15.0-1.0","1997","2","""event"",""trial"",""time""
""fullscreenenter"",""1"",""2897""
","
","
","""event"",""trial"",""time""
""fullscreenenter"",""1"",""2897""
","
","","","","","","1805.4000000003725","images/boat5.png","","","memory_trial","1","definitely_old","","","","","","",""
"html-keyboard-response","44","227696","0.0-15.0-0.1","1997","2","""event"",""trial"",""time""
""fullscreenenter"",""1"",""2897""
","
","
","""event"",""trial"",""time""
""fullscreenenter"",""1"",""2897""
","
","","","","","","null","<div style=""font-size:60px;"">+</div>","null","","fixation","","","","","","","","",""
"memory-trial","45","229648","0.0-15.0-1.1","1997","2","""event"",""trial"",""time""
""fullscreenenter"",""1"",""2897""
","
","
","""event"",""trial"",""time""
""fullscreenenter"",""1"",""2897""
","
","","","","","","946.3999999994412","images/feline1.png","","","memory_trial","1","definitely_old","","","","","","",""
"html-keyboard-response","46","230155","0.0-15.0-0.2","1997","2","""event"",""trial"",""time""
""fullscreenenter"",""1"",""2897""
","
","
","""event"",""trial"",""time""
""fullscreenenter"",""1"",""2897""
","
","","","","","","null","<div style=""font-size:60px;"">+</div>","null","","fixation","","","","","","","","",""
"memory-trial","47","231942","0.0-15.0-1.2","1997","2","""event"",""trial"",""time""
""fullscreenenter"",""1"",""2897""
","
","
","""event"",""trial"",""time""
""fullscreenenter"",""1"",""2897""
","
","","","","","","784","images/tree5.png","","","memory_trial","1","definitely_old","","","","","","",""
"html-keyboard-response","48","232445","0.0-15.0-0.3","1997","2","""event"",""trial"",""time""
""fullscreenenter"",""1"",""2897""
","
","
","""event"",""trial"",""time""
""fullscreenenter"",""1"",""2897""
","
","","","","","","null","<div style=""font-size:60px;"">+</div>","null","","fixation","","","","","","","","",""
"memory-trial","49","235730","0.0-15.0-1.3","1997","2","""event"",""trial"",""time""
""fullscreenenter"",""1"",""2897""
","
","
","""event"",""trial"",""time""
""fullscreenenter"",""1"",""2897""
","
","","","","","","2279.0999999996275","images/train5.png","","","memory_trial","2","maybe_old","","","","","","",""
"html-keyboard-response","50","236233","0.0-15.0-0.4","1997","2","""event"",""trial"",""time""
""fullscreenenter"",""1"",""2897""
","
","
","""event"",""trial"",""time""
""fullscreenenter"",""1"",""2897""
","
","","","","","","null","<div style=""font-size:60px;"">+</div>","null","","fixation","","","","","","","","",""
"memory-trial","51","238089","0.0-15.0-1.4","1997","2","""event"",""trial"",""time""
""fullscreenenter"",""1"",""2897""
","
","
","""event"",""trial"",""time""
""fullscreenenter"",""1"",""2897""
","
","","","","","","852.1000000005588","images/dog2.png","","","memory_trial","1","definitely_old","","","","","","",""
"html-keyboard-response","52","238592","0.0-15.0-0.5","1997","2","""event"",""trial"",""time""
""fullscreenenter"",""1"",""2897""
","
","
","""event"",""trial"",""time""
""fullscreenenter"",""1"",""2897""
","
","","","","","","null","<div style=""font-size:60px;"">+</div>","null","","fixation","","","","","","","","",""
"memory-trial","53","240444","0.0-15.0-1.5","1997","2","""event"",""trial"",""time""
""fullscreenenter"",""1"",""2897""
","
","
","""event"",""trial"",""time""
""fullscreenenter"",""1"",""2897""
","
","","","","","","848.7000000001863","images/straw5.png","","","memory_trial","1","definitely_old","","","","","","",""
"html-keyboard-response","54","240951","0.0-15.0-0.6","1997","2","""event"",""trial"",""time""
""fullscreenenter"",""1"",""2897""
","
","
","""event"",""trial"",""time""
""fullscreenenter"",""1"",""2897""
","
","","","","","","null","<div style=""font-size:60px;"">+</div>","null","","fixation","","","","","","","","",""
"memory-trial","55","243743","0.0-15.0-1.6","1997","2","""event"",""trial"",""time""
""fullscreenenter"",""1"",""2897""
","
","
","""event"",""trial"",""time""
""fullscreenenter"",""1"",""2897""
","
","","","","","","1786.9000000003725","images/sofa4.png","","","memory_trial","4","definitely_new","","","","","","",""
"html-keyboard-response","56","244249","0.0-15.0-0.7","1997","2","""event"",""trial"",""time""
""fullscreenenter"",""1"",""2897""
","
","
","""event"",""trial"",""time""
""fullscreenenter"",""1"",""2897""
","
","","","","","","null","<div style=""font-size:60px;"">+</div>","null","","fixation","","","","","","","","",""
"memory-trial","57","246391","0.0-15.0-1.7","1997","2","""event"",""trial"",""time""
""fullscreenenter"",""1"",""2897""
","
","
","""event"",""trial"",""time""
""fullscreenenter"",""1"",""2897""
","
","","","","","","1135.9000000003725","images/bush4.png","","","memory_trial","4","definitely_new","","","","","","",""
"html-keyboard-response","58","246896","0.0-15.0-0.8","1997","2","""event"",""trial"",""time""
""fullscreenenter"",""1"",""2897""
","
","
","""event"",""trial"",""time""
""fullscreenenter"",""1"",""2897""
","
","","","","","","null","<div style=""font-size:60px;"">+</div>","null","","fixation","","","","","","","","",""
"memory-trial","59","248905","0.0-15.0-1.8","1997","2","""event"",""trial"",""time""
""fullscreenenter"",""1"",""2897""
","
","
","""event"",""trial"",""time""
""fullscreenenter"",""1"",""2897""
","
","","","","","","1001.5999999996275","images/rabbit5.png","","","memory_trial","1","definitely_old","","","","","","",""
"html-keyboard-response","60","249410","0.0-15.0-0.9","1997","2","""event"",""trial"",""time""
""fullscreenenter"",""1"",""2897""
","
","
","""event"",""trial"",""time""
""fullscreenenter"",""1"",""2897""
","
","","","","","","null","<div style=""font-size:60px;"">+</div>","null","","fixation","","","","","","","","",""
"memory-trial","61","254507","0.0-15.0-1.9","1997","2","""event"",""trial"",""time""
""fullscreenenter"",""1"",""2897""
","
","
","""event"",""trial"",""time""
""fullscreenenter"",""1"",""2897""
","
","","","","","","4092.5999999996275","images/bed5.png","","","memory_trial","3","maybe_new","","","","","","",""
"html-keyboard-response","62","255012","0.0-15.0-0.10","1997","2","""event"",""trial"",""time""
""fullscreenenter"",""1"",""2897""
","
","
","""event"",""trial"",""time""
""fullscreenenter"",""1"",""2897""
","
","","","","","","null","<div style=""font-size:60px;"">+</div>","null","","fixation","","","","","","","","",""
"memory-trial","63","257637","0.0-15.0-1.10","1997","2","""event"",""trial"",""time""
""fullscreenenter"",""1"",""2897""
","
","
","""event"",""trial"",""time""
""fullscreenenter"",""1"",""2897""
","
","","","","","","1617.5","images/rodent5.png","","","memory_trial","4","definitely_new","","","","","","",""
"html-keyboard-response","64","258141","0.0-15.0-0.11","1997","2","""event"",""trial"",""time""
""fullscreenenter"",""1"",""2897""
","
","
","""event"",""trial"",""time""
""fullscreenenter"",""1"",""2897""
","
","","","","","","null","<div style=""font-size:60px;"">+</div>","null","","fixation","","","","","","","","",""
"memory-trial","65","260312","0.0-15.0-1.11","1997","2","""event"",""trial"",""time""
""fullscreenenter"",""1"",""2897""
","
","
","""event"",""trial"",""time""
""fullscreenenter"",""1"",""2897""
","
","","","","","","1167","images/chair1.png","","","memory_trial","1","definitely_old","","","","","","",""
"html-keyboard-response","66","260817","0.0-15.0-0.12","1997","2","""event"",""trial"",""time""
""fullscreenenter"",""1"",""2897""
","
","
","""event"",""trial"",""time""
""fullscreenenter"",""1"",""2897""
","
","","","","","","null","<div style=""font-size:60px;"">+</div>","null","","fixation","","","","","","","","",""
"memory-trial","67","264897","0.0-15.0-1.12","1997","2","""event"",""trial"",""time""
""fullscreenenter"",""1"",""2897""
","
","
","""event"",""trial"",""time""
""fullscreenenter"",""1"",""2897""
","
","","","","","","3074.5","images/horse4.png","","","memory_trial","4","definitely_new","","","","","","",""
"html-keyboard-response","68","265402","0.0-15.0-0.13","1997","2","""event"",""trial"",""time""
""fullscreenenter"",""1"",""2897""
","
","
","""event"",""trial"",""time""
""fullscreenenter"",""1"",""2897""
","
","","","","","","null","<div style=""font-size:60px;"">+</div>","null","","fixation","","","","","","","","",""
"memory-trial","69","267626","0.0-15.0-1.13","1997","2","""event"",""trial"",""time""
""fullscreenenter"",""1"",""2897""
","
","
","""event"",""trial"",""time""
""fullscreenenter"",""1"",""2897""
","
","","","","","","1217.6000000005588","images/table3.png","","","memory_trial","1","definitely_old","","","","","","",""
"html-keyboard-response","70","268130","0.0-15.0-0.14","1997","2","""event"",""trial"",""time""
""fullscreenenter"",""1"",""2897""
","
","
","""event"",""trial"",""time""
""fullscreenenter"",""1"",""2897""
","
","","","","","","null","<div style=""font-size:60px;"">+</div>","null","","fixation","","","","","","","","",""
"memory-trial","71","270076","0.0-15.0-1.14","1997","2","""event"",""trial"",""time""
""fullscreenenter"",""1"",""2897""
","
","
","""event"",""trial"",""time""
""fullscreenenter"",""1"",""2897""
","
","","","","","","939.7000000001863","images/chair5.png","","","memory_trial","1","definitely_old","","","","","","",""
"html-keyboard-response","72","270581","0.0-15.0-0.15","1997","2","""event"",""trial"",""time""
""fullscreenenter"",""1"",""2897""
","
","
","""event"",""trial"",""time""
""fullscreenenter"",""1"",""2897""
","
","","","","","","null","<div style=""font-size:60px;"">+</div>","null","","fixation","","","","","","","","",""
"memory-trial","73","272875","0.0-15.0-1.15","1997","2","""event"",""trial"",""time""
""fullscreenenter"",""1"",""2897""
","
","
","""event"",""trial"",""time""
""fullscreenenter"",""1"",""2897""
","
","","","","","","1287","images/sheep5.png","","","memory_trial","1","definitely_old","","","","","","",""
"html-keyboard-response","74","273378","0.0-15.0-0.16","1997","2","""event"",""trial"",""time""
""fullscreenenter"",""1"",""2897""
","
","
","""event"",""trial"",""time""
""fullscreenenter"",""1"",""2897""
","
","","","","","","null","<div style=""font-size:60px;"">+</div>","null","","fixation","","","","","","","","",""
"memory-trial","75","275480","0.0-15.0-1.16","1997","2","""event"",""trial"",""time""
""fullscreenenter"",""1"",""2897""
","
","
","""event"",""trial"",""time""
""fullscreenenter"",""1"",""2897""
","
","","","","","","1096.7000000001863","images/table4.png","","","memory_trial","4","definitely_new","","","","","","",""
"html-keyboard-response","76","275985","0.0-15.0-0.17","1997","2","""event"",""trial"",""time""
""fullscreenenter"",""1"",""2897""
","
","
","""event"",""trial"",""time""
""fullscreenenter"",""1"",""2897""
","
","","","","","","null","<div style=""font-size:60px;"">+</div>","null","","fixation","","","","","","","","",""
"memory-trial","77","278098","0.0-15.0-1.17","1997","2","""event"",""trial"",""time""
""fullscreenenter"",""1"",""2897""
","
","
","""event"",""trial"",""time""
""fullscreenenter"",""1"",""2897""
","
","","","","","","1107.0999999996275","images/sofa5.png","","","memory_trial","4","definitely_new","","","","","","",""
"html-keyboard-response","78","278603","0.0-15.0-0.18","1997","2","""event"",""trial"",""time""
""fullscreenenter"",""1"",""2897""
","
","
","""event"",""trial"",""time""
""fullscreenenter"",""1"",""2897""
","
","","","","","","null","<div style=""font-size:60px;"">+</div>","null","","fixation","","","","","","","","",""
"memory-trial","79","281517","0.0-15.0-1.18","1997","2","""event"",""trial"",""time""
""fullscreenenter"",""1"",""2897""
","
","
","""event"",""trial"",""time""
""fullscreenenter"",""1"",""2897""
","
","","","","","","1908.6000000005588","images/goat2.png","","","memory_trial","4","definitely_new","","","","","","",""
"html-keyboard-response","80","282022","0.0-15.0-0.19","1997","2","""event"",""trial"",""time""
""fullscreenenter"",""1"",""2897""
","
","
","""event"",""trial"",""time""
""fullscreenenter"",""1"",""2897""
","
","","","","","","null","<div style=""font-size:60px;"">+</div>","null","","fixation","","","","","","","","",""
"memory-trial","81","287299","0.0-15.0-1.19","1997","2","""event"",""trial"",""time""
""fullscreenenter"",""1"",""2897""
","
","
","""event"",""trial"",""time""
""fullscreenenter"",""1"",""2897""
","
","","","","","","4270.799999999814","images/bush5.png","","","memory_trial","3","maybe_new","","","","","","",""
"html-keyboard-response","82","287805","0.0-15.0-0.20","1997","2","""event"",""trial"",""time""
""fullscreenenter"",""1"",""2897""
","
","
","""event"",""trial"",""time""
""fullscreenenter"",""1"",""2897""
","
","","","","","","null","<div style=""font-size:60px;"">+</div>","null","","fixation","","","","","","","","",""
"memory-trial","83","290317","0.0-15.0-1.20","1997","2","""event"",""trial"",""time""
""fullscreenenter"",""1"",""2897""
","
","
","""event"",""trial"",""time""
""fullscreenenter"",""1"",""2897""
","
","","","","","","1503.7000000001863","images/cactus3.png","","","memory_trial","4","definitely_new","","","","","","",""
"html-keyboard-response","84","290822","0.0-15.0-0.21","1997","2","""event"",""trial"",""time""
""fullscreenenter"",""1"",""2897""
","
","
","""event"",""trial"",""time""
""fullscreenenter"",""1"",""2897""
","
","","","","","","null","<div style=""font-size:60px;"">+</div>","null","","fixation","","","","","","","","",""
"memory-trial","85","292889","0.0-15.0-1.21","1997","2","""event"",""trial"",""time""
""fullscreenenter"",""1"",""2897""
","
","
","""event"",""trial"",""time""
""fullscreenenter"",""1"",""2897""
","
","","","","","","1061.2000000001863","images/horse2.png","","","memory_trial","4","definitely_new","","","","","","",""
"html-keyboard-response","86","293394","0.0-15.0-0.22","1997","2","""event"",""trial"",""time""
""fullscreenenter"",""1"",""2897""
","
","
","""event"",""trial"",""time""
""fullscreenenter"",""1"",""2897""
","
","","","","","","null","<div style=""font-size:60px;"">+</div>","null","","fixation","","","","","","","","",""
"memory-trial","87","295217","0.0-15.0-1.22","1997","2","""event"",""trial"",""time""
""fullscreenenter"",""1"",""2897""
","
","
","""event"",""trial"",""time""
""fullscreenenter"",""1"",""2897""
","
","","","","","","817.7999999998137","images/feline5.png","","","memory_trial","1","definitely_old","","","","","","",""
"html-keyboard-response","88","295722","0.0-15.0-0.23","1997","2","""event"",""trial"",""time""
""fullscreenenter"",""1"",""2897""
","
","
","""event"",""trial"",""time""
""fullscreenenter"",""1"",""2897""
","
","","","","","","null","<div style=""font-size:60px;"">+</div>","null","","fixation","","","","","","","","",""
"memory-trial","89","297688","0.0-15.0-1.23","1997","2","""event"",""trial"",""time""
""fullscreenenter"",""1"",""2897""
","
","
","""event"",""trial"",""time""
""fullscreenenter"",""1"",""2897""
","
","","","","","","959.7000000001863","images/truck1.png","","","memory_trial","4","definitely_new","","","","","","",""
"html-keyboard-response","90","298194","0.0-15.0-0.24","1997","2","""event"",""trial"",""time""
""fullscreenenter"",""1"",""2897""
","
","
","""event"",""trial"",""time""
""fullscreenenter"",""1"",""2897""
","
","","","","","","null","<div style=""font-size:60px;"">+</div>","null","","fixation","","","","","","","","",""
"memory-trial","91","301671","0.0-15.0-1.24","1997","2","""event"",""trial"",""time""
""fullscreenenter"",""1"",""2897""
","
","
","""event"",""trial"",""time""
""fullscreenenter"",""1"",""2897""
","
","","","","","","2468.899999999441","images/cow2.png","","","memory_trial","4","definitely_new","","","","","","",""
"html-keyboard-response","92","302177","0.0-15.0-0.25","1997","2","""event"",""trial"",""time""
""fullscreenenter"",""1"",""2897""
","
","
","""event"",""trial"",""time""
""fullscreenenter"",""1"",""2897""
","
","","","","","","null","<div style=""font-size:60px;"">+</div>","null","","fixation","","","","","","","","",""
"memory-trial","93","304291","0.0-15.0-1.25","1997","2","""event"",""trial"",""time""
""fullscreenenter"",""1"",""2897""
","
","
","""event"",""trial"",""time""
""fullscreenenter"",""1"",""2897""
","
","","","","","","1109.5","images/flower3.png","","","memory_trial","1","definitely_old","","","","","","",""
"html-keyboard-response","94","304795","0.0-15.0-0.26","1997","2","""event"",""trial"",""time""
""fullscreenenter"",""1"",""2897""
","
","
","""event"",""trial"",""time""
""fullscreenenter"",""1"",""2897""
","
","","","","","","null","<div style=""font-size:60px;"">+</div>","null","","fixation","","","","","","","","",""
"memory-trial","95","306821","0.0-15.0-1.26","1997","2","""event"",""trial"",""time""
""fullscreenenter"",""1"",""2897""
","
","
","""event"",""trial"",""time""
""fullscreenenter"",""1"",""2897""
","
","","","","","","1023.6000000005588","images/bed1.png","","","memory_trial","4","definitely_new","","","","","","",""
"html-keyboard-response","96","307326","0.0-15.0-0.27","1997","2","""event"",""trial"",""time""
""fullscreenenter"",""1"",""2897""
","
","
","""event"",""trial"",""time""
""fullscreenenter"",""1"",""2897""
","
","","","","","","null","<div style=""font-size:60px;"">+</div>","null","","fixation","","","","","","","","",""
"memory-trial","97","309294","0.0-15.0-1.27","1997","2","""event"",""trial"",""time""
""fullscreenenter"",""1"",""2897""
","
","
","""event"",""trial"",""time""
""fullscreenenter"",""1"",""2897""
","
","","","","","","962.1000000005588","images/goat5.png","","","memory_trial","1","definitely_old","","","","","","",""
"html-keyboard-response","98","309798","0.0-15.0-0.28","1997","2","""event"",""trial"",""time""
""fullscreenenter"",""1"",""2897""
","
","
","""event"",""trial"",""time""
""fullscreenenter"",""1"",""2897""
","
","","","","","","null","<div style=""font-size:60px;"">+</div>","null","","fixation","","","","","","","","",""
"memory-trial","99","313036","0.0-15.0-1.28","1997","2","""event"",""trial"",""time""
""fullscreenenter"",""1"",""2897""
","
","
","""event"",""trial"",""time""
""fullscreenenter"",""1"",""2897""
","
","","","","","","2232.699999999255","images/boat4.png","","","memory_trial","2","maybe_old","","","","","","",""
"html-keyboard-response","100","313541","0.0-15.0-0.29","1997","2","""event"",""trial"",""time""
""fullscreenenter"",""1"",""2897""
","
","
","""event"",""trial"",""time""
""fullscreenenter"",""1"",""2897""
","
","","","","","","null","<div style=""font-size:60px;"">+</div>","null","","fixation","","","","","","","","",""
"memory-trial","101","315372","0.0-15.0-1.29","1997","2","""event"",""trial"",""time""
""fullscreenenter"",""1"",""2897""
","
","
","""event"",""trial"",""time""
""fullscreenenter"",""1"",""2897""
","
","","","","","","827.5999999996275","images/horse3.png","","","memory_trial","4","definitely_new","","","","","","",""
"html-keyboard-response","102","315876","0.0-15.0-0.30","1997","2","""event"",""trial"",""time""
""fullscreenenter"",""1"",""2897""
","
","
","""event"",""trial"",""time""
""fullscreenenter"",""1"",""2897""
","
","","","","","","null","<div style=""font-size:60px;"">+</div>","null","","fixation","","","","","","","","",""
"memory-trial","103","317949","0.0-15.0-1.30","1997","2","""event"",""trial"",""time""
""fullscreenenter"",""1"",""2897""
","
","
","""event"",""trial"",""time""
""fullscreenenter"",""1"",""2897""
","
","","","","","","1068","images/cow1.png","","","memory_trial","1","definitely_old","","","","","","",""
"html-keyboard-response","104","318455","0.0-15.0-0.31","1997","2","""event"",""trial"",""time""
""fullscreenenter"",""1"",""2897""
","
","
","""event"",""trial"",""time""
""fullscreenenter"",""1"",""2897""
","
","","","","","","null","<div style=""font-size:60px;"">+</div>","null","","fixation","","","","","","","","",""
"memory-trial","105","320544","0.0-15.0-1.31","1997","2","""event"",""trial"",""time""
""fullscreenenter"",""1"",""2897""
","
","
","""event"",""trial"",""time""
""fullscreenenter"",""1"",""2897""
","
","","","","","","1082.5","images/plane4.png","","","memory_trial","4","definitely_new","","","","","","",""
"html-keyboard-response","106","321048","0.0-15.0-0.32","1997","2","""event"",""trial"",""time""
""fullscreenenter"",""1"",""2897""
","
","
","""event"",""trial"",""time""
""fullscreenenter"",""1"",""2897""
","
","","","","","","null","<div style=""font-size:60px;"">+</div>","null","","fixation","","","","","","","","",""
"memory-trial","107","323365","0.0-15.0-1.32","1997","2","""event"",""trial"",""time""
""fullscreenenter"",""1"",""2897""
","
","
","""event"",""trial"",""time""
""fullscreenenter"",""1"",""2897""
","
","","","","","","1310","images/cactus2.png","","","memory_trial","1","definitely_old","","","","","","",""
"html-keyboard-response","108","323871","0.0-15.0-0.33","1997","2","""event"",""trial"",""time""
""fullscreenenter"",""1"",""2897""
","
","
","""event"",""trial"",""time""
""fullscreenenter"",""1"",""2897""
","
","","","","","","null","<div style=""font-size:60px;"">+</div>","null","","fixation","","","","","","","","",""
"memory-trial","109","327303","0.0-15.0-1.33","1997","2","""event"",""trial"",""time""
""fullscreenenter"",""1"",""2897""
","
","
","""event"",""trial"",""time""
""fullscreenenter"",""1"",""2897""
","
","","","","","","2426.199999999255","images/cow4.png","","","memory_trial","4","definitely_new","","","","","","",""
"html-keyboard-response","110","327805","0.0-15.0-0.34","1997","2","""event"",""trial"",""time""
""fullscreenenter"",""1"",""2897""
","
","
","""event"",""trial"",""time""
""fullscreenenter"",""1"",""2897""
","
","","","","","","null","<div style=""font-size:60px;"">+</div>","null","","fixation","","","","","","","","",""
"memory-trial","111","334185","0.0-15.0-1.34","1997","2","""event"",""trial"",""time""
""fullscreenenter"",""1"",""2897""
","
","
","""event"",""trial"",""time""
""fullscreenenter"",""1"",""2897""
","
","","","","","","5373.200000000186","images/sofa3.png","","","memory_trial","3","maybe_new","","","","","","",""
"html-keyboard-response","112","334690","0.0-15.0-0.35","1997","2","""event"",""trial"",""time""
""fullscreenenter"",""1"",""2897""
","
","
","""event"",""trial"",""time""
""fullscreenenter"",""1"",""2897""
","
","","","","","","null","<div style=""font-size:60px;"">+</div>","null","","fixation","","","","","","","","",""
"memory-trial","113","337828","0.0-15.0-1.35","1997","2","""event"",""trial"",""time""
""fullscreenenter"",""1"",""2897""
","
","
","""event"",""trial"",""time""
""fullscreenenter"",""1"",""2897""
","
","","","","","","2130.5","images/boat1.png","","","memory_trial","4","definitely_new","","","","","","",""
"html-keyboard-response","114","338333","0.0-15.0-0.36","1997","2","""event"",""trial"",""time""
""fullscreenenter"",""1"",""2897""
","
","
","""event"",""trial"",""time""
""fullscreenenter"",""1"",""2897""
","
","","","","","","null","<div style=""font-size:60px;"">+</div>","null","","fixation","","","","","","","","",""
"memory-trial","115","340397","0.0-15.0-1.36","1997","2","""event"",""trial"",""time""
""fullscreenenter"",""1"",""2897""
","
","
","""event"",""trial"",""time""
""fullscreenenter"",""1"",""2897""
","
","","","","","","1058.6000000005588","images/sheep4.png","","","memory_trial","1","definitely_old","","","","","","",""
"html-keyboard-response","116","340901","0.0-15.0-0.37","1997","2","""event"",""trial"",""time""
""fullscreenenter"",""1"",""2897""
","
","
","""event"",""trial"",""time""
""fullscreenenter"",""1"",""2897""
","
","","","","","","null","<div style=""font-size:60px;"">+</div>","null","","fixation","","","","","","","","",""
"memory-trial","117","345377","0.0-15.0-1.37","1997","2","""event"",""trial"",""time""
""fullscreenenter"",""1"",""2897""
","
","
","""event"",""trial"",""time""
""fullscreenenter"",""1"",""2897""
","
","","","","","","3470.100000000559","images/orange4.png","","","memory_trial","2","maybe_old","","","","","","",""
"html-keyboard-response","118","345882","0.0-15.0-0.38","1997","2","""event"",""trial"",""time""
""fullscreenenter"",""1"",""2897""
","
","
","""event"",""trial"",""time""
""fullscreenenter"",""1"",""2897""
","
","","","","","","null","<div style=""font-size:60px;"">+</div>","null","","fixation","","","","","","","","",""
"memory-trial","119","350228","0.0-15.0-1.38","1997","2","""event"",""trial"",""time""
""fullscreenenter"",""1"",""2897""
","
","
","""event"",""trial"",""time""
""fullscreenenter"",""1"",""2897""
","
","","","","","","3339.899999999441","images/tree4.png","","","memory_trial","1","definitely_old","","","","","","",""
"html-keyboard-response","120","350733","0.0-15.0-0.39","1997","2","""event"",""trial"",""time""
""fullscreenenter"",""1"",""2897""
","
","
","""event"",""trial"",""time""
""fullscreenenter"",""1"",""2897""
","
","","","","","","null","<div style=""font-size:60px;"">+</div>","null","","fixation","","","","","","","","",""
"memory-trial","121","353503","0.0-15.0-1.39","1997","2","""event"",""trial"",""time""
""fullscreenenter"",""1"",""2897""
","
","
","""event"",""trial"",""time""
""fullscreenenter"",""1"",""2897""
","
","","","","","","1762.9000000003725","images/truck4.png","","","memory_trial","1","definitely_old","","","","","","",""
"html-keyboard-response","122","354009","0.0-15.0-0.40","1997","2","""event"",""trial"",""time""
""fullscreenenter"",""1"",""2897""
","
","
","""event"",""trial"",""time""
""fullscreenenter"",""1"",""2897""
","
","","","","","","null","<div style=""font-size:60px;"">+</div>","null","","fixation","","","","","","","","",""
"memory-trial","123","355924","0.0-15.0-1.40","1997","2","""event"",""trial"",""time""
""fullscreenenter"",""1"",""2897""
","
","
","""event"",""trial"",""time""
""fullscreenenter"",""1"",""2897""
","
","","","","","","911.4000000003725","images/feline3.png","","","memory_trial","1","definitely_old","","","","","","",""
"html-keyboard-response","124","356430","0.0-15.0-0.41","1997","2","""event"",""trial"",""time""
""fullscreenenter"",""1"",""2897""
","
","
","""event"",""trial"",""time""
""fullscreenenter"",""1"",""2897""
","
","","","","","","null","<div style=""font-size:60px;"">+</div>","null","","fixation","","","","","","","","",""
"memory-trial","125","359205","0.0-15.0-1.41","1997","2","""event"",""trial"",""time""
""fullscreenenter"",""1"",""2897""
","
","
","""event"",""trial"",""time""
""fullscreenenter"",""1"",""2897""
","
","","","","","","1768.3999999994412","images/train3.png","","","memory_trial","2","maybe_old","","","","","","",""
"html-keyboard-response","126","359710","0.0-15.0-0.42","1997","2","""event"",""trial"",""time""
""fullscreenenter"",""1"",""2897""
","
","
","""event"",""trial"",""time""
""fullscreenenter"",""1"",""2897""
","
","","","","","","null","<div style=""font-size:60px;"">+</div>","null","","fixation","","","","","","","","",""
"memory-trial","127","363733","0.0-15.0-1.42","1997","2","""event"",""trial"",""time""
""fullscreenenter"",""1"",""2897""
","
","
","""event"",""trial"",""time""
""fullscreenenter"",""1"",""2897""
","
","","","","","","3018.2999999998137","images/train1.png","","","memory_trial","3","maybe_new","","","","","","",""
"html-keyboard-response","128","364238","0.0-15.0-0.43","1997","2","""event"",""trial"",""time""
""fullscreenenter"",""1"",""2897""
","
","
","""event"",""trial"",""time""
""fullscreenenter"",""1"",""2897""
","
","","","","","","null","<div style=""font-size:60px;"">+</div>","null","","fixation","","","","","","","","",""
"memory-trial","129","367573","0.0-15.0-1.43","1997","2","""event"",""trial"",""time""
""fullscreenenter"",""1"",""2897""
","
","
","""event"",""trial"",""time""
""fullscreenenter"",""1"",""2897""
","
","","","","","","2327.2999999998137","images/sofa1.png","","","memory_trial","1","definitely_old","","","","","","",""
"html-keyboard-response","130","368075","0.0-15.0-0.44","1997","2","""event"",""trial"",""time""
""fullscreenenter"",""1"",""2897""
","
","
","""event"",""trial"",""time""
""fullscreenenter"",""1"",""2897""
","
","","","","","","null","<div style=""font-size:60px;"">+</div>","null","","fixation","","","","","","","","",""
"memory-trial","131","370524","0.0-15.0-1.44","1997","2","""event"",""trial"",""time""
""fullscreenenter"",""1"",""2897""
","
","
","""event"",""trial"",""time""
""fullscreenenter"",""1"",""2897""
","
","","","","","","1444","images/straw2.png","","","memory_trial","1","definitely_old","","","","","","",""
"html-keyboard-response","132","371029","0.0-15.0-0.45","1997","2","""event"",""trial"",""time""
""fullscreenenter"",""1"",""2897""
","
","
","""event"",""trial"",""time""
""fullscreenenter"",""1"",""2897""
","
","","","","","","null","<div style=""font-size:60px;"">+</div>","null","","fixation","","","","","","","","",""
"memory-trial","133","374843","0.0-15.0-1.45","1997","2","""event"",""trial"",""time""
""fullscreenenter"",""1"",""2897""
","
","
","""event"",""trial"",""time""
""fullscreenenter"",""1"",""2897""
","
","","","","","","2810.7999999998137","images/banana3.png","","","memory_trial","4","definitely_new","","","","","","",""
"html-keyboard-response","134","375348","0.0-15.0-0.46","1997","2","""event"",""trial"",""time""
""fullscreenenter"",""1"",""2897""
","
","
","""event"",""trial"",""time""
""fullscreenenter"",""1"",""2897""
","
","","","","","","null","<div style=""font-size:60px;"">+</div>","null","","fixation","","","","","","","","",""
"memory-trial","135","377625","0.0-15.0-1.46","1997","2","""event"",""trial"",""time""
""fullscreenenter"",""1"",""2897""
","
","
","""event"",""trial"",""time""
""fullscreenenter"",""1"",""2897""
","
","","","","","","1272","images/train2.png","","","memory_trial","4","definitely_new","","","","","","",""
"html-button-response","136","391513","0.0-15.0-2.46-0.46","1997","2","""event"",""trial"",""time""
""fullscreenenter"",""1"",""2897""
","
","
","""event"",""trial"",""time""
""fullscreenenter"",""1"",""2897""
","
","","","","","","13885.899999999441","<p> Take a break! </p><p> Click the button to continue. </p>","0","","break","","","","","","","","",""
"html-keyboard-response","137","392015","0.0-15.0-0.47","1997","2","""event"",""trial"",""time""
""fullscreenenter"",""1"",""2897""
","
","
","""event"",""trial"",""time""
""fullscreenenter"",""1"",""2897""
","
","","","","","","null","<div style=""font-size:60px;"">+</div>","null","","fixation","","","","","","","","",""
"memory-trial","138","394150","0.0-15.0-1.47","1997","2","""event"",""trial"",""time""
""fullscreenenter"",""1"",""2897""
","
","
","""event"",""trial"",""time""
""fullscreenenter"",""1"",""2897""
","
","","","","","","1128.3999999994412","images/train4.png","","","memory_trial","4","definitely_new","","","","","","",""
"html-keyboard-response","139","394655","0.0-15.0-0.48","1997","2","""event"",""trial"",""time""
""fullscreenenter"",""1"",""2897""
","
","
","""event"",""trial"",""time""
""fullscreenenter"",""1"",""2897""
","
","","","","","","null","<div style=""font-size:60px;"">+</div>","null","","fixation","","","","","","","","",""
"memory-trial","140","398980","0.0-15.0-1.48","1997","2","""event"",""trial"",""time""
""fullscreenenter"",""1"",""2897""
","
","
","""event"",""trial"",""time""
""fullscreenenter"",""1"",""2897""
","
","","","","","","3319.0999999996275","images/cactus1.png","","","memory_trial","2","maybe_old","","","","","","",""
"html-keyboard-response","141","399485","0.0-15.0-0.49","1997","2","""event"",""trial"",""time""
""fullscreenenter"",""1"",""2897""
","
","
","""event"",""trial"",""time""
""fullscreenenter"",""1"",""2897""
","
","","","","","","null","<div style=""font-size:60px;"">+</div>","null","","fixation","","","","","","","","",""
"memory-trial","142","401838","0.0-15.0-1.49","1997","2","""event"",""trial"",""time""
""fullscreenenter"",""1"",""2897""
","
","
","""event"",""trial"",""time""
""fullscreenenter"",""1"",""2897""
","
","","","","","","1346.7000000001863","images/flower5.png","","","memory_trial","1","definitely_old","","","","","","",""
"html-keyboard-response","143","402343","0.0-15.0-0.50","1997","2","""event"",""trial"",""time""
""fullscreenenter"",""1"",""2897""
","
","
","""event"",""trial"",""time""
""fullscreenenter"",""1"",""2897""
","
","","","","","","null","<div style=""font-size:60px;"">+</div>","null","","fixation","","","","","","","","",""
"memory-trial","144","406022","0.0-15.0-1.50","1997","2","""event"",""trial"",""time""
""fullscreenenter"",""1"",""2897""
","
","
","""event"",""trial"",""time""
""fullscreenenter"",""1"",""2897""
","
","","","","","","2672.800000000745","images/rabbit1.png","","","memory_trial","2","maybe_old","","","","","","",""
"html-keyboard-response","145","406528","0.0-15.0-0.51","1997","2","""event"",""trial"",""time""
""fullscreenenter"",""1"",""2897""
","
","
","""event"",""trial"",""time""
""fullscreenenter"",""1"",""2897""
","
","","","","","","null","<div style=""font-size:60px;"">+</div>","null","","fixation","","","","","","","","",""
"memory-trial","146","409928","0.0-15.0-1.51","1997","2","""event"",""trial"",""time""
""fullscreenenter"",""1"",""2897""
","
","
","""event"",""trial"",""time""
""fullscreenenter"",""1"",""2897""
","
","","","","","","2392.4000000003725","images/flower4.png","","","memory_trial","3","maybe_new","","","","","","",""
"html-keyboard-response","147","410433","0.0-15.0-0.52","1997","2","""event"",""trial"",""time""
""fullscreenenter"",""1"",""2897""
","
","
","""event"",""trial"",""time""
""fullscreenenter"",""1"",""2897""
","
","","","","","","null","<div style=""font-size:60px;"">+</div>","null","","fixation","","","","","","","","",""
"memory-trial","148","413121","0.0-15.0-1.52","1997","2","""event"",""trial"",""time""
""fullscreenenter"",""1"",""2897""
","
","
","""event"",""trial"",""time""
""fullscreenenter"",""1"",""2897""
","
","","","","","","1679.9000000003725","images/rodent2.png","","","memory_trial","4","definitely_new","","","","","","",""
"html-keyboard-response","149","413626","0.0-15.0-0.53","1997","2","""event"",""trial"",""time""
""fullscreenenter"",""1"",""2897""
","
","
","""event"",""trial"",""time""
""fullscreenenter"",""1"",""2897""
","
","","","","","","null","<div style=""font-size:60px;"">+</div>","null","","fixation","","","","","","","","",""
"memory-trial","150","415762","0.0-15.0-1.53","1997","2","""event"",""trial"",""time""
""fullscreenenter"",""1"",""2897""
","
","
","""event"",""trial"",""time""
""fullscreenenter"",""1"",""2897""
","
","","","","","","1128.0999999996275","images/orange3.png","","","memory_trial","1","definitely_old","","","","","","",""
"html-keyboard-response","151","416267","0.0-15.0-0.54","1997","2","""event"",""trial"",""time""
""fullscreenenter"",""1"",""2897""
","
","
","""event"",""trial"",""time""
""fullscreenenter"",""1"",""2897""
","
","","","","","","null","<div style=""font-size:60px;"">+</div>","null","","fixation","","","","","","","","",""
"memory-trial","152","418238","0.0-15.0-1.54","1997","2","""event"",""trial"",""time""
""fullscreenenter"",""1"",""2897""
","
","
","""event"",""trial"",""time""
""fullscreenenter"",""1"",""2897""
","
","","","","","","963.2000000001863","images/goat4.png","","","memory_trial","1","definitely_old","","","","","","",""
"html-keyboard-response","153","418740","0.0-15.0-0.55","1997","2","""event"",""trial"",""time""
""fullscreenenter"",""1"",""2897""
","
","
","""event"",""trial"",""time""
""fullscreenenter"",""1"",""2897""
","
","","","","","","null","<div style=""font-size:60px;"">+</div>","null","","fixation","","","","","","","","",""
"memory-trial","154","420784","0.0-15.0-1.55","1997","2","""event"",""trial"",""time""
""fullscreenenter"",""1"",""2897""
","
","
","""event"",""trial"",""time""
""fullscreenenter"",""1"",""2897""
","
","","","","","","1038.0999999996275","images/rodent4.png","","","memory_trial","4","definitely_new","","","","","","",""
"html-keyboard-response","155","421288","0.0-15.0-0.56","1997","2","""event"",""trial"",""time""
""fullscreenenter"",""1"",""2897""
","
","
","""event"",""trial"",""time""
""fullscreenenter"",""1"",""2897""
","
","","","","","","null","<div style=""font-size:60px;"">+</div>","null","","fixation","","","","","","","","",""
"memory-trial","156","424173","0.0-15.0-1.56","1997","2","""event"",""trial"",""time""
""fullscreenenter"",""1"",""2897""
","
","
","""event"",""trial"",""time""
""fullscreenenter"",""1"",""2897""
","
","","","","","","1877.5999999996275","images/dog4.png","","","memory_trial","4","definitely_new","","","","","","",""
"html-keyboard-response","157","424678","0.0-15.0-0.57","1997","2","""event"",""trial"",""time""
""fullscreenenter"",""1"",""2897""
","
","
","""event"",""trial"",""time""
""fullscreenenter"",""1"",""2897""
","
","","","","","","null","<div style=""font-size:60px;"">+</div>","null","","fixation","","","","","","","","",""
"memory-trial","158","426828","0.0-15.0-1.57","1997","2","""event"",""trial"",""time""
""fullscreenenter"",""1"",""2897""
","
","
","""event"",""trial"",""time""
""fullscreenenter"",""1"",""2897""
","
","","","","","","1145.5999999996275","images/truck5.png","","","memory_trial","4","definitely_new","","","","","","",""
"html-keyboard-response","159","427331","0.0-15.0-0.58","1997","2","""event"",""trial"",""time""
""fullscreenenter"",""1"",""2897""
","
","
","""event"",""trial"",""time""
""fullscreenenter"",""1"",""2897""
","
","","","","","","null","<div style=""font-size:60px;"">+</div>","null","","fixation","","","","","","","","",""
"memory-trial","160","429473","0.0-15.0-1.58","1997","2","""event"",""trial"",""time""
""fullscreenenter"",""1"",""2897""
","
","
","""event"",""trial"",""time""
""fullscreenenter"",""1"",""2897""
","
","","","","","","1137.8999999994412","images/rabbit2.png","","","memory_trial","1","definitely_old","","","","","","",""
"html-keyboard-response","161","429978","0.0-15.0-0.59","1997","2","""event"",""trial"",""time""
""fullscreenenter"",""1"",""2897""
","
","
","""event"",""trial"",""time""
""fullscreenenter"",""1"",""2897""
","
","","","","","","null","<div style=""font-size:60px;"">+</div>","null","","fixation","","","","","","","","",""
"memory-trial","162","432164","0.0-15.0-1.59","1997","2","""event"",""trial"",""time""
""fullscreenenter"",""1"",""2897""
","
","
","""event"",""trial"",""time""
""fullscreenenter"",""1"",""2897""
","
","","","","","","1180.5999999996275","images/horse1.png","","","memory_trial","4","definitely_new","","","","","","",""
"html-keyboard-response","163","432666","0.0-15.0-0.60","1997","2","""event"",""trial"",""time""
""fullscreenenter"",""1"",""2897""
","
","
","""event"",""trial"",""time""
""fullscreenenter"",""1"",""2897""
","
","","","","","","null","<div style=""font-size:60px;"">+</div>","null","","fixation","","","","","","","","",""
"memory-trial","164","434495","0.0-15.0-1.60","1997","2","""event"",""trial"",""time""
""fullscreenenter"",""1"",""2897""
","
","
","""event"",""trial"",""time""
""fullscreenenter"",""1"",""2897""
","
","","","","","","822.7999999998137","images/bush1.png","","","memory_trial","4","definitely_new","","","","","","",""
"html-keyboard-response","165","435000","0.0-15.0-0.61","1997","2","""event"",""trial"",""time""
""fullscreenenter"",""1"",""2897""
","
","
","""event"",""trial"",""time""
""fullscreenenter"",""1"",""2897""
","
","","","","","","null","<div style=""font-size:60px;"">+</div>","null","","fixation","","","","","","","","",""
"memory-trial","166","438477","0.0-15.0-1.61","1997","2","""event"",""trial"",""time""
""fullscreenenter"",""1"",""2897""
","
","
","""event"",""trial"",""time""
""fullscreenenter"",""1"",""2897""
","
","","","","","","2474.600000000559","images/cow5.png","","","memory_trial","2","maybe_old","","","","","","",""
"html-keyboard-response","167","438982","0.0-15.0-0.62","1997","2","""event"",""trial"",""time""
""fullscreenenter"",""1"",""2897""
","
","
","""event"",""trial"",""time""
""fullscreenenter"",""1"",""2897""
","
","","","","","","null","<div style=""font-size:60px;"">+</div>","null","","fixation","","","","","","","","",""
"memory-trial","168","441211","0.0-15.0-1.62","1997","2","""event"",""trial"",""time""
""fullscreenenter"",""1"",""2897""
","
","
","""event"",""trial"",""time""
""fullscreenenter"",""1"",""2897""
","
","","","","","","1224.8999999994412","images/bed2.png","","","memory_trial","4","definitely_new","","","","","","",""
"html-keyboard-response","169","441716","0.0-15.0-0.63","1997","2","""event"",""trial"",""time""
""fullscreenenter"",""1"",""2897""
","
","
","""event"",""trial"",""time""
""fullscreenenter"",""1"",""2897""
","
","","","","","","null","<div style=""font-size:60px;"">+</div>","null","","fixation","","","","","","","","",""
"memory-trial","170","443934","0.0-15.0-1.63","1997","2","""event"",""trial"",""time""
""fullscreenenter"",""1"",""2897""
","
","
","""event"",""trial"",""time""
""fullscreenenter"",""1"",""2897""
","
","","","","","","1211.8999999994412","images/dog5.png","","","memory_trial","1","definitely_old","","","","","","",""
"html-keyboard-response","171","444439","0.0-15.0-0.64","1997","2","""event"",""trial"",""time""
""fullscreenenter"",""1"",""2897""
","
","
","""event"",""trial"",""time""
""fullscreenenter"",""1"",""2897""
","
","","","","","","null","<div style=""font-size:60px;"">+</div>","null","","fixation","","","","","","","","",""
"memory-trial","172","449263","0.0-15.0-1.64","1997","2","""event"",""trial"",""time""
""fullscreenenter"",""1"",""2897""
","
","
","""event"",""trial"",""time""
""fullscreenenter"",""1"",""2897""
","
","","","","","","3817.4000000003725","images/orange2.png","","","memory_trial","4","definitely_new","","","","","","",""
"html-keyboard-response","173","449767","0.0-15.0-0.65","1997","2","""event"",""trial"",""time""
""fullscreenenter"",""1"",""2897""
","
","
","""event"",""trial"",""time""
""fullscreenenter"",""1"",""2897""
","
","","","","","","null","<div style=""font-size:60px;"">+</div>","null","","fixation","","","","","","","","",""
"memory-trial","174","451701","0.0-15.0-1.65","1997","2","""event"",""trial"",""time""
""fullscreenenter"",""1"",""2897""
","
","
","""event"",""trial"",""time""
""fullscreenenter"",""1"",""2897""
","
","","","","","","927.5","images/boat2.png","","","memory_trial","4","definitely_new","","","","","","",""
"html-keyboard-response","175","452206","0.0-15.0-0.66","1997","2","""event"",""trial"",""time""
""fullscreenenter"",""1"",""2897""
","
","
","""event"",""trial"",""time""
""fullscreenenter"",""1"",""2897""
","
","","","","","","null","<div style=""font-size:60px;"">+</div>","null","","fixation","","","","","","","","",""
"memory-trial","176","454644","0.0-15.0-1.66","1997","2","""event"",""trial"",""time""
""fullscreenenter"",""1"",""2897""
","
","
","""event"",""trial"",""time""
""fullscreenenter"",""1"",""2897""
","
","","","","","","1433.7999999998137","images/plane5.png","","","memory_trial","1","definitely_old","","","","","","",""
"html-keyboard-response","177","455149","0.0-15.0-0.67","1997","2","""event"",""trial"",""time""
""fullscreenenter"",""1"",""2897""
","
","
","""event"",""trial"",""time""
""fullscreenenter"",""1"",""2897""
","
","","","","","","null","<div style=""font-size:60px;"">+</div>","null","","fixation","","","","","","","","",""
"memory-trial","178","458071","0.0-15.0-1.67","1997","2","""event"",""trial"",""time""
""fullscreenenter"",""1"",""2897""
","
","
","""event"",""trial"",""time""
""fullscreenenter"",""1"",""2897""
","
","","","","","","1918.9000000003725","images/table2.png","","","memory_trial","1","definitely_old","","","","","","",""
"html-keyboard-response","179","458573","0.0-15.0-0.68","1997","2","""event"",""trial"",""time""
""fullscreenenter"",""1"",""2897""
","
","
","""event"",""trial"",""time""
""fullscreenenter"",""1"",""2897""
","
","","","","","","null","<div style=""font-size:60px;"">+</div>","null","","fixation","","","","","","","","",""
"memory-trial","180","460530","0.0-15.0-1.68","1997","2","""event"",""trial"",""time""
""fullscreenenter"",""1"",""2897""
","
","
","""event"",""trial"",""time""
""fullscreenenter"",""1"",""2897""
","
","","","","","","949.6999999992549","images/table1.png","","","memory_trial","4","definitely_new","","","","","","",""
"html-keyboard-response","181","461035","0.0-15.0-0.69","1997","2","""event"",""trial"",""time""
""fullscreenenter"",""1"",""2897""
","
","
","""event"",""trial"",""time""
""fullscreenenter"",""1"",""2897""
","
","","","","","","null","<div style=""font-size:60px;"">+</div>","null","","fixation","","","","","","","","",""
"memory-trial","182","463511","0.0-15.0-1.69","1997","2","""event"",""trial"",""time""
""fullscreenenter"",""1"",""2897""
","
","
","""event"",""trial"",""time""
""fullscreenenter"",""1"",""2897""
","
","","","","","","1471.2000000001863","images/boat3.png","","","memory_trial","4","definitely_new","","","","","","",""
"html-keyboard-response","183","464014","0.0-15.0-0.70","1997","2","""event"",""trial"",""time""
""fullscreenenter"",""1"",""2897""
","
","
","""event"",""trial"",""time""
""fullscreenenter"",""1"",""2897""
","
","","","","","","null","<div style=""font-size:60px;"">+</div>","null","","fixation","","","","","","","","",""
"memory-trial","184","467676","0.0-15.0-1.70","1997","2","""event"",""trial"",""time""
""fullscreenenter"",""1"",""2897""
","
","
","""event"",""trial"",""time""
""fullscreenenter"",""1"",""2897""
","
","","","","","","2658.9000000003725","images/cactus4.png","","","memory_trial","1","definitely_old","","","","","","",""
"html-keyboard-response","185","468183","0.0-15.0-0.71","1997","2","""event"",""trial"",""time""
""fullscreenenter"",""1"",""2897""
","
","
","""event"",""trial"",""time""
""fullscreenenter"",""1"",""2897""
","
","","","","","","null","<div style=""font-size:60px;"">+</div>","null","","fixation","","","","","","","","",""
"memory-trial","186","475335","0.0-15.0-1.71","1997","2","""event"",""trial"",""time""
""fullscreenenter"",""1"",""2897""
","
","
","""event"",""trial"",""time""
""fullscreenenter"",""1"",""2897""
","
","","","","","","6146.700000000186","images/bed3.png","","","memory_trial","3","maybe_new","","","","","","",""
"html-keyboard-response","187","475837","0.0-15.0-0.72","1997","2","""event"",""trial"",""time""
""fullscreenenter"",""1"",""2897""
","
","
","""event"",""trial"",""time""
""fullscreenenter"",""1"",""2897""
","
","","","","","","null","<div style=""font-size:60px;"">+</div>","null","","fixation","","","","","","","","",""
"memory-trial","188","478261","0.0-15.0-1.72","1997","2","""event"",""trial"",""time""
""fullscreenenter"",""1"",""2897""
","
","
","""event"",""trial"",""time""
""fullscreenenter"",""1"",""2897""
","
","","","","","","1415.699999999255","images/goat3.png","","","memory_trial","4","definitely_new","","","","","","",""
"html-keyboard-response","189","478763","0.0-15.0-0.73","1997","2","""event"",""trial"",""time""
""fullscreenenter"",""1"",""2897""
","
","
","""event"",""trial"",""time""
""fullscreenenter"",""1"",""2897""
","
","","","","","","null","<div style=""font-size:60px;"">+</div>","null","","fixation","","","","","","","","",""
"memory-trial","190","484222","0.0-15.0-1.73","1997","2","""event"",""trial"",""time""
""fullscreenenter"",""1"",""2897""
","
","
","""event"",""trial"",""time""
""fullscreenenter"",""1"",""2897""
","
","","","","","","4454.4000000003725","images/tree1.png","","","memory_trial","3","maybe_new","","","","","","",""
"html-keyboard-response","191","484727","0.0-15.0-0.74","1997","2","""event"",""trial"",""time""
""fullscreenenter"",""1"",""2897""
","
","
","""event"",""trial"",""time""
""fullscreenenter"",""1"",""2897""
","
","","","","","","null","<div style=""font-size:60px;"">+</div>","null","","fixation","","","","","","","","",""
"memory-trial","192","487813","0.0-15.0-1.74","1997","2","""event"",""trial"",""time""
""fullscreenenter"",""1"",""2897""
","
","
","""event"",""trial"",""time""
""fullscreenenter"",""1"",""2897""
","
","","","","","","2079.5","images/feline2.png","","","memory_trial","3","maybe_new","","","","","","",""
"html-keyboard-response","193","488318","0.0-15.0-0.75","1997","2","""event"",""trial"",""time""
""fullscreenenter"",""1"",""2897""
","
","
","""event"",""trial"",""time""
""fullscreenenter"",""1"",""2897""
","
","","","","","","null","<div style=""font-size:60px;"">+</div>","null","","fixation","","","","","","","","",""
"memory-trial","194","491071","0.0-15.0-1.75","1997","2","""event"",""trial"",""time""
""fullscreenenter"",""1"",""2897""
","
","
","""event"",""trial"",""time""
""fullscreenenter"",""1"",""2897""
","
","","","","","","1746","images/sheep1.png","","","memory_trial","4","definitely_new","","","","","","",""
"html-keyboard-response","195","491575","0.0-15.0-0.76","1997","2","""event"",""trial"",""time""
""fullscreenenter"",""1"",""2897""
","
","
","""event"",""trial"",""time""
""fullscreenenter"",""1"",""2897""
","
","","","","","","null","<div style=""font-size:60px;"">+</div>","null","","fixation","","","","","","","","",""
"memory-trial","196","493689","0.0-15.0-1.76","1997","2","""event"",""trial"",""time""
""fullscreenenter"",""1"",""2897""
","
","
","""event"",""trial"",""time""
""fullscreenenter"",""1"",""2897""
","
","","","","","","1106.9000000003725","images/banana2.png","","","memory_trial","4","definitely_new","","","","","","",""
"html-keyboard-response","197","494194","0.0-15.0-0.77","1997","2","""event"",""trial"",""time""
""fullscreenenter"",""1"",""2897""
","
","
","""event"",""trial"",""time""
""fullscreenenter"",""1"",""2897""
","
","","","","","","null","<div style=""font-size:60px;"">+</div>","null","","fixation","","","","","","","","",""
"memory-trial","198","496607","0.0-15.0-1.77","1997","2","""event"",""trial"",""time""
""fullscreenenter"",""1"",""2897""
","
","
","""event"",""trial"",""time""
""fullscreenenter"",""1"",""2897""
","
","","","","","","1406.2999999998137","images/chair4.png","","","memory_trial","4","definitely_new","","","","","","",""
"html-keyboard-response","199","497112","0.0-15.0-0.78","1997","2","""event"",""trial"",""time""
""fullscreenenter"",""1"",""2897""
","
","
","""event"",""trial"",""time""
""fullscreenenter"",""1"",""2897""
","
","","","","","","null","<div style=""font-size:60px;"">+</div>","null","","fixation","","","","","","","","",""
"memory-trial","200","500427","0.0-15.0-1.78","1997","2","""event"",""trial"",""time""
""fullscreenenter"",""1"",""2897""
","
","
","""event"",""trial"",""time""
""fullscreenenter"",""1"",""2897""
","
","","","","","","2313.100000000559","images/orange5.png","","","memory_trial","2","maybe_old","","","","","","",""
"html-keyboard-response","201","500932","0.0-15.0-0.79","1997","2","""event"",""trial"",""time""
""fullscreenenter"",""1"",""2897""
","
","
","""event"",""trial"",""time""
""fullscreenenter"",""1"",""2897""
","
","","","","","","null","<div style=""font-size:60px;"">+</div>","null","","fixation","","","","","","","","",""
"memory-trial","202","503428","0.0-15.0-1.79","1997","2","""event"",""trial"",""time""
""fullscreenenter"",""1"",""2897""
","
","
","""event"",""trial"",""time""
""fullscreenenter"",""1"",""2897""
","
","","","","","","1490.199999999255","images/banana5.png","","","memory_trial","1","definitely_old","","","","","","",""
"html-keyboard-response","203","503933","0.0-15.0-0.80","1997","2","""event"",""trial"",""time""
""fullscreenenter"",""1"",""2897""
","
","
","""event"",""trial"",""time""
""fullscreenenter"",""1"",""2897""
","
","","","","","","null","<div style=""font-size:60px;"">+</div>","null","","fixation","","","","","","","","",""
"memory-trial","204","507782","0.0-15.0-1.80","1997","2","""event"",""trial"",""time""
""fullscreenenter"",""1"",""2897""
","
","
","""event"",""trial"",""time""
""fullscreenenter"",""1"",""2897""
","
","","","","","","2840.5999999996275","images/apple5.png","","","memory_trial","3","maybe_new","","","","","","",""
"html-keyboard-response","205","508287","0.0-15.0-0.81","1997","2","""event"",""trial"",""time""
""fullscreenenter"",""1"",""2897""
","
","
","""event"",""trial"",""time""
""fullscreenenter"",""1"",""2897""
","
","","","","","","null","<div style=""font-size:60px;"">+</div>","null","","fixation","","","","","","","","",""
"memory-trial","206","510670","0.0-15.0-1.81","1997","2","""event"",""trial"",""time""
""fullscreenenter"",""1"",""2897""
","
","
","""event"",""trial"",""time""
""fullscreenenter"",""1"",""2897""
","
","","","","","","1374.1000000005588","images/bush2.png","","","memory_trial","4","definitely_new","","","","","","",""
"html-keyboard-response","207","511172","0.0-15.0-0.82","1997","2","""event"",""trial"",""time""
""fullscreenenter"",""1"",""2897""
","
","
","""event"",""trial"",""time""
""fullscreenenter"",""1"",""2897""
","
","","","","","","null","<div style=""font-size:60px;"">+</div>","null","","fixation","","","","","","","","",""
"memory-trial","208","513396","0.0-15.0-1.82","1997","2","""event"",""trial"",""time""
""fullscreenenter"",""1"",""2897""
","
","
","""event"",""trial"",""time""
""fullscreenenter"",""1"",""2897""
","
","","","","","","1217.2000000001863","images/plane1.png","","","memory_trial","1","definitely_old","","","","","","",""
"html-keyboard-response","209","513900","0.0-15.0-0.83","1997","2","""event"",""trial"",""time""
""fullscreenenter"",""1"",""2897""
","
","
","""event"",""trial"",""time""
""fullscreenenter"",""1"",""2897""
","
","","","","","","null","<div style=""font-size:60px;"">+</div>","null","","fixation","","","","","","","","",""
"memory-trial","210","515752","0.0-15.0-1.83","1997","2","""event"",""trial"",""time""
""fullscreenenter"",""1"",""2897""
","
","
","""event"",""trial"",""time""
""fullscreenenter"",""1"",""2897""
","
","","","","","","845.5","images/chair3.png","","","memory_trial","1","definitely_old","","","","","","",""
"html-keyboard-response","211","516257","0.0-15.0-0.84","1997","2","""event"",""trial"",""time""
""fullscreenenter"",""1"",""2897""
","
","
","""event"",""trial"",""time""
""fullscreenenter"",""1"",""2897""
","
","","","","","","null","<div style=""font-size:60px;"">+</div>","null","","fixation","","","","","","","","",""
"memory-trial","212","518748","0.0-15.0-1.84","1997","2","""event"",""trial"",""time""
""fullscreenenter"",""1"",""2897""
","
","
","""event"",""trial"",""time""
""fullscreenenter"",""1"",""2897""
","
","","","","","","1486.199999999255","images/apple1.png","","","memory_trial","1","definitely_old","","","","","","",""
"html-keyboard-response","213","519254","0.0-15.0-0.85","1997","2","""event"",""trial"",""time""
""fullscreenenter"",""1"",""2897""
","
","
","""event"",""trial"",""time""
""fullscreenenter"",""1"",""2897""
","
","","","","","","null","<div style=""font-size:60px;"">+</div>","null","","fixation","","","","","","","","",""
"memory-trial","214","522092","0.0-15.0-1.85","1997","2","""event"",""trial"",""time""
""fullscreenenter"",""1"",""2897""
","
","
","""event"",""trial"",""time""
""fullscreenenter"",""1"",""2897""
","
","","","","","","1831.1000000005588","images/straw1.png","","","memory_trial","3","maybe_new","","","","","","",""
"html-keyboard-response","215","522596","0.0-15.0-0.86","1997","2","""event"",""trial"",""time""
""fullscreenenter"",""1"",""2897""
","
","
","""event"",""trial"",""time""
""fullscreenenter"",""1"",""2897""
","
","","","","","","null","<div style=""font-size:60px;"">+</div>","null","","fixation","","","","","","","","",""
"memory-trial","216","525098","0.0-15.0-1.86","1997","2","""event"",""trial"",""time""
""fullscreenenter"",""1"",""2897""
","
","
","""event"",""trial"",""time""
""fullscreenenter"",""1"",""2897""
","
","","","","","","1494.6000000005588","images/apple4.png","","","memory_trial","1","definitely_old","","","","","","",""
"html-keyboard-response","217","525604","0.0-15.0-0.87","1997","2","""event"",""trial"",""time""
""fullscreenenter"",""1"",""2897""
","
","
","""event"",""trial"",""time""
""fullscreenenter"",""1"",""2897""
","
","","","","","","null","<div style=""font-size:60px;"">+</div>","null","","fixation","","","","","","","","",""
"memory-trial","218","527474","0.0-15.0-1.87","1997","2","""event"",""trial"",""time""
""fullscreenenter"",""1"",""2897""
","
","
","""event"",""trial"",""time""
""fullscreenenter"",""1"",""2897""
","
","","","","","","863.0999999996275","images/sheep3.png","","","memory_trial","1","definitely_old","","","","","","",""
"html-keyboard-response","219","527977","0.0-15.0-0.88","1997","2","""event"",""trial"",""time""
""fullscreenenter"",""1"",""2897""
","
","
","""event"",""trial"",""time""
""fullscreenenter"",""1"",""2897""
","
","","","","","","null","<div style=""font-size:60px;"">+</div>","null","","fixation","","","","","","","","",""
"memory-trial","220","530230","0.0-15.0-1.88","1997","2","""event"",""trial"",""time""
""fullscreenenter"",""1"",""2897""
","
","
","""event"",""trial"",""time""
""fullscreenenter"",""1"",""2897""
","
","","","","","","1250.2999999998137","images/straw4.png","","","memory_trial","4","definitely_new","","","","","","",""
"html-keyboard-response","221","530734","0.0-15.0-0.89","1997","2","""event"",""trial"",""time""
""fullscreenenter"",""1"",""2897""
","
","
","""event"",""trial"",""time""
""fullscreenenter"",""1"",""2897""
","
","","","","","","null","<div style=""font-size:60px;"">+</div>","null","","fixation","","","","","","","","",""
"memory-trial","222","533604","0.0-15.0-1.89","1997","2","""event"",""trial"",""time""
""fullscreenenter"",""1"",""2897""
","
","
","""event"",""trial"",""time""
""fullscreenenter"",""1"",""2897""
","
","","","","","","1864","images/flower1.png","","","memory_trial","4","definitely_new","","","","","","",""
"html-keyboard-response","223","534107","0.0-15.0-0.90","1997","2","""event"",""trial"",""time""
""fullscreenenter"",""1"",""2897""
","
","
","""event"",""trial"",""time""
""fullscreenenter"",""1"",""2897""
","
","","","","","","null","<div style=""font-size:60px;"">+</div>","null","","fixation","","","","","","","","",""
"memory-trial","224","536912","0.0-15.0-1.90","1997","2","""event"",""trial"",""time""
""fullscreenenter"",""1"",""2897""
","
","
","""event"",""trial"",""time""
""fullscreenenter"",""1"",""2897""
","
","","","","","","1799.2999999998137","images/banana1.png","","","memory_trial","3","maybe_new","","","","","","",""
"html-keyboard-response","225","537416","0.0-15.0-0.91","1997","2","""event"",""trial"",""time""
""fullscreenenter"",""1"",""2897""
","
","
","""event"",""trial"",""time""
""fullscreenenter"",""1"",""2897""
","
","","","","","","null","<div style=""font-size:60px;"">+</div>","null","","fixation","","","","","","","","",""
"memory-trial","226","539599","0.0-15.0-1.91","1997","2","""event"",""trial"",""time""
""fullscreenenter"",""1"",""2897""
","
","
","""event"",""trial"",""time""
""fullscreenenter"",""1"",""2897""
","
","","","","","","1175.2000000001863","images/rabbit3.png","","","memory_trial","4","definitely_new","","","","","","",""
"html-keyboard-response","227","540104","0.0-15.0-0.92","1997","2","""event"",""trial"",""time""
""fullscreenenter"",""1"",""2897""
","
","
","""event"",""trial"",""time""
""fullscreenenter"",""1"",""2897""
","
","","","","","","null","<div style=""font-size:60px;"">+</div>","null","","fixation","","","","","","","","",""
"memory-trial","228","542135","0.0-15.0-1.92","1997","2","""event"",""trial"",""time""
""fullscreenenter"",""1"",""2897""
","
","
","""event"",""trial"",""time""
""fullscreenenter"",""1"",""2897""
","
","","","","","","1025.0999999996275","images/goat1.png","","","memory_trial","1","definitely_old","","","","","","",""
"html-keyboard-response","229","542641","0.0-15.0-0.93","1997","2","""event"",""trial"",""time""
""fullscreenenter"",""1"",""2897""
","
","
","""event"",""trial"",""time""
""fullscreenenter"",""1"",""2897""
","
","","","","","","null","<div style=""font-size:60px;"">+</div>","null","","fixation","","","","","","","","",""
"memory-trial","230","545677","0.0-15.0-1.93","1997","2","""event"",""trial"",""time""
""fullscreenenter"",""1"",""2897""
","
","
","""event"",""trial"",""time""
""fullscreenenter"",""1"",""2897""
","
","","","","","","2032.5","images/rabbit4.png","","","memory_trial","1","definitely_old","","","","","","",""
"html-keyboard-response","231","546181","0.0-15.0-0.94","1997","2","""event"",""trial"",""time""
""fullscreenenter"",""1"",""2897""
","
","
","""event"",""trial"",""time""
""fullscreenenter"",""1"",""2897""
","
","","","","","","null","<div style=""font-size:60px;"">+</div>","null","","fixation","","","","","","","","",""
"memory-trial","232","548093","0.0-15.0-1.94","1997","2","""event"",""trial"",""time""
""fullscreenenter"",""1"",""2897""
","
","
","""event"",""trial"",""time""
""fullscreenenter"",""1"",""2897""
","
","","","","","","907.5","images/bed4.png","","","memory_trial","4","definitely_new","","","","","","",""
"html-keyboard-response","233","548596","0.0-15.0-0.95","1997","2","""event"",""trial"",""time""
""fullscreenenter"",""1"",""2897""
","
","
","""event"",""trial"",""time""
""fullscreenenter"",""1"",""2897""
","
","","","","","","null","<div style=""font-size:60px;"">+</div>","null","","fixation","","","","","","","","",""
"memory-trial","234","550665","0.0-15.0-1.95","1997","2","""event"",""trial"",""time""
""fullscreenenter"",""1"",""2897""
","
","
","""event"",""trial"",""time""
""fullscreenenter"",""1"",""2897""
","
","","","","","","1063","images/dog1.png","","","memory_trial","1","definitely_old","","","","","","",""
"html-keyboard-response","235","551168","0.0-15.0-0.96","1997","2","""event"",""trial"",""time""
""fullscreenenter"",""1"",""2897""
","
","
","""event"",""trial"",""time""
""fullscreenenter"",""1"",""2897""
","
","","","","","","null","<div style=""font-size:60px;"">+</div>","null","","fixation","","","","","","","","",""
"memory-trial","236","553247","0.0-15.0-1.96","1997","2","""event"",""trial"",""time""
""fullscreenenter"",""1"",""2897""
","
","
","""event"",""trial"",""time""
""fullscreenenter"",""1"",""2897""
","
","","","","","","1072.8999999994412","images/cactus5.png","","","memory_trial","4","definitely_new","","","","","","",""
"html-keyboard-response","237","553751","0.0-15.0-0.97","1997","2","""event"",""trial"",""time""
""fullscreenenter"",""1"",""2897""
","
","
","""event"",""trial"",""time""
""fullscreenenter"",""1"",""2897""
","
","","","","","","null","<div style=""font-size:60px;"">+</div>","null","","fixation","","","","","","","","",""
"memory-trial","238","556439","0.0-15.0-1.97","1997","2","""event"",""trial"",""time""
""fullscreenenter"",""1"",""2897""
","
","
","""event"",""trial"",""time""
""fullscreenenter"",""1"",""2897""
","
","","","","","","1684.7000000001863","images/orange1.png","","","memory_trial","2","maybe_old","","","","","","",""
"html-keyboard-response","239","556946","0.0-15.0-0.98","1997","2","""event"",""trial"",""time""
""fullscreenenter"",""1"",""2897""
","
","
","""event"",""trial"",""time""
""fullscreenenter"",""1"",""2897""
","
","","","","","","null","<div style=""font-size:60px;"">+</div>","null","","fixation","","","","","","","","",""
"memory-trial","240","558750","0.0-15.0-1.98","1997","2","""event"",""trial"",""time""
""fullscreenenter"",""1"",""2897""
","
","
","""event"",""trial"",""time""
""fullscreenenter"",""1"",""2897""
","
","","","","","","798.2999999998137","images/rodent1.png","","","memory_trial","4","definitely_new","","","","","","",""
"html-keyboard-response","241","559254","0.0-15.0-0.99","1997","2","""event"",""trial"",""time""
""fullscreenenter"",""1"",""2897""
","
","
","""event"",""trial"",""time""
""fullscreenenter"",""1"",""2897""
","
","","","","","","null","<div style=""font-size:60px;"">+</div>","null","","fixation","","","","","","","","",""
"memory-trial","242","562024","0.0-15.0-1.99","1997","2","""event"",""trial"",""time""
""fullscreenenter"",""1"",""2897""
","
","
","""event"",""trial"",""time""
""fullscreenenter"",""1"",""2897""
","
","","","","","","1764.2000000001863","images/sofa2.png","","","memory_trial","2","maybe_old","","","","","","",""
"html-keyboard-response","243","562529","0.0-15.0-0.100","1997","2","""event"",""trial"",""time""
""fullscreenenter"",""1"",""2897""
","
","
","""event"",""trial"",""time""
""fullscreenenter"",""1"",""2897""
","
","","","","","","null","<div style=""font-size:60px;"">+</div>","null","","fixation","","","","","","","","",""
"memory-trial","244","564334","0.0-15.0-1.100","1997","2","""event"",""trial"",""time""
""fullscreenenter"",""1"",""2897""
","
","
","""event"",""trial"",""time""
""fullscreenenter"",""1"",""2897""
","
","","","","","","799.2999999998137","images/horse5.png","","","memory_trial","4","definitely_new","","","","","","",""
"html-keyboard-response","245","564839","0.0-15.0-0.101","1997","2","""event"",""trial"",""time""
""fullscreenenter"",""1"",""2897""
","
","
","""event"",""trial"",""time""
""fullscreenenter"",""1"",""2897""
","
","","","","","","null","<div style=""font-size:60px;"">+</div>","null","","fixation","","","","","","","","",""
"memory-trial","246","568368","0.0-15.0-1.101","1997","2","""event"",""trial"",""time""
""fullscreenenter"",""1"",""2897""
","
","
","""event"",""trial"",""time""
""fullscreenenter"",""1"",""2897""
","
","","","","","","2522.2000000001863","images/truck3.png","","","memory_trial","3","maybe_new","","","","","","",""
"html-button-response","247","570331","0.0-15.0-2.101-0.101","1997","2","""event"",""trial"",""time""
""fullscreenenter"",""1"",""2897""
","
","
","""event"",""trial"",""time""
""fullscreenenter"",""1"",""2897""
","
","","","","","","1961.1000000005588","<p> Take a break! </p><p> Click the button to continue. </p>","0","","break","","","","","","","","",""
"html-keyboard-response","248","570833","0.0-15.0-0.102","1997","2","""event"",""trial"",""time""
""fullscreenenter"",""1"",""2897""
","
","
","""event"",""trial"",""time""
""fullscreenenter"",""1"",""2897""
","
","","","","","","null","<div style=""font-size:60px;"">+</div>","null","","fixation","","","","","","","","",""
"memory-trial","249","573012","0.0-15.0-1.102","1997","2","""event"",""trial"",""time""
""fullscreenenter"",""1"",""2897""
","
","
","""event"",""trial"",""time""
""fullscreenenter"",""1"",""2897""
","
","","","","","","1173.4000000003725","images/flower2.png","","","memory_trial","4","definitely_new","","","","","","",""
"html-keyboard-response","250","573517","0.0-15.0-0.103","1997","2","""event"",""trial"",""time""
""fullscreenenter"",""1"",""2897""
","
","
","""event"",""trial"",""time""
""fullscreenenter"",""1"",""2897""
","
","","","","","","null","<div style=""font-size:60px;"">+</div>","null","","fixation","","","","","","","","",""
"memory-trial","251","576542","0.0-15.0-1.103","1997","2","""event"",""trial"",""time""
""fullscreenenter"",""1"",""2897""
","
","
","""event"",""trial"",""time""
""fullscreenenter"",""1"",""2897""
","
","","","","","","2017.7999999998137","images/plane2.png","","","memory_trial","3","maybe_new","","","","","","",""
"html-keyboard-response","252","577047","0.0-15.0-0.104","1997","2","""event"",""trial"",""time""
""fullscreenenter"",""1"",""2897""
","
","
","""event"",""trial"",""time""
""fullscreenenter"",""1"",""2897""
","
","","","","","","null","<div style=""font-size:60px;"">+</div>","null","","fixation","","","","","","","","",""
"memory-trial","253","579342","0.0-15.0-1.104","1997","2","""event"",""trial"",""time""
""fullscreenenter"",""1"",""2897""
","
","
","""event"",""trial"",""time""
""fullscreenenter"",""1"",""2897""
","
","","","","","","1287.2000000001863","images/feline4.png","","","memory_trial","4","definitely_new","","","","","","",""
"html-keyboard-response","254","579844","0.0-15.0-0.105","1997","2","""event"",""trial"",""time""
""fullscreenenter"",""1"",""2897""
","
","
","""event"",""trial"",""time""
""fullscreenenter"",""1"",""2897""
","
","","","","","","null","<div style=""font-size:60px;"">+</div>","null","","fixation","","","","","","","","",""
"memory-trial","255","582498","0.0-15.0-1.105","1997","2","""event"",""trial"",""time""
""fullscreenenter"",""1"",""2897""
","
","
","""event"",""trial"",""time""
""fullscreenenter"",""1"",""2897""
","
","","","","","","1651","images/sheep2.png","","","memory_trial","4","definitely_new","","","","","","",""
"html-keyboard-response","256","583004","0.0-15.0-0.106","1997","2","""event"",""trial"",""time""
""fullscreenenter"",""1"",""2897""
","
","
","""event"",""trial"",""time""
""fullscreenenter"",""1"",""2897""
","
","","","","","","null","<div style=""font-size:60px;"">+</div>","null","","fixation","","","","","","","","",""
"memory-trial","257","585429","0.0-15.0-1.106","1997","2","""event"",""trial"",""time""
""fullscreenenter"",""1"",""2897""
","
","
","""event"",""trial"",""time""
""fullscreenenter"",""1"",""2897""
","
","","","","","","1419","images/dog3.png","","","memory_trial","1","definitely_old","","","","","","",""
"html-keyboard-response","258","585935","0.0-15.0-0.107","1997","2","""event"",""trial"",""time""
""fullscreenenter"",""1"",""2897""
","
","
","""event"",""trial"",""time""
""fullscreenenter"",""1"",""2897""
","
","","","","","","null","<div style=""font-size:60px;"">+</div>","null","","fixation","","","","","","","","",""
"memory-trial","259","588190","0.0-15.0-1.107","1997","2","""event"",""trial"",""time""
""fullscreenenter"",""1"",""2897""
","
","
","""event"",""trial"",""time""
""fullscreenenter"",""1"",""2897""
","
","","","","","","1247.699999999255","images/apple2.png","","","memory_trial","1","definitely_old","","","","","","",""
"html-keyboard-response","260","588693","0.0-15.0-0.108","1997","2","""event"",""trial"",""time""
""fullscreenenter"",""1"",""2897""
","
","
","""event"",""trial"",""time""
""fullscreenenter"",""1"",""2897""
","
","","","","","","null","<div style=""font-size:60px;"">+</div>","null","","fixation","","","","","","","","",""
"memory-trial","261","590805","0.0-15.0-1.108","1997","2","""event"",""trial"",""time""
""fullscreenenter"",""1"",""2897""
","
","
","""event"",""trial"",""time""
""fullscreenenter"",""1"",""2897""
","
","","","","","","1105.7999999998137","images/banana4.png","","","memory_trial","4","definitely_new","","","","","","",""
"html-keyboard-response","262","591306","0.0-15.0-0.109","1997","2","""event"",""trial"",""time""
""fullscreenenter"",""1"",""2897""
","
","
","""event"",""trial"",""time""
""fullscreenenter"",""1"",""2897""
","
","","","","","","null","<div style=""font-size:60px;"">+</div>","null","","fixation","","","","","","","","",""
"memory-trial","263","593237","0.0-15.0-1.109","1997","2","""event"",""trial"",""time""
""fullscreenenter"",""1"",""2897""
","
","
","""event"",""trial"",""time""
""fullscreenenter"",""1"",""2897""
","
","","","","","","925.0999999996275","images/truck2.png","","","memory_trial","4","definitely_new","","","","","","",""
"html-keyboard-response","264","593741","0.0-15.0-0.110","1997","2","""event"",""trial"",""time""
""fullscreenenter"",""1"",""2897""
","
","
","""event"",""trial"",""time""
""fullscreenenter"",""1"",""2897""
","
","","","","","","null","<div style=""font-size:60px;"">+</div>","null","","fixation","","","","","","","","",""
"memory-trial","265","595599","0.0-15.0-1.110","1997","2","""event"",""trial"",""time""
""fullscreenenter"",""1"",""2897""
","
","
","""event"",""trial"",""time""
""fullscreenenter"",""1"",""2897""
","
","","","","","","854.4000000003725","images/plane3.png","","","memory_trial","4","definitely_new","","","","","","",""
"html-keyboard-response","266","596104","0.0-15.0-0.111","1997","2","""event"",""trial"",""time""
""fullscreenenter"",""1"",""2897""
","
","
","""event"",""trial"",""time""
""fullscreenenter"",""1"",""2897""
","
","","","","","","null","<div style=""font-size:60px;"">+</div>","null","","fixation","","","","","","","","",""
"memory-trial","267","597940","0.0-15.0-1.111","1997","2","""event"",""trial"",""time""
""fullscreenenter"",""1"",""2897""
","
","
","""event"",""trial"",""time""
""fullscreenenter"",""1"",""2897""
","
","","","","","","831.7000000001863","images/bush3.png","","","memory_trial","4","definitely_new","","","","","","",""
"html-keyboard-response","268","598444","0.0-15.0-0.112","1997","2","""event"",""trial"",""time""
""fullscreenenter"",""1"",""2897""
","
","
","""event"",""trial"",""time""
""fullscreenenter"",""1"",""2897""
","
","","","","","","null","<div style=""font-size:60px;"">+</div>","null","","fixation","","","","","","","","",""
"memory-trial","269","601799","0.0-15.0-1.112","1997","2","""event"",""trial"",""time""
""fullscreenenter"",""1"",""2897""
","
","
","""event"",""trial"",""time""
""fullscreenenter"",""1"",""2897""
","
","","","","","","2348.800000000745","images/tree2.png","","","memory_trial","3","maybe_new","","","","","","",""
"html-keyboard-response","270","602303","0.0-15.0-0.113","1997","2","""event"",""trial"",""time""
""fullscreenenter"",""1"",""2897""
","
","
","""event"",""trial"",""time""
""fullscreenenter"",""1"",""2897""
","
","","","","","","null","<div style=""font-size:60px;"">+</div>","null","","fixation","","","","","","","","",""
"memory-trial","271","604498","0.0-15.0-1.113","1997","2","""event"",""trial"",""time""
""fullscreenenter"",""1"",""2897""
","
","
","""event"",""trial"",""time""
""fullscreenenter"",""1"",""2897""
","
","","","","","","1192","images/table5.png","","","memory_trial","4","definitely_new","","","","","","",""
"html-keyboard-response","272","605003","0.0-15.0-0.114","1997","2","""event"",""trial"",""time""
""fullscreenenter"",""1"",""2897""
","
","
","""event"",""trial"",""time""
""fullscreenenter"",""1"",""2897""
","
","","","","","","null","<div style=""font-size:60px;"">+</div>","null","","fixation","","","","","","","","",""
"memory-trial","273","606675","0.0-15.0-1.114","1997","2","""event"",""trial"",""time""
""fullscreenenter"",""1"",""2897""
","
","
","""event"",""trial"",""time""
""fullscreenenter"",""1"",""2897""
","
","","","","","","664","images/tree3.png","","","memory_trial","4","definitely_new","","","","","","",""
"html-keyboard-response","274","607180","0.0-15.0-0.115","1997","2","""event"",""trial"",""time""
""fullscreenenter"",""1"",""2897""
","
","
","""event"",""trial"",""time""
""fullscreenenter"",""1"",""2897""
","
","","","","","","null","<div style=""font-size:60px;"">+</div>","null","","fixation","","","","","","","","",""
"memory-trial","275","610855","0.0-15.0-1.115","1997","2","""event"",""trial"",""time""
""fullscreenenter"",""1"",""2897""
","
","
","""event"",""trial"",""time""
""fullscreenenter"",""1"",""2897""
","
","","","","","","2670.2999999998137","images/cow3.png","","","memory_trial","2","maybe_old","","","","","","",""
"html-keyboard-response","276","611360","0.0-15.0-0.116","1997","2","""event"",""trial"",""time""
""fullscreenenter"",""1"",""2897""
","
","
","""event"",""trial"",""time""
""fullscreenenter"",""1"",""2897""
","
","","","","","","null","<div style=""font-size:60px;"">+</div>","null","","fixation","","","","","","","","",""
"memory-trial","277","613954","0.0-15.0-1.116","1997","2","""event"",""trial"",""time""
""fullscreenenter"",""1"",""2897""
","
","
","""event"",""trial"",""time""
""fullscreenenter"",""1"",""2897""
","
","","","","","","1586.2000000001863","images/apple3.png","","","memory_trial","4","definitely_new","","","","","","",""
"html-keyboard-response","278","614460","0.0-15.0-0.117","1997","2","""event"",""trial"",""time""
""fullscreenenter"",""1"",""2897""
","
","
","""event"",""trial"",""time""
""fullscreenenter"",""1"",""2897""
","
","","","","","","null","<div style=""font-size:60px;"">+</div>","null","","fixation","","","","","","","","",""
"memory-trial","279","616149","0.0-15.0-1.117","1997","2","""event"",""trial"",""time""
""fullscreenenter"",""1"",""2897""
","
","
","""event"",""trial"",""time""
""fullscreenenter"",""1"",""2897""
","
","","","","","","684.5","images/rodent3.png","","","memory_trial","4","definitely_new","","","","","","",""
"html-keyboard-response","280","616653","0.0-15.0-0.118","1997","2","""event"",""trial"",""time""
""fullscreenenter"",""1"",""2897""
","
","
","""event"",""trial"",""time""
""fullscreenenter"",""1"",""2897""
","
","","","","","","null","<div style=""font-size:60px;"">+</div>","null","","fixation","","","","","","","","",""
"memory-trial","281","619236","0.0-15.0-1.118","1997","2","""event"",""trial"",""time""
""fullscreenenter"",""1"",""2897""
","
","
","""event"",""trial"",""time""
""fullscreenenter"",""1"",""2897""
","
","","","","","","1579.2000000001863","images/chair2.png","","","memory_trial","2","maybe_old","","","","","","",""
"html-keyboard-response","282","619738","0.0-15.0-0.119","1997","2","""event"",""trial"",""time""
""fullscreenenter"",""1"",""2897""
","
","
","""event"",""trial"",""time""
""fullscreenenter"",""1"",""2897""
","
","","","","","","null","<div style=""font-size:60px;"">+</div>","null","","fixation","","","","","","","","",""
"memory-trial","283","622273","0.0-15.0-1.119","1997","2","""event"",""trial"",""time""
""fullscreenenter"",""1"",""2897""
","
","
","""event"",""trial"",""time""
""fullscreenenter"",""1"",""2897""
","
","","","","","","1527.4000000003725","images/straw3.png","","","memory_trial","2","maybe_old","","","","","","",""
"preload","284","633383","0.0-16.0","1997","2","""event"",""trial"",""time""
""fullscreenenter"",""1"",""2897""
","
","
","""event"",""trial"",""time""
""fullscreenenter"",""1"",""2897""
","
","true","false","[]","[]","[]","","","","","","","","","","","","","",""
"learning-instructions","285","641678","0.0-17.0-0.0-0.0-0.0","1997","2","""event"",""trial"",""time""
""fullscreenenter"",""1"",""2897""
","
","
","""event"",""trial"",""time""
""fullscreenenter"",""1"",""2897""
","
","","","","","","5069.299999999814","<p> We're now going to ask you to water your plants again. </p>","","0","instructions","","","","","","","","",""
"learning-instructions","286","648319","0.0-17.0-0.0-0.0-0.1","1997","2","""event"",""trial"",""time""
""fullscreenenter"",""1"",""2897""
","
","
","""event"",""trial"",""time""
""fullscreenenter"",""1"",""2897""
","
","","","","","","768.9000000003725","<p> On each trial, you will see a plant. Select the watering can that you think will make the plant grow. </p>","","0","instructions","","","","","","","","",""
"learning-instructions","287","655991","0.0-17.0-0.0-0.0-0.2","1997","2","""event"",""trial"",""time""
""fullscreenenter"",""1"",""2897""
","
","
","""event"",""trial"",""time""
""fullscreenenter"",""1"",""2897""
","
","","","","","","609.2999999998137","<p> To make your selection, think about what you learned last week. You will NOT receive any feedback about your choice. </p>","","0","instructions","","","","","","","","",""
"learning-instructions","288","665934","0.0-17.0-0.0-0.0-0.3","1997","2","""event"",""trial"",""time""
""fullscreenenter"",""1"",""2897""
","
","
","""event"",""trial"",""time""
""fullscreenenter"",""1"",""2897""
","
","","","","","","822.2999999998137","<p> You should use the 1 key to select the watering can on the left, the 2 key to select the watering can in the middle, and the 3 key to select the watering can on the right. </p><br><div class=""choice-mem-instructions-grid""> <div class=""choice-mem-option""><img src=""images/plants_choice1.png"" class=""choice-mem-option-img"" stage=""instructions"" position=""0"" ><div class=""choice-mem-option-text""> Press ""1."" </div></div><div class=""choice-mem-option""><img src=""images/plants_choice2.png"" class=""choice-mem-option-img"" stage=""instructions"" position=""1"" ><div class=""choice-mem-option-text""> Press ""2."" </div></div><div class=""choice-mem-option""><img src=""images/plants_choice3.png"" class=""choice-mem-option-img"" stage=""instructions"" position=""2"" ><div class=""choice-mem-option-text""> Press ""3."" </div></div></div>","","0","instructions","","","","","","","","",""
"learning-instructions","289","673292","0.0-17.0-0.0-0.0-0.4","1997","2","""event"",""trial"",""time""
""fullscreenenter"",""1"",""2897""
","
","
","""event"",""trial"",""time""
""fullscreenenter"",""1"",""2897""
","
","","","","","","1087.699999999255","<p> You will have 10 seconds to make each selection. Try to respond before time runs out! </p>","","0","instructions","","","","","","","","",""
"learning-instructions","290","675886","0.0-17.0-0.0-1.0","1997","2","""event"",""trial"",""time""
""fullscreenenter"",""1"",""2897""
","
","
","""event"",""trial"",""time""
""fullscreenenter"",""1"",""2897""
","
","","","","","","536.2000000001863","<p> You are now ready to begin the game. </p>","","0","instructions","","","","","","","","",""
"html-keyboard-response","291","676492","0.0-17.0-0.0-2.0-0.0","1997","2","""event"",""trial"",""time""
""fullscreenenter"",""1"",""2897""
","
","
","""event"",""trial"",""time""
""fullscreenenter"",""1"",""2897""
","
","","","","","","null","<div style=""font-size:60px;"">+</div>","null","","fixation","","","","","","","","",""
"choice-memory-trial","292","681888","0.0-17.0-0.0-2.0-1.0","1997","2","""event"",""trial"",""time""
""fullscreenenter"",""1"",""2897""
","
","
