"trial_type","trial_index","time_elapsed","internal_node_id","subject_id","task_version","interactions","blur_events","focus_events","fullscreenenter_events","fullscreenexit_events","success","timeout","failed_images","failed_audio","failed_video","rt","stimulus","response","button_pressed","task_part","key_press","answer","correct","left_choice","middle_choice","right_choice","choice_positions","option_selected","block"
"pavlovia","0","2","0.0-0.0","1865","2","""event"",""trial"",""time""
""fullscreenenter"",""1"",""1798""
","
","
","""event"",""trial"",""time""
""fullscreenenter"",""1"",""1798""
","
","","","","","","","","","","","","","","","","","","",""
"fullscreen","1","2797","0.0-1.0","1865","2","""event"",""trial"",""time""
""fullscreenenter"",""1"",""1798""
","
","
","""event"",""trial"",""time""
""fullscreenenter"",""1"",""1798""
","
","true","","","","","","","","","","","","","","","","","",""
"preload","2","3534","0.0-2.0","1865","2","""event"",""trial"",""time""
""fullscreenenter"",""1"",""1798""
","
","
","""event"",""trial"",""time""
""fullscreenenter"",""1"",""1798""
","
","true","false","[]","[]","[]","","","","","","","","","","","","","",""
"audio-keyboard-response","3","5459","0.0-3.0","1865","2","""event"",""trial"",""time""
""fullscreenenter"",""1"",""1798""
","
","
","""event"",""trial"",""time""
""fullscreenenter"",""1"",""1798""
","
","","","","","","1920","audio/beep_loop.wav"," ","","","","","","","","","","",""
"audio-button-response","4","7215","0.0-4.0","1865","2","""event"",""trial"",""time""
""fullscreenenter"",""1"",""1798""
","
","
","""event"",""trial"",""time""
""fullscreenenter"",""1"",""1798""
","
","","","","","","1749","audio/turtle.wav","3","","","","","","","","","","",""
"audio-button-response","5","9495","0.0-5.0","1865","2","""event"",""trial"",""time""
""fullscreenenter"",""1"",""1798""
","
","
","""event"",""trial"",""time""
""fullscreenenter"",""1"",""1798""
","
","","","","","","1280","audio/shark.wav","2","","","","","","","","","","",""
"preload","6","12029","0.0-6.0","1865","2","""event"",""trial"",""time""
""fullscreenenter"",""1"",""1798""
","
","
","""event"",""trial"",""time""
""fullscreenenter"",""1"",""1798""
","
","true","false","[]","[]","[]","","","","","","","","","","","","","",""
"learning-instructions","7","34002","0.0-7.0-0.0","1865","2","""event"",""trial"",""time""
""fullscreenenter"",""1"",""1798""
","
","
","""event"",""trial"",""time""
""fullscreenenter"",""1"",""1798""
","
","","","","","","17171.5","<p> Welcome back! </p><p> Last week, you had to make choices about lots of different items.  </p>","","0","instructions","","","","","","","","",""
"learning-instructions","8","39444","0.0-7.0-0.1","1865","2","""event"",""trial"",""time""
""fullscreenenter"",""1"",""1798""
","
","
","""event"",""trial"",""time""
""fullscreenenter"",""1"",""1798""
","
","","","","","","1133.5","<p> Today, we are going to ask you to try to remember all the items. </p>","","0","instructions","","","","","","","","",""
"learning-instructions","9","50078","0.0-7.0-0.2","1865","2","""event"",""trial"",""time""
""fullscreenenter"",""1"",""1798""
","
","
","""event"",""trial"",""time""
""fullscreenenter"",""1"",""1798""
","
","","","","","","507.69999998807907","<p> On every trial, you will see an image. </p><p> The image may be an OLD image you saw during the games last week or it may be a NEW image that was not presented. </p>","","0","instructions","","","","","","","","",""
"learning-instructions","10","59419","0.0-7.0-0.3","1865","2","""event"",""trial"",""time""
""fullscreenenter"",""1"",""1798""
","
","
","""event"",""trial"",""time""
""fullscreenenter"",""1"",""1798""
","
","","","","","","838.3000000119209","<p> You need to select whether the image is:  </p><p>  'Definitely old', 'Maybe old', 'Maybe new', or 'Definitely new.'  </p><div class=""mem-choice-instructions-grid""><div class=""choice-option"" id=""choice-option-1"" ><img src=""images/definitely_old_1.png"" id=""choice-option-img-1"" class=""choice-option-img"" stage=""1""></div><div class=""choice-option"" id=""choice-option-2"" ><img src=""images/maybe_old_1.png"" id=""choice-option-img-2"" class=""choice-option-img"" stage=""1""></div><div class=""choice-option"" id=""choice-option-3"" ><img src=""images/maybe_new_1.png"" id=""choice-option-img-3"" class=""choice-option-img"" stage=""1""></div><div class=""choice-option"" id=""choice-option-4"" > <img src=""images/definitely_new_1.png"" id=""choice-option-img-4"" class=""choice-option-img"" stage=""1""></div></div>","","0","instructions","","","","","","","","",""
"learning-instructions","11","66513","0.0-7.0-0.4","1865","2","""event"",""trial"",""time""
""fullscreenenter"",""1"",""1798""
","
","
","""event"",""trial"",""time""
""fullscreenenter"",""1"",""1798""
","
","","","","","","403.2000000476837","<p> You should use the 1, 2, 3, and 4 keys to make your responses.  </p><div class=""mem-choice-instructions-grid""><div class=""choice-option"" id=""choice-option-1"" ><img src=""images/definitely_old.png"" id=""choice-option-img-1"" class=""choice-option-img"" stage=""1""></div><div class=""choice-option"" id=""choice-option-2"" ><img src=""images/maybe_old.png"" id=""choice-option-img-2"" class=""choice-option-img"" stage=""1""></div><div class=""choice-option"" id=""choice-option-3"" ><img src=""images/maybe_new.png"" id=""choice-option-img-3"" class=""choice-option-img"" stage=""1""></div><div class=""choice-option"" id=""choice-option-4"" > <img src=""images/definitely_new.png"" id=""choice-option-img-4"" class=""choice-option-img"" stage=""1""></div></div>","","0","instructions","","","","","","","","",""
"learning-instructions","12","75268","0.0-7.0-0.5","1865","2","""event"",""trial"",""time""
""fullscreenenter"",""1"",""1798""
","
","
","""event"",""trial"",""time""
""fullscreenenter"",""1"",""1798""
","
","","","","","","1987.5","<p> You will have 10 seconds to make each response.  </p><p>  Make sure to respond before time runs out! </p>","","0","instructions","","","","","","","","",""
"learning-instructions","13","84269","0.0-7.0-0.6","1865","2","""event"",""trial"",""time""
""fullscreenenter"",""1"",""1798""
","
","
","""event"",""trial"",""time""
""fullscreenenter"",""1"",""1798""
","
","","","","","","1408.800000011921","<p> Today, you will see each image ONCE only.  </p><p>  That means none of the images will repeat. </p>","","0","instructions","","","","","","","","",""
"learning-instructions","14","99331","0.0-7.0-0.7","1865","2","""event"",""trial"",""time""
""fullscreenenter"",""1"",""1798""
","
","
","""event"",""trial"",""time""
""fullscreenenter"",""1"",""1798""
","
","","","","","","2390.199999988079","<p> Before you play the real game, it is time to practice. </p><p>  Just like in the real game, some of the images in the practice will be ones you have seen before. </p><p>  Others will be entirely new. </p>","","0","instructions","","","","","","","","",""
"html-button-response","15","103400","0.0-8.0","1865","2","""event"",""trial"",""time""
""fullscreenenter"",""1"",""1798""
","
","
","""event"",""trial"",""time""
""fullscreenenter"",""1"",""1798""
","
","","","","","","3961.7999999523163","<p> Ready to practice? </p><p> Remember, use the 1, 2, 3, and 4 keys to make your responses. </p>","0","","instructions","","","","","","","","",""
"html-keyboard-response","16","104019","0.0-9.0-0.0","1865","2","""event"",""trial"",""time""
""fullscreenenter"",""1"",""1798""
","
","
","""event"",""trial"",""time""
""fullscreenenter"",""1"",""1798""
","
","","","","","","null","<div style=""font-size:60px;"">+</div>","null","","fixation","","","","","","","","",""
"memory-trial","17","107768","0.0-9.0-1.0","1865","2","""event"",""trial"",""time""
""fullscreenenter"",""1"",""1798""
","
","
","""event"",""trial"",""time""
""fullscreenenter"",""1"",""1798""
","
","","","","","","2747.300000011921","images/racket4.png","","","practice","4","definitely_new","","","","","","",""
"html-keyboard-response","18","108269","0.0-9.0-0.1","1865","2","""event"",""trial"",""time""
""fullscreenenter"",""1"",""1798""
","
","
","""event"",""trial"",""time""
""fullscreenenter"",""1"",""1798""
","
","","","","","","null","<div style=""font-size:60px;"">+</div>","null","","fixation","","","","","","","","",""
"memory-trial","19","111013","0.0-9.0-1.1","1865","2","""event"",""trial"",""time""
""fullscreenenter"",""1"",""1798""
","
","
","""event"",""trial"",""time""
""fullscreenenter"",""1"",""1798""
","
","","","","","","1737.5","images/ball2.png","","","practice","1","definitely_old","","","","","","",""
"html-keyboard-response","20","111513","0.0-9.0-0.2","1865","2","""event"",""trial"",""time""
""fullscreenenter"",""1"",""1798""
","
","
","""event"",""trial"",""time""
""fullscreenenter"",""1"",""1798""
","
","","","","","","null","<div style=""font-size:60px;"">+</div>","null","","fixation","","","","","","","","",""
"memory-trial","21","115110","0.0-9.0-1.2","1865","2","""event"",""trial"",""time""
""fullscreenenter"",""1"",""1798""
","
","
","""event"",""trial"",""time""
""fullscreenenter"",""1"",""1798""
","
","","","","","","2595.899999976158","images/racket1.png","","","practice","2","maybe_old","","","","","","",""
"html-keyboard-response","22","115611","0.0-9.0-0.3","1865","2","""event"",""trial"",""time""
""fullscreenenter"",""1"",""1798""
","
","
","""event"",""trial"",""time""
""fullscreenenter"",""1"",""1798""
","
","","","","","","null","<div style=""font-size:60px;"">+</div>","null","","fixation","","","","","","","","",""
"memory-trial","23","117849","0.0-9.0-1.3","1865","2","""event"",""trial"",""time""
""fullscreenenter"",""1"",""1798""
","
","
","""event"",""trial"",""time""
""fullscreenenter"",""1"",""1798""
","
","","","","","","1236.699999988079","images/ball1.png","","","practice","1","definitely_old","","","","","","",""
"html-keyboard-response","24","118352","0.0-9.0-0.4","1865","2","""event"",""trial"",""time""
""fullscreenenter"",""1"",""1798""
","
","
","""event"",""trial"",""time""
""fullscreenenter"",""1"",""1798""
","
","","","","","","null","<div style=""font-size:60px;"">+</div>","null","","fixation","","","","","","","","",""
"memory-trial","25","121559","0.0-9.0-1.4","1865","2","""event"",""trial"",""time""
""fullscreenenter"",""1"",""1798""
","
","
","""event"",""trial"",""time""
""fullscreenenter"",""1"",""1798""
","
","","","","","","2197.899999976158","images/ball3.png","","","practice","4","definitely_new","","","","","","",""
"html-keyboard-response","26","122070","0.0-9.0-0.5","1865","2","""event"",""trial"",""time""
""fullscreenenter"",""1"",""1798""
","
","
","""event"",""trial"",""time""
""fullscreenenter"",""1"",""1798""
","
","","","","","","null","<div style=""font-size:60px;"">+</div>","null","","fixation","","","","","","","","",""
"memory-trial","27","124265","0.0-9.0-1.5","1865","2","""event"",""trial"",""time""
""fullscreenenter"",""1"",""1798""
","
","
","""event"",""trial"",""time""
""fullscreenenter"",""1"",""1798""
","
","","","","","","1183.9000000357628","images/racket2.png","","","practice","3","maybe_new","","","","","","",""
"html-keyboard-response","28","124775","0.0-9.0-0.6","1865","2","""event"",""trial"",""time""
""fullscreenenter"",""1"",""1798""
","
","
","""event"",""trial"",""time""
""fullscreenenter"",""1"",""1798""
","
","","","","","","null","<div style=""font-size:60px;"">+</div>","null","","fixation","","","","","","","","",""
"memory-trial","29","127130","0.0-9.0-1.6","1865","2","""event"",""trial"",""time""
""fullscreenenter"",""1"",""1798""
","
","
","""event"",""trial"",""time""
""fullscreenenter"",""1"",""1798""
","
","","","","","","1352.800000011921","images/racket3.png","","","practice","4","definitely_new","","","","","","",""
"html-keyboard-response","30","127632","0.0-9.0-0.7","1865","2","""event"",""trial"",""time""
""fullscreenenter"",""1"",""1798""
","
","
","""event"",""trial"",""time""
""fullscreenenter"",""1"",""1798""
","
","","","","","","null","<div style=""font-size:60px;"">+</div>","null","","fixation","","","","","","","","",""
"memory-trial","31","130409","0.0-9.0-1.7","1865","2","""event"",""trial"",""time""
""fullscreenenter"",""1"",""1798""
","
","
","""event"",""trial"",""time""
""fullscreenenter"",""1"",""1798""
","
","","","","","","1775.699999988079","images/ball4.png","","","practice","1","definitely_old","","","","","","",""
"learning-instructions","32","144431","0.0-10.0-0.0","1865","2","""event"",""trial"",""time""
""fullscreenenter"",""1"",""1798""
","
","
","""event"",""trial"",""time""
""fullscreenenter"",""1"",""1798""
","
","","","","","","6080.399999976158","<p> Great! You have completed the practice. </p><p> Before you start, we're going to ask you a few questions about how the game works.  </p>","","0","instructions","","","","","","","","",""
"preload","33","145736","0.0-11.0","1865","2","""event"",""trial"",""time""
""fullscreenenter"",""1"",""1798""
","
","
","""event"",""trial"",""time""
""fullscreenenter"",""1"",""1798""
","
","true","false","[]","[]","[]","","","","","","","","","","","","","",""
"comp-q","34","152993","0.0-12.0-0.0","1865","2","""event"",""trial"",""time""
""fullscreenenter"",""1"",""1798""
","
","
","""event"",""trial"",""time""
""fullscreenenter"",""1"",""1798""
","
","","","","","","1432.300000011921","<p> <b> True or False? </b> </p><p> In this game, you will only see each image once. </p>","","0","comp_question","","","true","","","","","",""
"comp-q","35","162257","0.0-12.0-1.0","1865","2","""event"",""trial"",""time""
""fullscreenenter"",""1"",""1798""
","
","
","""event"",""trial"",""time""
""fullscreenenter"",""1"",""1798""
","
","","","","","","2926.2999999523163","<p> <b> That's right! </b> You will see many different images <i> one time each </i> in this game. </p>","","0","comp_answer","","","","","","","","",""
"comp-q","36","169293","0.0-12.0-0.1","1865","2","""event"",""trial"",""time""
""fullscreenenter"",""1"",""1798""
","
","
","""event"",""trial"",""time""
""fullscreenenter"",""1"",""1798""
","
","","","","","","1232.300000011921","<p> <b> True or False? </b> </p><p> You should use the mouse and click to make your response. </p>","","1","comp_question","","","true","","","","","",""
"comp-q","37","182074","0.0-12.0-1.1","1865","2","""event"",""trial"",""time""
""fullscreenenter"",""1"",""1798""
","
","
","""event"",""trial"",""time""
""fullscreenenter"",""1"",""1798""
","
","","","","","","5423.199999988079","<p><b> That's right! </b> You should use the '1', '2', '3', and '4' keys to make your response. </p>","","0","comp_answer","","","","","","","","",""
"comp-q","38","188633","0.0-12.0-0.2","1865","2","""event"",""trial"",""time""
""fullscreenenter"",""1"",""1798""
","
","
","""event"",""trial"",""time""
""fullscreenenter"",""1"",""1798""
","
","","","","","","562.2999999523163","<p> <b> True or False? </b> </p><p> You will have as much time as you want to make each choice. </p>","","1","comp_question","","","true","","","","","",""
"comp-q","39","196707","0.0-12.0-1.2","1865","2","""event"",""trial"",""time""
""fullscreenenter"",""1"",""1798""
""blur"",""40"",""206489""
""focus"",""40"",""211566""
","""event"",""trial"",""time""
""blur"",""40"",""206489""
","""event"",""trial"",""time""
""focus"",""40"",""211566""
","""event"",""trial"",""time""
""fullscreenenter"",""1"",""1798""
","
","","","","","","2686.5","<p> <b> That's right! </b> You will only have 10 seconds to make each choice. </p>","","0","comp_answer","","","","","","","","",""
"learning-instructions","40","211669","0.0-13.0","1865","2","""event"",""trial"",""time""
""fullscreenenter"",""1"",""1798""
""blur"",""40"",""206489""
""focus"",""40"",""211566""
","""event"",""trial"",""time""
""blur"",""40"",""206489""
","""event"",""trial"",""time""
""focus"",""40"",""211566""
","""event"",""trial"",""time""
""fullscreenenter"",""1"",""1798""
","
","","","","","","6278.599999964237","<p> Great! You are now ready to begin the game. </p><p> Remember, use the 1, 2, 3, and 4 keys to make your responses. </p>","","0","instructions","","","","","","","","",""
"preload","41","213999","0.0-14.0","1865","2","""event"",""trial"",""time""
""fullscreenenter"",""1"",""1798""
""blur"",""40"",""206489""
""focus"",""40"",""211566""
","""event"",""trial"",""time""
""blur"",""40"",""206489""
","""event"",""trial"",""time""
""focus"",""40"",""211566""
","""event"",""trial"",""time""
""fullscreenenter"",""1"",""1798""
","
","true","false","[]","[]","[]","","","","","","","","","","","","","",""
"html-keyboard-response","42","214515","0.0-15.0-0.0","1865","2","""event"",""trial"",""time""
""fullscreenenter"",""1"",""1798""
""blur"",""40"",""206489""
""focus"",""40"",""211566""
","""event"",""trial"",""time""
""blur"",""40"",""206489""
","""event"",""trial"",""time""
""focus"",""40"",""211566""
","""event"",""trial"",""time""
""fullscreenenter"",""1"",""1798""
","
","","","","","","null","<div style=""font-size:60px;"">+</div>","null","","fixation","","","","","","","","",""
"memory-trial","43","217181","0.0-15.0-1.0","1865","2","""event"",""trial"",""time""
""fullscreenenter"",""1"",""1798""
""blur"",""40"",""206489""
""focus"",""40"",""211566""
","""event"",""trial"",""time""
""blur"",""40"",""206489""
","""event"",""trial"",""time""
""focus"",""40"",""211566""
","""event"",""trial"",""time""
""fullscreenenter"",""1"",""1798""
","
","","","","","","1663.9000000357628","images/truck4.png","","","memory_trial","4","definitely_new","","","","","","",""
"html-keyboard-response","44","217682","0.0-15.0-0.1","1865","2","""event"",""trial"",""time""
""fullscreenenter"",""1"",""1798""
""blur"",""40"",""206489""
""focus"",""40"",""211566""
","""event"",""trial"",""time""
""blur"",""40"",""206489""
","""event"",""trial"",""time""
""focus"",""40"",""211566""
","""event"",""trial"",""time""
""fullscreenenter"",""1"",""1798""
","
","","","","","","null","<div style=""font-size:60px;"">+</div>","null","","fixation","","","","","","","","",""
"memory-trial","45","220655","0.0-15.0-1.1","1865","2","""event"",""trial"",""time""
""fullscreenenter"",""1"",""1798""
""blur"",""40"",""206489""
""focus"",""40"",""211566""
","""event"",""trial"",""time""
""blur"",""40"",""206489""
","""event"",""trial"",""time""
""focus"",""40"",""211566""
","""event"",""trial"",""time""
""fullscreenenter"",""1"",""1798""
","
","","","","","","1957.4000000357628","images/apple2.png","","","memory_trial","3","maybe_new","","","","","","",""
"html-keyboard-response","46","221164","0.0-15.0-0.2","1865","2","""event"",""trial"",""time""
""fullscreenenter"",""1"",""1798""
""blur"",""40"",""206489""
""focus"",""40"",""211566""
","""event"",""trial"",""time""
""blur"",""40"",""206489""
","""event"",""trial"",""time""
""focus"",""40"",""211566""
","""event"",""trial"",""time""
""fullscreenenter"",""1"",""1798""
","
","","","","","","null","<div style=""font-size:60px;"">+</div>","null","","fixation","","","","","","","","",""
"memory-trial","47","223707","0.0-15.0-1.2","1865","2","""event"",""trial"",""time""
""fullscreenenter"",""1"",""1798""
""blur"",""40"",""206489""
""focus"",""40"",""211566""
","""event"",""trial"",""time""
""blur"",""40"",""206489""
","""event"",""trial"",""time""
""focus"",""40"",""211566""
","""event"",""trial"",""time""
""fullscreenenter"",""1"",""1798""
","
","","","","","","1529.199999988079","images/flower4.png","","","memory_trial","2","maybe_old","","","","","","",""
"html-keyboard-response","48","224222","0.0-15.0-0.3","1865","2","""event"",""trial"",""time""
""fullscreenenter"",""1"",""1798""
""blur"",""40"",""206489""
""focus"",""40"",""211566""
","""event"",""trial"",""time""
""blur"",""40"",""206489""
","""event"",""trial"",""time""
""focus"",""40"",""211566""
","""event"",""trial"",""time""
""fullscreenenter"",""1"",""1798""
","
","","","","","","null","<div style=""font-size:60px;"">+</div>","null","","fixation","","","","","","","","",""
"memory-trial","49","226339","0.0-15.0-1.3","1865","2","""event"",""trial"",""time""
""fullscreenenter"",""1"",""1798""
""blur"",""40"",""206489""
""focus"",""40"",""211566""
","""event"",""trial"",""time""
""blur"",""40"",""206489""
","""event"",""trial"",""time""
""focus"",""40"",""211566""
","""event"",""trial"",""time""
""fullscreenenter"",""1"",""1798""
","
","","","","","","1100.6000000238419","images/feline1.png","","","memory_trial","1","definitely_old","","","","","","",""
"html-keyboard-response","50","226844","0.0-15.0-0.4","1865","2","""event"",""trial"",""time""
""fullscreenenter"",""1"",""1798""
""blur"",""40"",""206489""
""focus"",""40"",""211566""
","""event"",""trial"",""time""
""blur"",""40"",""206489""
","""event"",""trial"",""time""
""focus"",""40"",""211566""
","""event"",""trial"",""time""
""fullscreenenter"",""1"",""1798""
","
","","","","","","null","<div style=""font-size:60px;"">+</div>","null","","fixation","","","","","","","","",""
"memory-trial","51","229635","0.0-15.0-1.4","1865","2","""event"",""trial"",""time""
""fullscreenenter"",""1"",""1798""
""blur"",""40"",""206489""
""focus"",""40"",""211566""
","""event"",""trial"",""time""
""blur"",""40"",""206489""
","""event"",""trial"",""time""
""focus"",""40"",""211566""
","""event"",""trial"",""time""
""fullscreenenter"",""1"",""1798""
","
","","","","","","1789.5","images/boat2.png","","","memory_trial","2","maybe_old","","","","","","",""
"html-keyboard-response","52","230143","0.0-15.0-0.5","1865","2","""event"",""trial"",""time""
""fullscreenenter"",""1"",""1798""
""blur"",""40"",""206489""
""focus"",""40"",""211566""
","""event"",""trial"",""time""
""blur"",""40"",""206489""
","""event"",""trial"",""time""
""focus"",""40"",""211566""
","""event"",""trial"",""time""
""fullscreenenter"",""1"",""1798""
","
","","","","","","null","<div style=""font-size:60px;"">+</div>","null","","fixation","","","","","","","","",""
"memory-trial","53","232459","0.0-15.0-1.5","1865","2","""event"",""trial"",""time""
""fullscreenenter"",""1"",""1798""
""blur"",""40"",""206489""
""focus"",""40"",""211566""
","""event"",""trial"",""time""
""blur"",""40"",""206489""
","""event"",""trial"",""time""
""focus"",""40"",""211566""
","""event"",""trial"",""time""
""fullscreenenter"",""1"",""1798""
","
","","","","","","1316.2000000476837","images/rodent3.png","","","memory_trial","4","definitely_new","","","","","","",""
"html-keyboard-response","54","232960","0.0-15.0-0.6","1865","2","""event"",""trial"",""time""
""fullscreenenter"",""1"",""1798""
""blur"",""40"",""206489""
""focus"",""40"",""211566""
","""event"",""trial"",""time""
""blur"",""40"",""206489""
","""event"",""trial"",""time""
""focus"",""40"",""211566""
","""event"",""trial"",""time""
""fullscreenenter"",""1"",""1798""
","
","","","","","","null","<div style=""font-size:60px;"">+</div>","null","","fixation","","","","","","","","",""
"memory-trial","55","236427","0.0-15.0-1.6","1865","2","""event"",""trial"",""time""
""fullscreenenter"",""1"",""1798""
""blur"",""40"",""206489""
""focus"",""40"",""211566""
","""event"",""trial"",""time""
""blur"",""40"",""206489""
","""event"",""trial"",""time""
""focus"",""40"",""211566""
","""event"",""trial"",""time""
""fullscreenenter"",""1"",""1798""
","
","","","","","","2464.7999999523163","images/bush3.png","","","memory_trial","3","maybe_new","","","","","","",""
"html-keyboard-response","56","236927","0.0-15.0-0.7","1865","2","""event"",""trial"",""time""
""fullscreenenter"",""1"",""1798""
""blur"",""40"",""206489""
""focus"",""40"",""211566""
","""event"",""trial"",""time""
""blur"",""40"",""206489""
","""event"",""trial"",""time""
""focus"",""40"",""211566""
","""event"",""trial"",""time""
""fullscreenenter"",""1"",""1798""
","
","","","","","","null","<div style=""font-size:60px;"">+</div>","null","","fixation","","","","","","","","",""
"memory-trial","57","239099","0.0-15.0-1.7","1865","2","""event"",""trial"",""time""
""fullscreenenter"",""1"",""1798""
""blur"",""40"",""206489""
""focus"",""40"",""211566""
","""event"",""trial"",""time""
""blur"",""40"",""206489""
","""event"",""trial"",""time""
""focus"",""40"",""211566""
","""event"",""trial"",""time""
""fullscreenenter"",""1"",""1798""
","
","","","","","","1170.5","images/tree4.png","","","memory_trial","4","definitely_new","","","","","","",""
"html-keyboard-response","58","239600","0.0-15.0-0.8","1865","2","""event"",""trial"",""time""
""fullscreenenter"",""1"",""1798""
""blur"",""40"",""206489""
""focus"",""40"",""211566""
","""event"",""trial"",""time""
""blur"",""40"",""206489""
","""event"",""trial"",""time""
""focus"",""40"",""211566""
","""event"",""trial"",""time""
""fullscreenenter"",""1"",""1798""
","
","","","","","","null","<div style=""font-size:60px;"">+</div>","null","","fixation","","","","","","","","",""
"memory-trial","59","243794","0.0-15.0-1.8","1865","2","""event"",""trial"",""time""
""fullscreenenter"",""1"",""1798""
""blur"",""40"",""206489""
""focus"",""40"",""211566""
","""event"",""trial"",""time""
""blur"",""40"",""206489""
","""event"",""trial"",""time""
""focus"",""40"",""211566""
","""event"",""trial"",""time""
""fullscreenenter"",""1"",""1798""
","
","","","","","","3192.399999976158","images/rabbit1.png","","","memory_trial","1","definitely_old","","","","","","",""
"html-keyboard-response","60","244295","0.0-15.0-0.9","1865","2","""event"",""trial"",""time""
""fullscreenenter"",""1"",""1798""
""blur"",""40"",""206489""
""focus"",""40"",""211566""
","""event"",""trial"",""time""
""blur"",""40"",""206489""
","""event"",""trial"",""time""
""focus"",""40"",""211566""
","""event"",""trial"",""time""
""fullscreenenter"",""1"",""1798""
","
","","","","","","null","<div style=""font-size:60px;"">+</div>","null","","fixation","","","","","","","","",""
"memory-trial","61","248754","0.0-15.0-1.9","1865","2","""event"",""trial"",""time""
""fullscreenenter"",""1"",""1798""
""blur"",""40"",""206489""
""focus"",""40"",""211566""
","""event"",""trial"",""time""
""blur"",""40"",""206489""
","""event"",""trial"",""time""
""focus"",""40"",""211566""
","""event"",""trial"",""time""
""fullscreenenter"",""1"",""1798""
","
","","","","","","3457.899999976158","images/sheep3.png","","","memory_trial","1","definitely_old","","","","","","",""
"html-keyboard-response","62","249255","0.0-15.0-0.10","1865","2","""event"",""trial"",""time""
""fullscreenenter"",""1"",""1798""
""blur"",""40"",""206489""
""focus"",""40"",""211566""
","""event"",""trial"",""time""
""blur"",""40"",""206489""
","""event"",""trial"",""time""
""focus"",""40"",""211566""
","""event"",""trial"",""time""
""fullscreenenter"",""1"",""1798""
","
","","","","","","null","<div style=""font-size:60px;"">+</div>","null","","fixation","","","","","","","","",""
"memory-trial","63","252706","0.0-15.0-1.10","1865","2","""event"",""trial"",""time""
""fullscreenenter"",""1"",""1798""
""blur"",""40"",""206489""
""focus"",""40"",""211566""
","""event"",""trial"",""time""
""blur"",""40"",""206489""
","""event"",""trial"",""time""
""focus"",""40"",""211566""
","""event"",""trial"",""time""
""fullscreenenter"",""1"",""1798""
","
","","","","","","2449","images/orange4.png","","","memory_trial","3","maybe_new","","","","","","",""
"html-keyboard-response","64","253207","0.0-15.0-0.11","1865","2","""event"",""trial"",""time""
""fullscreenenter"",""1"",""1798""
""blur"",""40"",""206489""
""focus"",""40"",""211566""
","""event"",""trial"",""time""
""blur"",""40"",""206489""
","""event"",""trial"",""time""
""focus"",""40"",""211566""
","""event"",""trial"",""time""
""fullscreenenter"",""1"",""1798""
","
","","","","","","null","<div style=""font-size:60px;"">+</div>","null","","fixation","","","","","","","","",""
"memory-trial","65","256136","0.0-15.0-1.11","1865","2","""event"",""trial"",""time""
""fullscreenenter"",""1"",""1798""
""blur"",""40"",""206489""
""focus"",""40"",""211566""
","""event"",""trial"",""time""
""blur"",""40"",""206489""
","""event"",""trial"",""time""
""focus"",""40"",""211566""
","""event"",""trial"",""time""
""fullscreenenter"",""1"",""1798""
","
","","","","","","1927.699999988079","images/flower3.png","","","memory_trial","4","definitely_new","","","","","","",""
"html-keyboard-response","66","256638","0.0-15.0-0.12","1865","2","""event"",""trial"",""time""
""fullscreenenter"",""1"",""1798""
""blur"",""40"",""206489""
""focus"",""40"",""211566""
","""event"",""trial"",""time""
""blur"",""40"",""206489""
","""event"",""trial"",""time""
""focus"",""40"",""211566""
","""event"",""trial"",""time""
""fullscreenenter"",""1"",""1798""
","
","","","","","","null","<div style=""font-size:60px;"">+</div>","null","","fixation","","","","","","","","",""
"memory-trial","67","260085","0.0-15.0-1.12","1865","2","""event"",""trial"",""time""
""fullscreenenter"",""1"",""1798""
""blur"",""40"",""206489""
""focus"",""40"",""211566""
","""event"",""trial"",""time""
""blur"",""40"",""206489""
","""event"",""trial"",""time""
""focus"",""40"",""211566""
","""event"",""trial"",""time""
""fullscreenenter"",""1"",""1798""
","
","","","","","","2446.300000011921","images/banana1.png","","","memory_trial","2","maybe_old","","","","","","",""
"html-keyboard-response","68","260586","0.0-15.0-0.13","1865","2","""event"",""trial"",""time""
""fullscreenenter"",""1"",""1798""
""blur"",""40"",""206489""
""focus"",""40"",""211566""
","""event"",""trial"",""time""
""blur"",""40"",""206489""
","""event"",""trial"",""time""
""focus"",""40"",""211566""
","""event"",""trial"",""time""
""fullscreenenter"",""1"",""1798""
","
","","","","","","null","<div style=""font-size:60px;"">+</div>","null","","fixation","","","","","","","","",""
"memory-trial","69","264710","0.0-15.0-1.13","1865","2","""event"",""trial"",""time""
""fullscreenenter"",""1"",""1798""
""blur"",""40"",""206489""
""focus"",""40"",""211566""
","""event"",""trial"",""time""
""blur"",""40"",""206489""
","""event"",""trial"",""time""
""focus"",""40"",""211566""
","""event"",""trial"",""time""
""fullscreenenter"",""1"",""1798""
","
","","","","","","3122.2999999523163","images/chair5.png","","","memory_trial","3","maybe_new","","","","","","",""
"html-keyboard-response","70","265211","0.0-15.0-0.14","1865","2","""event"",""trial"",""time""
""fullscreenenter"",""1"",""1798""
""blur"",""40"",""206489""
""focus"",""40"",""211566""
","""event"",""trial"",""time""
""blur"",""40"",""206489""
","""event"",""trial"",""time""
""focus"",""40"",""211566""
","""event"",""trial"",""time""
""fullscreenenter"",""1"",""1798""
","
","","","","","","null","<div style=""font-size:60px;"">+</div>","null","","fixation","","","","","","","","",""
"memory-trial","71","269536","0.0-15.0-1.14","1865","2","""event"",""trial"",""time""
""fullscreenenter"",""1"",""1798""
""blur"",""40"",""206489""
""focus"",""40"",""211566""
","""event"",""trial"",""time""
""blur"",""40"",""206489""
","""event"",""trial"",""time""
""focus"",""40"",""211566""
","""event"",""trial"",""time""
""fullscreenenter"",""1"",""1798""
","
","","","","","","3324.300000011921","images/cow5.png","","","memory_trial","3","maybe_new","","","","","","",""
"html-keyboard-response","72","270036","0.0-15.0-0.15","1865","2","""event"",""trial"",""time""
""fullscreenenter"",""1"",""1798""
""blur"",""40"",""206489""
""focus"",""40"",""211566""
","""event"",""trial"",""time""
""blur"",""40"",""206489""
","""event"",""trial"",""time""
""focus"",""40"",""211566""
","""event"",""trial"",""time""
""fullscreenenter"",""1"",""1798""
","
","","","","","","null","<div style=""font-size:60px;"">+</div>","null","","fixation","","","","","","","","",""
"memory-trial","73","272461","0.0-15.0-1.15","1865","2","""event"",""trial"",""time""
""fullscreenenter"",""1"",""1798""
""blur"",""40"",""206489""
""focus"",""40"",""211566""
","""event"",""trial"",""time""
""blur"",""40"",""206489""
","""event"",""trial"",""time""
""focus"",""40"",""211566""
","""event"",""trial"",""time""
""fullscreenenter"",""1"",""1798""
","
","","","","","","1422.4000000357628","images/sheep2.png","","","memory_trial","2","maybe_old","","","","","","",""
"html-keyboard-response","74","272962","0.0-15.0-0.16","1865","2","""event"",""trial"",""time""
""fullscreenenter"",""1"",""1798""
""blur"",""40"",""206489""
""focus"",""40"",""211566""
","""event"",""trial"",""time""
""blur"",""40"",""206489""
","""event"",""trial"",""time""
""focus"",""40"",""211566""
","""event"",""trial"",""time""
""fullscreenenter"",""1"",""1798""
","
","","","","","","null","<div style=""font-size:60px;"">+</div>","null","","fixation","","","","","","","","",""
"memory-trial","75","276940","0.0-15.0-1.16","1865","2","""event"",""trial"",""time""
""fullscreenenter"",""1"",""1798""
""blur"",""40"",""206489""
""focus"",""40"",""211566""
","""event"",""trial"",""time""
""blur"",""40"",""206489""
","""event"",""trial"",""time""
""focus"",""40"",""211566""
","""event"",""trial"",""time""
""fullscreenenter"",""1"",""1798""
","
","","","","","","2976.800000011921","images/straw2.png","","","memory_trial","3","maybe_new","","","","","","",""
"html-keyboard-response","76","277441","0.0-15.0-0.17","1865","2","""event"",""trial"",""time""
""fullscreenenter"",""1"",""1798""
""blur"",""40"",""206489""
""focus"",""40"",""211566""
","""event"",""trial"",""time""
""blur"",""40"",""206489""
","""event"",""trial"",""time""
""focus"",""40"",""211566""
","""event"",""trial"",""time""
""fullscreenenter"",""1"",""1798""
","
","","","","","","null","<div style=""font-size:60px;"">+</div>","null","","fixation","","","","","","","","",""
"memory-trial","77","280416","0.0-15.0-1.17","1865","2","""event"",""trial"",""time""
""fullscreenenter"",""1"",""1798""
""blur"",""40"",""206489""
""focus"",""40"",""211566""
","""event"",""trial"",""time""
""blur"",""40"",""206489""
","""event"",""trial"",""time""
""focus"",""40"",""211566""
","""event"",""trial"",""time""
""fullscreenenter"",""1"",""1798""
","
","","","","","","1974.1000000238419","images/bush5.png","","","memory_trial","1","definitely_old","","","","","","",""
"html-keyboard-response","78","280917","0.0-15.0-0.18","1865","2","""event"",""trial"",""time""
""fullscreenenter"",""1"",""1798""
""blur"",""40"",""206489""
""focus"",""40"",""211566""
","""event"",""trial"",""time""
""blur"",""40"",""206489""
","""event"",""trial"",""time""
""focus"",""40"",""211566""
","""event"",""trial"",""time""
""fullscreenenter"",""1"",""1798""
","
","","","","","","null","<div style=""font-size:60px;"">+</div>","null","","fixation","","","","","","","","",""
"memory-trial","79","284675","0.0-15.0-1.18","1865","2","""event"",""trial"",""time""
""fullscreenenter"",""1"",""1798""
""blur"",""40"",""206489""
""focus"",""40"",""211566""
","""event"",""trial"",""time""
""blur"",""40"",""206489""
","""event"",""trial"",""time""
""focus"",""40"",""211566""
","""event"",""trial"",""time""
""fullscreenenter"",""1"",""1798""
","
","","","","","","2756.800000011921","images/sofa4.png","","","memory_trial","2","maybe_old","","","","","","",""
"html-keyboard-response","80","285176","0.0-15.0-0.19","1865","2","""event"",""trial"",""time""
""fullscreenenter"",""1"",""1798""
""blur"",""40"",""206489""
""focus"",""40"",""211566""
","""event"",""trial"",""time""
""blur"",""40"",""206489""
","""event"",""trial"",""time""
""focus"",""40"",""211566""
","""event"",""trial"",""time""
""fullscreenenter"",""1"",""1798""
","
","","","","","","null","<div style=""font-size:60px;"">+</div>","null","","fixation","","","","","","","","",""
"memory-trial","81","289540","0.0-15.0-1.19","1865","2","""event"",""trial"",""time""
""fullscreenenter"",""1"",""1798""
""blur"",""40"",""206489""
""focus"",""40"",""211566""
","""event"",""trial"",""time""
""blur"",""40"",""206489""
","""event"",""trial"",""time""
""focus"",""40"",""211566""
","""event"",""trial"",""time""
""fullscreenenter"",""1"",""1798""
","
","","","","","","3361.899999976158","images/cow4.png","","","memory_trial","1","definitely_old","","","","","","",""
"html-keyboard-response","82","290041","0.0-15.0-0.20","1865","2","""event"",""trial"",""time""
""fullscreenenter"",""1"",""1798""
""blur"",""40"",""206489""
""focus"",""40"",""211566""
","""event"",""trial"",""time""
""blur"",""40"",""206489""
","""event"",""trial"",""time""
""focus"",""40"",""211566""
","""event"",""trial"",""time""
""fullscreenenter"",""1"",""1798""
","
","","","","","","null","<div style=""font-size:60px;"">+</div>","null","","fixation","","","","","","","","",""
"memory-trial","83","292638","0.0-15.0-1.20","1865","2","""event"",""trial"",""time""
""fullscreenenter"",""1"",""1798""
""blur"",""40"",""206489""
""focus"",""40"",""211566""
","""event"",""trial"",""time""
""blur"",""40"",""206489""
","""event"",""trial"",""time""
""focus"",""40"",""211566""
","""event"",""trial"",""time""
""fullscreenenter"",""1"",""1798""
","
","","","","","","1595.3999999761581","images/bed5.png","","","memory_trial","2","maybe_old","","","","","","",""
"html-keyboard-response","84","293139","0.0-15.0-0.21","1865","2","""event"",""trial"",""time""
""fullscreenenter"",""1"",""1798""
""blur"",""40"",""206489""
""focus"",""40"",""211566""
","""event"",""trial"",""time""
""blur"",""40"",""206489""
","""event"",""trial"",""time""
""focus"",""40"",""211566""
","""event"",""trial"",""time""
""fullscreenenter"",""1"",""1798""
","
","","","","","","null","<div style=""font-size:60px;"">+</div>","null","","fixation","","","","","","","","",""
"memory-trial","85","296997","0.0-15.0-1.21","1865","2","""event"",""trial"",""time""
""fullscreenenter"",""1"",""1798""
""blur"",""40"",""206489""
""focus"",""40"",""211566""
","""event"",""trial"",""time""
""blur"",""40"",""206489""
","""event"",""trial"",""time""
""focus"",""40"",""211566""
","""event"",""trial"",""time""
""fullscreenenter"",""1"",""1798""
","
","","","","","","2855.699999988079","images/cow3.png","","","memory_trial","1","definitely_old","","","","","","",""
"html-keyboard-response","86","297499","0.0-15.0-0.22","1865","2","""event"",""trial"",""time""
""fullscreenenter"",""1"",""1798""
""blur"",""40"",""206489""
""focus"",""40"",""211566""
","""event"",""trial"",""time""
""blur"",""40"",""206489""
","""event"",""trial"",""time""
""focus"",""40"",""211566""
","""event"",""trial"",""time""
""fullscreenenter"",""1"",""1798""
","
","","","","","","null","<div style=""font-size:60px;"">+</div>","null","","fixation","","","","","","","","",""
"memory-trial","87","301266","0.0-15.0-1.22","1865","2","""event"",""trial"",""time""
""fullscreenenter"",""1"",""1798""
""blur"",""40"",""206489""
""focus"",""40"",""211566""
","""event"",""trial"",""time""
""blur"",""40"",""206489""
","""event"",""trial"",""time""
""focus"",""40"",""211566""
","""event"",""trial"",""time""
""fullscreenenter"",""1"",""1798""
","
","","","","","","2765.7999999523163","images/train2.png","","","memory_trial","3","maybe_new","","","","","","",""
"html-keyboard-response","88","301767","0.0-15.0-0.23","1865","2","""event"",""trial"",""time""
""fullscreenenter"",""1"",""1798""
""blur"",""40"",""206489""
""focus"",""40"",""211566""
","""event"",""trial"",""time""
""blur"",""40"",""206489""
","""event"",""trial"",""time""
""focus"",""40"",""211566""
","""event"",""trial"",""time""
""fullscreenenter"",""1"",""1798""
","
","","","","","","null","<div style=""font-size:60px;"">+</div>","null","","fixation","","","","","","","","",""
"memory-trial","89","305388","0.0-15.0-1.23","1865","2","""event"",""trial"",""time""
""fullscreenenter"",""1"",""1798""
""blur"",""40"",""206489""
""focus"",""40"",""211566""
","""event"",""trial"",""time""
""blur"",""40"",""206489""
","""event"",""trial"",""time""
""focus"",""40"",""211566""
","""event"",""trial"",""time""
""fullscreenenter"",""1"",""1798""
","
","","","","","","2620","images/apple4.png","","","memory_trial","2","maybe_old","","","","","","",""
"html-keyboard-response","90","305889","0.0-15.0-0.24","1865","2","""event"",""trial"",""time""
""fullscreenenter"",""1"",""1798""
""blur"",""40"",""206489""
""focus"",""40"",""211566""
","""event"",""trial"",""time""
""blur"",""40"",""206489""
","""event"",""trial"",""time""
""focus"",""40"",""211566""
","""event"",""trial"",""time""
""fullscreenenter"",""1"",""1798""
","
","","","","","","null","<div style=""font-size:60px;"">+</div>","null","","fixation","","","","","","","","",""
"memory-trial","91","308580","0.0-15.0-1.24","1865","2","""event"",""trial"",""time""
""fullscreenenter"",""1"",""1798""
""blur"",""40"",""206489""
""focus"",""40"",""211566""
","""event"",""trial"",""time""
""blur"",""40"",""206489""
","""event"",""trial"",""time""
""focus"",""40"",""211566""
","""event"",""trial"",""time""
""fullscreenenter"",""1"",""1798""
","
","","","","","","1688.6000000238419","images/goat1.png","","","memory_trial","4","definitely_new","","","","","","",""
"html-keyboard-response","92","309080","0.0-15.0-0.25","1865","2","""event"",""trial"",""time""
""fullscreenenter"",""1"",""1798""
""blur"",""40"",""206489""
""focus"",""40"",""211566""
","""event"",""trial"",""time""
""blur"",""40"",""206489""
","""event"",""trial"",""time""
""focus"",""40"",""211566""
","""event"",""trial"",""time""
""fullscreenenter"",""1"",""1798""
","
","","","","","","null","<div style=""font-size:60px;"">+</div>","null","","fixation","","","","","","","","",""
"memory-trial","93","313978","0.0-15.0-1.25","1865","2","""event"",""trial"",""time""
""fullscreenenter"",""1"",""1798""
""blur"",""40"",""206489""
""focus"",""40"",""211566""
","""event"",""trial"",""time""
""blur"",""40"",""206489""
","""event"",""trial"",""time""
""focus"",""40"",""211566""
","""event"",""trial"",""time""
""fullscreenenter"",""1"",""1798""
","
","","","","","","3896.399999976158","images/dog2.png","","","memory_trial","3","maybe_new","","","","","","",""
"html-keyboard-response","94","314480","0.0-15.0-0.26","1865","2","""event"",""trial"",""time""
""fullscreenenter"",""1"",""1798""
""blur"",""40"",""206489""
""focus"",""40"",""211566""
","""event"",""trial"",""time""
""blur"",""40"",""206489""
","""event"",""trial"",""time""
""focus"",""40"",""211566""
","""event"",""trial"",""time""
""fullscreenenter"",""1"",""1798""
","
","","","","","","null","<div style=""font-size:60px;"">+</div>","null","","fixation","","","","","","","","",""
"memory-trial","95","318022","0.0-15.0-1.26","1865","2","""event"",""trial"",""time""
""fullscreenenter"",""1"",""1798""
""blur"",""40"",""206489""
""focus"",""40"",""211566""
","""event"",""trial"",""time""
""blur"",""40"",""206489""
","""event"",""trial"",""time""
""focus"",""40"",""211566""
","""event"",""trial"",""time""
""fullscreenenter"",""1"",""1798""
","
","","","","","","2540.600000023842","images/sheep4.png","","","memory_trial","2","maybe_old","","","","","","",""
"html-keyboard-response","96","318523","0.0-15.0-0.27","1865","2","""event"",""trial"",""time""
""fullscreenenter"",""1"",""1798""
""blur"",""40"",""206489""
""focus"",""40"",""211566""
","""event"",""trial"",""time""
""blur"",""40"",""206489""
","""event"",""trial"",""time""
""focus"",""40"",""211566""
","""event"",""trial"",""time""
""fullscreenenter"",""1"",""1798""
","
","","","","","","null","<div style=""font-size:60px;"">+</div>","null","","fixation","","","","","","","","",""
"memory-trial","97","321730","0.0-15.0-1.27","1865","2","""event"",""trial"",""time""
""fullscreenenter"",""1"",""1798""
""blur"",""40"",""206489""
""focus"",""40"",""211566""
","""event"",""trial"",""time""
""blur"",""40"",""206489""
","""event"",""trial"",""time""
""focus"",""40"",""211566""
","""event"",""trial"",""time""
""fullscreenenter"",""1"",""1798""
","
","","","","","","2205.699999988079","images/chair2.png","","","memory_trial","4","definitely_new","","","","","","",""
"html-keyboard-response","98","322231","0.0-15.0-0.28","1865","2","""event"",""trial"",""time""
""fullscreenenter"",""1"",""1798""
""blur"",""40"",""206489""
""focus"",""40"",""211566""
","""event"",""trial"",""time""
""blur"",""40"",""206489""
","""event"",""trial"",""time""
""focus"",""40"",""211566""
","""event"",""trial"",""time""
""fullscreenenter"",""1"",""1798""
","
","","","","","","null","<div style=""font-size:60px;"">+</div>","null","","fixation","","","","","","","","",""
"memory-trial","99","324899","0.0-15.0-1.28","1865","2","""event"",""trial"",""time""
""fullscreenenter"",""1"",""1798""
""blur"",""40"",""206489""
""focus"",""40"",""211566""
","""event"",""trial"",""time""
""blur"",""40"",""206489""
","""event"",""trial"",""time""
""focus"",""40"",""211566""
","""event"",""trial"",""time""
""fullscreenenter"",""1"",""1798""
","
","","","","","","1666.1000000238419","images/apple5.png","","","memory_trial","4","definitely_new","","","","","","",""
"html-keyboard-response","100","325401","0.0-15.0-0.29","1865","2","""event"",""trial"",""time""
""fullscreenenter"",""1"",""1798""
""blur"",""40"",""206489""
""focus"",""40"",""211566""
","""event"",""trial"",""time""
""blur"",""40"",""206489""
","""event"",""trial"",""time""
""focus"",""40"",""211566""
","""event"",""trial"",""time""
""fullscreenenter"",""1"",""1798""
","
","","","","","","null","<div style=""font-size:60px;"">+</div>","null","","fixation","","","","","","","","",""
"memory-trial","101","327410","0.0-15.0-1.29","1865","2","""event"",""trial"",""time""
""fullscreenenter"",""1"",""1798""
""blur"",""40"",""206489""
""focus"",""40"",""211566""
","""event"",""trial"",""time""
""blur"",""40"",""206489""
","""event"",""trial"",""time""
""focus"",""40"",""211566""
","""event"",""trial"",""time""
""fullscreenenter"",""1"",""1798""
","
","","","","","","1006.5999999642372","images/flower2.png","","","memory_trial","1","definitely_old","","","","","","",""
"html-keyboard-response","102","327911","0.0-15.0-0.30","1865","2","""event"",""trial"",""time""
""fullscreenenter"",""1"",""1798""
""blur"",""40"",""206489""
""focus"",""40"",""211566""
","""event"",""trial"",""time""
""blur"",""40"",""206489""
","""event"",""trial"",""time""
""focus"",""40"",""211566""
","""event"",""trial"",""time""
""fullscreenenter"",""1"",""1798""
","
","","","","","","null","<div style=""font-size:60px;"">+</div>","null","","fixation","","","","","","","","",""
"memory-trial","103","330255","0.0-15.0-1.30","1865","2","""event"",""trial"",""time""
""fullscreenenter"",""1"",""1798""
""blur"",""40"",""206489""
""focus"",""40"",""211566""
","""event"",""trial"",""time""
""blur"",""40"",""206489""
","""event"",""trial"",""time""
""focus"",""40"",""211566""
","""event"",""trial"",""time""
""fullscreenenter"",""1"",""1798""
","
","","","","","","1341.7999999523163","images/goat2.png","","","memory_trial","4","definitely_new","","","","","","",""
"html-keyboard-response","104","330755","0.0-15.0-0.31","1865","2","""event"",""trial"",""time""
""fullscreenenter"",""1"",""1798""
""blur"",""40"",""206489""
""focus"",""40"",""211566""
","""event"",""trial"",""time""
""blur"",""40"",""206489""
","""event"",""trial"",""time""
""focus"",""40"",""211566""
","""event"",""trial"",""time""
""fullscreenenter"",""1"",""1798""
","
","","","","","","null","<div style=""font-size:60px;"">+</div>","null","","fixation","","","","","","","","",""
"memory-trial","105","333233","0.0-15.0-1.31","1865","2","""event"",""trial"",""time""
""fullscreenenter"",""1"",""1798""
""blur"",""40"",""206489""
""focus"",""40"",""211566""
","""event"",""trial"",""time""
""blur"",""40"",""206489""
","""event"",""trial"",""time""
""focus"",""40"",""211566""
","""event"",""trial"",""time""
""fullscreenenter"",""1"",""1798""
","
","","","","","","1475.5","images/cow2.png","","","memory_trial","2","maybe_old","","","","","","",""
"html-keyboard-response","106","333735","0.0-15.0-0.32","1865","2","""event"",""trial"",""time""
""fullscreenenter"",""1"",""1798""
""blur"",""40"",""206489""
""focus"",""40"",""211566""
","""event"",""trial"",""time""
""blur"",""40"",""206489""
","""event"",""trial"",""time""
""focus"",""40"",""211566""
","""event"",""trial"",""time""
""fullscreenenter"",""1"",""1798""
","
","","","","","","null","<div style=""font-size:60px;"">+</div>","null","","fixation","","","","","","","","",""
"memory-trial","107","336388","0.0-15.0-1.32","1865","2","""event"",""trial"",""time""
""fullscreenenter"",""1"",""1798""
""blur"",""40"",""206489""
""focus"",""40"",""211566""
","""event"",""trial"",""time""
""blur"",""40"",""206489""
","""event"",""trial"",""time""
""focus"",""40"",""211566""
","""event"",""trial"",""time""
""fullscreenenter"",""1"",""1798""
","
","","","","","","1652.1000000238419","images/straw3.png","","","memory_trial","3","maybe_new","","","","","","",""
"html-keyboard-response","108","336889","0.0-15.0-0.33","1865","2","""event"",""trial"",""time""
""fullscreenenter"",""1"",""1798""
""blur"",""40"",""206489""
""focus"",""40"",""211566""
","""event"",""trial"",""time""
""blur"",""40"",""206489""
","""event"",""trial"",""time""
""focus"",""40"",""211566""
","""event"",""trial"",""time""
""fullscreenenter"",""1"",""1798""
","
","","","","","","null","<div style=""font-size:60px;"">+</div>","null","","fixation","","","","","","","","",""
"memory-trial","109","340319","0.0-15.0-1.33","1865","2","""event"",""trial"",""time""
""fullscreenenter"",""1"",""1798""
""blur"",""40"",""206489""
""focus"",""40"",""211566""
","""event"",""trial"",""time""
""blur"",""40"",""206489""
","""event"",""trial"",""time""
""focus"",""40"",""211566""
","""event"",""trial"",""time""
""fullscreenenter"",""1"",""1798""
","
","","","","","","2429.800000011921","images/tree3.png","","","memory_trial","3","maybe_new","","","","","","",""
"html-keyboard-response","110","340820","0.0-15.0-0.34","1865","2","""event"",""trial"",""time""
""fullscreenenter"",""1"",""1798""
""blur"",""40"",""206489""
""focus"",""40"",""211566""
","""event"",""trial"",""time""
""blur"",""40"",""206489""
","""event"",""trial"",""time""
""focus"",""40"",""211566""
","""event"",""trial"",""time""
""fullscreenenter"",""1"",""1798""
","
","","","","","","null","<div style=""font-size:60px;"">+</div>","null","","fixation","","","","","","","","",""
"memory-trial","111","343108","0.0-15.0-1.34","1865","2","""event"",""trial"",""time""
""fullscreenenter"",""1"",""1798""
""blur"",""40"",""206489""
""focus"",""40"",""211566""
","""event"",""trial"",""time""
""blur"",""40"",""206489""
","""event"",""trial"",""time""
""focus"",""40"",""211566""
","""event"",""trial"",""time""
""fullscreenenter"",""1"",""1798""
","
","","","","","","1285.199999988079","images/bush1.png","","","memory_trial","1","definitely_old","","","","","","",""
"html-keyboard-response","112","343608","0.0-15.0-0.35","1865","2","""event"",""trial"",""time""
""fullscreenenter"",""1"",""1798""
""blur"",""40"",""206489""
""focus"",""40"",""211566""
","""event"",""trial"",""time""
""blur"",""40"",""206489""
","""event"",""trial"",""time""
""focus"",""40"",""211566""
","""event"",""trial"",""time""
""fullscreenenter"",""1"",""1798""
","
","","","","","","null","<div style=""font-size:60px;"">+</div>","null","","fixation","","","","","","","","",""
"memory-trial","113","346378","0.0-15.0-1.35","1865","2","""event"",""trial"",""time""
""fullscreenenter"",""1"",""1798""
""blur"",""40"",""206489""
""focus"",""40"",""211566""
","""event"",""trial"",""time""
""blur"",""40"",""206489""
","""event"",""trial"",""time""
""focus"",""40"",""211566""
","""event"",""trial"",""time""
""fullscreenenter"",""1"",""1798""
","
","","","","","","1769.199999988079","images/rodent4.png","","","memory_trial","4","definitely_new","","","","","","",""
"html-keyboard-response","114","346879","0.0-15.0-0.36","1865","2","""event"",""trial"",""time""
""fullscreenenter"",""1"",""1798""
""blur"",""40"",""206489""
""focus"",""40"",""211566""
","""event"",""trial"",""time""
""blur"",""40"",""206489""
","""event"",""trial"",""time""
""focus"",""40"",""211566""
","""event"",""trial"",""time""
""fullscreenenter"",""1"",""1798""
","
","","","","","","null","<div style=""font-size:60px;"">+</div>","null","","fixation","","","","","","","","",""
"memory-trial","115","349910","0.0-15.0-1.36","1865","2","""event"",""trial"",""time""
""fullscreenenter"",""1"",""1798""
""blur"",""40"",""206489""
""focus"",""40"",""211566""
","""event"",""trial"",""time""
""blur"",""40"",""206489""
","""event"",""trial"",""time""
""focus"",""40"",""211566""
","""event"",""trial"",""time""
""fullscreenenter"",""1"",""1798""
","
","","","","","","2029.8999999761581","images/dog5.png","","","memory_trial","1","definitely_old","","","","","","",""
"html-keyboard-response","116","350412","0.0-15.0-0.37","1865","2","""event"",""trial"",""time""
""fullscreenenter"",""1"",""1798""
""blur"",""40"",""206489""
""focus"",""40"",""211566""
","""event"",""trial"",""time""
""blur"",""40"",""206489""
","""event"",""trial"",""time""
""focus"",""40"",""211566""
","""event"",""trial"",""time""
""fullscreenenter"",""1"",""1798""
","
","","","","","","null","<div style=""font-size:60px;"">+</div>","null","","fixation","","","","","","","","",""
"memory-trial","117","354209","0.0-15.0-1.37","1865","2","""event"",""trial"",""time""
""fullscreenenter"",""1"",""1798""
""blur"",""40"",""206489""
""focus"",""40"",""211566""
","""event"",""trial"",""time""
""blur"",""40"",""206489""
","""event"",""trial"",""time""
""focus"",""40"",""211566""
","""event"",""trial"",""time""
""fullscreenenter"",""1"",""1798""
","
","","","","","","2795.600000023842","images/orange5.png","","","memory_trial","2","maybe_old","","","","","","",""
"html-keyboard-response","118","354710","0.0-15.0-0.38","1865","2","""event"",""trial"",""time""
""fullscreenenter"",""1"",""1798""
""blur"",""40"",""206489""
""focus"",""40"",""211566""
","""event"",""trial"",""time""
""blur"",""40"",""206489""
","""event"",""trial"",""time""
""focus"",""40"",""211566""
","""event"",""trial"",""time""
""fullscreenenter"",""1"",""1798""
","
","","","","","","null","<div style=""font-size:60px;"">+</div>","null","","fixation","","","","","","","","",""
"memory-trial","119","357413","0.0-15.0-1.38","1865","2","""event"",""trial"",""time""
""fullscreenenter"",""1"",""1798""
""blur"",""40"",""206489""
""focus"",""40"",""211566""
","""event"",""trial"",""time""
""blur"",""40"",""206489""
","""event"",""trial"",""time""
""focus"",""40"",""211566""
","""event"",""trial"",""time""
""fullscreenenter"",""1"",""1798""
","
","","","","","","1700.8999999761581","images/goat3.png","","","memory_trial","4","definitely_new","","","","","","",""
"html-keyboard-response","120","357915","0.0-15.0-0.39","1865","2","""event"",""trial"",""time""
""fullscreenenter"",""1"",""1798""
""blur"",""40"",""206489""
""focus"",""40"",""211566""
","""event"",""trial"",""time""
""blur"",""40"",""206489""
","""event"",""trial"",""time""
""focus"",""40"",""211566""
","""event"",""trial"",""time""
""fullscreenenter"",""1"",""1798""
","
","","","","","","null","<div style=""font-size:60px;"">+</div>","null","","fixation","","","","","","","","",""
"memory-trial","121","360123","0.0-15.0-1.39","1865","2","""event"",""trial"",""time""
""fullscreenenter"",""1"",""1798""
""blur"",""40"",""206489""
""focus"",""40"",""211566""
","""event"",""trial"",""time""
""blur"",""40"",""206489""
","""event"",""trial"",""time""
""focus"",""40"",""211566""
","""event"",""trial"",""time""
""fullscreenenter"",""1"",""1798""
","
","","","","","","1206.699999988079","images/straw4.png","","","memory_trial","3","maybe_new","","","","","","",""
"html-keyboard-response","122","360623","0.0-15.0-0.40","1865","2","""event"",""trial"",""time""
""fullscreenenter"",""1"",""1798""
""blur"",""40"",""206489""
""focus"",""40"",""211566""
","""event"",""trial"",""time""
""blur"",""40"",""206489""
","""event"",""trial"",""time""
""focus"",""40"",""211566""
","""event"",""trial"",""time""
""fullscreenenter"",""1"",""1798""
","
","","","","","","null","<div style=""font-size:60px;"">+</div>","null","","fixation","","","","","","","","",""
"memory-trial","123","363913","0.0-15.0-1.40","1865","2","""event"",""trial"",""time""
""fullscreenenter"",""1"",""1798""
""blur"",""40"",""206489""
""focus"",""40"",""211566""
","""event"",""trial"",""time""
""blur"",""40"",""206489""
","""event"",""trial"",""time""
""focus"",""40"",""211566""
","""event"",""trial"",""time""
""fullscreenenter"",""1"",""1798""
","
","","","","","","2288.199999988079","images/rabbit5.png","","","memory_trial","3","maybe_new","","","","","","",""
"html-keyboard-response","124","364414","0.0-15.0-0.41","1865","2","""event"",""trial"",""time""
""fullscreenenter"",""1"",""1798""
""blur"",""40"",""206489""
""focus"",""40"",""211566""
","""event"",""trial"",""time""
""blur"",""40"",""206489""
","""event"",""trial"",""time""
""focus"",""40"",""211566""
","""event"",""trial"",""time""
""fullscreenenter"",""1"",""1798""
","
","","","","","","null","<div style=""font-size:60px;"">+</div>","null","","fixation","","","","","","","","",""
"memory-trial","125","367030","0.0-15.0-1.41","1865","2","""event"",""trial"",""time""
""fullscreenenter"",""1"",""1798""
""blur"",""40"",""206489""
""focus"",""40"",""211566""
","""event"",""trial"",""time""
""blur"",""40"",""206489""
","""event"",""trial"",""time""
""focus"",""40"",""211566""
","""event"",""trial"",""time""
""fullscreenenter"",""1"",""1798""
","
","","","","","","1614.6000000238419","images/dog4.png","","","memory_trial","2","maybe_old","","","","","","",""
"html-keyboard-response","126","367531","0.0-15.0-0.42","1865","2","""event"",""trial"",""time""
""fullscreenenter"",""1"",""1798""
""blur"",""40"",""206489""
""focus"",""40"",""211566""
","""event"",""trial"",""time""
""blur"",""40"",""206489""
","""event"",""trial"",""time""
""focus"",""40"",""211566""
","""event"",""trial"",""time""
""fullscreenenter"",""1"",""1798""
","
","","","","","","null","<div style=""font-size:60px;"">+</div>","null","","fixation","","","","","","","","",""
"memory-trial","127","369730","0.0-15.0-1.42","1865","2","""event"",""trial"",""time""
""fullscreenenter"",""1"",""1798""
""blur"",""40"",""206489""
""focus"",""40"",""211566""
","""event"",""trial"",""time""
""blur"",""40"",""206489""
","""event"",""trial"",""time""
""focus"",""40"",""211566""
","""event"",""trial"",""time""
""fullscreenenter"",""1"",""1798""
","
","","","","","","1198.1000000238419","images/horse1.png","","","memory_trial","1","definitely_old","","","","","","",""
"html-keyboard-response","128","370231","0.0-15.0-0.43","1865","2","""event"",""trial"",""time""
""fullscreenenter"",""1"",""1798""
""blur"",""40"",""206489""
""focus"",""40"",""211566""
","""event"",""trial"",""time""
""blur"",""40"",""206489""
","""event"",""trial"",""time""
""focus"",""40"",""211566""
","""event"",""trial"",""time""
""fullscreenenter"",""1"",""1798""
","
","","","","","","null","<div style=""font-size:60px;"">+</div>","null","","fixation","","","","","","","","",""
"memory-trial","129","373291","0.0-15.0-1.43","1865","2","""event"",""trial"",""time""
""fullscreenenter"",""1"",""1798""
""blur"",""40"",""206489""
""focus"",""40"",""211566""
","""event"",""trial"",""time""
""blur"",""40"",""206489""
","""event"",""trial"",""time""
""focus"",""40"",""211566""
","""event"",""trial"",""time""
""fullscreenenter"",""1"",""1798""
","
","","","","","","2058.900000035763","images/boat4.png","","","memory_trial","2","maybe_old","","","","","","",""
"html-keyboard-response","130","373792","0.0-15.0-0.44","1865","2","""event"",""trial"",""time""
""fullscreenenter"",""1"",""1798""
""blur"",""40"",""206489""
""focus"",""40"",""211566""
","""event"",""trial"",""time""
""blur"",""40"",""206489""
","""event"",""trial"",""time""
""focus"",""40"",""211566""
","""event"",""trial"",""time""
""fullscreenenter"",""1"",""1798""
","
","","","","","","null","<div style=""font-size:60px;"">+</div>","null","","fixation","","","","","","","","",""
"memory-trial","131","378092","0.0-15.0-1.44","1865","2","""event"",""trial"",""time""
""fullscreenenter"",""1"",""1798""
""blur"",""40"",""206489""
""focus"",""40"",""211566""
","""event"",""trial"",""time""
""blur"",""40"",""206489""
","""event"",""trial"",""time""
""focus"",""40"",""211566""
","""event"",""trial"",""time""
""fullscreenenter"",""1"",""1798""
","
","","","","","","3298.5","images/sofa5.png","","","memory_trial","3","maybe_new","","","","","","",""
"html-keyboard-response","132","378593","0.0-15.0-0.45","1865","2","""event"",""trial"",""time""
""fullscreenenter"",""1"",""1798""
""blur"",""40"",""206489""
""focus"",""40"",""211566""
","""event"",""trial"",""time""
""blur"",""40"",""206489""
","""event"",""trial"",""time""
""focus"",""40"",""211566""
","""event"",""trial"",""time""
""fullscreenenter"",""1"",""1798""
","
","","","","","","null","<div style=""font-size:60px;"">+</div>","null","","fixation","","","","","","","","",""
"memory-trial","133","381156","0.0-15.0-1.45","1865","2","""event"",""trial"",""time""
""fullscreenenter"",""1"",""1798""
""blur"",""40"",""206489""
""focus"",""40"",""211566""
","""event"",""trial"",""time""
""blur"",""40"",""206489""
","""event"",""trial"",""time""
""focus"",""40"",""211566""
","""event"",""trial"",""time""
""fullscreenenter"",""1"",""1798""
","
","","","","","","1561.6000000238419","images/chair4.png","","","memory_trial","4","definitely_new","","","","","","",""
"html-keyboard-response","134","381657","0.0-15.0-0.46","1865","2","""event"",""trial"",""time""
""fullscreenenter"",""1"",""1798""
""blur"",""40"",""206489""
""focus"",""40"",""211566""
","""event"",""trial"",""time""
""blur"",""40"",""206489""
","""event"",""trial"",""time""
""focus"",""40"",""211566""
","""event"",""trial"",""time""
""fullscreenenter"",""1"",""1798""
","
","","","","","","null","<div style=""font-size:60px;"">+</div>","null","","fixation","","","","","","","","",""
"memory-trial","135","384479","0.0-15.0-1.46","1865","2","""event"",""trial"",""time""
""fullscreenenter"",""1"",""1798""
""blur"",""40"",""206489""
""focus"",""40"",""211566""
","""event"",""trial"",""time""
""blur"",""40"",""206489""
","""event"",""trial"",""time""
""focus"",""40"",""211566""
","""event"",""trial"",""time""
""fullscreenenter"",""1"",""1798""
","
","","","","","","1820.4000000357628","images/horse2.png","","","memory_trial","1","definitely_old","","","","","","",""
"html-button-response","136","386394","0.0-15.0-2.46-0.46","1865","2","""event"",""trial"",""time""
""fullscreenenter"",""1"",""1798""
""blur"",""40"",""206489""
""focus"",""40"",""211566""
","""event"",""trial"",""time""
""blur"",""40"",""206489""
","""event"",""trial"",""time""
""focus"",""40"",""211566""
","""event"",""trial"",""time""
""fullscreenenter"",""1"",""1798""
","
","","","","","","1914.4000000357628","<p> Take a break! </p><p> Click the button to continue. </p>","0","","break","","","","","","","","",""
"html-keyboard-response","137","386895","0.0-15.0-0.47","1865","2","""event"",""trial"",""time""
""fullscreenenter"",""1"",""1798""
""blur"",""40"",""206489""
""focus"",""40"",""211566""
","""event"",""trial"",""time""
""blur"",""40"",""206489""
","""event"",""trial"",""time""
""focus"",""40"",""211566""
","""event"",""trial"",""time""
""fullscreenenter"",""1"",""1798""
","
","","","","","","null","<div style=""font-size:60px;"">+</div>","null","","fixation","","","","","","","","",""
"memory-trial","138","390833","0.0-15.0-1.47","1865","2","""event"",""trial"",""time""
""fullscreenenter"",""1"",""1798""
""blur"",""40"",""206489""
""focus"",""40"",""211566""
","""event"",""trial"",""time""
""blur"",""40"",""206489""
","""event"",""trial"",""time""
""focus"",""40"",""211566""
","""event"",""trial"",""time""
""fullscreenenter"",""1"",""1798""
","
","","","","","","2936.099999964237","images/truck1.png","","","memory_trial","1","definitely_old","","","","","","",""
"html-keyboard-response","139","391334","0.0-15.0-0.48","1865","2","""event"",""trial"",""time""
""fullscreenenter"",""1"",""1798""
""blur"",""40"",""206489""
""focus"",""40"",""211566""
","""event"",""trial"",""time""
""blur"",""40"",""206489""
","""event"",""trial"",""time""
""focus"",""40"",""211566""
","""event"",""trial"",""time""
""fullscreenenter"",""1"",""1798""
","
","","","","","","null","<div style=""font-size:60px;"">+</div>","null","","fixation","","","","","","","","",""
"memory-trial","140","393935","0.0-15.0-1.48","1865","2","""event"",""trial"",""time""
""fullscreenenter"",""1"",""1798""
""blur"",""40"",""206489""
""focus"",""40"",""211566""
","""event"",""trial"",""time""
""blur"",""40"",""206489""
","""event"",""trial"",""time""
""focus"",""40"",""211566""
","""event"",""trial"",""time""
""fullscreenenter"",""1"",""1798""
","
","","","","","","1599.6000000238419","images/table4.png","","","memory_trial","1","definitely_old","","","","","","",""
"html-keyboard-response","141","394436","0.0-15.0-0.49","1865","2","""event"",""trial"",""time""
""fullscreenenter"",""1"",""1798""
""blur"",""40"",""206489""
""focus"",""40"",""211566""
","""event"",""trial"",""time""
""blur"",""40"",""206489""
","""event"",""trial"",""time""
""focus"",""40"",""211566""
","""event"",""trial"",""time""
""fullscreenenter"",""1"",""1798""
","
","","","","","","null","<div style=""font-size:60px;"">+</div>","null","","fixation","","","","","","","","",""
"memory-trial","142","396923","0.0-15.0-1.49","1865","2","""event"",""trial"",""time""
""fullscreenenter"",""1"",""1798""
""blur"",""40"",""206489""
""focus"",""40"",""211566""
","""event"",""trial"",""time""
""blur"",""40"",""206489""
","""event"",""trial"",""time""
""focus"",""40"",""211566""
","""event"",""trial"",""time""
""fullscreenenter"",""1"",""1798""
","
","","","","","","1484.8999999761581","images/straw5.png","","","memory_trial","3","maybe_new","","","","","","",""
"html-keyboard-response","143","397424","0.0-15.0-0.50","1865","2","""event"",""trial"",""time""
""fullscreenenter"",""1"",""1798""
""blur"",""40"",""206489""
""focus"",""40"",""211566""
","""event"",""trial"",""time""
""blur"",""40"",""206489""
","""event"",""trial"",""time""
""focus"",""40"",""211566""
","""event"",""trial"",""time""
""fullscreenenter"",""1"",""1798""
","
","","","","","","null","<div style=""font-size:60px;"">+</div>","null","","fixation","","","","","","","","",""
"memory-trial","144","399310","0.0-15.0-1.50","1865","2","""event"",""trial"",""time""
""fullscreenenter"",""1"",""1798""
""blur"",""40"",""206489""
""focus"",""40"",""211566""
","""event"",""trial"",""time""
""blur"",""40"",""206489""
","""event"",""trial"",""time""
""focus"",""40"",""211566""
","""event"",""trial"",""time""
""fullscreenenter"",""1"",""1798""
","
","","","","","","884.0999999642372","images/feline5.png","","","memory_trial","1","definitely_old","","","","","","",""
"html-keyboard-response","145","399811","0.0-15.0-0.51","1865","2","""event"",""trial"",""time""
""fullscreenenter"",""1"",""1798""
""blur"",""40"",""206489""
""focus"",""40"",""211566""
","""event"",""trial"",""time""
""blur"",""40"",""206489""
","""event"",""trial"",""time""
""focus"",""40"",""211566""
","""event"",""trial"",""time""
""fullscreenenter"",""1"",""1798""
","
","","","","","","null","<div style=""font-size:60px;"">+</div>","null","","fixation","","","","","","","","",""
"memory-trial","146","401981","0.0-15.0-1.51","1865","2","""event"",""trial"",""time""
""fullscreenenter"",""1"",""1798""
""blur"",""40"",""206489""
""focus"",""40"",""211566""
","""event"",""trial"",""time""
""blur"",""40"",""206489""
","""event"",""trial"",""time""
""focus"",""40"",""211566""
","""event"",""trial"",""time""
""fullscreenenter"",""1"",""1798""
","
","","","","","","1169.699999988079","images/feline2.png","","","memory_trial","2","maybe_old","","","","","","",""
"html-keyboard-response","147","402482","0.0-15.0-0.52","1865","2","""event"",""trial"",""time""
""fullscreenenter"",""1"",""1798""
""blur"",""40"",""206489""
""focus"",""40"",""211566""
","""event"",""trial"",""time""
""blur"",""40"",""206489""
","""event"",""trial"",""time""
""focus"",""40"",""211566""
","""event"",""trial"",""time""
""fullscreenenter"",""1"",""1798""
","
","","","","","","null","<div style=""font-size:60px;"">+</div>","null","","fixation","","","","","","","","",""
"memory-trial","148","404522","0.0-15.0-1.52","1865","2","""event"",""trial"",""time""
""fullscreenenter"",""1"",""1798""
""blur"",""40"",""206489""
""focus"",""40"",""211566""
","""event"",""trial"",""time""
""blur"",""40"",""206489""
","""event"",""trial"",""time""
""focus"",""40"",""211566""
","""event"",""trial"",""time""
""fullscreenenter"",""1"",""1798""
","
","","","","","","1038.6000000238419","images/feline3.png","","","memory_trial","1","definitely_old","","","","","","",""
"html-keyboard-response","149","405024","0.0-15.0-0.53","1865","2","""event"",""trial"",""time""
""fullscreenenter"",""1"",""1798""
""blur"",""40"",""206489""
""focus"",""40"",""211566""
","""event"",""trial"",""time""
""blur"",""40"",""206489""
","""event"",""trial"",""time""
""focus"",""40"",""211566""
","""event"",""trial"",""time""
""fullscreenenter"",""1"",""1798""
","
","","","","","","null","<div style=""font-size:60px;"">+</div>","null","","fixation","","","","","","","","",""
"memory-trial","150","408746","0.0-15.0-1.53","1865","2","""event"",""trial"",""time""
""fullscreenenter"",""1"",""1798""
""blur"",""40"",""206489""
""focus"",""40"",""211566""
","""event"",""trial"",""time""
""blur"",""40"",""206489""
","""event"",""trial"",""time""
""focus"",""40"",""211566""
","""event"",""trial"",""time""
""fullscreenenter"",""1"",""1798""
","
","","","","","","2720.599999964237","images/cactus5.png","","","memory_trial","2","maybe_old","","","","","","",""
"html-keyboard-response","151","409248","0.0-15.0-0.54","1865","2","""event"",""trial"",""time""
""fullscreenenter"",""1"",""1798""
""blur"",""40"",""206489""
""focus"",""40"",""211566""
","""event"",""trial"",""time""
""blur"",""40"",""206489""
","""event"",""trial"",""time""
""focus"",""40"",""211566""
","""event"",""trial"",""time""
""fullscreenenter"",""1"",""1798""
","
","","","","","","null","<div style=""font-size:60px;"">+</div>","null","","fixation","","","","","","","","",""
"memory-trial","152","411302","0.0-15.0-1.54","1865","2","""event"",""trial"",""time""
""fullscreenenter"",""1"",""1798""
""blur"",""40"",""206489""
""focus"",""40"",""211566""
","""event"",""trial"",""time""
""blur"",""40"",""206489""
","""event"",""trial"",""time""
""focus"",""40"",""211566""
","""event"",""trial"",""time""
""fullscreenenter"",""1"",""1798""
","
","","","","","","1052.699999988079","images/banana2.png","","","memory_trial","4","definitely_new","","","","","","",""
"html-keyboard-response","153","411803","0.0-15.0-0.55","1865","2","""event"",""trial"",""time""
""fullscreenenter"",""1"",""1798""
""blur"",""40"",""206489""
""focus"",""40"",""211566""
","""event"",""trial"",""time""
""blur"",""40"",""206489""
","""event"",""trial"",""time""
""focus"",""40"",""211566""
","""event"",""trial"",""time""
""fullscreenenter"",""1"",""1798""
","
","","","","","","null","<div style=""font-size:60px;"">+</div>","null","","fixation","","","","","","","","",""
"memory-trial","154","414807","0.0-15.0-1.55","1865","2","""event"",""trial"",""time""
""fullscreenenter"",""1"",""1798""
""blur"",""40"",""206489""
""focus"",""40"",""211566""
","""event"",""trial"",""time""
""blur"",""40"",""206489""
","""event"",""trial"",""time""
""focus"",""40"",""211566""
","""event"",""trial"",""time""
""fullscreenenter"",""1"",""1798""
","
","","","","","","2002.300000011921","images/rabbit4.png","","","memory_trial","3","maybe_new","","","","","","",""
"html-keyboard-response","155","415310","0.0-15.0-0.56","1865","2","""event"",""trial"",""time""
""fullscreenenter"",""1"",""1798""
""blur"",""40"",""206489""
""focus"",""40"",""211566""
","""event"",""trial"",""time""
""blur"",""40"",""206489""
","""event"",""trial"",""time""
""focus"",""40"",""211566""
","""event"",""trial"",""time""
""fullscreenenter"",""1"",""1798""
","
","","","","","","null","<div style=""font-size:60px;"">+</div>","null","","fixation","","","","","","","","",""
"memory-trial","156","417742","0.0-15.0-1.56","1865","2","""event"",""trial"",""time""
""fullscreenenter"",""1"",""1798""
""blur"",""40"",""206489""
""focus"",""40"",""211566""
","""event"",""trial"",""time""
""blur"",""40"",""206489""
","""event"",""trial"",""time""
""focus"",""40"",""211566""
","""event"",""trial"",""time""
""fullscreenenter"",""1"",""1798""
","
","","","","","","1430.6000000238419","images/plane2.png","","","memory_trial","4","definitely_new","","","","","","",""
"html-keyboard-response","157","418243","0.0-15.0-0.57","1865","2","""event"",""trial"",""time""
""fullscreenenter"",""1"",""1798""
""blur"",""40"",""206489""
""focus"",""40"",""211566""
","""event"",""trial"",""time""
""blur"",""40"",""206489""
","""event"",""trial"",""time""
""focus"",""40"",""211566""
","""event"",""trial"",""time""
""fullscreenenter"",""1"",""1798""
","
","","","","","","null","<div style=""font-size:60px;"">+</div>","null","","fixation","","","","","","","","",""
"memory-trial","158","421046","0.0-15.0-1.57","1865","2","""event"",""trial"",""time""
""fullscreenenter"",""1"",""1798""
""blur"",""40"",""206489""
""focus"",""40"",""211566""
","""event"",""trial"",""time""
""blur"",""40"",""206489""
","""event"",""trial"",""time""
""focus"",""40"",""211566""
","""event"",""trial"",""time""
""fullscreenenter"",""1"",""1798""
","
","","","","","","1801.5","images/cactus4.png","","","memory_trial","3","maybe_new","","","","","","",""
"html-keyboard-response","159","421546","0.0-15.0-0.58","1865","2","""event"",""trial"",""time""
""fullscreenenter"",""1"",""1798""
""blur"",""40"",""206489""
""focus"",""40"",""211566""
","""event"",""trial"",""time""
""blur"",""40"",""206489""
","""event"",""trial"",""time""
""focus"",""40"",""211566""
","""event"",""trial"",""time""
""fullscreenenter"",""1"",""1798""
","
","","","","","","null","<div style=""font-size:60px;"">+</div>","null","","fixation","","","","","","","","",""
"memory-trial","160","424171","0.0-15.0-1.58","1865","2","""event"",""trial"",""time""
""fullscreenenter"",""1"",""1798""
""blur"",""40"",""206489""
""focus"",""40"",""211566""
","""event"",""trial"",""time""
""blur"",""40"",""206489""
","""event"",""trial"",""time""
""focus"",""40"",""211566""
","""event"",""trial"",""time""
""fullscreenenter"",""1"",""1798""
","
","","","","","","1623","images/sofa3.png","","","memory_trial","1","definitely_old","","","","","","",""
"html-keyboard-response","161","424672","0.0-15.0-0.59","1865","2","""event"",""trial"",""time""
""fullscreenenter"",""1"",""1798""
""blur"",""40"",""206489""
""focus"",""40"",""211566""
","""event"",""trial"",""time""
""blur"",""40"",""206489""
","""event"",""trial"",""time""
""focus"",""40"",""211566""
","""event"",""trial"",""time""
""fullscreenenter"",""1"",""1798""
","
","","","","","","null","<div style=""font-size:60px;"">+</div>","null","","fixation","","","","","","","","",""
"memory-trial","162","427389","0.0-15.0-1.59","1865","2","""event"",""trial"",""time""
""fullscreenenter"",""1"",""1798""
""blur"",""40"",""206489""
""focus"",""40"",""211566""
","""event"",""trial"",""time""
""blur"",""40"",""206489""
","""event"",""trial"",""time""
""focus"",""40"",""211566""
","""event"",""trial"",""time""
""fullscreenenter"",""1"",""1798""
","
","","","","","","1715.800000011921","images/orange1.png","","","memory_trial","3","maybe_new","","","","","","",""
"html-keyboard-response","163","427890","0.0-15.0-0.60","1865","2","""event"",""trial"",""time""
""fullscreenenter"",""1"",""1798""
""blur"",""40"",""206489""
""focus"",""40"",""211566""
","""event"",""trial"",""time""
""blur"",""40"",""206489""
","""event"",""trial"",""time""
""focus"",""40"",""211566""
","""event"",""trial"",""time""
""fullscreenenter"",""1"",""1798""
","
","","","","","","null","<div style=""font-size:60px;"">+</div>","null","","fixation","","","","","","","","",""
"memory-trial","164","431592","0.0-15.0-1.60","1865","2","""event"",""trial"",""time""
""fullscreenenter"",""1"",""1798""
""blur"",""40"",""206489""
""focus"",""40"",""211566""
","""event"",""trial"",""time""
""blur"",""40"",""206489""
","""event"",""trial"",""time""
""focus"",""40"",""211566""
","""event"",""trial"",""time""
""fullscreenenter"",""1"",""1798""
","
","","","","","","2700.800000011921","images/goat5.png","","","memory_trial","4","definitely_new","","","","","","",""
"html-keyboard-response","165","432093","0.0-15.0-0.61","1865","2","""event"",""trial"",""time""
""fullscreenenter"",""1"",""1798""
""blur"",""40"",""206489""
""focus"",""40"",""211566""
","""event"",""trial"",""time""
""blur"",""40"",""206489""
","""event"",""trial"",""time""
""focus"",""40"",""211566""
","""event"",""trial"",""time""
""fullscreenenter"",""1"",""1798""
","
","","","","","","null","<div style=""font-size:60px;"">+</div>","null","","fixation","","","","","","","","",""
"memory-trial","166","434032","0.0-15.0-1.61","1865","2","""event"",""trial"",""time""
""fullscreenenter"",""1"",""1798""
""blur"",""40"",""206489""
""focus"",""40"",""211566""
","""event"",""trial"",""time""
""blur"",""40"",""206489""
","""event"",""trial"",""time""
""focus"",""40"",""211566""
","""event"",""trial"",""time""
""fullscreenenter"",""1"",""1798""
","
","","","","","","936.8000000119209","images/train5.png","","","memory_trial","4","definitely_new","","","","","","",""
"html-keyboard-response","167","434534","0.0-15.0-0.62","1865","2","""event"",""trial"",""time""
""fullscreenenter"",""1"",""1798""
""blur"",""40"",""206489""
""focus"",""40"",""211566""
","""event"",""trial"",""time""
""blur"",""40"",""206489""
","""event"",""trial"",""time""
""focus"",""40"",""211566""
","""event"",""trial"",""time""
""fullscreenenter"",""1"",""1798""
","
","","","","","","null","<div style=""font-size:60px;"">+</div>","null","","fixation","","","","","","","","",""
"memory-trial","168","437682","0.0-15.0-1.62","1865","2","""event"",""trial"",""time""
""fullscreenenter"",""1"",""1798""
""blur"",""40"",""206489""
""focus"",""40"",""211566""
","""event"",""trial"",""time""
""blur"",""40"",""206489""
","""event"",""trial"",""time""
""focus"",""40"",""211566""
","""event"",""trial"",""time""
""fullscreenenter"",""1"",""1798""
","
","","","","","","2147","images/tree5.png","","","memory_trial","4","definitely_new","","","","","","",""
"html-keyboard-response","169","438183","0.0-15.0-0.63","1865","2","""event"",""trial"",""time""
""fullscreenenter"",""1"",""1798""
""blur"",""40"",""206489""
""focus"",""40"",""211566""
","""event"",""trial"",""time""
""blur"",""40"",""206489""
","""event"",""trial"",""time""
""focus"",""40"",""211566""
","""event"",""trial"",""time""
""fullscreenenter"",""1"",""1798""
","
","","","","","","null","<div style=""font-size:60px;"">+</div>","null","","fixation","","","","","","","","",""
"memory-trial","170","440233","0.0-15.0-1.63","1865","2","""event"",""trial"",""time""
""fullscreenenter"",""1"",""1798""
""blur"",""40"",""206489""
""focus"",""40"",""211566""
","""event"",""trial"",""time""
""blur"",""40"",""206489""
","""event"",""trial"",""time""
""focus"",""40"",""211566""
","""event"",""trial"",""time""
""fullscreenenter"",""1"",""1798""
","
","","","","","","1048.199999988079","images/boat1.png","","","memory_trial","3","maybe_new","","","","","","",""
"html-keyboard-response","171","440734","0.0-15.0-0.64","1865","2","""event"",""trial"",""time""
""fullscreenenter"",""1"",""1798""
""blur"",""40"",""206489""
""focus"",""40"",""211566""
","""event"",""trial"",""time""
""blur"",""40"",""206489""
","""event"",""trial"",""time""
""focus"",""40"",""211566""
","""event"",""trial"",""time""
""fullscreenenter"",""1"",""1798""
","
","","","","","","null","<div style=""font-size:60px;"">+</div>","null","","fixation","","","","","","","","",""
"memory-trial","172","444072","0.0-15.0-1.64","1865","2","""event"",""trial"",""time""
""fullscreenenter"",""1"",""1798""
""blur"",""40"",""206489""
""focus"",""40"",""211566""
","""event"",""trial"",""time""
""blur"",""40"",""206489""
","""event"",""trial"",""time""
""focus"",""40"",""211566""
","""event"",""trial"",""time""
""fullscreenenter"",""1"",""1798""
","
","","","","","","2336.599999964237","images/banana5.png","","","memory_trial","2","maybe_old","","","","","","",""
"html-keyboard-response","173","444574","0.0-15.0-0.65","1865","2","""event"",""trial"",""time""
""fullscreenenter"",""1"",""1798""
""blur"",""40"",""206489""
""focus"",""40"",""211566""
","""event"",""trial"",""time""
""blur"",""40"",""206489""
","""event"",""trial"",""time""
""focus"",""40"",""211566""
","""event"",""trial"",""time""
""fullscreenenter"",""1"",""1798""
","
","","","","","","null","<div style=""font-size:60px;"">+</div>","null","","fixation","","","","","","","","",""
"memory-trial","174","447850","0.0-15.0-1.65","1865","2","""event"",""trial"",""time""
""fullscreenenter"",""1"",""1798""
""blur"",""40"",""206489""
""focus"",""40"",""211566""
","""event"",""trial"",""time""
""blur"",""40"",""206489""
","""event"",""trial"",""time""
""focus"",""40"",""211566""
","""event"",""trial"",""time""
""fullscreenenter"",""1"",""1798""
","
","","","","","","2273.900000035763","images/boat5.png","","","memory_trial","1","definitely_old","","","","","","",""
"html-keyboard-response","175","448352","0.0-15.0-0.66","1865","2","""event"",""trial"",""time""
""fullscreenenter"",""1"",""1798""
""blur"",""40"",""206489""
""focus"",""40"",""211566""
","""event"",""trial"",""time""
""blur"",""40"",""206489""
","""event"",""trial"",""time""
""focus"",""40"",""211566""
","""event"",""trial"",""time""
""fullscreenenter"",""1"",""1798""
","
","","","","","","null","<div style=""font-size:60px;"">+</div>","null","","fixation","","","","","","","","",""
"memory-trial","176","450244","0.0-15.0-1.66","1865","2","""event"",""trial"",""time""
""fullscreenenter"",""1"",""1798""
""blur"",""40"",""206489""
""focus"",""40"",""211566""
","""event"",""trial"",""time""
""blur"",""40"",""206489""
","""event"",""trial"",""time""
""focus"",""40"",""211566""
","""event"",""trial"",""time""
""fullscreenenter"",""1"",""1798""
","
","","","","","","890.4000000357628","images/bed1.png","","","memory_trial","1","definitely_old","","","","","","",""
"html-keyboard-response","177","450745","0.0-15.0-0.67","1865","2","""event"",""trial"",""time""
""fullscreenenter"",""1"",""1798""
""blur"",""40"",""206489""
""focus"",""40"",""211566""
","""event"",""trial"",""time""
""blur"",""40"",""206489""
","""event"",""trial"",""time""
""focus"",""40"",""211566""
","""event"",""trial"",""time""
""fullscreenenter"",""1"",""1798""
","
","","","","","","null","<div style=""font-size:60px;"">+</div>","null","","fixation","","","","","","","","",""
"memory-trial","178","453308","0.0-15.0-1.67","1865","2","""event"",""trial"",""time""
""fullscreenenter"",""1"",""1798""
""blur"",""40"",""206489""
""focus"",""40"",""211566""
","""event"",""trial"",""time""
""blur"",""40"",""206489""
","""event"",""trial"",""time""
""focus"",""40"",""211566""
","""event"",""trial"",""time""
""fullscreenenter"",""1"",""1798""
","
","","","","","","1561.8999999761581","images/rabbit3.png","","","memory_trial","3","maybe_new","","","","","","",""
"html-keyboard-response","179","453809","0.0-15.0-0.68","1865","2","""event"",""trial"",""time""
""fullscreenenter"",""1"",""1798""
""blur"",""40"",""206489""
""focus"",""40"",""211566""
","""event"",""trial"",""time""
""blur"",""40"",""206489""
","""event"",""trial"",""time""
""focus"",""40"",""211566""
","""event"",""trial"",""time""
""fullscreenenter"",""1"",""1798""
","
","","","","","","null","<div style=""font-size:60px;"">+</div>","null","","fixation","","","","","","","","",""
"memory-trial","180","455787","0.0-15.0-1.68","1865","2","""event"",""trial"",""time""
""fullscreenenter"",""1"",""1798""
""blur"",""40"",""206489""
""focus"",""40"",""211566""
","""event"",""trial"",""time""
""blur"",""40"",""206489""
","""event"",""trial"",""time""
""focus"",""40"",""211566""
","""event"",""trial"",""time""
""fullscreenenter"",""1"",""1798""
","
","","","","","","976.1000000238419","images/plane4.png","","","memory_trial","4","definitely_new","","","","","","",""
"html-keyboard-response","181","456288","0.0-15.0-0.69","1865","2","""event"",""trial"",""time""
""fullscreenenter"",""1"",""1798""
""blur"",""40"",""206489""
""focus"",""40"",""211566""
","""event"",""trial"",""time""
""blur"",""40"",""206489""
","""event"",""trial"",""time""
""focus"",""40"",""211566""
","""event"",""trial"",""time""
""fullscreenenter"",""1"",""1798""
","
","","","","","","null","<div style=""font-size:60px;"">+</div>","null","","fixation","","","","","","","","",""
"memory-trial","182","458478","0.0-15.0-1.69","1865","2","""event"",""trial"",""time""
""fullscreenenter"",""1"",""1798""
""blur"",""40"",""206489""
""focus"",""40"",""211566""
","""event"",""trial"",""time""
""blur"",""40"",""206489""
","""event"",""trial"",""time""
""focus"",""40"",""211566""
","""event"",""trial"",""time""
""fullscreenenter"",""1"",""1798""
","
","","","","","","1189","images/sheep1.png","","","memory_trial","1","definitely_old","","","","","","",""
"html-keyboard-response","183","458979","0.0-15.0-0.70","1865","2","""event"",""trial"",""time""
""fullscreenenter"",""1"",""1798""
""blur"",""40"",""206489""
""focus"",""40"",""211566""
","""event"",""trial"",""time""
""blur"",""40"",""206489""
","""event"",""trial"",""time""
""focus"",""40"",""211566""
","""event"",""trial"",""time""
""fullscreenenter"",""1"",""1798""
","
","","","","","","null","<div style=""font-size:60px;"">+</div>","null","","fixation","","","","","","","","",""
"memory-trial","184","462019","0.0-15.0-1.70","1865","2","""event"",""trial"",""time""
""fullscreenenter"",""1"",""1798""
""blur"",""40"",""206489""
""focus"",""40"",""211566""
","""event"",""trial"",""time""
""blur"",""40"",""206489""
","""event"",""trial"",""time""
""focus"",""40"",""211566""
","""event"",""trial"",""time""
""fullscreenenter"",""1"",""1798""
","
","","","","","","2039.4000000357628","images/plane1.png","","","memory_trial","4","definitely_new","","","","","","",""
"html-keyboard-response","185","462521","0.0-15.0-0.71","1865","2","""event"",""trial"",""time""
""fullscreenenter"",""1"",""1798""
""blur"",""40"",""206489""
""focus"",""40"",""211566""
","""event"",""trial"",""time""
""blur"",""40"",""206489""
","""event"",""trial"",""time""
""focus"",""40"",""211566""
","""event"",""trial"",""time""
""fullscreenenter"",""1"",""1798""
","
","","","","","","null","<div style=""font-size:60px;"">+</div>","null","","fixation","","","","","","","","",""
"memory-trial","186","465054","0.0-15.0-1.71","1865","2","""event"",""trial"",""time""
""fullscreenenter"",""1"",""1798""
""blur"",""40"",""206489""
""focus"",""40"",""211566""
","""event"",""trial"",""time""
""blur"",""40"",""206489""
","""event"",""trial"",""time""
""focus"",""40"",""211566""
","""event"",""trial"",""time""
""fullscreenenter"",""1"",""1798""
","
","","","","","","1531.7000000476837","images/flower1.png","","","memory_trial","4","definitely_new","","","","","","",""
"html-keyboard-response","187","465555","0.0-15.0-0.72","1865","2","""event"",""trial"",""time""
""fullscreenenter"",""1"",""1798""
""blur"",""40"",""206489""
""focus"",""40"",""211566""
","""event"",""trial"",""time""
""blur"",""40"",""206489""
","""event"",""trial"",""time""
""focus"",""40"",""211566""
","""event"",""trial"",""time""
""fullscreenenter"",""1"",""1798""
","
","","","","","","null","<div style=""font-size:60px;"">+</div>","null","","fixation","","","","","","","","",""
"memory-trial","188","469121","0.0-15.0-1.72","1865","2","""event"",""trial"",""time""
""fullscreenenter"",""1"",""1798""
""blur"",""40"",""206489""
""focus"",""40"",""211566""
","""event"",""trial"",""time""
""blur"",""40"",""206489""
","""event"",""trial"",""time""
""focus"",""40"",""211566""
","""event"",""trial"",""time""
""fullscreenenter"",""1"",""1798""
","
","","","","","","2564.300000011921","images/rodent5.png","","","memory_trial","3","maybe_new","","","","","","",""
"html-keyboard-response","189","469622","0.0-15.0-0.73","1865","2","""event"",""trial"",""time""
""fullscreenenter"",""1"",""1798""
""blur"",""40"",""206489""
""focus"",""40"",""211566""
","""event"",""trial"",""time""
""blur"",""40"",""206489""
","""event"",""trial"",""time""
""focus"",""40"",""211566""
","""event"",""trial"",""time""
""fullscreenenter"",""1"",""1798""
","
","","","","","","null","<div style=""font-size:60px;"">+</div>","null","","fixation","","","","","","","","",""
"memory-trial","190","472125","0.0-15.0-1.73","1865","2","""event"",""trial"",""time""
""fullscreenenter"",""1"",""1798""
""blur"",""40"",""206489""
""focus"",""40"",""211566""
","""event"",""trial"",""time""
""blur"",""40"",""206489""
","""event"",""trial"",""time""
""focus"",""40"",""211566""
","""event"",""trial"",""time""
""fullscreenenter"",""1"",""1798""
","
","","","","","","1502.1000000238419","images/feline4.png","","","memory_trial","3","maybe_new","","","","","","",""
"html-keyboard-response","191","472626","0.0-15.0-0.74","1865","2","""event"",""trial"",""time""
""fullscreenenter"",""1"",""1798""
""blur"",""40"",""206489""
""focus"",""40"",""211566""
","""event"",""trial"",""time""
""blur"",""40"",""206489""
","""event"",""trial"",""time""
""focus"",""40"",""211566""
","""event"",""trial"",""time""
""fullscreenenter"",""1"",""1798""
","
","","","","","","null","<div style=""font-size:60px;"">+</div>","null","","fixation","","","","","","","","",""
"memory-trial","192","475446","0.0-15.0-1.74","1865","2","""event"",""trial"",""time""
""fullscreenenter"",""1"",""1798""
""blur"",""40"",""206489""
""focus"",""40"",""211566""
","""event"",""trial"",""time""
""blur"",""40"",""206489""
","""event"",""trial"",""time""
""focus"",""40"",""211566""
","""event"",""trial"",""time""
""fullscreenenter"",""1"",""1798""
","
","","","","","","1818.300000011921","images/orange2.png","","","memory_trial","2","maybe_old","","","","","","",""
"html-keyboard-response","193","475947","0.0-15.0-0.75","1865","2","""event"",""trial"",""time""
""fullscreenenter"",""1"",""1798""
""blur"",""40"",""206489""
""focus"",""40"",""211566""
","""event"",""trial"",""time""
""blur"",""40"",""206489""
","""event"",""trial"",""time""
""focus"",""40"",""211566""
","""event"",""trial"",""time""
""fullscreenenter"",""1"",""1798""
","
","","","","","","null","<div style=""font-size:60px;"">+</div>","null","","fixation","","","","","","","","",""
"memory-trial","194","477834","0.0-15.0-1.75","1865","2","""event"",""trial"",""time""
""fullscreenenter"",""1"",""1798""
""blur"",""40"",""206489""
""focus"",""40"",""211566""
","""event"",""trial"",""time""
""blur"",""40"",""206489""
","""event"",""trial"",""time""
""focus"",""40"",""211566""
","""event"",""trial"",""time""
""fullscreenenter"",""1"",""1798""
","
","","","","","","885.5","images/table2.png","","","memory_trial","1","definitely_old","","","","","","",""
"html-keyboard-response","195","478335","0.0-15.0-0.76","1865","2","""event"",""trial"",""time""
""fullscreenenter"",""1"",""1798""
""blur"",""40"",""206489""
""focus"",""40"",""211566""
","""event"",""trial"",""time""
""blur"",""40"",""206489""
","""event"",""trial"",""time""
""focus"",""40"",""211566""
","""event"",""trial"",""time""
""fullscreenenter"",""1"",""1798""
","
","","","","","","null","<div style=""font-size:60px;"">+</div>","null","","fixation","","","","","","","","",""
"memory-trial","196","481204","0.0-15.0-1.76","1865","2","""event"",""trial"",""time""
""fullscreenenter"",""1"",""1798""
""blur"",""40"",""206489""
""focus"",""40"",""211566""
","""event"",""trial"",""time""
""blur"",""40"",""206489""
","""event"",""trial"",""time""
""focus"",""40"",""211566""
","""event"",""trial"",""time""
""fullscreenenter"",""1"",""1798""
","
","","","","","","1867.8999999761581","images/bed4.png","","","memory_trial","3","maybe_new","","","","","","",""
"html-keyboard-response","197","481706","0.0-15.0-0.77","1865","2","""event"",""trial"",""time""
""fullscreenenter"",""1"",""1798""
""blur"",""40"",""206489""
""focus"",""40"",""211566""
","""event"",""trial"",""time""
""blur"",""40"",""206489""
","""event"",""trial"",""time""
""focus"",""40"",""211566""
","""event"",""trial"",""time""
""fullscreenenter"",""1"",""1798""
","
","","","","","","null","<div style=""font-size:60px;"">+</div>","null","","fixation","","","","","","","","",""
"memory-trial","198","485034","0.0-15.0-1.77","1865","2","""event"",""trial"",""time""
""fullscreenenter"",""1"",""1798""
""blur"",""40"",""206489""
""focus"",""40"",""211566""
","""event"",""trial"",""time""
""blur"",""40"",""206489""
","""event"",""trial"",""time""
""focus"",""40"",""211566""
","""event"",""trial"",""time""
""fullscreenenter"",""1"",""1798""
","
","","","","","","2326.399999976158","images/rabbit2.png","","","memory_trial","3","maybe_new","","","","","","",""
"html-keyboard-response","199","485534","0.0-15.0-0.78","1865","2","""event"",""trial"",""time""
""fullscreenenter"",""1"",""1798""
""blur"",""40"",""206489""
""focus"",""40"",""211566""
","""event"",""trial"",""time""
""blur"",""40"",""206489""
","""event"",""trial"",""time""
""focus"",""40"",""211566""
","""event"",""trial"",""time""
""fullscreenenter"",""1"",""1798""
","
","","","","","","null","<div style=""font-size:60px;"">+</div>","null","","fixation","","","","","","","","",""
"memory-trial","200","487750","0.0-15.0-1.78","1865","2","""event"",""trial"",""time""
""fullscreenenter"",""1"",""1798""
""blur"",""40"",""206489""
""focus"",""40"",""211566""
","""event"",""trial"",""time""
""blur"",""40"",""206489""
","""event"",""trial"",""time""
""focus"",""40"",""211566""
","""event"",""trial"",""time""
""fullscreenenter"",""1"",""1798""
","
","","","","","","1213.7000000476837","images/apple1.png","","","memory_trial","4","definitely_new","","","","","","",""
"html-keyboard-response","201","488252","0.0-15.0-0.79","1865","2","""event"",""trial"",""time""
""fullscreenenter"",""1"",""1798""
""blur"",""40"",""206489""
""focus"",""40"",""211566""
","""event"",""trial"",""time""
""blur"",""40"",""206489""
","""event"",""trial"",""time""
""focus"",""40"",""211566""
","""event"",""trial"",""time""
""fullscreenenter"",""1"",""1798""
","
","","","","","","null","<div style=""font-size:60px;"">+</div>","null","","fixation","","","","","","","","",""
"memory-trial","202","492053","0.0-15.0-1.79","1865","2","""event"",""trial"",""time""
""fullscreenenter"",""1"",""1798""
""blur"",""40"",""206489""
""focus"",""40"",""211566""
","""event"",""trial"",""time""
""blur"",""40"",""206489""
","""event"",""trial"",""time""
""focus"",""40"",""211566""
","""event"",""trial"",""time""
""fullscreenenter"",""1"",""1798""
","
","","","","","","2799.800000011921","images/truck5.png","","","memory_trial","3","maybe_new","","","","","","",""
"html-keyboard-response","203","492554","0.0-15.0-0.80","1865","2","""event"",""trial"",""time""
""fullscreenenter"",""1"",""1798""
""blur"",""40"",""206489""
""focus"",""40"",""211566""
","""event"",""trial"",""time""
""blur"",""40"",""206489""
","""event"",""trial"",""time""
""focus"",""40"",""211566""
","""event"",""trial"",""time""
""fullscreenenter"",""1"",""1798""
","
","","","","","","null","<div style=""font-size:60px;"">+</div>","null","","fixation","","","","","","","","",""
"memory-trial","204","496623","0.0-15.0-1.80","1865","2","""event"",""trial"",""time""
""fullscreenenter"",""1"",""1798""
""blur"",""40"",""206489""
""focus"",""40"",""211566""
","""event"",""trial"",""time""
""blur"",""40"",""206489""
","""event"",""trial"",""time""
""focus"",""40"",""211566""
","""event"",""trial"",""time""
""fullscreenenter"",""1"",""1798""
","
","","","","","","3066.800000011921","images/straw1.png","","","memory_trial","3","maybe_new","","","","","","",""
"html-keyboard-response","205","497124","0.0-15.0-0.81","1865","2","""event"",""trial"",""time""
""fullscreenenter"",""1"",""1798""
""blur"",""40"",""206489""
""focus"",""40"",""211566""
","""event"",""trial"",""time""
""blur"",""40"",""206489""
","""event"",""trial"",""time""
""focus"",""40"",""211566""
","""event"",""trial"",""time""
""fullscreenenter"",""1"",""1798""
","
","","","","","","null","<div style=""font-size:60px;"">+</div>","null","","fixation","","","","","","","","",""
"memory-trial","206","499781","0.0-15.0-1.81","1865","2","""event"",""trial"",""time""
""fullscreenenter"",""1"",""1798""
""blur"",""40"",""206489""
""focus"",""40"",""211566""
","""event"",""trial"",""time""
""blur"",""40"",""206489""
","""event"",""trial"",""time""
""focus"",""40"",""211566""
","""event"",""trial"",""time""
""fullscreenenter"",""1"",""1798""
","
","","","","","","1654.5999999642372","images/cactus2.png","","","memory_trial","1","definitely_old","","","","","","",""
"html-keyboard-response","207","500283","0.0-15.0-0.82","1865","2","""event"",""trial"",""time""
""fullscreenenter"",""1"",""1798""
""blur"",""40"",""206489""
""focus"",""40"",""211566""
","""event"",""trial"",""time""
""blur"",""40"",""206489""
","""event"",""trial"",""time""
""focus"",""40"",""211566""
","""event"",""trial"",""time""
""fullscreenenter"",""1"",""1798""
","
","","","","","","null","<div style=""font-size:60px;"">+</div>","null","","fixation","","","","","","","","",""
"memory-trial","208","503758","0.0-15.0-1.82","1865","2","""event"",""trial"",""time""
""fullscreenenter"",""1"",""1798""
""blur"",""40"",""206489""
""focus"",""40"",""211566""
","""event"",""trial"",""time""
""blur"",""40"",""206489""
","""event"",""trial"",""time""
""focus"",""40"",""211566""
","""event"",""trial"",""time""
