"trial_type","trial_index","time_elapsed","internal_node_id","subject_id","task_version","interactions","blur_events","focus_events","fullscreenenter_events","fullscreenexit_events","success","timeout","failed_images","failed_audio","failed_video","rt","stimulus","response","button_pressed","task_part","key_press","answer","correct","left_choice","middle_choice","right_choice","choice_positions","option_selected","block"
"pavlovia","0","4","0.0-0.0","1994","2","""event"",""trial"",""time""
""fullscreenenter"",""1"",""1755""
","
","
","""event"",""trial"",""time""
""fullscreenenter"",""1"",""1755""
","
","","","","","","","","","","","","","","","","","","",""
"fullscreen","1","2708","0.0-1.0","1994","2","""event"",""trial"",""time""
""fullscreenenter"",""1"",""1755""
","
","
","""event"",""trial"",""time""
""fullscreenenter"",""1"",""1755""
","
","true","","","","","","","","","","","","","","","","","",""
"preload","2","3398","0.0-2.0","1994","2","""event"",""trial"",""time""
""fullscreenenter"",""1"",""1755""
","
","
","""event"",""trial"",""time""
""fullscreenenter"",""1"",""1755""
","
","true","false","[]","[]","[]","","","","","","","","","","","","","",""
"audio-keyboard-response","3","7655","0.0-3.0","1994","2","""event"",""trial"",""time""
""fullscreenenter"",""1"",""1755""
","
","
","""event"",""trial"",""time""
""fullscreenenter"",""1"",""1755""
","
","","","","","","4250.666666666667","audio/beep_loop.wav"," ","","","","","","","","","","",""
"audio-button-response","4","11075","0.0-4.0","1994","2","""event"",""trial"",""time""
""fullscreenenter"",""1"",""1755""
","
","
","""event"",""trial"",""time""
""fullscreenenter"",""1"",""1755""
","
","","","","","","3408","audio/turtle.wav","2","","","","","","","","","","",""
"audio-button-response","5","13400","0.0-5.0","1994","2","""event"",""trial"",""time""
""fullscreenenter"",""1"",""1755""
","
","
","""event"",""trial"",""time""
""fullscreenenter"",""1"",""1755""
","
","","","","","","1309","audio/shark.wav","1","","","","","","","","","","",""
"preload","6","16750","0.0-6.0","1994","2","""event"",""trial"",""time""
""fullscreenenter"",""1"",""1755""
","
","
","""event"",""trial"",""time""
""fullscreenenter"",""1"",""1755""
","
","true","false","[]","[]","[]","","","","","","","","","","","","","",""
"learning-instructions","7","29011","0.0-7.0-0.0","1994","2","""event"",""trial"",""time""
""fullscreenenter"",""1"",""1755""
","
","
","""event"",""trial"",""time""
""fullscreenenter"",""1"",""1755""
","
","","","","","","7454.399999976158","<p> Welcome back! </p><p> Last week, you had to make choices about lots of different items.  </p>","","0","instructions","","","","","","","","",""
"learning-instructions","8","34668","0.0-7.0-0.1","1994","2","""event"",""trial"",""time""
""fullscreenenter"",""1"",""1755""
","
","
","""event"",""trial"",""time""
""fullscreenenter"",""1"",""1755""
","
","","","","","","1343.3000000715256","<p> Today, we are going to ask you to try to remember all the items. </p>","","0","instructions","","","","","","","","",""
"learning-instructions","9","50437","0.0-7.0-0.2","1994","2","""event"",""trial"",""time""
""fullscreenenter"",""1"",""1755""
","
","
","""event"",""trial"",""time""
""fullscreenenter"",""1"",""1755""
","
","","","","","","5642.200000047684","<p> On every trial, you will see an image. </p><p> The image may be an OLD image you saw during the games last week or it may be a NEW image that was not presented. </p>","","0","instructions","","","","","","","","",""
"learning-instructions","10","64553","0.0-7.0-0.3","1994","2","""event"",""trial"",""time""
""fullscreenenter"",""1"",""1755""
","
","
","""event"",""trial"",""time""
""fullscreenenter"",""1"",""1755""
","
","","","","","","5616.199999928474","<p> You need to select whether the image is:  </p><p>  'Definitely old', 'Maybe old', 'Maybe new', or 'Definitely new.'  </p><div class=""mem-choice-instructions-grid""><div class=""choice-option"" id=""choice-option-1"" ><img src=""images/definitely_old_1.png"" id=""choice-option-img-1"" class=""choice-option-img"" stage=""1""></div><div class=""choice-option"" id=""choice-option-2"" ><img src=""images/maybe_old_1.png"" id=""choice-option-img-2"" class=""choice-option-img"" stage=""1""></div><div class=""choice-option"" id=""choice-option-3"" ><img src=""images/maybe_new_1.png"" id=""choice-option-img-3"" class=""choice-option-img"" stage=""1""></div><div class=""choice-option"" id=""choice-option-4"" > <img src=""images/definitely_new_1.png"" id=""choice-option-img-4"" class=""choice-option-img"" stage=""1""></div></div>","","0","instructions","","","","","","","","",""
"learning-instructions","11","74444","0.0-7.0-0.4","1994","2","""event"",""trial"",""time""
""fullscreenenter"",""1"",""1755""
","
","
","""event"",""trial"",""time""
""fullscreenenter"",""1"",""1755""
","
","","","","","","3180.100000023842","<p> You should use the 1, 2, 3, and 4 keys to make your responses.  </p><div class=""mem-choice-instructions-grid""><div class=""choice-option"" id=""choice-option-1"" ><img src=""images/definitely_old.png"" id=""choice-option-img-1"" class=""choice-option-img"" stage=""1""></div><div class=""choice-option"" id=""choice-option-2"" ><img src=""images/maybe_old.png"" id=""choice-option-img-2"" class=""choice-option-img"" stage=""1""></div><div class=""choice-option"" id=""choice-option-3"" ><img src=""images/maybe_new.png"" id=""choice-option-img-3"" class=""choice-option-img"" stage=""1""></div><div class=""choice-option"" id=""choice-option-4"" > <img src=""images/definitely_new.png"" id=""choice-option-img-4"" class=""choice-option-img"" stage=""1""></div></div>","","0","instructions","","","","","","","","",""
"learning-instructions","12","85391","0.0-7.0-0.5","1994","2","""event"",""trial"",""time""
""fullscreenenter"",""1"",""1755""
","
","
","""event"",""trial"",""time""
""fullscreenenter"",""1"",""1755""
","
","","","","","","4175","<p> You will have 10 seconds to make each response.  </p><p>  Make sure to respond before time runs out! </p>","","0","instructions","","","","","","","","",""
"learning-instructions","13","93773","0.0-7.0-0.6","1994","2","""event"",""trial"",""time""
""fullscreenenter"",""1"",""1755""
","
","
","""event"",""trial"",""time""
""fullscreenenter"",""1"",""1755""
","
","","","","","","798","<p> Today, you will see each image ONCE only.  </p><p>  That means none of the images will repeat. </p>","","0","instructions","","","","","","","","",""
"learning-instructions","14","108756","0.0-7.0-0.7","1994","2","""event"",""trial"",""time""
""fullscreenenter"",""1"",""1755""
","
","
","""event"",""trial"",""time""
""fullscreenenter"",""1"",""1755""
","
","","","","","","2293.1999999284744","<p> Before you play the real game, it is time to practice. </p><p>  Just like in the real game, some of the images in the practice will be ones you have seen before. </p><p>  Others will be entirely new. </p>","","0","instructions","","","","","","","","",""
"html-button-response","15","117201","0.0-8.0","1994","2","""event"",""trial"",""time""
""fullscreenenter"",""1"",""1755""
","
","
","""event"",""trial"",""time""
""fullscreenenter"",""1"",""1755""
","
","","","","","","8326.5","<p> Ready to practice? </p><p> Remember, use the 1, 2, 3, and 4 keys to make your responses. </p>","0","","instructions","","","","","","","","",""
"html-keyboard-response","16","117812","0.0-9.0-0.0","1994","2","""event"",""trial"",""time""
""fullscreenenter"",""1"",""1755""
","
","
","""event"",""trial"",""time""
""fullscreenenter"",""1"",""1755""
","
","","","","","","null","<div style=""font-size:60px;"">+</div>","null","","fixation","","","","","","","","",""
"memory-trial","17","121923","0.0-9.0-1.0","1994","2","""event"",""trial"",""time""
""fullscreenenter"",""1"",""1755""
","
","
","""event"",""trial"",""time""
""fullscreenenter"",""1"",""1755""
","
","","","","","","3085","images/racket4.png","","","practice","2","maybe_old","","","","","","",""
"html-keyboard-response","18","122442","0.0-9.0-0.1","1994","2","""event"",""trial"",""time""
""fullscreenenter"",""1"",""1755""
","
","
","""event"",""trial"",""time""
""fullscreenenter"",""1"",""1755""
","
","","","","","","null","<div style=""font-size:60px;"">+</div>","null","","fixation","","","","","","","","",""
"memory-trial","19","124233","0.0-9.0-1.1","1994","2","""event"",""trial"",""time""
""fullscreenenter"",""1"",""1755""
","
","
","""event"",""trial"",""time""
""fullscreenenter"",""1"",""1755""
","
","","","","","","783.7000000476837","images/ball4.png","","","practice","3","maybe_new","","","","","","",""
"html-keyboard-response","20","124735","0.0-9.0-0.2","1994","2","""event"",""trial"",""time""
""fullscreenenter"",""1"",""1755""
","
","
","""event"",""trial"",""time""
""fullscreenenter"",""1"",""1755""
","
","","","","","","null","<div style=""font-size:60px;"">+</div>","null","","fixation","","","","","","","","",""
"memory-trial","21","126172","0.0-9.0-1.2","1994","2","""event"",""trial"",""time""
""fullscreenenter"",""1"",""1755""
","
","
","""event"",""trial"",""time""
""fullscreenenter"",""1"",""1755""
","
","","","","","","424.8000000715256","images/ball2.png","","","practice","1","definitely_old","","","","","","",""
"html-keyboard-response","22","126693","0.0-9.0-0.3","1994","2","""event"",""trial"",""time""
""fullscreenenter"",""1"",""1755""
","
","
","""event"",""trial"",""time""
""fullscreenenter"",""1"",""1755""
","
","","","","","","null","<div style=""font-size:60px;"">+</div>","null","","fixation","","","","","","","","",""
"memory-trial","23","128473","0.0-9.0-1.3","1994","2","""event"",""trial"",""time""
""fullscreenenter"",""1"",""1755""
","
","
","""event"",""trial"",""time""
""fullscreenenter"",""1"",""1755""
","
","","","","","","760.0999999046326","images/ball1.png","","","practice","2","maybe_old","","","","","","",""
"html-keyboard-response","24","128980","0.0-9.0-0.4","1994","2","""event"",""trial"",""time""
""fullscreenenter"",""1"",""1755""
","
","
","""event"",""trial"",""time""
""fullscreenenter"",""1"",""1755""
","
","","","","","","null","<div style=""font-size:60px;"">+</div>","null","","fixation","","","","","","","","",""
"memory-trial","25","130782","0.0-9.0-1.4","1994","2","""event"",""trial"",""time""
""fullscreenenter"",""1"",""1755""
","
","
","""event"",""trial"",""time""
""fullscreenenter"",""1"",""1755""
","
","","","","","","788.8999999761581","images/ball3.png","","","practice","3","maybe_new","","","","","","",""
"html-keyboard-response","26","131302","0.0-9.0-0.5","1994","2","""event"",""trial"",""time""
""fullscreenenter"",""1"",""1755""
","
","
","""event"",""trial"",""time""
""fullscreenenter"",""1"",""1755""
","
","","","","","","null","<div style=""font-size:60px;"">+</div>","null","","fixation","","","","","","","","",""
"memory-trial","27","132789","0.0-9.0-1.5","1994","2","""event"",""trial"",""time""
""fullscreenenter"",""1"",""1755""
","
","
","""event"",""trial"",""time""
""fullscreenenter"",""1"",""1755""
","
","","","","","","478.10000002384186","images/racket3.png","","","practice","1","definitely_old","","","","","","",""
"html-keyboard-response","28","133311","0.0-9.0-0.6","1994","2","""event"",""trial"",""time""
""fullscreenenter"",""1"",""1755""
","
","
","""event"",""trial"",""time""
""fullscreenenter"",""1"",""1755""
","
","","","","","","null","<div style=""font-size:60px;"">+</div>","null","","fixation","","","","","","","","",""
"memory-trial","29","134982","0.0-9.0-1.6","1994","2","""event"",""trial"",""time""
""fullscreenenter"",""1"",""1755""
","
","
","""event"",""trial"",""time""
""fullscreenenter"",""1"",""1755""
","
","","","","","","655.5","images/racket1.png","","","practice","3","maybe_new","","","","","","",""
"html-keyboard-response","30","135502","0.0-9.0-0.7","1994","2","""event"",""trial"",""time""
""fullscreenenter"",""1"",""1755""
","
","
","""event"",""trial"",""time""
""fullscreenenter"",""1"",""1755""
","
","","","","","","null","<div style=""font-size:60px;"">+</div>","null","","fixation","","","","","","","","",""
"memory-trial","31","136985","0.0-9.0-1.7","1994","2","""event"",""trial"",""time""
""fullscreenenter"",""1"",""1755""
","
","
","""event"",""trial"",""time""
""fullscreenenter"",""1"",""1755""
","
","","","","","","480.2000000476837","images/racket2.png","","","practice","1","definitely_old","","","","","","",""
"learning-instructions","32","293116","0.0-10.0-0.0","1994","2","""event"",""trial"",""time""
""fullscreenenter"",""1"",""1755""
","
","
","""event"",""trial"",""time""
""fullscreenenter"",""1"",""1755""
","
","","","","","","148186.70000004768","<p> Great! You have completed the practice. </p><p> Before you start, we're going to ask you a few questions about how the game works.  </p>","","0","instructions","","","","","","","","",""
"preload","33","295030","0.0-11.0","1994","2","""event"",""trial"",""time""
""fullscreenenter"",""1"",""1755""
","
","
","""event"",""trial"",""time""
""fullscreenenter"",""1"",""1755""
","
","true","false","[]","[]","[]","","","","","","","","","","","","","",""
"comp-q","34","306999","0.0-12.0-0.0","1994","2","""event"",""trial"",""time""
""fullscreenenter"",""1"",""1755""
","
","
","""event"",""trial"",""time""
""fullscreenenter"",""1"",""1755""
","
","","","","","","5936.699999928474","<p> <b> True or False? </b> </p><p> In this game, you will only see each image once. </p>","","0","comp_question","","","true","","","","","",""
"comp-q","35","317077","0.0-12.0-1.0","1994","2","""event"",""trial"",""time""
""fullscreenenter"",""1"",""1755""
","
","
","""event"",""trial"",""time""
""fullscreenenter"",""1"",""1755""
","
","","","","","","3725.5","<p> <b> That's right! </b> You will see many different images <i> one time each </i> in this game. </p>","","0","comp_answer","","","","","","","","",""
"comp-q","36","324991","0.0-12.0-0.1","1994","2","""event"",""trial"",""time""
""fullscreenenter"",""1"",""1755""
","
","
","""event"",""trial"",""time""
""fullscreenenter"",""1"",""1755""
","
","","","","","","2110.600000023842","<p> <b> True or False? </b> </p><p> You should use the mouse and click to make your response. </p>","","0","comp_question","","","false","","","","","",""
"comp-q","37","333446","0.0-12.0-1.1","1994","2","""event"",""trial"",""time""
""fullscreenenter"",""1"",""1755""
","
","
","""event"",""trial"",""time""
""fullscreenenter"",""1"",""1755""
","
","","","","","","1496.6000000238419","<p><b> Incorrect. </b> You should use the '1', '2', '3', and '4' keys to make your response. </p>","","0","comp_answer","","","","","","","","",""
"comp-q","38","342612","0.0-12.0-0.2","1994","2","""event"",""trial"",""time""
""fullscreenenter"",""1"",""1755""
","
","
","""event"",""trial"",""time""
""fullscreenenter"",""1"",""1755""
","
","","","","","","3149.600000023842","<p> <b> True or False? </b> </p><p> You will have as much time as you want to make each choice. </p>","","0","comp_question","","","false","","","","","",""
"comp-q","39","350837","0.0-12.0-1.2","1994","2","""event"",""trial"",""time""
""fullscreenenter"",""1"",""1755""
","
","
","""event"",""trial"",""time""
""fullscreenenter"",""1"",""1755""
","
","","","","","","2905","<p> <b>Incorrect.</b> You will only have 10 seconds to make each choice.</p>","","0","comp_answer","","","","","","","","",""
"learning-instructions","40","361787","0.0-13.0","1994","2","""event"",""trial"",""time""
""fullscreenenter"",""1"",""1755""
","
","
","""event"",""trial"",""time""
""fullscreenenter"",""1"",""1755""
","
","","","","","","2275.2999999523163","<p> Great! You are now ready to begin the game. </p><p> Remember, use the 1, 2, 3, and 4 keys to make your responses. </p>","","0","instructions","","","","","","","","",""
"preload","41","365652","0.0-14.0","1994","2","""event"",""trial"",""time""
""fullscreenenter"",""1"",""1755""
","
","
","""event"",""trial"",""time""
""fullscreenenter"",""1"",""1755""
","
","true","false","[]","[]","[]","","","","","","","","","","","","","",""
"html-keyboard-response","42","366168","0.0-15.0-0.0","1994","2","""event"",""trial"",""time""
""fullscreenenter"",""1"",""1755""
","
","
","""event"",""trial"",""time""
""fullscreenenter"",""1"",""1755""
","
","","","","","","null","<div style=""font-size:60px;"">+</div>","null","","fixation","","","","","","","","",""
"memory-trial","43","372098","0.0-15.0-1.0","1994","2","""event"",""trial"",""time""
""fullscreenenter"",""1"",""1755""
","
","
","""event"",""trial"",""time""
""fullscreenenter"",""1"",""1755""
","
","","","","","","4918.200000047684","images/banana2.png","","","memory_trial","2","maybe_old","","","","","","",""
"html-keyboard-response","44","372608","0.0-15.0-0.1","1994","2","""event"",""trial"",""time""
""fullscreenenter"",""1"",""1755""
","
","
","""event"",""trial"",""time""
""fullscreenenter"",""1"",""1755""
","
","","","","","","null","<div style=""font-size:60px;"">+</div>","null","","fixation","","","","","","","","",""
"memory-trial","45","374559","0.0-15.0-1.1","1994","2","""event"",""trial"",""time""
""fullscreenenter"",""1"",""1755""
","
","
","""event"",""trial"",""time""
""fullscreenenter"",""1"",""1755""
","
","","","","","","938.1000000238419","images/goat2.png","","","memory_trial","3","maybe_new","","","","","","",""
"html-keyboard-response","46","375078","0.0-15.0-0.2","1994","2","""event"",""trial"",""time""
""fullscreenenter"",""1"",""1755""
","
","
","""event"",""trial"",""time""
""fullscreenenter"",""1"",""1755""
","
","","","","","","null","<div style=""font-size:60px;"">+</div>","null","","fixation","","","","","","","","",""
"memory-trial","47","376548","0.0-15.0-1.2","1994","2","""event"",""trial"",""time""
""fullscreenenter"",""1"",""1755""
","
","
","""event"",""trial"",""time""
""fullscreenenter"",""1"",""1755""
","
","","","","","","450.10000002384186","images/dog3.png","","","memory_trial","2","maybe_old","","","","","","",""
"html-keyboard-response","48","377068","0.0-15.0-0.3","1994","2","""event"",""trial"",""time""
""fullscreenenter"",""1"",""1755""
","
","
","""event"",""trial"",""time""
""fullscreenenter"",""1"",""1755""
","
","","","","","","null","<div style=""font-size:60px;"">+</div>","null","","fixation","","","","","","","","",""
"memory-trial","49","378958","0.0-15.0-1.3","1994","2","""event"",""trial"",""time""
""fullscreenenter"",""1"",""1755""
","
","
","""event"",""trial"",""time""
""fullscreenenter"",""1"",""1755""
","
","","","","","","876.3000000715256","images/sofa5.png","","","memory_trial","4","definitely_new","","","","","","",""
"html-keyboard-response","50","379478","0.0-15.0-0.4","1994","2","""event"",""trial"",""time""
""fullscreenenter"",""1"",""1755""
","
","
","""event"",""trial"",""time""
""fullscreenenter"",""1"",""1755""
","
","","","","","","null","<div style=""font-size:60px;"">+</div>","null","","fixation","","","","","","","","",""
"memory-trial","51","381298","0.0-15.0-1.4","1994","2","""event"",""trial"",""time""
""fullscreenenter"",""1"",""1755""
","
","
","""event"",""trial"",""time""
""fullscreenenter"",""1"",""1755""
","
","","","","","","806.3999999761581","images/truck3.png","","","memory_trial","2","maybe_old","","","","","","",""
"html-keyboard-response","52","381817","0.0-15.0-0.5","1994","2","""event"",""trial"",""time""
""fullscreenenter"",""1"",""1755""
","
","
","""event"",""trial"",""time""
""fullscreenenter"",""1"",""1755""
","
","","","","","","null","<div style=""font-size:60px;"">+</div>","null","","fixation","","","","","","","","",""
"memory-trial","53","383108","0.0-15.0-1.5","1994","2","""event"",""trial"",""time""
""fullscreenenter"",""1"",""1755""
","
","
","""event"",""trial"",""time""
""fullscreenenter"",""1"",""1755""
","
","","","","","","273.5","images/tree5.png","","","memory_trial","3","maybe_new","","","","","","",""
"html-keyboard-response","54","383628","0.0-15.0-0.6","1994","2","""event"",""trial"",""time""
""fullscreenenter"",""1"",""1755""
","
","
","""event"",""trial"",""time""
""fullscreenenter"",""1"",""1755""
","
","","","","","","null","<div style=""font-size:60px;"">+</div>","null","","fixation","","","","","","","","",""
"memory-trial","55","385528","0.0-15.0-1.6","1994","2","""event"",""trial"",""time""
""fullscreenenter"",""1"",""1755""
","
","
","""event"",""trial"",""time""
""fullscreenenter"",""1"",""1755""
","
","","","","","","885","images/boat1.png","","","memory_trial","2","maybe_old","","","","","","",""
"html-keyboard-response","56","386048","0.0-15.0-0.7","1994","2","""event"",""trial"",""time""
""fullscreenenter"",""1"",""1755""
","
","
","""event"",""trial"",""time""
""fullscreenenter"",""1"",""1755""
","
","","","","","","null","<div style=""font-size:60px;"">+</div>","null","","fixation","","","","","","","","",""
"memory-trial","57","387748","0.0-15.0-1.7","1994","2","""event"",""trial"",""time""
""fullscreenenter"",""1"",""1755""
","
","
","""event"",""trial"",""time""
""fullscreenenter"",""1"",""1755""
","
","","","","","","686.3999999761581","images/boat3.png","","","memory_trial","3","maybe_new","","","","","","",""
"html-keyboard-response","58","388258","0.0-15.0-0.8","1994","2","""event"",""trial"",""time""
""fullscreenenter"",""1"",""1755""
","
","
","""event"",""trial"",""time""
""fullscreenenter"",""1"",""1755""
","
","","","","","","null","<div style=""font-size:60px;"">+</div>","null","","fixation","","","","","","","","",""
"memory-trial","59","389931","0.0-15.0-1.8","1994","2","""event"",""trial"",""time""
""fullscreenenter"",""1"",""1755""
","
","
","""event"",""trial"",""time""
""fullscreenenter"",""1"",""1755""
","
","","","","","","659.8999999761581","images/bed5.png","","","memory_trial","2","maybe_old","","","","","","",""
"html-keyboard-response","60","390445","0.0-15.0-0.9","1994","2","""event"",""trial"",""time""
""fullscreenenter"",""1"",""1755""
","
","
","""event"",""trial"",""time""
""fullscreenenter"",""1"",""1755""
","
","","","","","","null","<div style=""font-size:60px;"">+</div>","null","","fixation","","","","","","","","",""
"memory-trial","61","392062","0.0-15.0-1.9","1994","2","""event"",""trial"",""time""
""fullscreenenter"",""1"",""1755""
","
","
","""event"",""trial"",""time""
""fullscreenenter"",""1"",""1755""
","
","","","","","","612.6999999284744","images/bush3.png","","","memory_trial","3","maybe_new","","","","","","",""
"html-keyboard-response","62","392563","0.0-15.0-0.10","1994","2","""event"",""trial"",""time""
""fullscreenenter"",""1"",""1755""
","
","
","""event"",""trial"",""time""
""fullscreenenter"",""1"",""1755""
","
","","","","","","null","<div style=""font-size:60px;"">+</div>","null","","fixation","","","","","","","","",""
"memory-trial","63","395424","0.0-15.0-1.10","1994","2","""event"",""trial"",""time""
""fullscreenenter"",""1"",""1755""
","
","
","""event"",""trial"",""time""
""fullscreenenter"",""1"",""1755""
","
","","","","","","1857.3000000715256","images/plane5.png","","","memory_trial","2","maybe_old","","","","","","",""
"html-keyboard-response","64","395926","0.0-15.0-0.11","1994","2","""event"",""trial"",""time""
""fullscreenenter"",""1"",""1755""
","
","
","""event"",""trial"",""time""
""fullscreenenter"",""1"",""1755""
","
","","","","","","null","<div style=""font-size:60px;"">+</div>","null","","fixation","","","","","","","","",""
"memory-trial","65","397158","0.0-15.0-1.11","1994","2","""event"",""trial"",""time""
""fullscreenenter"",""1"",""1755""
","
","
","""event"",""trial"",""time""
""fullscreenenter"",""1"",""1755""
","
","","","","","","226.80000007152557","images/truck2.png","","","memory_trial","3","maybe_new","","","","","","",""
"html-keyboard-response","66","397660","0.0-15.0-0.12","1994","2","""event"",""trial"",""time""
""fullscreenenter"",""1"",""1755""
","
","
","""event"",""trial"",""time""
""fullscreenenter"",""1"",""1755""
","
","","","","","","null","<div style=""font-size:60px;"">+</div>","null","","fixation","","","","","","","","",""
"memory-trial","67","399611","0.0-15.0-1.12","1994","2","""event"",""trial"",""time""
""fullscreenenter"",""1"",""1755""
","
","
","""event"",""trial"",""time""
""fullscreenenter"",""1"",""1755""
","
","","","","","","947","images/orange1.png","","","memory_trial","2","maybe_old","","","","","","",""
"html-keyboard-response","68","400114","0.0-15.0-0.13","1994","2","""event"",""trial"",""time""
""fullscreenenter"",""1"",""1755""
","
","
","""event"",""trial"",""time""
""fullscreenenter"",""1"",""1755""
","
","","","","","","null","<div style=""font-size:60px;"">+</div>","null","","fixation","","","","","","","","",""
"memory-trial","69","401601","0.0-15.0-1.13","1994","2","""event"",""trial"",""time""
""fullscreenenter"",""1"",""1755""
","
","
","""event"",""trial"",""time""
""fullscreenenter"",""1"",""1755""
","
","","","","","","483.2999999523163","images/goat3.png","","","memory_trial","3","maybe_new","","","","","","",""
"html-keyboard-response","70","402103","0.0-15.0-0.14","1994","2","""event"",""trial"",""time""
""fullscreenenter"",""1"",""1755""
","
","
","""event"",""trial"",""time""
""fullscreenenter"",""1"",""1755""
","
","","","","","","null","<div style=""font-size:60px;"">+</div>","null","","fixation","","","","","","","","",""
"memory-trial","71","404167","0.0-15.0-1.14","1994","2","""event"",""trial"",""time""
""fullscreenenter"",""1"",""1755""
","
","
","""event"",""trial"",""time""
""fullscreenenter"",""1"",""1755""
","
","","","","","","1061.4000000953674","images/train4.png","","","memory_trial","1","definitely_old","","","","","","",""
"html-keyboard-response","72","404669","0.0-15.0-0.15","1994","2","""event"",""trial"",""time""
""fullscreenenter"",""1"",""1755""
","
","
","""event"",""trial"",""time""
""fullscreenenter"",""1"",""1755""
","
","","","","","","null","<div style=""font-size:60px;"">+</div>","null","","fixation","","","","","","","","",""
"memory-trial","73","405970","0.0-15.0-1.15","1994","2","""event"",""trial"",""time""
""fullscreenenter"",""1"",""1755""
","
","
","""event"",""trial"",""time""
""fullscreenenter"",""1"",""1755""
","
","","","","","","298.10000002384186","images/boat4.png","","","memory_trial","4","definitely_new","","","","","","",""
"html-keyboard-response","74","406474","0.0-15.0-0.16","1994","2","""event"",""trial"",""time""
""fullscreenenter"",""1"",""1755""
","
","
","""event"",""trial"",""time""
""fullscreenenter"",""1"",""1755""
","
","","","","","","null","<div style=""font-size:60px;"">+</div>","null","","fixation","","","","","","","","",""
"memory-trial","75","408180","0.0-15.0-1.16","1994","2","""event"",""trial"",""time""
""fullscreenenter"",""1"",""1755""
","
","
","""event"",""trial"",""time""
""fullscreenenter"",""1"",""1755""
","
","","","","","","700.7000000476837","images/flower1.png","","","memory_trial","2","maybe_old","","","","","","",""
"html-keyboard-response","76","408682","0.0-15.0-0.17","1994","2","""event"",""trial"",""time""
""fullscreenenter"",""1"",""1755""
","
","
","""event"",""trial"",""time""
""fullscreenenter"",""1"",""1755""
","
","","","","","","null","<div style=""font-size:60px;"">+</div>","null","","fixation","","","","","","","","",""
"memory-trial","77","410703","0.0-15.0-1.17","1994","2","""event"",""trial"",""time""
""fullscreenenter"",""1"",""1755""
","
","
","""event"",""trial"",""time""
""fullscreenenter"",""1"",""1755""
","
","","","","","","1014.9000000953674","images/banana4.png","","","memory_trial","3","maybe_new","","","","","","",""
"html-keyboard-response","78","411204","0.0-15.0-0.18","1994","2","""event"",""trial"",""time""
""fullscreenenter"",""1"",""1755""
","
","
","""event"",""trial"",""time""
""fullscreenenter"",""1"",""1755""
","
","","","","","","null","<div style=""font-size:60px;"">+</div>","null","","fixation","","","","","","","","",""
"memory-trial","79","413407","0.0-15.0-1.18","1994","2","""event"",""trial"",""time""
""fullscreenenter"",""1"",""1755""
","
","
","""event"",""trial"",""time""
""fullscreenenter"",""1"",""1755""
","
","","","","","","1198.2000000476837","images/horse3.png","","","memory_trial","3","maybe_new","","","","","","",""
"html-keyboard-response","80","413909","0.0-15.0-0.19","1994","2","""event"",""trial"",""time""
""fullscreenenter"",""1"",""1755""
","
","
","""event"",""trial"",""time""
""fullscreenenter"",""1"",""1755""
","
","","","","","","null","<div style=""font-size:60px;"">+</div>","null","","fixation","","","","","","","","",""
"memory-trial","81","415773","0.0-15.0-1.19","1994","2","""event"",""trial"",""time""
""fullscreenenter"",""1"",""1755""
","
","
","""event"",""trial"",""time""
""fullscreenenter"",""1"",""1755""
","
","","","","","","860.1000000238419","images/flower4.png","","","memory_trial","2","maybe_old","","","","","","",""
"html-keyboard-response","82","416275","0.0-15.0-0.20","1994","2","""event"",""trial"",""time""
""fullscreenenter"",""1"",""1755""
","
","
","""event"",""trial"",""time""
""fullscreenenter"",""1"",""1755""
","
","","","","","","null","<div style=""font-size:60px;"">+</div>","null","","fixation","","","","","","","","",""
"memory-trial","83","417519","0.0-15.0-1.20","1994","2","""event"",""trial"",""time""
""fullscreenenter"",""1"",""1755""
","
","
","""event"",""trial"",""time""
""fullscreenenter"",""1"",""1755""
","
","","","","","","239.89999997615814","images/orange2.png","","","memory_trial","3","maybe_new","","","","","","",""
"html-keyboard-response","84","418023","0.0-15.0-0.21","1994","2","""event"",""trial"",""time""
""fullscreenenter"",""1"",""1755""
","
","
","""event"",""trial"",""time""
""fullscreenenter"",""1"",""1755""
","
","","","","","","null","<div style=""font-size:60px;"">+</div>","null","","fixation","","","","","","","","",""
"memory-trial","85","419274","0.0-15.0-1.21","1994","2","""event"",""trial"",""time""
""fullscreenenter"",""1"",""1755""
","
","
","""event"",""trial"",""time""
""fullscreenenter"",""1"",""1755""
","
","","","","","","246.19999992847443","images/bed3.png","","","memory_trial","2","maybe_old","","","","","","",""
"html-keyboard-response","86","419776","0.0-15.0-0.22","1994","2","""event"",""trial"",""time""
""fullscreenenter"",""1"",""1755""
","
","
","""event"",""trial"",""time""
""fullscreenenter"",""1"",""1755""
","
","","","","","","null","<div style=""font-size:60px;"">+</div>","null","","fixation","","","","","","","","",""
"memory-trial","87","421204","0.0-15.0-1.22","1994","2","""event"",""trial"",""time""
""fullscreenenter"",""1"",""1755""
","
","
","""event"",""trial"",""time""
""fullscreenenter"",""1"",""1755""
","
","","","","","","426.39999997615814","images/truck4.png","","","memory_trial","3","maybe_new","","","","","","",""
"html-keyboard-response","88","421707","0.0-15.0-0.23","1994","2","""event"",""trial"",""time""
""fullscreenenter"",""1"",""1755""
","
","
","""event"",""trial"",""time""
""fullscreenenter"",""1"",""1755""
","
","","","","","","null","<div style=""font-size:60px;"">+</div>","null","","fixation","","","","","","","","",""
"memory-trial","89","423194","0.0-15.0-1.23","1994","2","""event"",""trial"",""time""
""fullscreenenter"",""1"",""1755""
","
","
","""event"",""trial"",""time""
""fullscreenenter"",""1"",""1755""
","
","","","","","","484.5","images/goat5.png","","","memory_trial","3","maybe_new","","","","","","",""
"html-keyboard-response","90","423697","0.0-15.0-0.24","1994","2","""event"",""trial"",""time""
""fullscreenenter"",""1"",""1755""
","
","
","""event"",""trial"",""time""
""fullscreenenter"",""1"",""1755""
","
","","","","","","null","<div style=""font-size:60px;"">+</div>","null","","fixation","","","","","","","","",""
"memory-trial","91","425286","0.0-15.0-1.24","1994","2","""event"",""trial"",""time""
""fullscreenenter"",""1"",""1755""
","
","
","""event"",""trial"",""time""
""fullscreenenter"",""1"",""1755""
","
","","","","","","586","images/cactus5.png","","","memory_trial","2","maybe_old","","","","","","",""
"html-keyboard-response","92","425788","0.0-15.0-0.25","1994","2","""event"",""trial"",""time""
""fullscreenenter"",""1"",""1755""
","
","
","""event"",""trial"",""time""
""fullscreenenter"",""1"",""1755""
","
","","","","","","null","<div style=""font-size:60px;"">+</div>","null","","fixation","","","","","","","","",""
"memory-trial","93","427408","0.0-15.0-1.25","1994","2","""event"",""trial"",""time""
""fullscreenenter"",""1"",""1755""
","
","
","""event"",""trial"",""time""
""fullscreenenter"",""1"",""1755""
","
","","","","","","617.3000000715256","images/train5.png","","","memory_trial","3","maybe_new","","","","","","",""
"html-keyboard-response","94","427910","0.0-15.0-0.26","1994","2","""event"",""trial"",""time""
""fullscreenenter"",""1"",""1755""
","
","
","""event"",""trial"",""time""
""fullscreenenter"",""1"",""1755""
","
","","","","","","null","<div style=""font-size:60px;"">+</div>","null","","fixation","","","","","","","","",""
"memory-trial","95","429544","0.0-15.0-1.26","1994","2","""event"",""trial"",""time""
""fullscreenenter"",""1"",""1755""
","
","
","""event"",""trial"",""time""
""fullscreenenter"",""1"",""1755""
","
","","","","","","627.8999999761581","images/feline3.png","","","memory_trial","2","maybe_old","","","","","","",""
"html-keyboard-response","96","430045","0.0-15.0-0.27","1994","2","""event"",""trial"",""time""
""fullscreenenter"",""1"",""1755""
","
","
","""event"",""trial"",""time""
""fullscreenenter"",""1"",""1755""
","
","","","","","","null","<div style=""font-size:60px;"">+</div>","null","","fixation","","","","","","","","",""
"memory-trial","97","431301","0.0-15.0-1.27","1994","2","""event"",""trial"",""time""
""fullscreenenter"",""1"",""1755""
","
","
","""event"",""trial"",""time""
""fullscreenenter"",""1"",""1755""
","
","","","","","","252.39999997615814","images/straw5.png","","","memory_trial","4","definitely_new","","","","","","",""
"html-keyboard-response","98","431804","0.0-15.0-0.28","1994","2","""event"",""trial"",""time""
""fullscreenenter"",""1"",""1755""
","
","
","""event"",""trial"",""time""
""fullscreenenter"",""1"",""1755""
","
","","","","","","null","<div style=""font-size:60px;"">+</div>","null","","fixation","","","","","","","","",""
"memory-trial","99","433590","0.0-15.0-1.28","1994","2","""event"",""trial"",""time""
""fullscreenenter"",""1"",""1755""
","
","
","""event"",""trial"",""time""
""fullscreenenter"",""1"",""1755""
","
","","","","","","782.5","images/chair2.png","","","memory_trial","3","maybe_new","","","","","","",""
"html-keyboard-response","100","434094","0.0-15.0-0.29","1994","2","""event"",""trial"",""time""
""fullscreenenter"",""1"",""1755""
","
","
","""event"",""trial"",""time""
""fullscreenenter"",""1"",""1755""
","
","","","","","","null","<div style=""font-size:60px;"">+</div>","null","","fixation","","","","","","","","",""
"memory-trial","101","435835","0.0-15.0-1.29","1994","2","""event"",""trial"",""time""
""fullscreenenter"",""1"",""1755""
","
","
","""event"",""trial"",""time""
""fullscreenenter"",""1"",""1755""
","
","","","","","","737.1999999284744","images/flower3.png","","","memory_trial","4","definitely_new","","","","","","",""
"html-keyboard-response","102","436338","0.0-15.0-0.30","1994","2","""event"",""trial"",""time""
""fullscreenenter"",""1"",""1755""
","
","
","""event"",""trial"",""time""
""fullscreenenter"",""1"",""1755""
","
","","","","","","null","<div style=""font-size:60px;"">+</div>","null","","fixation","","","","","","","","",""
"memory-trial","103","438063","0.0-15.0-1.30","1994","2","""event"",""trial"",""time""
""fullscreenenter"",""1"",""1755""
","
","
","""event"",""trial"",""time""
""fullscreenenter"",""1"",""1755""
","
","","","","","","720.6000000238419","images/cactus1.png","","","memory_trial","2","maybe_old","","","","","","",""
"html-keyboard-response","104","438565","0.0-15.0-0.31","1994","2","""event"",""trial"",""time""
""fullscreenenter"",""1"",""1755""
","
","
","""event"",""trial"",""time""
""fullscreenenter"",""1"",""1755""
","
","","","","","","null","<div style=""font-size:60px;"">+</div>","null","","fixation","","","","","","","","",""
"memory-trial","105","440801","0.0-15.0-1.31","1994","2","""event"",""trial"",""time""
""fullscreenenter"",""1"",""1755""
","
","
","""event"",""trial"",""time""
""fullscreenenter"",""1"",""1755""
","
","","","","","","1230.6000000238419","images/rabbit4.png","","","memory_trial","4","definitely_new","","","","","","",""
"html-keyboard-response","106","441303","0.0-15.0-0.32","1994","2","""event"",""trial"",""time""
""fullscreenenter"",""1"",""1755""
","
","
","""event"",""trial"",""time""
""fullscreenenter"",""1"",""1755""
","
","","","","","","null","<div style=""font-size:60px;"">+</div>","null","","fixation","","","","","","","","",""
"memory-trial","107","442823","0.0-15.0-1.32","1994","2","""event"",""trial"",""time""
""fullscreenenter"",""1"",""1755""
","
","
","""event"",""trial"",""time""
""fullscreenenter"",""1"",""1755""
","
","","","","","","515.6999999284744","images/dog1.png","","","memory_trial","2","maybe_old","","","","","","",""
"html-keyboard-response","108","443326","0.0-15.0-0.33","1994","2","""event"",""trial"",""time""
""fullscreenenter"",""1"",""1755""
","
","
","""event"",""trial"",""time""
""fullscreenenter"",""1"",""1755""
","
","","","","","","null","<div style=""font-size:60px;"">+</div>","null","","fixation","","","","","","","","",""
"memory-trial","109","444932","0.0-15.0-1.33","1994","2","""event"",""trial"",""time""
""fullscreenenter"",""1"",""1755""
","
","
","""event"",""trial"",""time""
""fullscreenenter"",""1"",""1755""
","
","","","","","","601.1000000238419","images/tree4.png","","","memory_trial","3","maybe_new","","","","","","",""
"html-keyboard-response","110","445435","0.0-15.0-0.34","1994","2","""event"",""trial"",""time""
""fullscreenenter"",""1"",""1755""
","
","
","""event"",""trial"",""time""
""fullscreenenter"",""1"",""1755""
","
","","","","","","null","<div style=""font-size:60px;"">+</div>","null","","fixation","","","","","","","","",""
"memory-trial","111","447499","0.0-15.0-1.34","1994","2","""event"",""trial"",""time""
""fullscreenenter"",""1"",""1755""
","
","
","""event"",""trial"",""time""
""fullscreenenter"",""1"",""1755""
","
","","","","","","1060.5","images/horse4.png","","","memory_trial","2","maybe_old","","","","","","",""
"html-keyboard-response","112","448000","0.0-15.0-0.35","1994","2","""event"",""trial"",""time""
""fullscreenenter"",""1"",""1755""
","
","
","""event"",""trial"",""time""
""fullscreenenter"",""1"",""1755""
","
","","","","","","null","<div style=""font-size:60px;"">+</div>","null","","fixation","","","","","","","","",""
"memory-trial","113","449357","0.0-15.0-1.35","1994","2","""event"",""trial"",""time""
""fullscreenenter"",""1"",""1755""
","
","
","""event"",""trial"",""time""
""fullscreenenter"",""1"",""1755""
","
","","","","","","353","images/dog2.png","","","memory_trial","4","definitely_new","","","","","","",""
"html-keyboard-response","114","449859","0.0-15.0-0.36","1994","2","""event"",""trial"",""time""
""fullscreenenter"",""1"",""1755""
","
","
","""event"",""trial"",""time""
""fullscreenenter"",""1"",""1755""
","
","","","","","","null","<div style=""font-size:60px;"">+</div>","null","","fixation","","","","","","","","",""
"memory-trial","115","451616","0.0-15.0-1.36","1994","2","""event"",""trial"",""time""
""fullscreenenter"",""1"",""1755""
","
","
","""event"",""trial"",""time""
""fullscreenenter"",""1"",""1755""
","
","","","","","","753.5","images/chair4.png","","","memory_trial","2","maybe_old","","","","","","",""
"html-keyboard-response","116","452118","0.0-15.0-0.37","1994","2","""event"",""trial"",""time""
""fullscreenenter"",""1"",""1755""
","
","
","""event"",""trial"",""time""
""fullscreenenter"",""1"",""1755""
","
","","","","","","null","<div style=""font-size:60px;"">+</div>","null","","fixation","","","","","","","","",""
"memory-trial","117","454410","0.0-15.0-1.37","1994","2","""event"",""trial"",""time""
""fullscreenenter"",""1"",""1755""
","
","
","""event"",""trial"",""time""
""fullscreenenter"",""1"",""1755""
","
","","","","","","1288.8000000715256","images/horse2.png","","","memory_trial","3","maybe_new","","","","","","",""
"html-keyboard-response","118","454912","0.0-15.0-0.38","1994","2","""event"",""trial"",""time""
""fullscreenenter"",""1"",""1755""
","
","
","""event"",""trial"",""time""
""fullscreenenter"",""1"",""1755""
","
","","","","","","null","<div style=""font-size:60px;"">+</div>","null","","fixation","","","","","","","","",""
"memory-trial","119","456451","0.0-15.0-1.38","1994","2","""event"",""trial"",""time""
""fullscreenenter"",""1"",""1755""
","
","
","""event"",""trial"",""time""
""fullscreenenter"",""1"",""1755""
","
","","","","","","533.5999999046326","images/feline2.png","","","memory_trial","2","maybe_old","","","","","","",""
"html-keyboard-response","120","456953","0.0-15.0-0.39","1994","2","""event"",""trial"",""time""
""fullscreenenter"",""1"",""1755""
","
","
","""event"",""trial"",""time""
""fullscreenenter"",""1"",""1755""
","
","","","","","","null","<div style=""font-size:60px;"">+</div>","null","","fixation","","","","","","","","",""
"memory-trial","121","458902","0.0-15.0-1.39","1994","2","""event"",""trial"",""time""
""fullscreenenter"",""1"",""1755""
","
","
","""event"",""trial"",""time""
""fullscreenenter"",""1"",""1755""
","
","","","","","","946.7999999523163","images/boat2.png","","","memory_trial","3","maybe_new","","","","","","",""
"html-keyboard-response","122","459404","0.0-15.0-0.40","1994","2","""event"",""trial"",""time""
""fullscreenenter"",""1"",""1755""
","
","
","""event"",""trial"",""time""
""fullscreenenter"",""1"",""1755""
","
","","","","","","null","<div style=""font-size:60px;"">+</div>","null","","fixation","","","","","","","","",""
"memory-trial","123","460933","0.0-15.0-1.40","1994","2","""event"",""trial"",""time""
""fullscreenenter"",""1"",""1755""
","
","
","""event"",""trial"",""time""
""fullscreenenter"",""1"",""1755""
","
","","","","","","524.5","images/goat4.png","","","memory_trial","2","maybe_old","","","","","","",""
"html-keyboard-response","124","461438","0.0-15.0-0.41","1994","2","""event"",""trial"",""time""
""fullscreenenter"",""1"",""1755""
","
","
","""event"",""trial"",""time""
""fullscreenenter"",""1"",""1755""
","
","","","","","","null","<div style=""font-size:60px;"">+</div>","null","","fixation","","","","","","","","",""
"memory-trial","125","463136","0.0-15.0-1.41","1994","2","""event"",""trial"",""time""
""fullscreenenter"",""1"",""1755""
","
","
","""event"",""trial"",""time""
""fullscreenenter"",""1"",""1755""
","
","","","","","","695.7999999523163","images/rabbit3.png","","","memory_trial","3","maybe_new","","","","","","",""
"html-keyboard-response","126","463639","0.0-15.0-0.42","1994","2","""event"",""trial"",""time""
""fullscreenenter"",""1"",""1755""
","
","
","""event"",""trial"",""time""
""fullscreenenter"",""1"",""1755""
","
","","","","","","null","<div style=""font-size:60px;"">+</div>","null","","fixation","","","","","","","","",""
"memory-trial","127","465298","0.0-15.0-1.42","1994","2","""event"",""trial"",""time""
""fullscreenenter"",""1"",""1755""
","
","
","""event"",""trial"",""time""
""fullscreenenter"",""1"",""1755""
","
","","","","","","655.1000000238419","images/train2.png","","","memory_trial","3","maybe_new","","","","","","",""
"html-keyboard-response","128","465800","0.0-15.0-0.43","1994","2","""event"",""trial"",""time""
""fullscreenenter"",""1"",""1755""
","
","
","""event"",""trial"",""time""
""fullscreenenter"",""1"",""1755""
","
","","","","","","null","<div style=""font-size:60px;"">+</div>","null","","fixation","","","","","","","","",""
"memory-trial","129","467696","0.0-15.0-1.43","1994","2","""event"",""trial"",""time""
""fullscreenenter"",""1"",""1755""
","
","
","""event"",""trial"",""time""
""fullscreenenter"",""1"",""1755""
","
","","","","","","893.3000000715256","images/truck1.png","","","memory_trial","3","maybe_new","","","","","","",""
"html-keyboard-response","130","468198","0.0-15.0-0.44","1994","2","""event"",""trial"",""time""
""fullscreenenter"",""1"",""1755""
","
","
","""event"",""trial"",""time""
""fullscreenenter"",""1"",""1755""
","
","","","","","","null","<div style=""font-size:60px;"">+</div>","null","","fixation","","","","","","","","",""
"memory-trial","131","469406","0.0-15.0-1.44","1994","2","""event"",""trial"",""time""
""fullscreenenter"",""1"",""1755""
","
","
","""event"",""trial"",""time""
""fullscreenenter"",""1"",""1755""
","
","","","","","","203.80000007152557","images/plane2.png","","","memory_trial","2","maybe_old","","","","","","",""
"html-keyboard-response","132","469908","0.0-15.0-0.45","1994","2","""event"",""trial"",""time""
""fullscreenenter"",""1"",""1755""
","
","
","""event"",""trial"",""time""
""fullscreenenter"",""1"",""1755""
","
","","","","","","null","<div style=""font-size:60px;"">+</div>","null","","fixation","","","","","","","","",""
"memory-trial","133","471052","0.0-15.0-1.45","1994","2","""event"",""trial"",""time""
""fullscreenenter"",""1"",""1755""
","
","
","""event"",""trial"",""time""
""fullscreenenter"",""1"",""1755""
","
","","","","","","140.10000002384186","images/dog4.png","","","memory_trial","3","maybe_new","","","","","","",""
"html-keyboard-response","134","471554","0.0-15.0-0.46","1994","2","""event"",""trial"",""time""
""fullscreenenter"",""1"",""1755""
","
","
","""event"",""trial"",""time""
""fullscreenenter"",""1"",""1755""
","
","","","","","","null","<div style=""font-size:60px;"">+</div>","null","","fixation","","","","","","","","",""
"memory-trial","135","473567","0.0-15.0-1.46","1994","2","""event"",""trial"",""time""
""fullscreenenter"",""1"",""1755""
","
","
","""event"",""trial"",""time""
""fullscreenenter"",""1"",""1755""
","
","","","","","","1008.7000000476837","images/table5.png","","","memory_trial","2","maybe_old","","","","","","",""
"html-button-response","136","598704","0.0-15.0-2.46-0.46","1994","2","""event"",""trial"",""time""
""fullscreenenter"",""1"",""1755""
","
","
","""event"",""trial"",""time""
""fullscreenenter"",""1"",""1755""
","
","","","","","","125134.30000007153","<p> Take a break! </p><p> Click the button to continue. </p>","0","","break","","","","","","","","",""
"html-keyboard-response","137","599206","0.0-15.0-0.47","1994","2","""event"",""trial"",""time""
""fullscreenenter"",""1"",""1755""
","
","
","""event"",""trial"",""time""
""fullscreenenter"",""1"",""1755""
","
","","","","","","null","<div style=""font-size:60px;"">+</div>","null","","fixation","","","","","","","","",""
"memory-trial","138","601252","0.0-15.0-1.47","1994","2","""event"",""trial"",""time""
""fullscreenenter"",""1"",""1755""
","
","
","""event"",""trial"",""time""
""fullscreenenter"",""1"",""1755""
","
","","","","","","1041.7000000476837","images/sofa2.png","","","memory_trial","2","maybe_old","","","","","","",""
"html-keyboard-response","139","601753","0.0-15.0-0.48","1994","2","""event"",""trial"",""time""
""fullscreenenter"",""1"",""1755""
","
","
","""event"",""trial"",""time""
""fullscreenenter"",""1"",""1755""
","
","","","","","","null","<div style=""font-size:60px;"">+</div>","null","","fixation","","","","","","","","",""
"memory-trial","140","603161","0.0-15.0-1.48","1994","2","""event"",""trial"",""time""
""fullscreenenter"",""1"",""1755""
","
","
","""event"",""trial"",""time""
""fullscreenenter"",""1"",""1755""
","
","","","","","","406","images/truck5.png","","","memory_trial","3","maybe_new","","","","","","",""
"html-keyboard-response","141","603665","0.0-15.0-0.49","1994","2","""event"",""trial"",""time""
""fullscreenenter"",""1"",""1755""
","
","
","""event"",""trial"",""time""
""fullscreenenter"",""1"",""1755""
","
","","","","","","null","<div style=""font-size:60px;"">+</div>","null","","fixation","","","","","","","","",""
"memory-trial","142","605990","0.0-15.0-1.49","1994","2","""event"",""trial"",""time""
""fullscreenenter"",""1"",""1755""
","
","
","""event"",""trial"",""time""
""fullscreenenter"",""1"",""1755""
","
","","","","","","1321.0999999046326","images/bush4.png","","","memory_trial","2","maybe_old","","","","","","",""
"html-keyboard-response","143","606493","0.0-15.0-0.50","1994","2","""event"",""trial"",""time""
""fullscreenenter"",""1"",""1755""
","
","
","""event"",""trial"",""time""
""fullscreenenter"",""1"",""1755""
","
","","","","","","null","<div style=""font-size:60px;"">+</div>","null","","fixation","","","","","","","","",""
"memory-trial","144","608491","0.0-15.0-1.50","1994","2","""event"",""trial"",""time""
""fullscreenenter"",""1"",""1755""
","
","
","""event"",""trial"",""time""
""fullscreenenter"",""1"",""1755""
","
","","","","","","995.5","images/apple1.png","","","memory_trial","4","definitely_new","","","","","","",""
"html-keyboard-response","145","608994","0.0-15.0-0.51","1994","2","""event"",""trial"",""time""
""fullscreenenter"",""1"",""1755""
","
","
","""event"",""trial"",""time""
""fullscreenenter"",""1"",""1755""
","
","","","","","","null","<div style=""font-size:60px;"">+</div>","null","","fixation","","","","","","","","",""
"memory-trial","146","610122","0.0-15.0-1.51","1994","2","""event"",""trial"",""time""
""fullscreenenter"",""1"",""1755""
","
","
","""event"",""trial"",""time""
""fullscreenenter"",""1"",""1755""
","
","","","","","","120.40000009536743","images/apple2.png","","","memory_trial","3","maybe_new","","","","","","",""
"html-keyboard-response","147","610623","0.0-15.0-0.52","1994","2","""event"",""trial"",""time""
""fullscreenenter"",""1"",""1755""
","
","
","""event"",""trial"",""time""
""fullscreenenter"",""1"",""1755""
","
","","","","","","null","<div style=""font-size:60px;"">+</div>","null","","fixation","","","","","","","","",""
"memory-trial","148","612086","0.0-15.0-1.52","1994","2","""event"",""trial"",""time""
""fullscreenenter"",""1"",""1755""
","
","
","""event"",""trial"",""time""
""fullscreenenter"",""1"",""1755""
","
","","","","","","460","images/cow4.png","","","memory_trial","4","definitely_new","","","","","","",""
"html-keyboard-response","149","612589","0.0-15.0-0.53","1994","2","""event"",""trial"",""time""
""fullscreenenter"",""1"",""1755""
","
","
","""event"",""trial"",""time""
""fullscreenenter"",""1"",""1755""
","
","","","","","","null","<div style=""font-size:60px;"">+</div>","null","","fixation","","","","","","","","",""
"memory-trial","150","614038","0.0-15.0-1.53","1994","2","""event"",""trial"",""time""
""fullscreenenter"",""1"",""1755""
","
","
","""event"",""trial"",""time""
""fullscreenenter"",""1"",""1755""
","
","","","","","","444.59999990463257","images/apple3.png","","","memory_trial","2","maybe_old","","","","","","",""
"html-keyboard-response","151","614540","0.0-15.0-0.54","1994","2","""event"",""trial"",""time""
""fullscreenenter"",""1"",""1755""
","
","
","""event"",""trial"",""time""
""fullscreenenter"",""1"",""1755""
","
","","","","","","null","<div style=""font-size:60px;"">+</div>","null","","fixation","","","","","","","","",""
"memory-trial","152","616218","0.0-15.0-1.54","1994","2","""event"",""trial"",""time""
""fullscreenenter"",""1"",""1755""
","
","
","""event"",""trial"",""time""
""fullscreenenter"",""1"",""1755""
","
","","","","","","672.8999999761581","images/tree1.png","","","memory_trial","3","maybe_new","","","","","","",""
"html-keyboard-response","153","616720","0.0-15.0-0.55","1994","2","""event"",""trial"",""time""
""fullscreenenter"",""1"",""1755""
","
","
","""event"",""trial"",""time""
""fullscreenenter"",""1"",""1755""
","
","","","","","","null","<div style=""font-size:60px;"">+</div>","null","","fixation","","","","","","","","",""
"memory-trial","154","619787","0.0-15.0-1.55","1994","2","""event"",""trial"",""time""
""fullscreenenter"",""1"",""1755""
","
","
","""event"",""trial"",""time""
""fullscreenenter"",""1"",""1755""
","
","","","","","","2064.1999999284744","images/table4.png","","","memory_trial","3","maybe_new","","","","","","",""
"html-keyboard-response","155","620288","0.0-15.0-0.56","1994","2","""event"",""trial"",""time""
""fullscreenenter"",""1"",""1755""
","
","
","""event"",""trial"",""time""
""fullscreenenter"",""1"",""1755""
","
","","","","","","null","<div style=""font-size:60px;"">+</div>","null","","fixation","","","","","","","","",""
"memory-trial","156","621967","0.0-15.0-1.56","1994","2","""event"",""trial"",""time""
""fullscreenenter"",""1"",""1755""
","
","
","""event"",""trial"",""time""
""fullscreenenter"",""1"",""1755""
","
","","","","","","673.7000000476837","images/tree2.png","","","memory_trial","2","maybe_old","","","","","","",""
"html-keyboard-response","157","622469","0.0-15.0-0.57","1994","2","""event"",""trial"",""time""
""fullscreenenter"",""1"",""1755""
","
","
","""event"",""trial"",""time""
""fullscreenenter"",""1"",""1755""
","
","","","","","","null","<div style=""font-size:60px;"">+</div>","null","","fixation","","","","","","","","",""
"memory-trial","158","623916","0.0-15.0-1.57","1994","2","""event"",""trial"",""time""
""fullscreenenter"",""1"",""1755""
","
","
","""event"",""trial"",""time""
""fullscreenenter"",""1"",""1755""
","
","","","","","","444","images/rabbit2.png","","","memory_trial","4","definitely_new","","","","","","",""
"html-keyboard-response","159","624418","0.0-15.0-0.58","1994","2","""event"",""trial"",""time""
""fullscreenenter"",""1"",""1755""
","
","
","""event"",""trial"",""time""
""fullscreenenter"",""1"",""1755""
","
","","","","","","null","<div style=""font-size:60px;"">+</div>","null","","fixation","","","","","","","","",""
"memory-trial","160","626363","0.0-15.0-1.58","1994","2","""event"",""trial"",""time""
""fullscreenenter"",""1"",""1755""
","
","
","""event"",""trial"",""time""
""fullscreenenter"",""1"",""1755""
","
","","","","","","941.5","images/horse1.png","","","memory_trial","1","definitely_old","","","","","","",""
"html-keyboard-response","161","626865","0.0-15.0-0.59","1994","2","""event"",""trial"",""time""
""fullscreenenter"",""1"",""1755""
","
","
","""event"",""trial"",""time""
""fullscreenenter"",""1"",""1755""
","
","","","","","","null","<div style=""font-size:60px;"">+</div>","null","","fixation","","","","","","","","",""
"memory-trial","162","629130","0.0-15.0-1.59","1994","2","""event"",""trial"",""time""
""fullscreenenter"",""1"",""1755""
","
","
","""event"",""trial"",""time""
""fullscreenenter"",""1"",""1755""
","
","","","","","","1261.3000000715256","images/sofa3.png","","","memory_trial","3","maybe_new","","","","","","",""
"html-keyboard-response","163","629633","0.0-15.0-0.60","1994","2","""event"",""trial"",""time""
""fullscreenenter"",""1"",""1755""
","
","
","""event"",""trial"",""time""
""fullscreenenter"",""1"",""1755""
","
","","","","","","null","<div style=""font-size:60px;"">+</div>","null","","fixation","","","","","","","","",""
"memory-trial","164","631852","0.0-15.0-1.60","1994","2","""event"",""trial"",""time""
""fullscreenenter"",""1"",""1755""
","
","
","""event"",""trial"",""time""
""fullscreenenter"",""1"",""1755""
","
","","","","","","1214.0999999046326","images/tree3.png","","","memory_trial","2","maybe_old","","","","","","",""
"html-keyboard-response","165","632354","0.0-15.0-0.61","1994","2","""event"",""trial"",""time""
""fullscreenenter"",""1"",""1755""
","
","
","""event"",""trial"",""time""
""fullscreenenter"",""1"",""1755""
","
","","","","","","null","<div style=""font-size:60px;"">+</div>","null","","fixation","","","","","","","","",""
"memory-trial","166","635340","0.0-15.0-1.61","1994","2","""event"",""trial"",""time""
""fullscreenenter"",""1"",""1755""
","
","
","""event"",""trial"",""time""
""fullscreenenter"",""1"",""1755""
","
","","","","","","1980.6999999284744","images/chair1.png","","","memory_trial","3","maybe_new","","","","","","",""
"html-keyboard-response","167","635842","0.0-15.0-0.62","1994","2","""event"",""trial"",""time""
""fullscreenenter"",""1"",""1755""
","
","
","""event"",""trial"",""time""
""fullscreenenter"",""1"",""1755""
","
","","","","","","null","<div style=""font-size:60px;"">+</div>","null","","fixation","","","","","","","","",""
"memory-trial","168","638117","0.0-15.0-1.62","1994","2","""event"",""trial"",""time""
""fullscreenenter"",""1"",""1755""
","
","
","""event"",""trial"",""time""
""fullscreenenter"",""1"",""1755""
","
","","","","","","1269.9000000953674","images/rodent5.png","","","memory_trial","1","definitely_old","","","","","","",""
"html-keyboard-response","169","638619","0.0-15.0-0.63","1994","2","""event"",""trial"",""time""
""fullscreenenter"",""1"",""1755""
","
","
","""event"",""trial"",""time""
""fullscreenenter"",""1"",""1755""
","
","","","","","","null","<div style=""font-size:60px;"">+</div>","null","","fixation","","","","","","","","",""
"memory-trial","170","640787","0.0-15.0-1.63","1994","2","""event"",""trial"",""time""
""fullscreenenter"",""1"",""1755""
","
","
","""event"",""trial"",""time""
""fullscreenenter"",""1"",""1755""
","
","","","","","","1164","images/apple4.png","","","memory_trial","3","maybe_new","","","","","","",""
"html-keyboard-response","171","641289","0.0-15.0-0.64","1994","2","""event"",""trial"",""time""
""fullscreenenter"",""1"",""1755""
","
","
","""event"",""trial"",""time""
""fullscreenenter"",""1"",""1755""
","
","","","","","","null","<div style=""font-size:60px;"">+</div>","null","","fixation","","","","","","","","",""
"memory-trial","172","642566","0.0-15.0-1.64","1994","2","""event"",""trial"",""time""
""fullscreenenter"",""1"",""1755""
","
","
","""event"",""trial"",""time""
""fullscreenenter"",""1"",""1755""
","
","","","","","","275.39999997615814","images/plane4.png","","","memory_trial","3","maybe_new","","","","","","",""
"html-keyboard-response","173","643068","0.0-15.0-0.65","1994","2","""event"",""trial"",""time""
""fullscreenenter"",""1"",""1755""
","
","
","""event"",""trial"",""time""
""fullscreenenter"",""1"",""1755""
","
","","","","","","null","<div style=""font-size:60px;"">+</div>","null","","fixation","","","","","","","","",""
"memory-trial","174","644770","0.0-15.0-1.65","1994","2","""event"",""trial"",""time""
""fullscreenenter"",""1"",""1755""
","
","
","""event"",""trial"",""time""
""fullscreenenter"",""1"",""1755""
","
","","","","","","698.5","images/bed2.png","","","memory_trial","3","maybe_new","","","","","","",""
"html-keyboard-response","175","645272","0.0-15.0-0.66","1994","2","""event"",""trial"",""time""
""fullscreenenter"",""1"",""1755""
","
","
","""event"",""trial"",""time""
""fullscreenenter"",""1"",""1755""
","
","","","","","","null","<div style=""font-size:60px;"">+</div>","null","","fixation","","","","","","","","",""
"memory-trial","176","647407","0.0-15.0-1.66","1994","2","""event"",""trial"",""time""
""fullscreenenter"",""1"",""1755""
","
","
","""event"",""trial"",""time""
""fullscreenenter"",""1"",""1755""
","
","","","","","","1129.5","images/plane1.png","","","memory_trial","2","maybe_old","","","","","","",""
"html-keyboard-response","177","647909","0.0-15.0-0.67","1994","2","""event"",""trial"",""time""
""fullscreenenter"",""1"",""1755""
","
","
","""event"",""trial"",""time""
""fullscreenenter"",""1"",""1755""
","
","","","","","","null","<div style=""font-size:60px;"">+</div>","null","","fixation","","","","","","","","",""
"memory-trial","178","649656","0.0-15.0-1.67","1994","2","""event"",""trial"",""time""
""fullscreenenter"",""1"",""1755""
","
","
","""event"",""trial"",""time""
""fullscreenenter"",""1"",""1755""
","
","","","","","","728.1999999284744","images/banana5.png","","","memory_trial","3","maybe_new","","","","","","",""
"html-keyboard-response","179","650158","0.0-15.0-0.68","1994","2","""event"",""trial"",""time""
""fullscreenenter"",""1"",""1755""
","
","
","""event"",""trial"",""time""
""fullscreenenter"",""1"",""1755""
","
","","","","","","null","<div style=""font-size:60px;"">+</div>","null","","fixation","","","","","","","","",""
"memory-trial","180","651821","0.0-15.0-1.68","1994","2","""event"",""trial"",""time""
""fullscreenenter"",""1"",""1755""
","
","
","""event"",""trial"",""time""
""fullscreenenter"",""1"",""1755""
","
","","","","","","660.6999999284744","images/cactus4.png","","","memory_trial","2","maybe_old","","","","","","",""
"html-keyboard-response","181","652323","0.0-15.0-0.69","1994","2","""event"",""trial"",""time""
""fullscreenenter"",""1"",""1755""
","
","
","""event"",""trial"",""time""
""fullscreenenter"",""1"",""1755""
","
","","","","","","null","<div style=""font-size:60px;"">+</div>","null","","fixation","","","","","","","","",""
"memory-trial","182","653974","0.0-15.0-1.69","1994","2","""event"",""trial"",""time""
""fullscreenenter"",""1"",""1755""
","
","
","""event"",""trial"",""time""
""fullscreenenter"",""1"",""1755""
","
","","","","","","646","images/straw1.png","","","memory_trial","4","definitely_new","","","","","","",""
"html-keyboard-response","183","654476","0.0-15.0-0.70","1994","2","""event"",""trial"",""time""
""fullscreenenter"",""1"",""1755""
","
","
","""event"",""trial"",""time""
""fullscreenenter"",""1"",""1755""
","
","","","","","","null","<div style=""font-size:60px;"">+</div>","null","","fixation","","","","","","","","",""
"memory-trial","184","656526","0.0-15.0-1.70","1994","2","""event"",""trial"",""time""
""fullscreenenter"",""1"",""1755""
","
","
","""event"",""trial"",""time""
""fullscreenenter"",""1"",""1755""
","
","","","","","","1047.3999999761581","images/flower5.png","","","memory_trial","3","maybe_new","","","","","","",""
"html-keyboard-response","185","657027","0.0-15.0-0.71","1994","2","""event"",""trial"",""time""
""fullscreenenter"",""1"",""1755""
","
","
","""event"",""trial"",""time""
""fullscreenenter"",""1"",""1755""
","
","","","","","","null","<div style=""font-size:60px;"">+</div>","null","","fixation","","","","","","","","",""
"memory-trial","186","659693","0.0-15.0-1.71","1994","2","""event"",""trial"",""time""
""fullscreenenter"",""1"",""1755""
","
","
","""event"",""trial"",""time""
""fullscreenenter"",""1"",""1755""
","
","","","","","","1662.5","images/bed4.png","","","memory_trial","2","maybe_old","","","","","","",""
"html-keyboard-response","187","660195","0.0-15.0-0.72","1994","2","""event"",""trial"",""time""
""fullscreenenter"",""1"",""1755""
","
","
","""event"",""trial"",""time""
""fullscreenenter"",""1"",""1755""
","
","","","","","","null","<div style=""font-size:60px;"">+</div>","null","","fixation","","","","","","","","",""
"memory-trial","188","662355","0.0-15.0-1.72","1994","2","""event"",""trial"",""time""
""fullscreenenter"",""1"",""1755""
","
","
","""event"",""trial"",""time""
""fullscreenenter"",""1"",""1755""
","
","","","","","","1157.1999999284744","images/straw4.png","","","memory_trial","2","maybe_old","","","","","","",""
"html-keyboard-response","189","662858","0.0-15.0-0.73","1994","2","""event"",""trial"",""time""
""fullscreenenter"",""1"",""1755""
","
","
","""event"",""trial"",""time""
""fullscreenenter"",""1"",""1755""
","
","","","","","","null","<div style=""font-size:60px;"">+</div>","null","","fixation","","","","","","","","",""
"memory-trial","190","664611","0.0-15.0-1.73","1994","2","""event"",""trial"",""time""
""fullscreenenter"",""1"",""1755""
","
","
","""event"",""trial"",""time""
""fullscreenenter"",""1"",""1755""
","
","","","","","","749.8999999761581","images/cow1.png","","","memory_trial","3","maybe_new","","","","","","",""
"html-keyboard-response","191","665114","0.0-15.0-0.74","1994","2","""event"",""trial"",""time""
""fullscreenenter"",""1"",""1755""
","
","
","""event"",""trial"",""time""
""fullscreenenter"",""1"",""1755""
","
","","","","","","null","<div style=""font-size:60px;"">+</div>","null","","fixation","","","","","","","","",""
"memory-trial","192","666712","0.0-15.0-1.74","1994","2","""event"",""trial"",""time""
""fullscreenenter"",""1"",""1755""
","
","
","""event"",""trial"",""time""
""fullscreenenter"",""1"",""1755""
","
","","","","","","594.3000000715256","images/cow2.png","","","memory_trial","3","maybe_new","","","","","","",""
"html-keyboard-response","193","667213","0.0-15.0-0.75","1994","2","""event"",""trial"",""time""
""fullscreenenter"",""1"",""1755""
","
","
","""event"",""trial"",""time""
""fullscreenenter"",""1"",""1755""
","
","","","","","","null","<div style=""font-size:60px;"">+</div>","null","","fixation","","","","","","","","",""
"memory-trial","194","669113","0.0-15.0-1.75","1994","2","""event"",""trial"",""time""
""fullscreenenter"",""1"",""1755""
","
","
","""event"",""trial"",""time""
""fullscreenenter"",""1"",""1755""
","
","","","","","","895.3999999761581","images/dog5.png","","","memory_trial","3","maybe_new","","","","","","",""
"html-keyboard-response","195","669616","0.0-15.0-0.76","1994","2","""event"",""trial"",""time""
""fullscreenenter"",""1"",""1755""
","
","
","""event"",""trial"",""time""
""fullscreenenter"",""1"",""1755""
","
","","","","","","null","<div style=""font-size:60px;"">+</div>","null","","fixation","","","","","","","","",""
"memory-trial","196","671490","0.0-15.0-1.76","1994","2","""event"",""trial"",""time""
""fullscreenenter"",""1"",""1755""
","
","
","""event"",""trial"",""time""
""fullscreenenter"",""1"",""1755""
","
","","","","","","869.7000000476837","images/rodent4.png","","","memory_trial","3","maybe_new","","","","","","",""
"html-keyboard-response","197","671992","0.0-15.0-0.77","1994","2","""event"",""trial"",""time""
""fullscreenenter"",""1"",""1755""
","
","
","""event"",""trial"",""time""
""fullscreenenter"",""1"",""1755""
","
","","","","","","null","<div style=""font-size:60px;"">+</div>","null","","fixation","","","","","","","","",""
"memory-trial","198","673269","0.0-15.0-1.77","1994","2","""event"",""trial"",""time""
""fullscreenenter"",""1"",""1755""
","
","
","""event"",""trial"",""time""
""fullscreenenter"",""1"",""1755""
","
","","","","","","275.3000000715256","images/rodent2.png","","","memory_trial","3","maybe_new","","","","","","",""
"html-keyboard-response","199","673772","0.0-15.0-0.78","1994","2","""event"",""trial"",""time""
""fullscreenenter"",""1"",""1755""
","
","
","""event"",""trial"",""time""
""fullscreenenter"",""1"",""1755""
","
","","","","","","null","<div style=""font-size:60px;"">+</div>","null","","fixation","","","","","","","","",""
"memory-trial","200","675628","0.0-15.0-1.78","1994","2","""event"",""trial"",""time""
""fullscreenenter"",""1"",""1755""
","
","
","""event"",""trial"",""time""
""fullscreenenter"",""1"",""1755""
","
","","","","","","854.6000000238419","images/banana3.png","","","memory_trial","4","definitely_new","","","","","","",""
"html-keyboard-response","201","676129","0.0-15.0-0.79","1994","2","""event"",""trial"",""time""
""fullscreenenter"",""1"",""1755""
","
","
","""event"",""trial"",""time""
""fullscreenenter"",""1"",""1755""
","
","","","","","","null","<div style=""font-size:60px;"">+</div>","null","","fixation","","","","","","","","",""
"memory-trial","202","678197","0.0-15.0-1.79","1994","2","""event"",""trial"",""time""
""fullscreenenter"",""1"",""1755""
","
","
","""event"",""trial"",""time""
""fullscreenenter"",""1"",""1755""
","
","","","","","","1064","images/bush1.png","","","memory_trial","1","definitely_old","","","","","","",""
"html-keyboard-response","203","678699","0.0-15.0-0.80","1994","2","""event"",""trial"",""time""
""fullscreenenter"",""1"",""1755""
","
","
","""event"",""trial"",""time""
""fullscreenenter"",""1"",""1755""
","
","","","","","","null","<div style=""font-size:60px;"">+</div>","null","","fixation","","","","","","","","",""
"memory-trial","204","680251","0.0-15.0-1.80","1994","2","""event"",""trial"",""time""
""fullscreenenter"",""1"",""1755""
","
","
","""event"",""trial"",""time""
""fullscreenenter"",""1"",""1755""
","
","","","","","","547.8999999761581","images/bush5.png","","","memory_trial","3","maybe_new","","","","","","",""
"html-keyboard-response","205","680754","0.0-15.0-0.81","1994","2","""event"",""trial"",""time""
""fullscreenenter"",""1"",""1755""
","
","
","""event"",""trial"",""time""
""fullscreenenter"",""1"",""1755""
","
","","","","","","null","<div style=""font-size:60px;"">+</div>","null","","fixation","","","","","","","","",""
"memory-trial","206","682258","0.0-15.0-1.81","1994","2","""event"",""trial"",""time""
""fullscreenenter"",""1"",""1755""
","
","
","""event"",""trial"",""time""
""fullscreenenter"",""1"",""1755""
","
","","","","","","501.1999999284744","images/rabbit1.png","","","memory_trial","2","maybe_old","","","","","","",""
"html-keyboard-response","207","682767","0.0-15.0-0.82","1994","2","""event"",""trial"",""time""
""fullscreenenter"",""1"",""1755""
","
","
","""event"",""trial"",""time""
""fullscreenenter"",""1"",""1755""
","
","","","","","","null","<div style=""font-size:60px;"">+</div>","null","","fixation","","","","","","","","",""
"memory-trial","208","684724","0.0-15.0-1.82","1994","2","""event"",""trial"",""time""
""fullscreenenter"",""1"",""1755""
","
","
","""event"",""trial"",""time""
""fullscreenenter"",""1"",""1755""
","
","","","","","","953.4000000953674","images/sheep2.png","","","memory_trial","3","maybe_new","","","","","","",""
"html-keyboard-response","209","685225","0.0-15.0-0.83","1994","2","""event"",""trial"",""time""
""fullscreenenter"",""1"",""1755""
","
","
","""event"",""trial"",""time""
""fullscreenenter"",""1"",""1755""
","
","","","","","","null","<div style=""font-size:60px;"">+</div>","null","","fixation","","","","","","","","",""
"memory-trial","210","686582","0.0-15.0-1.83","1994","2","""event"",""trial"",""time""
""fullscreenenter"",""1"",""1755""
","
","
","""event"",""trial"",""time""
""fullscreenenter"",""1"",""1755""
","
","","","","","","353.2999999523163","images/sofa4.png","","","memory_trial","2","maybe_old","","","","","","",""
"html-keyboard-response","211","687085","0.0-15.0-0.84","1994","2","""event"",""trial"",""time""
""fullscreenenter"",""1"",""1755""
","
","
","""event"",""trial"",""time""
""fullscreenenter"",""1"",""1755""
","
","","","","","","null","<div style=""font-size:60px;"">+</div>","null","","fixation","","","","","","","","",""
"memory-trial","212","688936","0.0-15.0-1.84","1994","2","""event"",""trial"",""time""
""fullscreenenter"",""1"",""1755""
","
","
","""event"",""trial"",""time""
""fullscreenenter"",""1"",""1755""
","
","","","","","","847.1999999284744","images/sheep3.png","","","memory_trial","3","maybe_new","","","","","","",""
"html-keyboard-response","213","689438","0.0-15.0-0.85","1994","2","""event"",""trial"",""time""
""fullscreenenter"",""1"",""1755""
","
","
","""event"",""trial"",""time""
""fullscreenenter"",""1"",""1755""
","
","","","","","","null","<div style=""font-size:60px;"">+</div>","null","","fixation","","","","","","","","",""
"memory-trial","214","691265","0.0-15.0-1.85","1994","2","""event"",""trial"",""time""
""fullscreenenter"",""1"",""1755""
","
","
","""event"",""trial"",""time""
""fullscreenenter"",""1"",""1755""
","
","","","","","","821.8999999761581","images/boat5.png","","","memory_trial","2","maybe_old","","","","","","",""
"html-keyboard-response","215","691767","0.0-15.0-0.86","1994","2","""event"",""trial"",""time""
""fullscreenenter"",""1"",""1755""
","
","
","""event"",""trial"",""time""
""fullscreenenter"",""1"",""1755""
","
","","","","","","null","<div style=""font-size:60px;"">+</div>","null","","fixation","","","","","","","","",""
"memory-trial","216","693699","0.0-15.0-1.86","1994","2","""event"",""trial"",""time""
""fullscreenenter"",""1"",""1755""
","
","
","""event"",""trial"",""time""
""fullscreenenter"",""1"",""1755""
","
","","","","","","929.7000000476837","images/sheep5.png","","","memory_trial","4","definitely_new","","","","","","",""
"html-keyboard-response","217","694202","0.0-15.0-0.87","1994","2","""event"",""trial"",""time""
""fullscreenenter"",""1"",""1755""
","
","
","""event"",""trial"",""time""
""fullscreenenter"",""1"",""1755""
","
","","","","","","null","<div style=""font-size:60px;"">+</div>","null","","fixation","","","","","","","","",""
"memory-trial","218","695636","0.0-15.0-1.87","1994","2","""event"",""trial"",""time""
""fullscreenenter"",""1"",""1755""
","
","
","""event"",""trial"",""time""
""fullscreenenter"",""1"",""1755""
","
","","","","","","430.5","images/rodent3.png","","","memory_trial","2","maybe_old","","","","","","",""
"html-keyboard-response","219","696138","0.0-15.0-0.88","1994","2","""event"",""trial"",""time""
""fullscreenenter"",""1"",""1755""
","
","
","""event"",""trial"",""time""
""fullscreenenter"",""1"",""1755""
","
","","","","","","null","<div style=""font-size:60px;"">+</div>","null","","fixation","","","","","","","","",""
"memory-trial","220","698136","0.0-15.0-1.88","1994","2","""event"",""trial"",""time""
""fullscreenenter"",""1"",""1755""
","
","
","""event"",""trial"",""time""
""fullscreenenter"",""1"",""1755""
","
","","","","","","995.2000000476837","images/straw3.png","","","memory_trial","2","maybe_old","","","","","","",""
"html-keyboard-response","221","698638","0.0-15.0-0.89","1994","2","""event"",""trial"",""time""
""fullscreenenter"",""1"",""1755""
","
","
","""event"",""trial"",""time""
""fullscreenenter"",""1"",""1755""
","
","","","","","","null","<div style=""font-size:60px;"">+</div>","null","","fixation","","","","","","","","",""
"memory-trial","222","699834","0.0-15.0-1.89","1994","2","""event"",""trial"",""time""
""fullscreenenter"",""1"",""1755""
","
","
","""event"",""trial"",""time""
""fullscreenenter"",""1"",""1755""
","
","","","","","","192.80000007152557","images/sofa1.png","","","memory_trial","3","maybe_new","","","","","","",""
"html-keyboard-response","223","700337","0.0-15.0-0.90","1994","2","""event"",""trial"",""time""
""fullscreenenter"",""1"",""1755""
","
","
","""event"",""trial"",""time""
""fullscreenenter"",""1"",""1755""
","
","","","","","","null","<div style=""font-size:60px;"">+</div>","null","","fixation","","","","","","","","",""
"memory-trial","224","701812","0.0-15.0-1.90","1994","2","""event"",""trial"",""time""
""fullscreenenter"",""1"",""1755""
","
","
","""event"",""trial"",""time""
""fullscreenenter"",""1"",""1755""
","
","","","","","","470.1999999284744","images/bed1.png","","","memory_trial","3","maybe_new","","","","","","",""
"html-keyboard-response","225","702314","0.0-15.0-0.91","1994","2","""event"",""trial"",""time""
""fullscreenenter"",""1"",""1755""
","
","
","""event"",""trial"",""time""
""fullscreenenter"",""1"",""1755""
","
","","","","","","null","<div style=""font-size:60px;"">+</div>","null","","fixation","","","","","","","","",""
"memory-trial","226","704907","0.0-15.0-1.91","1994","2","""event"",""trial"",""time""
""fullscreenenter"",""1"",""1755""
","
","
","""event"",""trial"",""time""
""fullscreenenter"",""1"",""1755""
","
","","","","","","1588.5","images/flower2.png","","","memory_trial","2","maybe_old","","","","","","",""
"html-keyboard-response","227","705409","0.0-15.0-0.92","1994","2","""event"",""trial"",""time""
""fullscreenenter"",""1"",""1755""
","
","
","""event"",""trial"",""time""
""fullscreenenter"",""1"",""1755""
","
","","","","","","null","<div style=""font-size:60px;"">+</div>","null","","fixation","","","","","","","","",""
"memory-trial","228","708496","0.0-15.0-1.92","1994","2","""event"",""trial"",""time""
""fullscreenenter"",""1"",""1755""
","
","
","""event"",""trial"",""time""
""fullscreenenter"",""1"",""1755""
","
","","","","","","2083.1999999284744","images/cactus3.png","","","memory_trial","2","maybe_old","","","","","","",""
"html-keyboard-response","229","708998","0.0-15.0-0.93","1994","2","""event"",""trial"",""time""
""fullscreenenter"",""1"",""1755""
","
","
","""event"",""trial"",""time""
""fullscreenenter"",""1"",""1755""
","
","","","","","","null","<div style=""font-size:60px;"">+</div>","null","","fixation","","","","","","","","",""
"memory-trial","230","710484","0.0-15.0-1.93","1994","2","""event"",""trial"",""time""
""fullscreenenter"",""1"",""1755""
","
","
","""event"",""trial"",""time""
""fullscreenenter"",""1"",""1755""
","
","","","","","","482.2000000476837","images/chair5.png","","","memory_trial","3","maybe_new","","","","","","",""
"html-keyboard-response","231","710986","0.0-15.0-0.94","1994","2","""event"",""trial"",""time""
""fullscreenenter"",""1"",""1755""
","
","
","""event"",""trial"",""time""
""fullscreenenter"",""1"",""1755""
","
","","","","","","null","<div style=""font-size:60px;"">+</div>","null","","fixation","","","","","","","","",""
"memory-trial","232","713185","0.0-15.0-1.94","1994","2","""event"",""trial"",""time""
""fullscreenenter"",""1"",""1755""
","
","
","""event"",""trial"",""time""
""fullscreenenter"",""1"",""1755""
","
","","","","","","1197.3999999761581","images/bush2.png","","","memory_trial","3","maybe_new","","","","","","",""
"html-keyboard-response","233","713688","0.0-15.0-0.95","1994","2","""event"",""trial"",""time""
""fullscreenenter"",""1"",""1755""
","
","
","""event"",""trial"",""time""
""fullscreenenter"",""1"",""1755""
","
","","","","","","null","<div style=""font-size:60px;"">+</div>","null","","fixation","","","","","","","","",""
"memory-trial","234","716848","0.0-15.0-1.95","1994","2","""event"",""trial"",""time""
""fullscreenenter"",""1"",""1755""
","
","
","""event"",""trial"",""time""
""fullscreenenter"",""1"",""1755""
","
","","","","","","2153.600000023842","images/sheep1.png","","","memory_trial","3","maybe_new","","","","","","",""
"html-keyboard-response","235","717351","0.0-15.0-0.96","1994","2","""event"",""trial"",""time""
""fullscreenenter"",""1"",""1755""
","
","
","""event"",""trial"",""time""
""fullscreenenter"",""1"",""1755""
","
","","","","","","null","<div style=""font-size:60px;"">+</div>","null","","fixation","","","","","","","","",""
"memory-trial","236","719447","0.0-15.0-1.96","1994","2","""event"",""trial"",""time""
""fullscreenenter"",""1"",""1755""
","
","
","""event"",""trial"",""time""
""fullscreenenter"",""1"",""1755""
","
","","","","","","1091.3999999761581","images/feline5.png","","","memory_trial","1","definitely_old","","","","","","",""
"html-keyboard-response","237","719950","0.0-15.0-0.97","1994","2","""event"",""trial"",""time""
""fullscreenenter"",""1"",""1755""
","
","
","""event"",""trial"",""time""
""fullscreenenter"",""1"",""1755""
","
","","","","","","null","<div style=""font-size:60px;"">+</div>","null","","fixation","","","","","","","","",""
"memory-trial","238","722143","0.0-15.0-1.97","1994","2","""event"",""trial"",""time""
""fullscreenenter"",""1"",""1755""
","
","
","""event"",""trial"",""time""
""fullscreenenter"",""1"",""1755""
","
","","","","","","1188.6000000238419","images/goat1.png","","","memory_trial","3","maybe_new","","","","","","",""
"html-keyboard-response","239","722646","0.0-15.0-0.98","1994","2","""event"",""trial"",""time""
""fullscreenenter"",""1"",""1755""
","
","
","""event"",""trial"",""time""
""fullscreenenter"",""1"",""1755""
","
","","","","","","null","<div style=""font-size:60px;"">+</div>","null","","fixation","","","","","","","","",""
"memory-trial","240","725239","0.0-15.0-1.98","1994","2","""event"",""trial"",""time""
""fullscreenenter"",""1"",""1755""
","
","
","""event"",""trial"",""time""
""fullscreenenter"",""1"",""1755""
","
","","","","","","1589.2000000476837","images/cow3.png","","","memory_trial","3","maybe_new","","","","","","",""
"html-keyboard-response","241","725740","0.0-15.0-0.99","1994","2","""event"",""trial"",""time""
""fullscreenenter"",""1"",""1755""
","
","
","""event"",""trial"",""time""
""fullscreenenter"",""1"",""1755""
","
","","","","","","null","<div style=""font-size:60px;"">+</div>","null","","fixation","","","","","","","","",""
"memory-trial","242","727757","0.0-15.0-1.99","1994","2","""event"",""trial"",""time""
""fullscreenenter"",""1"",""1755""
","
","
","""event"",""trial"",""time""
""fullscreenenter"",""1"",""1755""
","
","","","","","","1014.1999999284744","images/rabbit5.png","","","memory_trial","3","maybe_new","","","","","","",""
"html-keyboard-response","243","728259","0.0-15.0-0.100","1994","2","""event"",""trial"",""time""
""fullscreenenter"",""1"",""1755""
","
","
","""event"",""trial"",""time""
""fullscreenenter"",""1"",""1755""
","
","","","","","","null","<div style=""font-size:60px;"">+</div>","null","","fixation","","","","","","","","",""
"memory-trial","244","730514","0.0-15.0-1.100","1994","2","""event"",""trial"",""time""
""fullscreenenter"",""1"",""1755""
","
","
","""event"",""trial"",""time""
""fullscreenenter"",""1"",""1755""
","
","","","","","","1252.1999999284744","images/orange4.png","","","memory_trial","4","definitely_new","","","","","","",""
"html-keyboard-response","245","731015","0.0-15.0-0.101","1994","2","""event"",""trial"",""time""
""fullscreenenter"",""1"",""1755""
","
","
","""event"",""trial"",""time""
""fullscreenenter"",""1"",""1755""
","
","","","","","","null","<div style=""font-size:60px;"">+</div>","null","","fixation","","","","","","","","",""
"memory-trial","246","732954","0.0-15.0-1.101","1994","2","""event"",""trial"",""time""
""fullscreenenter"",""1"",""1755""
","
","
","""event"",""trial"",""time""
""fullscreenenter"",""1"",""1755""
","
","","","","","","934.8999999761581","images/chair3.png","","","memory_trial","3","maybe_new","","","","","","",""
"html-button-response","247","799274","0.0-15.0-2.101-0.101","1994","2","""event"",""trial"",""time""
""fullscreenenter"",""1"",""1755""
","
","
","""event"",""trial"",""time""
""fullscreenenter"",""1"",""1755""
","
","","","","","","66317.29999995232","<p> Take a break! </p><p> Click the button to continue. </p>","0","","break","","","","","","","","",""
"html-keyboard-response","248","799775","0.0-15.0-0.102","1994","2","""event"",""trial"",""time""
""fullscreenenter"",""1"",""1755""
","
","
","""event"",""trial"",""time""
""fullscreenenter"",""1"",""1755""
","
","","","","","","null","<div style=""font-size:60px;"">+</div>","null","","fixation","","","","","","","","",""
"memory-trial","249","802328","0.0-15.0-1.102","1994","2","""event"",""trial"",""time""
""fullscreenenter"",""1"",""1755""
","
","
","""event"",""trial"",""time""
""fullscreenenter"",""1"",""1755""
","
","","","","","","1548.3999999761581","images/train1.png","","","memory_trial","1","definitely_old","","","","","","",""
"html-keyboard-response","250","802830","0.0-15.0-0.103","1994","2","""event"",""trial"",""time""
""fullscreenenter"",""1"",""1755""
","
","
","""event"",""trial"",""time""
""fullscreenenter"",""1"",""1755""
","
","","","","","","null","<div style=""font-size:60px;"">+</div>","null","","fixation","","","","","","","","",""
"memory-trial","251","804603","0.0-15.0-1.103","1994","2","""event"",""trial"",""time""
""fullscreenenter"",""1"",""1755""
","
","
","""event"",""trial"",""time""
""fullscreenenter"",""1"",""1755""
","
","","","","","","769.2000000476837","images/straw2.png","","","memory_trial","3","maybe_new","","","","","","",""
"html-keyboard-response","252","805106","0.0-15.0-0.104","1994","2","""event"",""trial"",""time""
""fullscreenenter"",""1"",""1755""
","
","
","""event"",""trial"",""time""
""fullscreenenter"",""1"",""1755""
","
","","","","","","null","<div style=""font-size:60px;"">+</div>","null","","fixation","","","","","","","","",""
"memory-trial","253","806338","0.0-15.0-1.104","1994","2","""event"",""trial"",""time""
""fullscreenenter"",""1"",""1755""
","
","
","""event"",""trial"",""time""
""fullscreenenter"",""1"",""1755""
","
","","","","","","229.69999992847443","images/cactus2.png","","","memory_trial","3","maybe_new","","","","","","",""
"html-keyboard-response","254","806839","0.0-15.0-0.105","1994","2","""event"",""trial"",""time""
""fullscreenenter"",""1"",""1755""
","
","
","""event"",""trial"",""time""
""fullscreenenter"",""1"",""1755""
","
","","","","","","null","<div style=""font-size:60px;"">+</div>","null","","fixation","","","","","","","","",""
"memory-trial","255","808661","0.0-15.0-1.105","1994","2","""event"",""trial"",""time""
""fullscreenenter"",""1"",""1755""
","
","
","""event"",""trial"",""time""
""fullscreenenter"",""1"",""1755""
","
","","","","","","817.7000000476837","images/table3.png","","","memory_trial","4","definitely_new","","","","","","",""
"html-keyboard-response","256","809163","0.0-15.0-0.106","1994","2","""event"",""trial"",""time""
""fullscreenenter"",""1"",""1755""
","
","
","""event"",""trial"",""time""
""fullscreenenter"",""1"",""1755""
","
","","","","","","null","<div style=""font-size:60px;"">+</div>","null","","fixation","","","","","","","","",""
"memory-trial","257","810985","0.0-15.0-1.106","1994","2","""event"",""trial"",""time""
""fullscreenenter"",""1"",""1755""
","
","
","""event"",""trial"",""time""
""fullscreenenter"",""1"",""1755""
","
","","","","","","817.1000000238419","images/sheep4.png","","","memory_trial","4","definitely_new","","","","","","",""
"html-keyboard-response","258","811488","0.0-15.0-0.107","1994","2","""event"",""trial"",""time""
""fullscreenenter"",""1"",""1755""
","
","
","""event"",""trial"",""time""
""fullscreenenter"",""1"",""1755""
","
","","","","","","null","<div style=""font-size:60px;"">+</div>","null","","fixation","","","","","","","","",""
"memory-trial","259","813315","0.0-15.0-1.107","1994","2","""event"",""trial"",""time""
""fullscreenenter"",""1"",""1755""
","
","
","""event"",""trial"",""time""
""fullscreenenter"",""1"",""1755""
","
","","","","","","822.7999999523163","images/cow5.png","","","memory_trial","3","maybe_new","","","","","","",""
"html-keyboard-response","260","813817","0.0-15.0-0.108","1994","2","""event"",""trial"",""time""
""fullscreenenter"",""1"",""1755""
","
","
","""event"",""trial"",""time""
""fullscreenenter"",""1"",""1755""
","
","","","","","","null","<div style=""font-size:60px;"">+</div>","null","","fixation","","","","","","","","",""
"memory-trial","261","815551","0.0-15.0-1.108","1994","2","""event"",""trial"",""time""
""fullscreenenter"",""1"",""1755""
","
","
","""event"",""trial"",""time""
""fullscreenenter"",""1"",""1755""
","
","","","","","","731.3999999761581","images/table2.png","","","memory_trial","2","maybe_old","","","","","","",""
"html-keyboard-response","262","816054","0.0-15.0-0.109","1994","2","""event"",""trial"",""time""
""fullscreenenter"",""1"",""1755""
","
","
","""event"",""trial"",""time""
""fullscreenenter"",""1"",""1755""
","
","","","","","","null","<div style=""font-size:60px;"">+</div>","null","","fixation","","","","","","","","",""
"memory-trial","263","817741","0.0-15.0-1.109","1994","2","""event"",""trial"",""time""
""fullscreenenter"",""1"",""1755""
","
","
","""event"",""trial"",""time""
""fullscreenenter"",""1"",""1755""
","
","","","","","","683.1999999284744","images/orange3.png","","","memory_trial","3","maybe_new","","","","","","",""
"html-keyboard-response","264","818243","0.0-15.0-0.110","1994","2","""event"",""trial"",""time""
""fullscreenenter"",""1"",""1755""
","
","
","""event"",""trial"",""time""
""fullscreenenter"",""1"",""1755""
","
","","","","","","null","<div style=""font-size:60px;"">+</div>","null","","fixation","","","","","","","","",""
"memory-trial","265","819964","0.0-15.0-1.110","1994","2","""event"",""trial"",""time""
""fullscreenenter"",""1"",""1755""
","
","
","""event"",""trial"",""time""
""fullscreenenter"",""1"",""1755""
","
","","","","","","717.1999999284744","images/table1.png","","","memory_trial","4","definitely_new","","","","","","",""
"html-keyboard-response","266","820466","0.0-15.0-0.111","1994","2","""event"",""trial"",""time""
""fullscreenenter"",""1"",""1755""
","
","
","""event"",""trial"",""time""
""fullscreenenter"",""1"",""1755""
","
","","","","","","null","<div style=""font-size:60px;"">+</div>","null","","fixation","","","","","","","","",""
"memory-trial","267","822054","0.0-15.0-1.111","1994","2","""event"",""trial"",""time""
""fullscreenenter"",""1"",""1755""
","
","
","""event"",""trial"",""time""
""fullscreenenter"",""1"",""1755""
","
","","","","","","584.8999999761581","images/rodent1.png","","","memory_trial","3","maybe_new","","","","","","",""
"html-keyboard-response","268","822556","0.0-15.0-0.112","1994","2","""event"",""trial"",""time""
""fullscreenenter"",""1"",""1755""
","
","
","""event"",""trial"",""time""
""fullscreenenter"",""1"",""1755""
","
","","","","","","null","<div style=""font-size:60px;"">+</div>","null","","fixation","","","","","","","","",""
"memory-trial","269","824437","0.0-15.0-1.112","1994","2","""event"",""trial"",""time""
""fullscreenenter"",""1"",""1755""
","
","
","""event"",""trial"",""time""
""fullscreenenter"",""1"",""1755""
","
","","","","","","876.6000000238419","images/train3.png","","","memory_trial","2","maybe_old","","","","","","",""
"html-keyboard-response","270","824940","0.0-15.0-0.113","1994","2","""event"",""trial"",""time""
""fullscreenenter"",""1"",""1755""
","
","
","""event"",""trial"",""time""
""fullscreenenter"",""1"",""1755""
","
","","","","","","null","<div style=""font-size:60px;"">+</div>","null","","fixation","","","","","","","","",""
"memory-trial","271","826309","0.0-15.0-1.113","1994","2","""event"",""trial"",""time""
""fullscreenenter"",""1"",""1755""
","
","
","""event"",""trial"",""time""
""fullscreenenter"",""1"",""1755""
","
","","","","","","365.89999997615814","images/apple5.png","","","memory_trial","3","maybe_new","","","","","","",""
"html-keyboard-response","272","826812","0.0-15.0-0.114","1994","2","""event"",""trial"",""time""
""fullscreenenter"",""1"",""1755""
","
","
","""event"",""trial"",""time""
""fullscreenenter"",""1"",""1755""
","
","","","","","","null","<div style=""font-size:60px;"">+</div>","null","","fixation","","","","","","","","",""
"memory-trial","273","828386","0.0-15.0-1.114","1994","2","""event"",""trial"",""time""
""fullscreenenter"",""1"",""1755""
","
","
","""event"",""trial"",""time""
""fullscreenenter"",""1"",""1755""
","
","","","","","","570.2999999523163","images/orange5.png","","","memory_trial","2","maybe_old","","","","","","",""
"html-keyboard-response","274","828888","0.0-15.0-0.115","1994","2","""event"",""trial"",""time""
""fullscreenenter"",""1"",""1755""
","
","
","""event"",""trial"",""time""
""fullscreenenter"",""1"",""1755""
","
","","","","","","null","<div style=""font-size:60px;"">+</div>","null","","fixation","","","","","","","","",""
"memory-trial","275","830468","0.0-15.0-1.115","1994","2","""event"",""trial"",""time""
""fullscreenenter"",""1"",""1755""
","
","
","""event"",""trial"",""time""
""fullscreenenter"",""1"",""1755""
","
","","","","","","575.8000000715256","images/plane3.png","","","memory_trial","4","definitely_new","","","","","","",""
"html-keyboard-response","276","830971","0.0-15.0-0.116","1994","2","""event"",""trial"",""time""
""fullscreenenter"",""1"",""1755""
","
","
","""event"",""trial"",""time""
""fullscreenenter"",""1"",""1755""
","
","","","","","","null","<div style=""font-size:60px;"">+</div>","null","","fixation","","","","","","","","",""
"memory-trial","277","832616","0.0-15.0-1.116","1994","2","""event"",""trial"",""time""
""fullscreenenter"",""1"",""1755""
","
","
","""event"",""trial"",""time""
""fullscreenenter"",""1"",""1755""
","
","","","","","","641.8999999761581","images/feline1.png","","","memory_trial","3","maybe_new","","","","","","",""
"html-keyboard-response","278","833120","0.0-15.0-0.117","1994","2","""event"",""trial"",""time""
""fullscreenenter"",""1"",""1755""
","
","
","""event"",""trial"",""time""
""fullscreenenter"",""1"",""1755""
","
","","","","","","null","<div style=""font-size:60px;"">+</div>","null","","fixation","","","","","","","","",""
"memory-trial","279","834148","0.0-15.0-1.117","1994","2","""event"",""trial"",""time""
""fullscreenenter"",""1"",""1755""
","
","
","""event"",""trial"",""time""
""fullscreenenter"",""1"",""1755""
","
","","","","","","24.5","images/horse5.png","","","memory_trial","2","maybe_old","","","","","","",""
"html-keyboard-response","280","834651","0.0-15.0-0.118","1994","2","""event"",""trial"",""time""
""fullscreenenter"",""1"",""1755""
","
","
","""event"",""trial"",""time""
""fullscreenenter"",""1"",""1755""
","
","","","","","","null","<div style=""font-size:60px;"">+</div>","null","","fixation","","","","","","","","",""
"memory-trial","281","835690","0.0-15.0-1.118","1994","2","""event"",""trial"",""time""
""fullscreenenter"",""1"",""1755""
","
","
","""event"",""trial"",""time""
""fullscreenenter"",""1"",""1755""
","
","","","","","","36.10000002384186","images/feline4.png","","","memory_trial","4","definitely_new","","","","","","",""
"html-keyboard-response","282","836193","0.0-15.0-0.119","1994","2","""event"",""trial"",""time""
""fullscreenenter"",""1"",""1755""
","
","
","""event"",""trial"",""time""
""fullscreenenter"",""1"",""1755""
","
","","","","","","null","<div style=""font-size:60px;"">+</div>","null","","fixation","","","","","","","","",""
"memory-trial","283","837729","0.0-15.0-1.119","1994","2","""event"",""trial"",""time""
""fullscreenenter"",""1"",""1755""
","
","
","""event"",""trial"",""time""
""fullscreenenter"",""1"",""1755""
","
","","","","","","532","images/banana1.png","","","memory_trial","3","maybe_new","","","","","","",""
"preload","284","845401","0.0-16.0","1994","2","""event"",""trial"",""time""
""fullscreenenter"",""1"",""1755""
","
","
","""event"",""trial"",""time""
""fullscreenenter"",""1"",""1755""
","
","true","false","[]","[]","[]","","","","","","","","","","","","","",""
"learning-instructions","285","927912","0.0-17.0-0.0-0.0-0.0","1994","2","""event"",""trial"",""time""
""fullscreenenter"",""1"",""1755""
","
","
","""event"",""trial"",""time""
""fullscreenenter"",""1"",""1755""
","
","","","","","","79455.10000002384","<p> We're now going to ask you to buy fruit again. </p>","","0","instructions","","","","","","","","",""
"learning-instructions","286","933807","0.0-17.0-0.0-0.0-0.1","1994","2","""event"",""trial"",""time""
""fullscreenenter"",""1"",""1755""
","
","
","""event"",""trial"",""time""
""fullscreenenter"",""1"",""1755""
","
","","","","","","821","<p> On each trial, you will see a fruit. Select the store where you think you can buy the fruit. </p>","","0","instructions","","","","","","","","",""
"learning-instructions","287","941910","0.0-17.0-0.0-0.0-0.2","1994","2","""event"",""trial"",""time""
""fullscreenenter"",""1"",""1755""
","
","
","""event"",""trial"",""time""
""fullscreenenter"",""1"",""1755""
","
","","","","","","1023.6999999284744","<p> To make your selection, think about what you learned last week. You will NOT receive any feedback about your choice. </p>","","0","instructions","","","","","","","","",""
"learning-instructions","288","951409","0.0-17.0-0.0-0.0-0.3","1994","2","""event"",""trial"",""time""
""fullscreenenter"",""1"",""1755""
","
","
","""event"",""trial"",""time""
""fullscreenenter"",""1"",""1755""
","
","","","","","","1911.7999999523163","<p> You should use the 1 key to select the store on the left, the 2 key to select the store in the middle, and the 3 key to select the store on the right. </p><br><div class=""choice-mem-instructions-grid""> <div class=""choice-mem-option""><img src=""images/fruit_choice1.png"" class=""choice-mem-option-img"" stage=""instructions"" position=""0"" ><div class=""choice-mem-option-text""> Press ""1."" </div></div><div class=""choice-mem-option""><img src=""images/fruit_choice2.png"" class=""choice-mem-option-img"" stage=""instructions"" position=""1"" ><div class=""choice-mem-option-text""> Press ""2."" </div></div><div class=""choice-mem-option""><img src=""images/fruit_choice3.png"" class=""choice-mem-option-img"" stage=""instructions"" position=""2"" ><div class=""choice-mem-option-text""> Press ""3."" </div></div></div>","","0","instructions","","","","","","","","",""
"learning-instructions","289","959852","0.0-17.0-0.0-0.0-0.4","1994","2","""event"",""trial"",""time""
""fullscreenenter"",""1"",""1755""
","
","
","""event"",""trial"",""time""
""fullscreenenter"",""1"",""1755""
","
","","","","","","2178.1999999284744","<p> You will have 10 seconds to make each selection. Try to respond before time runs out! </p>","","0","instructions","","","","","","","","",""
"learning-instructions","290","965444","0.0-17.0-0.0-1.0","1994","2","""event"",""trial"",""time""
""fullscreenenter"",""1"",""1755""
","
","
","""event"",""trial"",""time""
""fullscreenenter"",""1"",""1755""
","
","","","","","","3527.899999976158","<p> You are now ready to begin the game. </p>","","0","instructions","","","","","","","","",""
"html-keyboard-response","291","966072","0.0-17.0-0.0-2.0-0.0","1994","2","""event"",""trial"",""time""
""fullscreenenter"",""1"",""1755""
","
","
","""event"",""trial"",""time""
""fullscreenenter"",""1"",""1755""
","
","","","","","","null","<div style=""font-size:60px;"">+</div>","null","","fixation","","","","","","","","",""
"choice-memory-trial","292","975503","0.0-17.0-0.0-2.0-1.0","1994","2","""event"",""trial"",""time""
""fullscreenenter"",""1"",""1755""
","
","
","""event"",""trial"",""time""
""fullscreenenter"",""1"",""1755""
","
","","","","","","8403.299999952316","images/banana1.png","","","choice_memory_trial","2","","","images/fruit_choice1.png","images/fruit_choice3.png","images/fruit_choice2.png","[0,2,1]","images/fruit_choice3.png","fruit"
"html-keyboard-response","293","976013","0.0-17.0-0.0-2.0-0.1","1994","2","""event"",""trial"",""time""
""fullscreenenter"",""1"",""1755""
","
","
","""event"",""trial"",""time""
