"trial_type","trial_index","time_elapsed","internal_node_id","subject_id","task_version","interactions","blur_events","focus_events","fullscreenenter_events","fullscreenexit_events","success"
"pavlovia","0","3","0.0-0.0","1696","2","""event"",""trial"",""time""
""focus"",""1"",""5690""
""fullscreenenter"",""1"",""7805""
","
","""event"",""trial"",""time""
""focus"",""1"",""5690""
","""event"",""trial"",""time""
""fullscreenenter"",""1"",""7805""
","
",""
"fullscreen","1","8591","0.0-1.0","1696","2","""event"",""trial"",""time""
""focus"",""1"",""5690""
""fullscreenenter"",""1"",""7805""
""fullscreenexit"",""2"",""95261""
""blur"",""2"",""99716""
""focus"",""2"",""99716""
","""event"",""trial"",""time""
""blur"",""2"",""99716""
","""event"",""trial"",""time""
""focus"",""1"",""5690""
""focus"",""2"",""99716""
","""event"",""trial"",""time""
""fullscreenenter"",""1"",""7805""
","""event"",""trial"",""time""
""fullscreenexit"",""2"",""95261""
","true"
