"trial_type","trial_index","time_elapsed","internal_node_id","subject_id","task_version","interactions","blur_events","focus_events","fullscreenenter_events","fullscreenexit_events","success","timeout","failed_images","failed_audio","failed_video","rt","stimulus","response","button_pressed","task_part","key_press","answer","correct","left_choice","middle_choice","right_choice","choice_positions","option_selected","block"
"pavlovia","0","7","0.0-0.0","1972","2","""event"",""trial"",""time""
""fullscreenenter"",""1"",""11957""
","
","
","""event"",""trial"",""time""
""fullscreenenter"",""1"",""11957""
","
","","","","","","","","","","","","","","","","","","",""
"fullscreen","1","12927","0.0-1.0","1972","2","""event"",""trial"",""time""
""fullscreenenter"",""1"",""11957""
","
","
","""event"",""trial"",""time""
""fullscreenenter"",""1"",""11957""
","
","true","","","","","","","","","","","","","","","","","",""
"preload","2","13907","0.0-2.0","1972","2","""event"",""trial"",""time""
""fullscreenenter"",""1"",""11957""
","
","
","""event"",""trial"",""time""
""fullscreenenter"",""1"",""11957""
","
","true","false","[]","[]","[]","","","","","","","","","","","","","",""
"audio-keyboard-response","3","15840","0.0-3.0","1972","2","""event"",""trial"",""time""
""fullscreenenter"",""1"",""11957""
","
","
","""event"",""trial"",""time""
""fullscreenenter"",""1"",""11957""
","
","","","","","","1930.1587301587304","audio/beep_loop.wav"," ","","","","","","","","","","",""
"audio-button-response","4","18853","0.0-4.0","1972","2","""event"",""trial"",""time""
""fullscreenenter"",""1"",""11957""
","
","
","""event"",""trial"",""time""
""fullscreenenter"",""1"",""11957""
","
","","","","","","3007","audio/turtle.wav","3","","","","","","","","","","",""
"audio-button-response","5","21460","0.0-5.0","1972","2","""event"",""trial"",""time""
""fullscreenenter"",""1"",""11957""
","
","
","""event"",""trial"",""time""
""fullscreenenter"",""1"",""11957""
","
","","","","","","1605","audio/shark.wav","2","","","","","","","","","","",""
"preload","6","30335","0.0-6.0","1972","2","""event"",""trial"",""time""
""fullscreenenter"",""1"",""11957""
","
","
","""event"",""trial"",""time""
""fullscreenenter"",""1"",""11957""
","
","true","false","[]","[]","[]","","","","","","","","","","","","","",""
"learning-instructions","7","40328","0.0-7.0-0.0","1972","2","""event"",""trial"",""time""
""fullscreenenter"",""1"",""11957""
","
","
","""event"",""trial"",""time""
""fullscreenenter"",""1"",""11957""
","
","","","","","","5188.599999997765","<p> Welcome back! </p><p> Last week, you had to make choices about lots of different items.  </p>","","0","instructions","","","","","","","","",""
"learning-instructions","8","46095","0.0-7.0-0.1","1972","2","""event"",""trial"",""time""
""fullscreenenter"",""1"",""11957""
","
","
","""event"",""trial"",""time""
""fullscreenenter"",""1"",""11957""
","
","","","","","","1468.6000000014901","<p> Today, we are going to ask you to try to remember all the items. </p>","","0","instructions","","","","","","","","",""
"learning-instructions","9","57897","0.0-7.0-0.2","1972","2","""event"",""trial"",""time""
""fullscreenenter"",""1"",""11957""
","
","
","""event"",""trial"",""time""
""fullscreenenter"",""1"",""11957""
","
","","","","","","1669.8999999985099","<p> On every trial, you will see an image. </p><p> The image may be an OLD image you saw during the games last week or it may be a NEW image that was not presented. </p>","","0","instructions","","","","","","","","",""
"learning-instructions","10","68324","0.0-7.0-0.3","1972","2","""event"",""trial"",""time""
""fullscreenenter"",""1"",""11957""
","
","
","""event"",""trial"",""time""
""fullscreenenter"",""1"",""11957""
","
","","","","","","1927.0999999977648","<p> You need to select whether the image is:  </p><p>  'Definitely old', 'Maybe old', 'Maybe new', or 'Definitely new.'  </p><div class=""mem-choice-instructions-grid""><div class=""choice-option"" id=""choice-option-1"" ><img src=""images/definitely_old_1.png"" id=""choice-option-img-1"" class=""choice-option-img"" stage=""1""></div><div class=""choice-option"" id=""choice-option-2"" ><img src=""images/maybe_old_1.png"" id=""choice-option-img-2"" class=""choice-option-img"" stage=""1""></div><div class=""choice-option"" id=""choice-option-3"" ><img src=""images/maybe_new_1.png"" id=""choice-option-img-3"" class=""choice-option-img"" stage=""1""></div><div class=""choice-option"" id=""choice-option-4"" > <img src=""images/definitely_new_1.png"" id=""choice-option-img-4"" class=""choice-option-img"" stage=""1""></div></div>","","0","instructions","","","","","","","","",""
"learning-instructions","11","76713","0.0-7.0-0.4","1972","2","""event"",""trial"",""time""
""fullscreenenter"",""1"",""11957""
","
","
","""event"",""trial"",""time""
""fullscreenenter"",""1"",""11957""
","
","","","","","","1689.6000000014901","<p> You should use the 1, 2, 3, and 4 keys to make your responses.  </p><div class=""mem-choice-instructions-grid""><div class=""choice-option"" id=""choice-option-1"" ><img src=""images/definitely_old.png"" id=""choice-option-img-1"" class=""choice-option-img"" stage=""1""></div><div class=""choice-option"" id=""choice-option-2"" ><img src=""images/maybe_old.png"" id=""choice-option-img-2"" class=""choice-option-img"" stage=""1""></div><div class=""choice-option"" id=""choice-option-3"" ><img src=""images/maybe_new.png"" id=""choice-option-img-3"" class=""choice-option-img"" stage=""1""></div><div class=""choice-option"" id=""choice-option-4"" > <img src=""images/definitely_new.png"" id=""choice-option-img-4"" class=""choice-option-img"" stage=""1""></div></div>","","0","instructions","","","","","","","","",""
"learning-instructions","12","84661","0.0-7.0-0.5","1972","2","""event"",""trial"",""time""
""fullscreenenter"",""1"",""11957""
","
","
","""event"",""trial"",""time""
""fullscreenenter"",""1"",""11957""
","
","","","","","","1187.300000000745","<p> You will have 10 seconds to make each response.  </p><p>  Make sure to respond before time runs out! </p>","","0","instructions","","","","","","","","",""
"learning-instructions","13","92603","0.0-7.0-0.6","1972","2","""event"",""trial"",""time""
""fullscreenenter"",""1"",""11957""
","
","
","""event"",""trial"",""time""
""fullscreenenter"",""1"",""11957""
","
","","","","","","362.30000000074506","<p> Today, you will see each image ONCE only.  </p><p>  That means none of the images will repeat. </p>","","0","instructions","","","","","","","","",""
"learning-instructions","14","105868","0.0-7.0-0.7","1972","2","""event"",""trial"",""time""
""fullscreenenter"",""1"",""11957""
","
","
","""event"",""trial"",""time""
""fullscreenenter"",""1"",""11957""
","
","","","","","","604.1000000014901","<p> Before you play the real game, it is time to practice. </p><p>  Just like in the real game, some of the images in the practice will be ones you have seen before. </p><p>  Others will be entirely new. </p>","","0","instructions","","","","","","","","",""
"html-button-response","15","113638","0.0-8.0","1972","2","""event"",""trial"",""time""
""fullscreenenter"",""1"",""11957""
","
","
","""event"",""trial"",""time""
""fullscreenenter"",""1"",""11957""
","
","","","","","","7665.89999999851","<p> Ready to practice? </p><p> Remember, use the 1, 2, 3, and 4 keys to make your responses. </p>","0","","instructions","","","","","","","","",""
"html-keyboard-response","16","114241","0.0-9.0-0.0","1972","2","""event"",""trial"",""time""
""fullscreenenter"",""1"",""11957""
","
","
","""event"",""trial"",""time""
""fullscreenenter"",""1"",""11957""
","
","","","","","","null","<div style=""font-size:60px;"">+</div>","null","","fixation","","","","","","","","",""
"memory-trial","17","118150","0.0-9.0-1.0","1972","2","""event"",""trial"",""time""
""fullscreenenter"",""1"",""11957""
","
","
","""event"",""trial"",""time""
""fullscreenenter"",""1"",""11957""
","
","","","","","","2903.300000000745","images/racket2.png","","","practice","1","definitely_old","","","","","","",""
"html-keyboard-response","18","118652","0.0-9.0-0.1","1972","2","""event"",""trial"",""time""
""fullscreenenter"",""1"",""11957""
","
","
","""event"",""trial"",""time""
""fullscreenenter"",""1"",""11957""
","
","","","","","","null","<div style=""font-size:60px;"">+</div>","null","","fixation","","","","","","","","",""
"memory-trial","19","121244","0.0-9.0-1.1","1972","2","""event"",""trial"",""time""
""fullscreenenter"",""1"",""11957""
","
","
","""event"",""trial"",""time""
""fullscreenenter"",""1"",""11957""
","
","","","","","","1588.7999999970198","images/ball1.png","","","practice","1","definitely_old","","","","","","",""
"html-keyboard-response","20","121746","0.0-9.0-0.2","1972","2","""event"",""trial"",""time""
""fullscreenenter"",""1"",""11957""
","
","
","""event"",""trial"",""time""
""fullscreenenter"",""1"",""11957""
","
","","","","","","null","<div style=""font-size:60px;"">+</div>","null","","fixation","","","","","","","","",""
"memory-trial","21","124434","0.0-9.0-1.2","1972","2","""event"",""trial"",""time""
""fullscreenenter"",""1"",""11957""
","
","
","""event"",""trial"",""time""
""fullscreenenter"",""1"",""11957""
","
","","","","","","1683.5","images/racket4.png","","","practice","1","definitely_old","","","","","","",""
"html-keyboard-response","22","124936","0.0-9.0-0.3","1972","2","""event"",""trial"",""time""
""fullscreenenter"",""1"",""11957""
","
","
","""event"",""trial"",""time""
""fullscreenenter"",""1"",""11957""
","
","","","","","","null","<div style=""font-size:60px;"">+</div>","null","","fixation","","","","","","","","",""
"memory-trial","23","129062","0.0-9.0-1.3","1972","2","""event"",""trial"",""time""
""fullscreenenter"",""1"",""11957""
","
","
","""event"",""trial"",""time""
""fullscreenenter"",""1"",""11957""
","
","","","","","","3120.89999999851","images/ball2.png","","","practice","3","maybe_new","","","","","","",""
"html-keyboard-response","24","129564","0.0-9.0-0.4","1972","2","""event"",""trial"",""time""
""fullscreenenter"",""1"",""11957""
","
","
","""event"",""trial"",""time""
""fullscreenenter"",""1"",""11957""
","
","","","","","","null","<div style=""font-size:60px;"">+</div>","null","","fixation","","","","","","","","",""
"memory-trial","25","132052","0.0-9.0-1.4","1972","2","""event"",""trial"",""time""
""fullscreenenter"",""1"",""11957""
","
","
","""event"",""trial"",""time""
""fullscreenenter"",""1"",""11957""
","
","","","","","","1483.199999999255","images/ball4.png","","","practice","3","maybe_new","","","","","","",""
"html-keyboard-response","26","132554","0.0-9.0-0.5","1972","2","""event"",""trial"",""time""
""fullscreenenter"",""1"",""11957""
","
","
","""event"",""trial"",""time""
""fullscreenenter"",""1"",""11957""
","
","","","","","","null","<div style=""font-size:60px;"">+</div>","null","","fixation","","","","","","","","",""
"memory-trial","27","135587","0.0-9.0-1.5","1972","2","""event"",""trial"",""time""
""fullscreenenter"",""1"",""11957""
","
","
","""event"",""trial"",""time""
""fullscreenenter"",""1"",""11957""
","
","","","","","","2026.3999999985099","images/racket1.png","","","practice","1","definitely_old","","","","","","",""
"html-keyboard-response","28","136088","0.0-9.0-0.6","1972","2","""event"",""trial"",""time""
""fullscreenenter"",""1"",""11957""
","
","
","""event"",""trial"",""time""
""fullscreenenter"",""1"",""11957""
","
","","","","","","null","<div style=""font-size:60px;"">+</div>","null","","fixation","","","","","","","","",""
"memory-trial","29","139472","0.0-9.0-1.6","1972","2","""event"",""trial"",""time""
""fullscreenenter"",""1"",""11957""
","
","
","""event"",""trial"",""time""
""fullscreenenter"",""1"",""11957""
","
","","","","","","2380.5","images/ball3.png","","","practice","1","definitely_old","","","","","","",""
"html-keyboard-response","30","139974","0.0-9.0-0.7","1972","2","""event"",""trial"",""time""
""fullscreenenter"",""1"",""11957""
","
","
","""event"",""trial"",""time""
""fullscreenenter"",""1"",""11957""
","
","","","","","","null","<div style=""font-size:60px;"">+</div>","null","","fixation","","","","","","","","",""
"memory-trial","31","142528","0.0-9.0-1.7","1972","2","""event"",""trial"",""time""
""fullscreenenter"",""1"",""11957""
","
","
","""event"",""trial"",""time""
""fullscreenenter"",""1"",""11957""
","
","","","","","","1549.7999999970198","images/racket3.png","","","practice","2","maybe_old","","","","","","",""
"learning-instructions","32","155020","0.0-10.0-0.0","1972","2","""event"",""trial"",""time""
""fullscreenenter"",""1"",""11957""
","
","
","""event"",""trial"",""time""
""fullscreenenter"",""1"",""11957""
","
","","","","","","4481.10000000149","<p> Great! You have completed the practice. </p><p> Before you start, we're going to ask you a few questions about how the game works.  </p>","","0","instructions","","","","","","","","",""
"preload","33","159047","0.0-11.0","1972","2","""event"",""trial"",""time""
""fullscreenenter"",""1"",""11957""
","
","
","""event"",""trial"",""time""
""fullscreenenter"",""1"",""11957""
","
","true","false","[]","[]","[]","","","","","","","","","","","","","",""
"comp-q","34","167022","0.0-12.0-0.0","1972","2","""event"",""trial"",""time""
""fullscreenenter"",""1"",""11957""
","
","
","""event"",""trial"",""time""
""fullscreenenter"",""1"",""11957""
","
","","","","","","2139.5","<p> <b> True or False? </b> </p><p> In this game, you will only see each image once. </p>","","0","comp_question","","","true","","","","","",""
"comp-q","35","176286","0.0-12.0-1.0","1972","2","""event"",""trial"",""time""
""fullscreenenter"",""1"",""11957""
","
","
","""event"",""trial"",""time""
""fullscreenenter"",""1"",""11957""
","
","","","","","","2921.10000000149","<p> <b> That's right! </b> You will see many different images <i> one time each </i> in this game. </p>","","0","comp_answer","","","","","","","","",""
"comp-q","36","184495","0.0-12.0-0.1","1972","2","""event"",""trial"",""time""
""fullscreenenter"",""1"",""11957""
","
","
","""event"",""trial"",""time""
""fullscreenenter"",""1"",""11957""
","
","","","","","","2413.599999997765","<p> <b> True or False? </b> </p><p> You should use the mouse and click to make your response. </p>","","1","comp_question","","","true","","","","","",""
"comp-q","37","195932","0.0-12.0-1.1","1972","2","""event"",""trial"",""time""
""fullscreenenter"",""1"",""11957""
","
","
","""event"",""trial"",""time""
""fullscreenenter"",""1"",""11957""
","
","","","","","","4098.199999999255","<p><b> That's right! </b> You should use the '1', '2', '3', and '4' keys to make your response. </p>","","0","comp_answer","","","","","","","","",""
"comp-q","38","202466","0.0-12.0-0.2","1972","2","""event"",""trial"",""time""
""fullscreenenter"",""1"",""11957""
","
","
","""event"",""trial"",""time""
""fullscreenenter"",""1"",""11957""
","
","","","","","","544.6999999992549","<p> <b> True or False? </b> </p><p> You will have as much time as you want to make each choice. </p>","","1","comp_question","","","true","","","","","",""
"comp-q","39","209824","0.0-12.0-1.2","1972","2","""event"",""trial"",""time""
""fullscreenenter"",""1"",""11957""
","
","
","""event"",""trial"",""time""
""fullscreenenter"",""1"",""11957""
","
","","","","","","1969","<p> <b> That's right! </b> You will only have 10 seconds to make each choice. </p>","","0","comp_answer","","","","","","","","",""
"learning-instructions","40","232645","0.0-13.0","1972","2","""event"",""trial"",""time""
""fullscreenenter"",""1"",""11957""
","
","
","""event"",""trial"",""time""
""fullscreenenter"",""1"",""11957""
","
","","","","","","14154.60000000149","<p> Great! You are now ready to begin the game. </p><p> Remember, use the 1, 2, 3, and 4 keys to make your responses. </p>","","0","instructions","","","","","","","","",""
"preload","41","246167","0.0-14.0","1972","2","""event"",""trial"",""time""
""fullscreenenter"",""1"",""11957""
","
","
","""event"",""trial"",""time""
""fullscreenenter"",""1"",""11957""
","
","true","false","[]","[]","[]","","","","","","","","","","","","","",""
"html-keyboard-response","42","246669","0.0-15.0-0.0","1972","2","""event"",""trial"",""time""
""fullscreenenter"",""1"",""11957""
","
","
","""event"",""trial"",""time""
""fullscreenenter"",""1"",""11957""
","
","","","","","","null","<div style=""font-size:60px;"">+</div>","null","","fixation","","","","","","","","",""
"memory-trial","43","250621","0.0-15.0-1.0","1972","2","""event"",""trial"",""time""
""fullscreenenter"",""1"",""11957""
","
","
","""event"",""trial"",""time""
""fullscreenenter"",""1"",""11957""
","
","","","","","","2946.300000000745","images/plane2.png","","","memory_trial","1","definitely_old","","","","","","",""
"html-keyboard-response","44","251122","0.0-15.0-0.1","1972","2","""event"",""trial"",""time""
""fullscreenenter"",""1"",""11957""
","
","
","""event"",""trial"",""time""
""fullscreenenter"",""1"",""11957""
","
","","","","","","null","<div style=""font-size:60px;"">+</div>","null","","fixation","","","","","","","","",""
"memory-trial","45","254183","0.0-15.0-1.1","1972","2","""event"",""trial"",""time""
""fullscreenenter"",""1"",""11957""
","
","
","""event"",""trial"",""time""
""fullscreenenter"",""1"",""11957""
","
","","","","","","2055.400000002235","images/sheep5.png","","","memory_trial","1","definitely_old","","","","","","",""
"html-keyboard-response","46","254685","0.0-15.0-0.2","1972","2","""event"",""trial"",""time""
""fullscreenenter"",""1"",""11957""
","
","
","""event"",""trial"",""time""
""fullscreenenter"",""1"",""11957""
","
","","","","","","null","<div style=""font-size:60px;"">+</div>","null","","fixation","","","","","","","","",""
"memory-trial","47","257293","0.0-15.0-1.2","1972","2","""event"",""trial"",""time""
""fullscreenenter"",""1"",""11957""
","
","
","""event"",""trial"",""time""
""fullscreenenter"",""1"",""11957""
","
","","","","","","1603.300000000745","images/dog1.png","","","memory_trial","1","definitely_old","","","","","","",""
"html-keyboard-response","48","257795","0.0-15.0-0.3","1972","2","""event"",""trial"",""time""
""fullscreenenter"",""1"",""11957""
","
","
","""event"",""trial"",""time""
""fullscreenenter"",""1"",""11957""
","
","","","","","","null","<div style=""font-size:60px;"">+</div>","null","","fixation","","","","","","","","",""
"memory-trial","49","260385","0.0-15.0-1.3","1972","2","""event"",""trial"",""time""
""fullscreenenter"",""1"",""11957""
","
","
","""event"",""trial"",""time""
""fullscreenenter"",""1"",""11957""
","
","","","","","","1587.1000000014901","images/feline4.png","","","memory_trial","1","definitely_old","","","","","","",""
"html-keyboard-response","50","260887","0.0-15.0-0.4","1972","2","""event"",""trial"",""time""
""fullscreenenter"",""1"",""11957""
","
","
","""event"",""trial"",""time""
""fullscreenenter"",""1"",""11957""
","
","","","","","","null","<div style=""font-size:60px;"">+</div>","null","","fixation","","","","","","","","",""
"memory-trial","51","264638","0.0-15.0-1.4","1972","2","""event"",""trial"",""time""
""fullscreenenter"",""1"",""11957""
","
","
","""event"",""trial"",""time""
""fullscreenenter"",""1"",""11957""
","
","","","","","","2747","images/goat4.png","","","memory_trial","3","maybe_new","","","","","","",""
"html-keyboard-response","52","265140","0.0-15.0-0.5","1972","2","""event"",""trial"",""time""
""fullscreenenter"",""1"",""11957""
","
","
","""event"",""trial"",""time""
""fullscreenenter"",""1"",""11957""
","
","","","","","","null","<div style=""font-size:60px;"">+</div>","null","","fixation","","","","","","","","",""
"memory-trial","53","268152","0.0-15.0-1.5","1972","2","""event"",""trial"",""time""
""fullscreenenter"",""1"",""11957""
","
","
","""event"",""trial"",""time""
""fullscreenenter"",""1"",""11957""
","
","","","","","","2007.0999999977648","images/plane1.png","","","memory_trial","2","maybe_old","","","","","","",""
"html-keyboard-response","54","268653","0.0-15.0-0.6","1972","2","""event"",""trial"",""time""
""fullscreenenter"",""1"",""11957""
""blur"",""55"",""270766""
""fullscreenexit"",""55"",""270766""
""focus"",""55"",""274555""
","""event"",""trial"",""time""
""blur"",""55"",""270766""
","""event"",""trial"",""time""
""focus"",""55"",""274555""
","""event"",""trial"",""time""
""fullscreenenter"",""1"",""11957""
","""event"",""trial"",""time""
""fullscreenexit"",""55"",""270766""
","","","","","","null","<div style=""font-size:60px;"">+</div>","null","","fixation","","","","","","","","",""
"memory-trial","55","278657","0.0-15.0-1.6","1972","2","""event"",""trial"",""time""
""fullscreenenter"",""1"",""11957""
""blur"",""55"",""270766""
""fullscreenexit"",""55"",""270766""
""focus"",""55"",""274555""
","""event"",""trial"",""time""
""blur"",""55"",""270766""
","""event"",""trial"",""time""
""focus"",""55"",""274555""
","""event"",""trial"",""time""
""fullscreenenter"",""1"",""11957""
","""event"",""trial"",""time""
""fullscreenexit"",""55"",""270766""
","","","","","","9583.199999999255","images/truck4.png","","","memory_trial","1","definitely_old","","","","","","",""
"html-keyboard-response","56","279160","0.0-15.0-0.7","1972","2","""event"",""trial"",""time""
""fullscreenenter"",""1"",""11957""
""blur"",""55"",""270766""
""fullscreenexit"",""55"",""270766""
""focus"",""55"",""274555""
","""event"",""trial"",""time""
""blur"",""55"",""270766""
","""event"",""trial"",""time""
""focus"",""55"",""274555""
","""event"",""trial"",""time""
""fullscreenenter"",""1"",""11957""
","""event"",""trial"",""time""
""fullscreenexit"",""55"",""270766""
","","","","","","null","<div style=""font-size:60px;"">+</div>","null","","fixation","","","","","","","","",""
"memory-trial","57","281859","0.0-15.0-1.7","1972","2","""event"",""trial"",""time""
""fullscreenenter"",""1"",""11957""
""blur"",""55"",""270766""
""fullscreenexit"",""55"",""270766""
""focus"",""55"",""274555""
","""event"",""trial"",""time""
""blur"",""55"",""270766""
","""event"",""trial"",""time""
""focus"",""55"",""274555""
","""event"",""trial"",""time""
""fullscreenenter"",""1"",""11957""
","""event"",""trial"",""time""
""fullscreenexit"",""55"",""270766""
","","","","","","1694.3999999985099","images/cow2.png","","","memory_trial","2","maybe_old","","","","","","",""
"html-keyboard-response","58","282361","0.0-15.0-0.8","1972","2","""event"",""trial"",""time""
""fullscreenenter"",""1"",""11957""
""blur"",""55"",""270766""
""fullscreenexit"",""55"",""270766""
""focus"",""55"",""274555""
","""event"",""trial"",""time""
""blur"",""55"",""270766""
","""event"",""trial"",""time""
""focus"",""55"",""274555""
","""event"",""trial"",""time""
""fullscreenenter"",""1"",""11957""
","""event"",""trial"",""time""
""fullscreenexit"",""55"",""270766""
","","","","","","null","<div style=""font-size:60px;"">+</div>","null","","fixation","","","","","","","","",""
"memory-trial","59","285487","0.0-15.0-1.8","1972","2","""event"",""trial"",""time""
""fullscreenenter"",""1"",""11957""
""blur"",""55"",""270766""
""fullscreenexit"",""55"",""270766""
""focus"",""55"",""274555""
","""event"",""trial"",""time""
""blur"",""55"",""270766""
","""event"",""trial"",""time""
""focus"",""55"",""274555""
","""event"",""trial"",""time""
""fullscreenenter"",""1"",""11957""
","""event"",""trial"",""time""
""fullscreenexit"",""55"",""270766""
","","","","","","2122.89999999851","images/truck1.png","","","memory_trial","1","definitely_old","","","","","","",""
"html-keyboard-response","60","285989","0.0-15.0-0.9","1972","2","""event"",""trial"",""time""
""fullscreenenter"",""1"",""11957""
""blur"",""55"",""270766""
""fullscreenexit"",""55"",""270766""
""focus"",""55"",""274555""
","""event"",""trial"",""time""
""blur"",""55"",""270766""
","""event"",""trial"",""time""
""focus"",""55"",""274555""
","""event"",""trial"",""time""
""fullscreenenter"",""1"",""11957""
","""event"",""trial"",""time""
""fullscreenexit"",""55"",""270766""
","","","","","","null","<div style=""font-size:60px;"">+</div>","null","","fixation","","","","","","","","",""
"memory-trial","61","289013","0.0-15.0-1.9","1972","2","""event"",""trial"",""time""
""fullscreenenter"",""1"",""11957""
""blur"",""55"",""270766""
""fullscreenexit"",""55"",""270766""
""focus"",""55"",""274555""
","""event"",""trial"",""time""
""blur"",""55"",""270766""
","""event"",""trial"",""time""
""focus"",""55"",""274555""
","""event"",""trial"",""time""
""fullscreenenter"",""1"",""11957""
","""event"",""trial"",""time""
""fullscreenexit"",""55"",""270766""
","","","","","","2018","images/dog3.png","","","memory_trial","1","definitely_old","","","","","","",""
"html-keyboard-response","62","289516","0.0-15.0-0.10","1972","2","""event"",""trial"",""time""
""fullscreenenter"",""1"",""11957""
""blur"",""55"",""270766""
""fullscreenexit"",""55"",""270766""
""focus"",""55"",""274555""
","""event"",""trial"",""time""
""blur"",""55"",""270766""
","""event"",""trial"",""time""
""focus"",""55"",""274555""
","""event"",""trial"",""time""
""fullscreenenter"",""1"",""11957""
","""event"",""trial"",""time""
""fullscreenexit"",""55"",""270766""
","","","","","","null","<div style=""font-size:60px;"">+</div>","null","","fixation","","","","","","","","",""
"memory-trial","63","293399","0.0-15.0-1.10","1972","2","""event"",""trial"",""time""
""fullscreenenter"",""1"",""11957""
""blur"",""55"",""270766""
""fullscreenexit"",""55"",""270766""
""focus"",""55"",""274555""
","""event"",""trial"",""time""
""blur"",""55"",""270766""
","""event"",""trial"",""time""
""focus"",""55"",""274555""
","""event"",""trial"",""time""
""fullscreenenter"",""1"",""11957""
","""event"",""trial"",""time""
""fullscreenexit"",""55"",""270766""
","","","","","","2877.900000002235","images/chair1.png","","","memory_trial","1","definitely_old","","","","","","",""
"html-keyboard-response","64","293904","0.0-15.0-0.11","1972","2","""event"",""trial"",""time""
""fullscreenenter"",""1"",""11957""
""blur"",""55"",""270766""
""fullscreenexit"",""55"",""270766""
""focus"",""55"",""274555""
","""event"",""trial"",""time""
""blur"",""55"",""270766""
","""event"",""trial"",""time""
""focus"",""55"",""274555""
","""event"",""trial"",""time""
""fullscreenenter"",""1"",""11957""
","""event"",""trial"",""time""
""fullscreenexit"",""55"",""270766""
","","","","","","null","<div style=""font-size:60px;"">+</div>","null","","fixation","","","","","","","","",""
"memory-trial","65","296901","0.0-15.0-1.11","1972","2","""event"",""trial"",""time""
""fullscreenenter"",""1"",""11957""
""blur"",""55"",""270766""
""fullscreenexit"",""55"",""270766""
""focus"",""55"",""274555""
","""event"",""trial"",""time""
""blur"",""55"",""270766""
","""event"",""trial"",""time""
""focus"",""55"",""274555""
","""event"",""trial"",""time""
""fullscreenenter"",""1"",""11957""
","""event"",""trial"",""time""
""fullscreenexit"",""55"",""270766""
","","","","","","1992.6000000014901","images/sofa1.png","","","memory_trial","3","maybe_new","","","","","","",""
"html-keyboard-response","66","297403","0.0-15.0-0.12","1972","2","""event"",""trial"",""time""
""fullscreenenter"",""1"",""11957""
""blur"",""55"",""270766""
""fullscreenexit"",""55"",""270766""
""focus"",""55"",""274555""
","""event"",""trial"",""time""
""blur"",""55"",""270766""
","""event"",""trial"",""time""
""focus"",""55"",""274555""
","""event"",""trial"",""time""
""fullscreenenter"",""1"",""11957""
","""event"",""trial"",""time""
""fullscreenexit"",""55"",""270766""
","","","","","","null","<div style=""font-size:60px;"">+</div>","null","","fixation","","","","","","","","",""
"memory-trial","67","299920","0.0-15.0-1.12","1972","2","""event"",""trial"",""time""
""fullscreenenter"",""1"",""11957""
""blur"",""55"",""270766""
""fullscreenexit"",""55"",""270766""
""focus"",""55"",""274555""
","""event"",""trial"",""time""
""blur"",""55"",""270766""
","""event"",""trial"",""time""
""focus"",""55"",""274555""
","""event"",""trial"",""time""
""fullscreenenter"",""1"",""11957""
","""event"",""trial"",""time""
""fullscreenexit"",""55"",""270766""
","","","","","","1512.300000000745","images/sheep3.png","","","memory_trial","4","definitely_new","","","","","","",""
"html-keyboard-response","68","300422","0.0-15.0-0.13","1972","2","""event"",""trial"",""time""
""fullscreenenter"",""1"",""11957""
""blur"",""55"",""270766""
""fullscreenexit"",""55"",""270766""
""focus"",""55"",""274555""
","""event"",""trial"",""time""
""blur"",""55"",""270766""
","""event"",""trial"",""time""
""focus"",""55"",""274555""
","""event"",""trial"",""time""
""fullscreenenter"",""1"",""11957""
","""event"",""trial"",""time""
""fullscreenexit"",""55"",""270766""
","","","","","","null","<div style=""font-size:60px;"">+</div>","null","","fixation","","","","","","","","",""
"memory-trial","69","303181","0.0-15.0-1.13","1972","2","""event"",""trial"",""time""
""fullscreenenter"",""1"",""11957""
""blur"",""55"",""270766""
""fullscreenexit"",""55"",""270766""
""focus"",""55"",""274555""
","""event"",""trial"",""time""
""blur"",""55"",""270766""
","""event"",""trial"",""time""
""focus"",""55"",""274555""
","""event"",""trial"",""time""
""fullscreenenter"",""1"",""11957""
","""event"",""trial"",""time""
""fullscreenexit"",""55"",""270766""
","","","","","","1755.300000000745","images/cactus1.png","","","memory_trial","3","maybe_new","","","","","","",""
"html-keyboard-response","70","303683","0.0-15.0-0.14","1972","2","""event"",""trial"",""time""
""fullscreenenter"",""1"",""11957""
""blur"",""55"",""270766""
""fullscreenexit"",""55"",""270766""
""focus"",""55"",""274555""
","""event"",""trial"",""time""
""blur"",""55"",""270766""
","""event"",""trial"",""time""
""focus"",""55"",""274555""
","""event"",""trial"",""time""
""fullscreenenter"",""1"",""11957""
","""event"",""trial"",""time""
""fullscreenexit"",""55"",""270766""
","","","","","","null","<div style=""font-size:60px;"">+</div>","null","","fixation","","","","","","","","",""
"memory-trial","71","306097","0.0-15.0-1.14","1972","2","""event"",""trial"",""time""
""fullscreenenter"",""1"",""11957""
""blur"",""55"",""270766""
""fullscreenexit"",""55"",""270766""
""focus"",""55"",""274555""
","""event"",""trial"",""time""
""blur"",""55"",""270766""
","""event"",""trial"",""time""
""focus"",""55"",""274555""
","""event"",""trial"",""time""
""fullscreenenter"",""1"",""11957""
","""event"",""trial"",""time""
""fullscreenexit"",""55"",""270766""
","","","","","","1409.199999999255","images/sheep1.png","","","memory_trial","1","definitely_old","","","","","","",""
"html-keyboard-response","72","306599","0.0-15.0-0.15","1972","2","""event"",""trial"",""time""
""fullscreenenter"",""1"",""11957""
""blur"",""55"",""270766""
""fullscreenexit"",""55"",""270766""
""focus"",""55"",""274555""
","""event"",""trial"",""time""
""blur"",""55"",""270766""
","""event"",""trial"",""time""
""focus"",""55"",""274555""
","""event"",""trial"",""time""
""fullscreenenter"",""1"",""11957""
","""event"",""trial"",""time""
""fullscreenexit"",""55"",""270766""
","","","","","","null","<div style=""font-size:60px;"">+</div>","null","","fixation","","","","","","","","",""
"memory-trial","73","310428","0.0-15.0-1.15","1972","2","""event"",""trial"",""time""
""fullscreenenter"",""1"",""11957""
""blur"",""55"",""270766""
""fullscreenexit"",""55"",""270766""
""focus"",""55"",""274555""
","""event"",""trial"",""time""
""blur"",""55"",""270766""
","""event"",""trial"",""time""
""focus"",""55"",""274555""
","""event"",""trial"",""time""
""fullscreenenter"",""1"",""11957""
","""event"",""trial"",""time""
""fullscreenexit"",""55"",""270766""
","","","","","","2825.699999999255","images/rabbit3.png","","","memory_trial","2","maybe_old","","","","","","",""
"html-keyboard-response","74","310931","0.0-15.0-0.16","1972","2","""event"",""trial"",""time""
""fullscreenenter"",""1"",""11957""
""blur"",""55"",""270766""
""fullscreenexit"",""55"",""270766""
""focus"",""55"",""274555""
","""event"",""trial"",""time""
""blur"",""55"",""270766""
","""event"",""trial"",""time""
""focus"",""55"",""274555""
","""event"",""trial"",""time""
""fullscreenenter"",""1"",""11957""
","""event"",""trial"",""time""
""fullscreenexit"",""55"",""270766""
","","","","","","null","<div style=""font-size:60px;"">+</div>","null","","fixation","","","","","","","","",""
"memory-trial","75","313580","0.0-15.0-1.16","1972","2","""event"",""trial"",""time""
""fullscreenenter"",""1"",""11957""
""blur"",""55"",""270766""
""fullscreenexit"",""55"",""270766""
""focus"",""55"",""274555""
","""event"",""trial"",""time""
""blur"",""55"",""270766""
","""event"",""trial"",""time""
""focus"",""55"",""274555""
","""event"",""trial"",""time""
""fullscreenenter"",""1"",""11957""
","""event"",""trial"",""time""
""fullscreenexit"",""55"",""270766""
","","","","","","1642.800000000745","images/sofa2.png","","","memory_trial","3","maybe_new","","","","","","",""
"html-keyboard-response","76","314082","0.0-15.0-0.17","1972","2","""event"",""trial"",""time""
""fullscreenenter"",""1"",""11957""
""blur"",""55"",""270766""
""fullscreenexit"",""55"",""270766""
""focus"",""55"",""274555""
","""event"",""trial"",""time""
""blur"",""55"",""270766""
","""event"",""trial"",""time""
""focus"",""55"",""274555""
","""event"",""trial"",""time""
""fullscreenenter"",""1"",""11957""
","""event"",""trial"",""time""
""fullscreenexit"",""55"",""270766""
","","","","","","null","<div style=""font-size:60px;"">+</div>","null","","fixation","","","","","","","","",""
"memory-trial","77","316281","0.0-15.0-1.17","1972","2","""event"",""trial"",""time""
""fullscreenenter"",""1"",""11957""
""blur"",""55"",""270766""
""fullscreenexit"",""55"",""270766""
""focus"",""55"",""274555""
","""event"",""trial"",""time""
""blur"",""55"",""270766""
","""event"",""trial"",""time""
""focus"",""55"",""274555""
","""event"",""trial"",""time""
""fullscreenenter"",""1"",""11957""
","""event"",""trial"",""time""
""fullscreenexit"",""55"",""270766""
","","","","","","1195.699999999255","images/cactus3.png","","","memory_trial","3","maybe_new","","","","","","",""
"html-keyboard-response","78","316784","0.0-15.0-0.18","1972","2","""event"",""trial"",""time""
""fullscreenenter"",""1"",""11957""
""blur"",""55"",""270766""
""fullscreenexit"",""55"",""270766""
""focus"",""55"",""274555""
","""event"",""trial"",""time""
""blur"",""55"",""270766""
","""event"",""trial"",""time""
""focus"",""55"",""274555""
","""event"",""trial"",""time""
""fullscreenenter"",""1"",""11957""
","""event"",""trial"",""time""
""fullscreenexit"",""55"",""270766""
","","","","","","null","<div style=""font-size:60px;"">+</div>","null","","fixation","","","","","","","","",""
"memory-trial","79","319896","0.0-15.0-1.18","1972","2","""event"",""trial"",""time""
""fullscreenenter"",""1"",""11957""
""blur"",""55"",""270766""
""fullscreenexit"",""55"",""270766""
""focus"",""55"",""274555""
","""event"",""trial"",""time""
""blur"",""55"",""270766""
","""event"",""trial"",""time""
""focus"",""55"",""274555""
","""event"",""trial"",""time""
""fullscreenenter"",""1"",""11957""
","""event"",""trial"",""time""
""fullscreenexit"",""55"",""270766""
","","","","","","2108.5","images/rodent4.png","","","memory_trial","3","maybe_new","","","","","","",""
"html-keyboard-response","80","320398","0.0-15.0-0.19","1972","2","""event"",""trial"",""time""
""fullscreenenter"",""1"",""11957""
""blur"",""55"",""270766""
""fullscreenexit"",""55"",""270766""
""focus"",""55"",""274555""
","""event"",""trial"",""time""
""blur"",""55"",""270766""
","""event"",""trial"",""time""
""focus"",""55"",""274555""
","""event"",""trial"",""time""
""fullscreenenter"",""1"",""11957""
","""event"",""trial"",""time""
""fullscreenexit"",""55"",""270766""
","","","","","","null","<div style=""font-size:60px;"">+</div>","null","","fixation","","","","","","","","",""
"memory-trial","81","323012","0.0-15.0-1.19","1972","2","""event"",""trial"",""time""
""fullscreenenter"",""1"",""11957""
""blur"",""55"",""270766""
""fullscreenexit"",""55"",""270766""
""focus"",""55"",""274555""
","""event"",""trial"",""time""
""blur"",""55"",""270766""
","""event"",""trial"",""time""
""focus"",""55"",""274555""
","""event"",""trial"",""time""
""fullscreenenter"",""1"",""11957""
","""event"",""trial"",""time""
""fullscreenexit"",""55"",""270766""
","","","","","","1610.8999999985099","images/feline1.png","","","memory_trial","4","definitely_new","","","","","","",""
"html-keyboard-response","82","323514","0.0-15.0-0.20","1972","2","""event"",""trial"",""time""
""fullscreenenter"",""1"",""11957""
""blur"",""55"",""270766""
""fullscreenexit"",""55"",""270766""
""focus"",""55"",""274555""
","""event"",""trial"",""time""
""blur"",""55"",""270766""
","""event"",""trial"",""time""
""focus"",""55"",""274555""
","""event"",""trial"",""time""
""fullscreenenter"",""1"",""11957""
","""event"",""trial"",""time""
""fullscreenexit"",""55"",""270766""
","","","","","","null","<div style=""font-size:60px;"">+</div>","null","","fixation","","","","","","","","",""
"memory-trial","83","326536","0.0-15.0-1.20","1972","2","""event"",""trial"",""time""
""fullscreenenter"",""1"",""11957""
""blur"",""55"",""270766""
""fullscreenexit"",""55"",""270766""
""focus"",""55"",""274555""
","""event"",""trial"",""time""
""blur"",""55"",""270766""
","""event"",""trial"",""time""
""focus"",""55"",""274555""
","""event"",""trial"",""time""
""fullscreenenter"",""1"",""11957""
","""event"",""trial"",""time""
""fullscreenexit"",""55"",""270766""
","","","","","","2016.3999999985099","images/horse4.png","","","memory_trial","4","definitely_new","","","","","","",""
"html-keyboard-response","84","327037","0.0-15.0-0.21","1972","2","""event"",""trial"",""time""
""fullscreenenter"",""1"",""11957""
""blur"",""55"",""270766""
""fullscreenexit"",""55"",""270766""
""focus"",""55"",""274555""
","""event"",""trial"",""time""
""blur"",""55"",""270766""
","""event"",""trial"",""time""
""focus"",""55"",""274555""
","""event"",""trial"",""time""
""fullscreenenter"",""1"",""11957""
","""event"",""trial"",""time""
""fullscreenexit"",""55"",""270766""
","","","","","","null","<div style=""font-size:60px;"">+</div>","null","","fixation","","","","","","","","",""
"memory-trial","85","329653","0.0-15.0-1.21","1972","2","""event"",""trial"",""time""
""fullscreenenter"",""1"",""11957""
""blur"",""55"",""270766""
""fullscreenexit"",""55"",""270766""
""focus"",""55"",""274555""
","""event"",""trial"",""time""
""blur"",""55"",""270766""
","""event"",""trial"",""time""
""focus"",""55"",""274555""
","""event"",""trial"",""time""
""fullscreenenter"",""1"",""11957""
","""event"",""trial"",""time""
""fullscreenexit"",""55"",""270766""
","","","","","","1611.0999999977648","images/truck5.png","","","memory_trial","1","definitely_old","","","","","","",""
"html-keyboard-response","86","330155","0.0-15.0-0.22","1972","2","""event"",""trial"",""time""
""fullscreenenter"",""1"",""11957""
""blur"",""55"",""270766""
""fullscreenexit"",""55"",""270766""
""focus"",""55"",""274555""
","""event"",""trial"",""time""
""blur"",""55"",""270766""
","""event"",""trial"",""time""
""focus"",""55"",""274555""
","""event"",""trial"",""time""
""fullscreenenter"",""1"",""11957""
","""event"",""trial"",""time""
""fullscreenexit"",""55"",""270766""
","","","","","","null","<div style=""font-size:60px;"">+</div>","null","","fixation","","","","","","","","",""
"memory-trial","87","335046","0.0-15.0-1.22","1972","2","""event"",""trial"",""time""
""fullscreenenter"",""1"",""11957""
""blur"",""55"",""270766""
""fullscreenexit"",""55"",""270766""
""focus"",""55"",""274555""
","""event"",""trial"",""time""
""blur"",""55"",""270766""
","""event"",""trial"",""time""
""focus"",""55"",""274555""
","""event"",""trial"",""time""
""fullscreenenter"",""1"",""11957""
","""event"",""trial"",""time""
""fullscreenexit"",""55"",""270766""
","","","","","","3888.5","images/rodent5.png","","","memory_trial","4","definitely_new","","","","","","",""
"html-keyboard-response","88","335548","0.0-15.0-0.23","1972","2","""event"",""trial"",""time""
""fullscreenenter"",""1"",""11957""
""blur"",""55"",""270766""
""fullscreenexit"",""55"",""270766""
""focus"",""55"",""274555""
","""event"",""trial"",""time""
""blur"",""55"",""270766""
","""event"",""trial"",""time""
""focus"",""55"",""274555""
","""event"",""trial"",""time""
""fullscreenenter"",""1"",""11957""
","""event"",""trial"",""time""
""fullscreenexit"",""55"",""270766""
","","","","","","null","<div style=""font-size:60px;"">+</div>","null","","fixation","","","","","","","","",""
"memory-trial","89","338738","0.0-15.0-1.23","1972","2","""event"",""trial"",""time""
""fullscreenenter"",""1"",""11957""
""blur"",""55"",""270766""
""fullscreenexit"",""55"",""270766""
""focus"",""55"",""274555""
","""event"",""trial"",""time""
""blur"",""55"",""270766""
","""event"",""trial"",""time""
""focus"",""55"",""274555""
","""event"",""trial"",""time""
""fullscreenenter"",""1"",""11957""
","""event"",""trial"",""time""
""fullscreenexit"",""55"",""270766""
","","","","","","2186.5","images/boat5.png","","","memory_trial","1","definitely_old","","","","","","",""
"html-keyboard-response","90","339240","0.0-15.0-0.24","1972","2","""event"",""trial"",""time""
""fullscreenenter"",""1"",""11957""
""blur"",""55"",""270766""
""fullscreenexit"",""55"",""270766""
""focus"",""55"",""274555""
","""event"",""trial"",""time""
""blur"",""55"",""270766""
","""event"",""trial"",""time""
""focus"",""55"",""274555""
","""event"",""trial"",""time""
""fullscreenenter"",""1"",""11957""
","""event"",""trial"",""time""
""fullscreenexit"",""55"",""270766""
","","","","","","null","<div style=""font-size:60px;"">+</div>","null","","fixation","","","","","","","","",""
"memory-trial","91","342095","0.0-15.0-1.24","1972","2","""event"",""trial"",""time""
""fullscreenenter"",""1"",""11957""
""blur"",""55"",""270766""
""fullscreenexit"",""55"",""270766""
""focus"",""55"",""274555""
","""event"",""trial"",""time""
""blur"",""55"",""270766""
","""event"",""trial"",""time""
""focus"",""55"",""274555""
","""event"",""trial"",""time""
""fullscreenenter"",""1"",""11957""
","""event"",""trial"",""time""
""fullscreenexit"",""55"",""270766""
","","","","","","1851.5","images/cow5.png","","","memory_trial","3","maybe_new","","","","","","",""
"html-keyboard-response","92","342597","0.0-15.0-0.25","1972","2","""event"",""trial"",""time""
""fullscreenenter"",""1"",""11957""
""blur"",""55"",""270766""
""fullscreenexit"",""55"",""270766""
""focus"",""55"",""274555""
","""event"",""trial"",""time""
""blur"",""55"",""270766""
","""event"",""trial"",""time""
""focus"",""55"",""274555""
","""event"",""trial"",""time""
""fullscreenenter"",""1"",""11957""
","""event"",""trial"",""time""
""fullscreenexit"",""55"",""270766""
","","","","","","null","<div style=""font-size:60px;"">+</div>","null","","fixation","","","","","","","","",""
"memory-trial","93","345472","0.0-15.0-1.25","1972","2","""event"",""trial"",""time""
""fullscreenenter"",""1"",""11957""
""blur"",""55"",""270766""
""fullscreenexit"",""55"",""270766""
""focus"",""55"",""274555""
","""event"",""trial"",""time""
""blur"",""55"",""270766""
","""event"",""trial"",""time""
""focus"",""55"",""274555""
","""event"",""trial"",""time""
""fullscreenenter"",""1"",""11957""
","""event"",""trial"",""time""
""fullscreenexit"",""55"",""270766""
","","","","","","1871.800000000745","images/truck2.png","","","memory_trial","4","definitely_new","","","","","","",""
"html-keyboard-response","94","345974","0.0-15.0-0.26","1972","2","""event"",""trial"",""time""
""fullscreenenter"",""1"",""11957""
""blur"",""55"",""270766""
""fullscreenexit"",""55"",""270766""
""focus"",""55"",""274555""
","""event"",""trial"",""time""
""blur"",""55"",""270766""
","""event"",""trial"",""time""
""focus"",""55"",""274555""
","""event"",""trial"",""time""
""fullscreenenter"",""1"",""11957""
","""event"",""trial"",""time""
""fullscreenexit"",""55"",""270766""
","","","","","","null","<div style=""font-size:60px;"">+</div>","null","","fixation","","","","","","","","",""
"memory-trial","95","350305","0.0-15.0-1.26","1972","2","""event"",""trial"",""time""
""fullscreenenter"",""1"",""11957""
""blur"",""55"",""270766""
""fullscreenexit"",""55"",""270766""
""focus"",""55"",""274555""
","""event"",""trial"",""time""
""blur"",""55"",""270766""
","""event"",""trial"",""time""
""focus"",""55"",""274555""
","""event"",""trial"",""time""
""fullscreenenter"",""1"",""11957""
","""event"",""trial"",""time""
""fullscreenexit"",""55"",""270766""
","","","","","","3326.300000000745","images/cow3.png","","","memory_trial","2","maybe_old","","","","","","",""
"html-keyboard-response","96","350806","0.0-15.0-0.27","1972","2","""event"",""trial"",""time""
""fullscreenenter"",""1"",""11957""
""blur"",""55"",""270766""
""fullscreenexit"",""55"",""270766""
""focus"",""55"",""274555""
","""event"",""trial"",""time""
""blur"",""55"",""270766""
","""event"",""trial"",""time""
""focus"",""55"",""274555""
","""event"",""trial"",""time""
""fullscreenenter"",""1"",""11957""
","""event"",""trial"",""time""
""fullscreenexit"",""55"",""270766""
","","","","","","null","<div style=""font-size:60px;"">+</div>","null","","fixation","","","","","","","","",""
"memory-trial","97","353869","0.0-15.0-1.27","1972","2","""event"",""trial"",""time""
""fullscreenenter"",""1"",""11957""
""blur"",""55"",""270766""
""fullscreenexit"",""55"",""270766""
""focus"",""55"",""274555""
","""event"",""trial"",""time""
""blur"",""55"",""270766""
","""event"",""trial"",""time""
""focus"",""55"",""274555""
","""event"",""trial"",""time""
""fullscreenenter"",""1"",""11957""
","""event"",""trial"",""time""
""fullscreenexit"",""55"",""270766""
","","","","","","2057.900000002235","images/tree2.png","","","memory_trial","4","definitely_new","","","","","","",""
"html-keyboard-response","98","354371","0.0-15.0-0.28","1972","2","""event"",""trial"",""time""
""fullscreenenter"",""1"",""11957""
""blur"",""55"",""270766""
""fullscreenexit"",""55"",""270766""
""focus"",""55"",""274555""
","""event"",""trial"",""time""
""blur"",""55"",""270766""
","""event"",""trial"",""time""
""focus"",""55"",""274555""
","""event"",""trial"",""time""
""fullscreenenter"",""1"",""11957""
","""event"",""trial"",""time""
""fullscreenexit"",""55"",""270766""
","","","","","","null","<div style=""font-size:60px;"">+</div>","null","","fixation","","","","","","","","",""
"memory-trial","99","359350","0.0-15.0-1.28","1972","2","""event"",""trial"",""time""
""fullscreenenter"",""1"",""11957""
""blur"",""55"",""270766""
""fullscreenexit"",""55"",""270766""
""focus"",""55"",""274555""
","""event"",""trial"",""time""
""blur"",""55"",""270766""
","""event"",""trial"",""time""
""focus"",""55"",""274555""
","""event"",""trial"",""time""
""fullscreenenter"",""1"",""11957""
","""event"",""trial"",""time""
""fullscreenexit"",""55"",""270766""
","","","","","","3976.5","images/banana5.png","","","memory_trial","2","maybe_old","","","","","","",""
"html-keyboard-response","100","359852","0.0-15.0-0.29","1972","2","""event"",""trial"",""time""
""fullscreenenter"",""1"",""11957""
""blur"",""55"",""270766""
""fullscreenexit"",""55"",""270766""
""focus"",""55"",""274555""
","""event"",""trial"",""time""
""blur"",""55"",""270766""
","""event"",""trial"",""time""
""focus"",""55"",""274555""
","""event"",""trial"",""time""
""fullscreenenter"",""1"",""11957""
","""event"",""trial"",""time""
""fullscreenexit"",""55"",""270766""
","","","","","","null","<div style=""font-size:60px;"">+</div>","null","","fixation","","","","","","","","",""
"memory-trial","101","362773","0.0-15.0-1.29","1972","2","""event"",""trial"",""time""
""fullscreenenter"",""1"",""11957""
""blur"",""55"",""270766""
""fullscreenexit"",""55"",""270766""
""focus"",""55"",""274555""
","""event"",""trial"",""time""
""blur"",""55"",""270766""
","""event"",""trial"",""time""
""focus"",""55"",""274555""
","""event"",""trial"",""time""
""fullscreenenter"",""1"",""11957""
","""event"",""trial"",""time""
""fullscreenexit"",""55"",""270766""
","","","","","","1917.7000000029802","images/horse3.png","","","memory_trial","4","definitely_new","","","","","","",""
"html-keyboard-response","102","363275","0.0-15.0-0.30","1972","2","""event"",""trial"",""time""
""fullscreenenter"",""1"",""11957""
""blur"",""55"",""270766""
""fullscreenexit"",""55"",""270766""
""focus"",""55"",""274555""
","""event"",""trial"",""time""
""blur"",""55"",""270766""
","""event"",""trial"",""time""
""focus"",""55"",""274555""
","""event"",""trial"",""time""
""fullscreenenter"",""1"",""11957""
","""event"",""trial"",""time""
""fullscreenexit"",""55"",""270766""
","","","","","","null","<div style=""font-size:60px;"">+</div>","null","","fixation","","","","","","","","",""
"memory-trial","103","365763","0.0-15.0-1.30","1972","2","""event"",""trial"",""time""
""fullscreenenter"",""1"",""11957""
""blur"",""55"",""270766""
""fullscreenexit"",""55"",""270766""
""focus"",""55"",""274555""
","""event"",""trial"",""time""
""blur"",""55"",""270766""
","""event"",""trial"",""time""
""focus"",""55"",""274555""
","""event"",""trial"",""time""
""fullscreenenter"",""1"",""11957""
","""event"",""trial"",""time""
""fullscreenexit"",""55"",""270766""
","","","","","","1483.300000000745","images/feline5.png","","","memory_trial","1","definitely_old","","","","","","",""
"html-keyboard-response","104","366265","0.0-15.0-0.31","1972","2","""event"",""trial"",""time""
""fullscreenenter"",""1"",""11957""
""blur"",""55"",""270766""
""fullscreenexit"",""55"",""270766""
""focus"",""55"",""274555""
","""event"",""trial"",""time""
""blur"",""55"",""270766""
","""event"",""trial"",""time""
""focus"",""55"",""274555""
","""event"",""trial"",""time""
""fullscreenenter"",""1"",""11957""
","""event"",""trial"",""time""
""fullscreenexit"",""55"",""270766""
","","","","","","null","<div style=""font-size:60px;"">+</div>","null","","fixation","","","","","","","","",""
"memory-trial","105","369648","0.0-15.0-1.31","1972","2","""event"",""trial"",""time""
""fullscreenenter"",""1"",""11957""
""blur"",""55"",""270766""
""fullscreenexit"",""55"",""270766""
""focus"",""55"",""274555""
","""event"",""trial"",""time""
""blur"",""55"",""270766""
","""event"",""trial"",""time""
""focus"",""55"",""274555""
","""event"",""trial"",""time""
""fullscreenenter"",""1"",""11957""
","""event"",""trial"",""time""
""fullscreenexit"",""55"",""270766""
","","","","","","2379.599999997765","images/bed5.png","","","memory_trial","2","maybe_old","","","","","","",""
"html-keyboard-response","106","370150","0.0-15.0-0.32","1972","2","""event"",""trial"",""time""
""fullscreenenter"",""1"",""11957""
""blur"",""55"",""270766""
""fullscreenexit"",""55"",""270766""
""focus"",""55"",""274555""
","""event"",""trial"",""time""
""blur"",""55"",""270766""
","""event"",""trial"",""time""
""focus"",""55"",""274555""
","""event"",""trial"",""time""
""fullscreenenter"",""1"",""11957""
","""event"",""trial"",""time""
""fullscreenexit"",""55"",""270766""
","","","","","","null","<div style=""font-size:60px;"">+</div>","null","","fixation","","","","","","","","",""
"memory-trial","107","374035","0.0-15.0-1.32","1972","2","""event"",""trial"",""time""
""fullscreenenter"",""1"",""11957""
""blur"",""55"",""270766""
""fullscreenexit"",""55"",""270766""
""focus"",""55"",""274555""
","""event"",""trial"",""time""
""blur"",""55"",""270766""
","""event"",""trial"",""time""
""focus"",""55"",""274555""
","""event"",""trial"",""time""
""fullscreenenter"",""1"",""11957""
","""event"",""trial"",""time""
""fullscreenexit"",""55"",""270766""
","","","","","","2880.5","images/bush5.png","","","memory_trial","4","definitely_new","","","","","","",""
"html-keyboard-response","108","374536","0.0-15.0-0.33","1972","2","""event"",""trial"",""time""
""fullscreenenter"",""1"",""11957""
""blur"",""55"",""270766""
""fullscreenexit"",""55"",""270766""
""focus"",""55"",""274555""
","""event"",""trial"",""time""
""blur"",""55"",""270766""
","""event"",""trial"",""time""
""focus"",""55"",""274555""
","""event"",""trial"",""time""
""fullscreenenter"",""1"",""11957""
","""event"",""trial"",""time""
""fullscreenexit"",""55"",""270766""
","","","","","","null","<div style=""font-size:60px;"">+</div>","null","","fixation","","","","","","","","",""
"memory-trial","109","377464","0.0-15.0-1.33","1972","2","""event"",""trial"",""time""
""fullscreenenter"",""1"",""11957""
""blur"",""55"",""270766""
""fullscreenexit"",""55"",""270766""
""focus"",""55"",""274555""
","""event"",""trial"",""time""
""blur"",""55"",""270766""
","""event"",""trial"",""time""
""focus"",""55"",""274555""
","""event"",""trial"",""time""
""fullscreenenter"",""1"",""11957""
","""event"",""trial"",""time""
""fullscreenexit"",""55"",""270766""
","","","","","","1921.5","images/goat5.png","","","memory_trial","1","definitely_old","","","","","","",""
"html-keyboard-response","110","377966","0.0-15.0-0.34","1972","2","""event"",""trial"",""time""
""fullscreenenter"",""1"",""11957""
""blur"",""55"",""270766""
""fullscreenexit"",""55"",""270766""
""focus"",""55"",""274555""
","""event"",""trial"",""time""
""blur"",""55"",""270766""
","""event"",""trial"",""time""
""focus"",""55"",""274555""
","""event"",""trial"",""time""
""fullscreenenter"",""1"",""11957""
","""event"",""trial"",""time""
""fullscreenexit"",""55"",""270766""
","","","","","","null","<div style=""font-size:60px;"">+</div>","null","","fixation","","","","","","","","",""
"memory-trial","111","381423","0.0-15.0-1.34","1972","2","""event"",""trial"",""time""
""fullscreenenter"",""1"",""11957""
""blur"",""55"",""270766""
""fullscreenexit"",""55"",""270766""
""focus"",""55"",""274555""
","""event"",""trial"",""time""
""blur"",""55"",""270766""
","""event"",""trial"",""time""
""focus"",""55"",""274555""
","""event"",""trial"",""time""
""fullscreenenter"",""1"",""11957""
","""event"",""trial"",""time""
""fullscreenexit"",""55"",""270766""
","","","","","","2453.199999999255","images/flower3.png","","","memory_trial","4","definitely_new","","","","","","",""
"html-keyboard-response","112","381925","0.0-15.0-0.35","1972","2","""event"",""trial"",""time""
""fullscreenenter"",""1"",""11957""
""blur"",""55"",""270766""
""fullscreenexit"",""55"",""270766""
""focus"",""55"",""274555""
","""event"",""trial"",""time""
""blur"",""55"",""270766""
","""event"",""trial"",""time""
""focus"",""55"",""274555""
","""event"",""trial"",""time""
""fullscreenenter"",""1"",""11957""
","""event"",""trial"",""time""
""fullscreenexit"",""55"",""270766""
","","","","","","null","<div style=""font-size:60px;"">+</div>","null","","fixation","","","","","","","","",""
"memory-trial","113","385491","0.0-15.0-1.35","1972","2","""event"",""trial"",""time""
""fullscreenenter"",""1"",""11957""
""blur"",""55"",""270766""
""fullscreenexit"",""55"",""270766""
""focus"",""55"",""274555""
","""event"",""trial"",""time""
""blur"",""55"",""270766""
","""event"",""trial"",""time""
""focus"",""55"",""274555""
","""event"",""trial"",""time""
""fullscreenenter"",""1"",""11957""
","""event"",""trial"",""time""
""fullscreenexit"",""55"",""270766""
","","","","","","2562.599999997765","images/train2.png","","","memory_trial","4","definitely_new","","","","","","",""
"html-keyboard-response","114","385993","0.0-15.0-0.36","1972","2","""event"",""trial"",""time""
""fullscreenenter"",""1"",""11957""
""blur"",""55"",""270766""
""fullscreenexit"",""55"",""270766""
""focus"",""55"",""274555""
","""event"",""trial"",""time""
""blur"",""55"",""270766""
","""event"",""trial"",""time""
""focus"",""55"",""274555""
","""event"",""trial"",""time""
""fullscreenenter"",""1"",""11957""
","""event"",""trial"",""time""
""fullscreenexit"",""55"",""270766""
","","","","","","null","<div style=""font-size:60px;"">+</div>","null","","fixation","","","","","","","","",""
"memory-trial","115","389299","0.0-15.0-1.36","1972","2","""event"",""trial"",""time""
""fullscreenenter"",""1"",""11957""
""blur"",""55"",""270766""
""fullscreenexit"",""55"",""270766""
""focus"",""55"",""274555""
","""event"",""trial"",""time""
""blur"",""55"",""270766""
","""event"",""trial"",""time""
""focus"",""55"",""274555""
","""event"",""trial"",""time""
""fullscreenenter"",""1"",""11957""
","""event"",""trial"",""time""
""fullscreenexit"",""55"",""270766""
","","","","","","2302.199999999255","images/orange2.png","","","memory_trial","1","definitely_old","","","","","","",""
"html-keyboard-response","116","389801","0.0-15.0-0.37","1972","2","""event"",""trial"",""time""
""fullscreenenter"",""1"",""11957""
""blur"",""55"",""270766""
""fullscreenexit"",""55"",""270766""
""focus"",""55"",""274555""
","""event"",""trial"",""time""
""blur"",""55"",""270766""
","""event"",""trial"",""time""
""focus"",""55"",""274555""
","""event"",""trial"",""time""
""fullscreenenter"",""1"",""11957""
","""event"",""trial"",""time""
""fullscreenexit"",""55"",""270766""
","","","","","","null","<div style=""font-size:60px;"">+</div>","null","","fixation","","","","","","","","",""
"memory-trial","117","395701","0.0-15.0-1.37","1972","2","""event"",""trial"",""time""
""fullscreenenter"",""1"",""11957""
""blur"",""55"",""270766""
""fullscreenexit"",""55"",""270766""
""focus"",""55"",""274555""
","""event"",""trial"",""time""
""blur"",""55"",""270766""
","""event"",""trial"",""time""
""focus"",""55"",""274555""
","""event"",""trial"",""time""
""fullscreenenter"",""1"",""11957""
","""event"",""trial"",""time""
""fullscreenexit"",""55"",""270766""
","","","","","","4896","images/apple1.png","","","memory_trial","1","definitely_old","","","","","","",""
"html-keyboard-response","118","396203","0.0-15.0-0.38","1972","2","""event"",""trial"",""time""
""fullscreenenter"",""1"",""11957""
""blur"",""55"",""270766""
""fullscreenexit"",""55"",""270766""
""focus"",""55"",""274555""
","""event"",""trial"",""time""
""blur"",""55"",""270766""
","""event"",""trial"",""time""
""focus"",""55"",""274555""
","""event"",""trial"",""time""
""fullscreenenter"",""1"",""11957""
","""event"",""trial"",""time""
""fullscreenexit"",""55"",""270766""
","","","","","","null","<div style=""font-size:60px;"">+</div>","null","","fixation","","","","","","","","",""
"memory-trial","119","398316","0.0-15.0-1.38","1972","2","""event"",""trial"",""time""
""fullscreenenter"",""1"",""11957""
""blur"",""55"",""270766""
""fullscreenexit"",""55"",""270766""
""focus"",""55"",""274555""
","""event"",""trial"",""time""
""blur"",""55"",""270766""
","""event"",""trial"",""time""
""focus"",""55"",""274555""
","""event"",""trial"",""time""
""fullscreenenter"",""1"",""11957""
","""event"",""trial"",""time""
""fullscreenexit"",""55"",""270766""
","","","","","","1107.800000000745","images/flower4.png","","","memory_trial","1","definitely_old","","","","","","",""
"html-keyboard-response","120","398817","0.0-15.0-0.39","1972","2","""event"",""trial"",""time""
""fullscreenenter"",""1"",""11957""
""blur"",""55"",""270766""
""fullscreenexit"",""55"",""270766""
""focus"",""55"",""274555""
","""event"",""trial"",""time""
""blur"",""55"",""270766""
","""event"",""trial"",""time""
""focus"",""55"",""274555""
","""event"",""trial"",""time""
""fullscreenenter"",""1"",""11957""
","""event"",""trial"",""time""
""fullscreenexit"",""55"",""270766""
","","","","","","null","<div style=""font-size:60px;"">+</div>","null","","fixation","","","","","","","","",""
"memory-trial","121","400916","0.0-15.0-1.39","1972","2","""event"",""trial"",""time""
""fullscreenenter"",""1"",""11957""
""blur"",""55"",""270766""
""fullscreenexit"",""55"",""270766""
""focus"",""55"",""274555""
","""event"",""trial"",""time""
""blur"",""55"",""270766""
","""event"",""trial"",""time""
""focus"",""55"",""274555""
","""event"",""trial"",""time""
""fullscreenenter"",""1"",""11957""
","""event"",""trial"",""time""
""fullscreenexit"",""55"",""270766""
","","","","","","1093.8999999985099","images/rabbit5.png","","","memory_trial","4","definitely_new","","","","","","",""
"html-keyboard-response","122","401417","0.0-15.0-0.40","1972","2","""event"",""trial"",""time""
""fullscreenenter"",""1"",""11957""
""blur"",""55"",""270766""
""fullscreenexit"",""55"",""270766""
""focus"",""55"",""274555""
","""event"",""trial"",""time""
""blur"",""55"",""270766""
","""event"",""trial"",""time""
""focus"",""55"",""274555""
","""event"",""trial"",""time""
""fullscreenenter"",""1"",""11957""
","""event"",""trial"",""time""
""fullscreenexit"",""55"",""270766""
","","","","","","null","<div style=""font-size:60px;"">+</div>","null","","fixation","","","","","","","","",""
"memory-trial","123","404323","0.0-15.0-1.40","1972","2","""event"",""trial"",""time""
""fullscreenenter"",""1"",""11957""
""blur"",""55"",""270766""
""fullscreenexit"",""55"",""270766""
""focus"",""55"",""274555""
","""event"",""trial"",""time""
""blur"",""55"",""270766""
","""event"",""trial"",""time""
""focus"",""55"",""274555""
","""event"",""trial"",""time""
""fullscreenenter"",""1"",""11957""
","""event"",""trial"",""time""
""fullscreenexit"",""55"",""270766""
","","","","","","1902.5","images/rabbit4.png","","","memory_trial","3","maybe_new","","","","","","",""
"html-keyboard-response","124","404825","0.0-15.0-0.41","1972","2","""event"",""trial"",""time""
""fullscreenenter"",""1"",""11957""
""blur"",""55"",""270766""
""fullscreenexit"",""55"",""270766""
""focus"",""55"",""274555""
","""event"",""trial"",""time""
""blur"",""55"",""270766""
","""event"",""trial"",""time""
""focus"",""55"",""274555""
","""event"",""trial"",""time""
""fullscreenenter"",""1"",""11957""
","""event"",""trial"",""time""
""fullscreenexit"",""55"",""270766""
","","","","","","null","<div style=""font-size:60px;"">+</div>","null","","fixation","","","","","","","","",""
"memory-trial","125","407587","0.0-15.0-1.41","1972","2","""event"",""trial"",""time""
""fullscreenenter"",""1"",""11957""
""blur"",""55"",""270766""
""fullscreenexit"",""55"",""270766""
""focus"",""55"",""274555""
","""event"",""trial"",""time""
""blur"",""55"",""270766""
","""event"",""trial"",""time""
""focus"",""55"",""274555""
","""event"",""trial"",""time""
""fullscreenenter"",""1"",""11957""
","""event"",""trial"",""time""
""fullscreenexit"",""55"",""270766""
","","","","","","1758.5","images/boat4.png","","","memory_trial","1","definitely_old","","","","","","",""
"html-keyboard-response","126","408089","0.0-15.0-0.42","1972","2","""event"",""trial"",""time""
""fullscreenenter"",""1"",""11957""
""blur"",""55"",""270766""
""fullscreenexit"",""55"",""270766""
""focus"",""55"",""274555""
","""event"",""trial"",""time""
""blur"",""55"",""270766""
","""event"",""trial"",""time""
""focus"",""55"",""274555""
","""event"",""trial"",""time""
""fullscreenenter"",""1"",""11957""
","""event"",""trial"",""time""
""fullscreenexit"",""55"",""270766""
","","","","","","null","<div style=""font-size:60px;"">+</div>","null","","fixation","","","","","","","","",""
"memory-trial","127","411068","0.0-15.0-1.42","1972","2","""event"",""trial"",""time""
""fullscreenenter"",""1"",""11957""
""blur"",""55"",""270766""
""fullscreenexit"",""55"",""270766""
""focus"",""55"",""274555""
","""event"",""trial"",""time""
""blur"",""55"",""270766""
","""event"",""trial"",""time""
""focus"",""55"",""274555""
","""event"",""trial"",""time""
""fullscreenenter"",""1"",""11957""
","""event"",""trial"",""time""
""fullscreenexit"",""55"",""270766""
","","","","","","1976.5999999977648","images/bush1.png","","","memory_trial","4","definitely_new","","","","","","",""
"html-keyboard-response","128","411570","0.0-15.0-0.43","1972","2","""event"",""trial"",""time""
""fullscreenenter"",""1"",""11957""
""blur"",""55"",""270766""
""fullscreenexit"",""55"",""270766""
""focus"",""55"",""274555""
","""event"",""trial"",""time""
""blur"",""55"",""270766""
","""event"",""trial"",""time""
""focus"",""55"",""274555""
","""event"",""trial"",""time""
""fullscreenenter"",""1"",""11957""
","""event"",""trial"",""time""
""fullscreenexit"",""55"",""270766""
","","","","","","null","<div style=""font-size:60px;"">+</div>","null","","fixation","","","","","","","","",""
"memory-trial","129","415917","0.0-15.0-1.43","1972","2","""event"",""trial"",""time""
""fullscreenenter"",""1"",""11957""
""blur"",""55"",""270766""
""fullscreenexit"",""55"",""270766""
""focus"",""55"",""274555""
","""event"",""trial"",""time""
""blur"",""55"",""270766""
","""event"",""trial"",""time""
""focus"",""55"",""274555""
","""event"",""trial"",""time""
""fullscreenenter"",""1"",""11957""
","""event"",""trial"",""time""
""fullscreenexit"",""55"",""270766""
","","","","","","3342.800000000745","images/cactus4.png","","","memory_trial","2","maybe_old","","","","","","",""
"html-keyboard-response","130","416419","0.0-15.0-0.44","1972","2","""event"",""trial"",""time""
""fullscreenenter"",""1"",""11957""
""blur"",""55"",""270766""
""fullscreenexit"",""55"",""270766""
""focus"",""55"",""274555""
","""event"",""trial"",""time""
""blur"",""55"",""270766""
","""event"",""trial"",""time""
""focus"",""55"",""274555""
","""event"",""trial"",""time""
""fullscreenenter"",""1"",""11957""
","""event"",""trial"",""time""
""fullscreenexit"",""55"",""270766""
","","","","","","null","<div style=""font-size:60px;"">+</div>","null","","fixation","","","","","","","","",""
"memory-trial","131","420072","0.0-15.0-1.44","1972","2","""event"",""trial"",""time""
""fullscreenenter"",""1"",""11957""
""blur"",""55"",""270766""
""fullscreenexit"",""55"",""270766""
""focus"",""55"",""274555""
","""event"",""trial"",""time""
""blur"",""55"",""270766""
","""event"",""trial"",""time""
""focus"",""55"",""274555""
","""event"",""trial"",""time""
""fullscreenenter"",""1"",""11957""
","""event"",""trial"",""time""
""fullscreenexit"",""55"",""270766""
","","","","","","2648.89999999851","images/horse2.png","","","memory_trial","1","definitely_old","","","","","","",""
"html-keyboard-response","132","420574","0.0-15.0-0.45","1972","2","""event"",""trial"",""time""
""fullscreenenter"",""1"",""11957""
""blur"",""55"",""270766""
""fullscreenexit"",""55"",""270766""
""focus"",""55"",""274555""
","""event"",""trial"",""time""
""blur"",""55"",""270766""
","""event"",""trial"",""time""
""focus"",""55"",""274555""
","""event"",""trial"",""time""
""fullscreenenter"",""1"",""11957""
","""event"",""trial"",""time""
""fullscreenexit"",""55"",""270766""
","","","","","","null","<div style=""font-size:60px;"">+</div>","null","","fixation","","","","","","","","",""
"memory-trial","133","424734","0.0-15.0-1.45","1972","2","""event"",""trial"",""time""
""fullscreenenter"",""1"",""11957""
""blur"",""55"",""270766""
""fullscreenexit"",""55"",""270766""
""focus"",""55"",""274555""
","""event"",""trial"",""time""
""blur"",""55"",""270766""
","""event"",""trial"",""time""
""focus"",""55"",""274555""
","""event"",""trial"",""time""
""fullscreenenter"",""1"",""11957""
","""event"",""trial"",""time""
""fullscreenexit"",""55"",""270766""
","","","","","","3154.5","images/train3.png","","","memory_trial","3","maybe_new","","","","","","",""
"html-keyboard-response","134","425235","0.0-15.0-0.46","1972","2","""event"",""trial"",""time""
""fullscreenenter"",""1"",""11957""
""blur"",""55"",""270766""
""fullscreenexit"",""55"",""270766""
""focus"",""55"",""274555""
","""event"",""trial"",""time""
""blur"",""55"",""270766""
","""event"",""trial"",""time""
""focus"",""55"",""274555""
","""event"",""trial"",""time""
""fullscreenenter"",""1"",""11957""
","""event"",""trial"",""time""
""fullscreenexit"",""55"",""270766""
","","","","","","null","<div style=""font-size:60px;"">+</div>","null","","fixation","","","","","","","","",""
"memory-trial","135","428612","0.0-15.0-1.46","1972","2","""event"",""trial"",""time""
""fullscreenenter"",""1"",""11957""
""blur"",""55"",""270766""
""fullscreenexit"",""55"",""270766""
""focus"",""55"",""274555""
","""event"",""trial"",""time""
""blur"",""55"",""270766""
","""event"",""trial"",""time""
""focus"",""55"",""274555""
","""event"",""trial"",""time""
""fullscreenenter"",""1"",""11957""
","""event"",""trial"",""time""
""fullscreenexit"",""55"",""270766""
","","","","","","2372.39999999851","images/dog5.png","","","memory_trial","4","definitely_new","","","","","","",""
"html-button-response","136","464731","0.0-15.0-2.46-0.46","1972","2","""event"",""trial"",""time""
""fullscreenenter"",""1"",""11957""
""blur"",""55"",""270766""
""fullscreenexit"",""55"",""270766""
""focus"",""55"",""274555""
","""event"",""trial"",""time""
""blur"",""55"",""270766""
","""event"",""trial"",""time""
""focus"",""55"",""274555""
","""event"",""trial"",""time""
""fullscreenenter"",""1"",""11957""
","""event"",""trial"",""time""
""fullscreenexit"",""55"",""270766""
","","","","","","36115.800000000745","<p> Take a break! </p><p> Click the button to continue. </p>","0","","break","","","","","","","","",""
"html-keyboard-response","137","465234","0.0-15.0-0.47","1972","2","""event"",""trial"",""time""
""fullscreenenter"",""1"",""11957""
""blur"",""55"",""270766""
""fullscreenexit"",""55"",""270766""
""focus"",""55"",""274555""
","""event"",""trial"",""time""
""blur"",""55"",""270766""
","""event"",""trial"",""time""
""focus"",""55"",""274555""
","""event"",""trial"",""time""
""fullscreenenter"",""1"",""11957""
","""event"",""trial"",""time""
""fullscreenexit"",""55"",""270766""
","","","","","","null","<div style=""font-size:60px;"">+</div>","null","","fixation","","","","","","","","",""
"memory-trial","138","469263","0.0-15.0-1.47","1972","2","""event"",""trial"",""time""
""fullscreenenter"",""1"",""11957""
""blur"",""55"",""270766""
""fullscreenexit"",""55"",""270766""
""focus"",""55"",""274555""
","""event"",""trial"",""time""
""blur"",""55"",""270766""
","""event"",""trial"",""time""
""focus"",""55"",""274555""
","""event"",""trial"",""time""
""fullscreenenter"",""1"",""11957""
","""event"",""trial"",""time""
""fullscreenexit"",""55"",""270766""
","","","","","","3024.60000000149","images/sheep4.png","","","memory_trial","3","maybe_new","","","","","","",""
"html-keyboard-response","139","469765","0.0-15.0-0.48","1972","2","""event"",""trial"",""time""
""fullscreenenter"",""1"",""11957""
""blur"",""55"",""270766""
""fullscreenexit"",""55"",""270766""
""focus"",""55"",""274555""
","""event"",""trial"",""time""
""blur"",""55"",""270766""
","""event"",""trial"",""time""
""focus"",""55"",""274555""
","""event"",""trial"",""time""
""fullscreenenter"",""1"",""11957""
","""event"",""trial"",""time""
""fullscreenexit"",""55"",""270766""
","","","","","","null","<div style=""font-size:60px;"">+</div>","null","","fixation","","","","","","","","",""
"memory-trial","140","477022","0.0-15.0-1.48","1972","2","""event"",""trial"",""time""
""fullscreenenter"",""1"",""11957""
""blur"",""55"",""270766""
""fullscreenexit"",""55"",""270766""
""focus"",""55"",""274555""
","""event"",""trial"",""time""
""blur"",""55"",""270766""
","""event"",""trial"",""time""
""focus"",""55"",""274555""
","""event"",""trial"",""time""
""fullscreenenter"",""1"",""11957""
","""event"",""trial"",""time""
""fullscreenexit"",""55"",""270766""
","","","","","","6253.099999997765","images/flower2.png","","","memory_trial","2","maybe_old","","","","","","",""
"html-keyboard-response","141","477524","0.0-15.0-0.49","1972","2","""event"",""trial"",""time""
""fullscreenenter"",""1"",""11957""
""blur"",""55"",""270766""
""fullscreenexit"",""55"",""270766""
""focus"",""55"",""274555""
","""event"",""trial"",""time""
""blur"",""55"",""270766""
","""event"",""trial"",""time""
""focus"",""55"",""274555""
","""event"",""trial"",""time""
""fullscreenenter"",""1"",""11957""
","""event"",""trial"",""time""
""fullscreenexit"",""55"",""270766""
","","","","","","null","<div style=""font-size:60px;"">+</div>","null","","fixation","","","","","","","","",""
"memory-trial","142","481562","0.0-15.0-1.49","1972","2","""event"",""trial"",""time""
""fullscreenenter"",""1"",""11957""
""blur"",""55"",""270766""
""fullscreenexit"",""55"",""270766""
""focus"",""55"",""274555""
","""event"",""trial"",""time""
""blur"",""55"",""270766""
","""event"",""trial"",""time""
""focus"",""55"",""274555""
","""event"",""trial"",""time""
""fullscreenenter"",""1"",""11957""
","""event"",""trial"",""time""
""fullscreenexit"",""55"",""270766""
","","","","","","3034.2000000029802","images/bush3.png","","","memory_trial","3","maybe_new","","","","","","",""
"html-keyboard-response","143","482064","0.0-15.0-0.50","1972","2","""event"",""trial"",""time""
""fullscreenenter"",""1"",""11957""
""blur"",""55"",""270766""
""fullscreenexit"",""55"",""270766""
""focus"",""55"",""274555""
","""event"",""trial"",""time""
""blur"",""55"",""270766""
","""event"",""trial"",""time""
""focus"",""55"",""274555""
","""event"",""trial"",""time""
""fullscreenenter"",""1"",""11957""
","""event"",""trial"",""time""
""fullscreenexit"",""55"",""270766""
","","","","","","null","<div style=""font-size:60px;"">+</div>","null","","fixation","","","","","","","","",""
"memory-trial","144","487610","0.0-15.0-1.50","1972","2","""event"",""trial"",""time""
""fullscreenenter"",""1"",""11957""
""blur"",""55"",""270766""
""fullscreenexit"",""55"",""270766""
""focus"",""55"",""274555""
","""event"",""trial"",""time""
""blur"",""55"",""270766""
","""event"",""trial"",""time""
""focus"",""55"",""274555""
","""event"",""trial"",""time""
""fullscreenenter"",""1"",""11957""
","""event"",""trial"",""time""
""fullscreenexit"",""55"",""270766""
","","","","","","4541.300000000745","images/bush4.png","","","memory_trial","4","definitely_new","","","","","","",""
"html-keyboard-response","145","488112","0.0-15.0-0.51","1972","2","""event"",""trial"",""time""
""fullscreenenter"",""1"",""11957""
""blur"",""55"",""270766""
""fullscreenexit"",""55"",""270766""
""focus"",""55"",""274555""
","""event"",""trial"",""time""
""blur"",""55"",""270766""
","""event"",""trial"",""time""
""focus"",""55"",""274555""
","""event"",""trial"",""time""
""fullscreenenter"",""1"",""11957""
","""event"",""trial"",""time""
""fullscreenexit"",""55"",""270766""
","","","","","","null","<div style=""font-size:60px;"">+</div>","null","","fixation","","","","","","","","",""
"memory-trial","146","491729","0.0-15.0-1.51","1972","2","""event"",""trial"",""time""
""fullscreenenter"",""1"",""11957""
""blur"",""55"",""270766""
""fullscreenexit"",""55"",""270766""
""focus"",""55"",""274555""
","""event"",""trial"",""time""
""blur"",""55"",""270766""
","""event"",""trial"",""time""
""focus"",""55"",""274555""
","""event"",""trial"",""time""
""fullscreenenter"",""1"",""11957""
","""event"",""trial"",""time""
""fullscreenexit"",""55"",""270766""
","","","","","","2611.300000000745","images/table5.png","","","memory_trial","1","definitely_old","","","","","","",""
"html-keyboard-response","147","492231","0.0-15.0-0.52","1972","2","""event"",""trial"",""time""
""fullscreenenter"",""1"",""11957""
""blur"",""55"",""270766""
""fullscreenexit"",""55"",""270766""
""focus"",""55"",""274555""
","""event"",""trial"",""time""
""blur"",""55"",""270766""
","""event"",""trial"",""time""
""focus"",""55"",""274555""
","""event"",""trial"",""time""
""fullscreenenter"",""1"",""11957""
","""event"",""trial"",""time""
""fullscreenexit"",""55"",""270766""
","","","","","","null","<div style=""font-size:60px;"">+</div>","null","","fixation","","","","","","","","",""
"memory-trial","148","497849","0.0-15.0-1.52","1972","2","""event"",""trial"",""time""
""fullscreenenter"",""1"",""11957""
""blur"",""55"",""270766""
""fullscreenexit"",""55"",""270766""
""focus"",""55"",""274555""
","""event"",""trial"",""time""
""blur"",""55"",""270766""
","""event"",""trial"",""time""
""focus"",""55"",""274555""
","""event"",""trial"",""time""
""fullscreenenter"",""1"",""11957""
","""event"",""trial"",""time""
""fullscreenexit"",""55"",""270766""
","","","","","","4614.599999997765","images/horse5.png","","","memory_trial","4","definitely_new","","","","","","",""
"html-keyboard-response","149","498351","0.0-15.0-0.53","1972","2","""event"",""trial"",""time""
""fullscreenenter"",""1"",""11957""
""blur"",""55"",""270766""
""fullscreenexit"",""55"",""270766""
""focus"",""55"",""274555""
","""event"",""trial"",""time""
""blur"",""55"",""270766""
","""event"",""trial"",""time""
""focus"",""55"",""274555""
","""event"",""trial"",""time""
""fullscreenenter"",""1"",""11957""
","""event"",""trial"",""time""
""fullscreenexit"",""55"",""270766""
","","","","","","null","<div style=""font-size:60px;"">+</div>","null","","fixation","","","","","","","","",""
"memory-trial","150","504239","0.0-15.0-1.53","1972","2","""event"",""trial"",""time""
""fullscreenenter"",""1"",""11957""
""blur"",""55"",""270766""
""fullscreenexit"",""55"",""270766""
""focus"",""55"",""274555""
","""event"",""trial"",""time""
""blur"",""55"",""270766""
","""event"",""trial"",""time""
""focus"",""55"",""274555""
","""event"",""trial"",""time""
""fullscreenenter"",""1"",""11957""
","""event"",""trial"",""time""
""fullscreenexit"",""55"",""270766""
","","","","","","4883.699999999255","images/boat3.png","","","memory_trial","1","definitely_old","","","","","","",""
"html-keyboard-response","151","504742","0.0-15.0-0.54","1972","2","""event"",""trial"",""time""
""fullscreenenter"",""1"",""11957""
""blur"",""55"",""270766""
""fullscreenexit"",""55"",""270766""
""focus"",""55"",""274555""
","""event"",""trial"",""time""
""blur"",""55"",""270766""
","""event"",""trial"",""time""
""focus"",""55"",""274555""
","""event"",""trial"",""time""
""fullscreenenter"",""1"",""11957""
","""event"",""trial"",""time""
""fullscreenexit"",""55"",""270766""
","","","","","","null","<div style=""font-size:60px;"">+</div>","null","","fixation","","","","","","","","",""
"memory-trial","152","510647","0.0-15.0-1.54","1972","2","""event"",""trial"",""time""
""fullscreenenter"",""1"",""11957""
""blur"",""55"",""270766""
""fullscreenexit"",""55"",""270766""
""focus"",""55"",""274555""
","""event"",""trial"",""time""
""blur"",""55"",""270766""
","""event"",""trial"",""time""
""focus"",""55"",""274555""
","""event"",""trial"",""time""
""fullscreenenter"",""1"",""11957""
","""event"",""trial"",""time""
""fullscreenexit"",""55"",""270766""
","","","","","","4900.10000000149","images/banana4.png","","","memory_trial","3","maybe_new","","","","","","",""
"html-keyboard-response","153","511149","0.0-15.0-0.55","1972","2","""event"",""trial"",""time""
""fullscreenenter"",""1"",""11957""
""blur"",""55"",""270766""
""fullscreenexit"",""55"",""270766""
""focus"",""55"",""274555""
","""event"",""trial"",""time""
""blur"",""55"",""270766""
","""event"",""trial"",""time""
""focus"",""55"",""274555""
","""event"",""trial"",""time""
""fullscreenenter"",""1"",""11957""
","""event"",""trial"",""time""
""fullscreenexit"",""55"",""270766""
","","","","","","null","<div style=""font-size:60px;"">+</div>","null","","fixation","","","","","","","","",""
"memory-trial","154","515732","0.0-15.0-1.55","1972","2","""event"",""trial"",""time""
""fullscreenenter"",""1"",""11957""
""blur"",""55"",""270766""
""fullscreenexit"",""55"",""270766""
""focus"",""55"",""274555""
","""event"",""trial"",""time""
""blur"",""55"",""270766""
","""event"",""trial"",""time""
""focus"",""55"",""274555""
","""event"",""trial"",""time""
""fullscreenenter"",""1"",""11957""
","""event"",""trial"",""time""
""fullscreenexit"",""55"",""270766""
","","","","","","3579.39999999851","images/tree5.png","","","memory_trial","2","maybe_old","","","","","","",""
"html-keyboard-response","155","516234","0.0-15.0-0.56","1972","2","""event"",""trial"",""time""
""fullscreenenter"",""1"",""11957""
""blur"",""55"",""270766""
""fullscreenexit"",""55"",""270766""
""focus"",""55"",""274555""
","""event"",""trial"",""time""
""blur"",""55"",""270766""
","""event"",""trial"",""time""
""focus"",""55"",""274555""
","""event"",""trial"",""time""
""fullscreenenter"",""1"",""11957""
","""event"",""trial"",""time""
""fullscreenexit"",""55"",""270766""
","","","","","","null","<div style=""font-size:60px;"">+</div>","null","","fixation","","","","","","","","",""
"memory-trial","156","518663","0.0-15.0-1.56","1972","2","""event"",""trial"",""time""
""fullscreenenter"",""1"",""11957""
""blur"",""55"",""270766""
""fullscreenexit"",""55"",""270766""
""focus"",""55"",""274555""
","""event"",""trial"",""time""
""blur"",""55"",""270766""
","""event"",""trial"",""time""
""focus"",""55"",""274555""
","""event"",""trial"",""time""
""fullscreenenter"",""1"",""11957""
","""event"",""trial"",""time""
""fullscreenexit"",""55"",""270766""
","","","","","","1424.8999999985099","images/tree4.png","","","memory_trial","1","definitely_old","","","","","","",""
"html-keyboard-response","157","519165","0.0-15.0-0.57","1972","2","""event"",""trial"",""time""
""fullscreenenter"",""1"",""11957""
""blur"",""55"",""270766""
""fullscreenexit"",""55"",""270766""
""focus"",""55"",""274555""
","""event"",""trial"",""time""
""blur"",""55"",""270766""
","""event"",""trial"",""time""
""focus"",""55"",""274555""
","""event"",""trial"",""time""
""fullscreenenter"",""1"",""11957""
","""event"",""trial"",""time""
""fullscreenexit"",""55"",""270766""
","","","","","","null","<div style=""font-size:60px;"">+</div>","null","","fixation","","","","","","","","",""
"memory-trial","158","523178","0.0-15.0-1.57","1972","2","""event"",""trial"",""time""
""fullscreenenter"",""1"",""11957""
""blur"",""55"",""270766""
""fullscreenexit"",""55"",""270766""
""focus"",""55"",""274555""
","""event"",""trial"",""time""
""blur"",""55"",""270766""
","""event"",""trial"",""time""
""focus"",""55"",""274555""
","""event"",""trial"",""time""
""fullscreenenter"",""1"",""11957""
","""event"",""trial"",""time""
""fullscreenexit"",""55"",""270766""
","","","","","","3010.60000000149","images/cactus2.png","","","memory_trial","1","definitely_old","","","","","","",""
"html-keyboard-response","159","523681","0.0-15.0-0.58","1972","2","""event"",""trial"",""time""
""fullscreenenter"",""1"",""11957""
""blur"",""55"",""270766""
""fullscreenexit"",""55"",""270766""
""focus"",""55"",""274555""
","""event"",""trial"",""time""
""blur"",""55"",""270766""
","""event"",""trial"",""time""
""focus"",""55"",""274555""
","""event"",""trial"",""time""
""fullscreenenter"",""1"",""11957""
","""event"",""trial"",""time""
""fullscreenexit"",""55"",""270766""
","","","","","","null","<div style=""font-size:60px;"">+</div>","null","","fixation","","","","","","","","",""
"memory-trial","160","528702","0.0-15.0-1.58","1972","2","""event"",""trial"",""time""
""fullscreenenter"",""1"",""11957""
""blur"",""55"",""270766""
""fullscreenexit"",""55"",""270766""
""focus"",""55"",""274555""
","""event"",""trial"",""time""
""blur"",""55"",""270766""
","""event"",""trial"",""time""
""focus"",""55"",""274555""
","""event"",""trial"",""time""
""fullscreenenter"",""1"",""11957""
","""event"",""trial"",""time""
""fullscreenexit"",""55"",""270766""
","","","","","","4016.60000000149","images/bed3.png","","","memory_trial","3","maybe_new","","","","","","",""
"html-keyboard-response","161","529204","0.0-15.0-0.59","1972","2","""event"",""trial"",""time""
""fullscreenenter"",""1"",""11957""
""blur"",""55"",""270766""
""fullscreenexit"",""55"",""270766""
""focus"",""55"",""274555""
","""event"",""trial"",""time""
""blur"",""55"",""270766""
","""event"",""trial"",""time""
""focus"",""55"",""274555""
","""event"",""trial"",""time""
""fullscreenenter"",""1"",""11957""
","""event"",""trial"",""time""
""fullscreenexit"",""55"",""270766""
","","","","","","null","<div style=""font-size:60px;"">+</div>","null","","fixation","","","","","","","","",""
"memory-trial","162","532194","0.0-15.0-1.59","1972","2","""event"",""trial"",""time""
""fullscreenenter"",""1"",""11957""
""blur"",""55"",""270766""
""fullscreenexit"",""55"",""270766""
""focus"",""55"",""274555""
","""event"",""trial"",""time""
""blur"",""55"",""270766""
","""event"",""trial"",""time""
""focus"",""55"",""274555""
","""event"",""trial"",""time""
""fullscreenenter"",""1"",""11957""
","""event"",""trial"",""time""
""fullscreenexit"",""55"",""270766""
","","","","","","1986.4000000022352","images/banana2.png","","","memory_trial","2","maybe_old","","","","","","",""
"html-keyboard-response","163","532696","0.0-15.0-0.60","1972","2","""event"",""trial"",""time""
""fullscreenenter"",""1"",""11957""
""blur"",""55"",""270766""
""fullscreenexit"",""55"",""270766""
""focus"",""55"",""274555""
","""event"",""trial"",""time""
""blur"",""55"",""270766""
","""event"",""trial"",""time""
""focus"",""55"",""274555""
","""event"",""trial"",""time""
""fullscreenenter"",""1"",""11957""
","""event"",""trial"",""time""
""fullscreenexit"",""55"",""270766""
","","","","","","null","<div style=""font-size:60px;"">+</div>","null","","fixation","","","","","","","","",""
"memory-trial","164","533864","0.0-15.0-1.60","1972","2","""event"",""trial"",""time""
""fullscreenenter"",""1"",""11957""
""blur"",""55"",""270766""
""fullscreenexit"",""55"",""270766""
""focus"",""55"",""274555""
","""event"",""trial"",""time""
""blur"",""55"",""270766""
","""event"",""trial"",""time""
""focus"",""55"",""274555""
","""event"",""trial"",""time""
""fullscreenenter"",""1"",""11957""
","""event"",""trial"",""time""
""fullscreenexit"",""55"",""270766""
","","","","","","163.39999999850988","images/bed2.png","","","memory_trial","3","maybe_new","","","","","","",""
"html-keyboard-response","165","534365","0.0-15.0-0.61","1972","2","""event"",""trial"",""time""
""fullscreenenter"",""1"",""11957""
""blur"",""55"",""270766""
""fullscreenexit"",""55"",""270766""
""focus"",""55"",""274555""
","""event"",""trial"",""time""
""blur"",""55"",""270766""
","""event"",""trial"",""time""
""focus"",""55"",""274555""
","""event"",""trial"",""time""
""fullscreenenter"",""1"",""11957""
","""event"",""trial"",""time""
""fullscreenexit"",""55"",""270766""
","","","","","","null","<div style=""font-size:60px;"">+</div>","null","","fixation","","","","","","","","",""
"memory-trial","166","537048","0.0-15.0-1.61","1972","2","""event"",""trial"",""time""
""fullscreenenter"",""1"",""11957""
""blur"",""55"",""270766""
""fullscreenexit"",""55"",""270766""
""focus"",""55"",""274555""
","""event"",""trial"",""time""
""blur"",""55"",""270766""
","""event"",""trial"",""time""
""focus"",""55"",""274555""
","""event"",""trial"",""time""
""fullscreenenter"",""1"",""11957""
","""event"",""trial"",""time""
""fullscreenexit"",""55"",""270766""
","","","","","","1679.3999999985099","images/apple4.png","","","memory_trial","1","definitely_old","","","","","","",""
"html-keyboard-response","167","537549","0.0-15.0-0.62","1972","2","""event"",""trial"",""time""
""fullscreenenter"",""1"",""11957""
""blur"",""55"",""270766""
""fullscreenexit"",""55"",""270766""
""focus"",""55"",""274555""
","""event"",""trial"",""time""
""blur"",""55"",""270766""
","""event"",""trial"",""time""
""focus"",""55"",""274555""
","""event"",""trial"",""time""
""fullscreenenter"",""1"",""11957""
","""event"",""trial"",""time""
""fullscreenexit"",""55"",""270766""
","","","","","","null","<div style=""font-size:60px;"">+</div>","null","","fixation","","","","","","","","",""
"memory-trial","168","538877","0.0-15.0-1.62","1972","2","""event"",""trial"",""time""
""fullscreenenter"",""1"",""11957""
""blur"",""55"",""270766""
""fullscreenexit"",""55"",""270766""
""focus"",""55"",""274555""
","""event"",""trial"",""time""
""blur"",""55"",""270766""
","""event"",""trial"",""time""
""focus"",""55"",""274555""
","""event"",""trial"",""time""
""fullscreenenter"",""1"",""11957""
","""event"",""trial"",""time""
""fullscreenexit"",""55"",""270766""
","","","","","","322.30000000074506","images/dog2.png","","","memory_trial","3","maybe_new","","","","","","",""
"html-keyboard-response","169","539382","0.0-15.0-0.63","1972","2","""event"",""trial"",""time""
""fullscreenenter"",""1"",""11957""
""blur"",""55"",""270766""
""fullscreenexit"",""55"",""270766""
""focus"",""55"",""274555""
","""event"",""trial"",""time""
""blur"",""55"",""270766""
","""event"",""trial"",""time""
""focus"",""55"",""274555""
","""event"",""trial"",""time""
""fullscreenenter"",""1"",""11957""
","""event"",""trial"",""time""
""fullscreenexit"",""55"",""270766""
","","","","","","null","<div style=""font-size:60px;"">+</div>","null","","fixation","","","","","","","","",""
"memory-trial","170","542503","0.0-15.0-1.63","1972","2","""event"",""trial"",""time""
""fullscreenenter"",""1"",""11957""
""blur"",""55"",""270766""
""fullscreenexit"",""55"",""270766""
""focus"",""55"",""274555""
","""event"",""trial"",""time""
""blur"",""55"",""270766""
","""event"",""trial"",""time""
""focus"",""55"",""274555""
","""event"",""trial"",""time""
""fullscreenenter"",""1"",""11957""
","""event"",""trial"",""time""
""fullscreenexit"",""55"",""270766""
","","","","","","2118.10000000149","images/banana1.png","","","memory_trial","4","definitely_new","","","","","","",""
"html-keyboard-response","171","543005","0.0-15.0-0.64","1972","2","""event"",""trial"",""time""
""fullscreenenter"",""1"",""11957""
""blur"",""55"",""270766""
""fullscreenexit"",""55"",""270766""
""focus"",""55"",""274555""
","""event"",""trial"",""time""
""blur"",""55"",""270766""
","""event"",""trial"",""time""
""focus"",""55"",""274555""
","""event"",""trial"",""time""
""fullscreenenter"",""1"",""11957""
","""event"",""trial"",""time""
""fullscreenexit"",""55"",""270766""
","","","","","","null","<div style=""font-size:60px;"">+</div>","null","","fixation","","","","","","","","",""
"memory-trial","172","544050","0.0-15.0-1.64","1972","2","""event"",""trial"",""time""
""fullscreenenter"",""1"",""11957""
""blur"",""55"",""270766""
""fullscreenexit"",""55"",""270766""
""focus"",""55"",""274555""
","""event"",""trial"",""time""
""blur"",""55"",""270766""
","""event"",""trial"",""time""
""focus"",""55"",""274555""
","""event"",""trial"",""time""
""fullscreenenter"",""1"",""11957""
","""event"",""trial"",""time""
""fullscreenexit"",""55"",""270766""
","","","","","","41.79999999701977","images/feline3.png","","","memory_trial","2","maybe_old","","","","","","",""
"html-keyboard-response","173","544552","0.0-15.0-0.65","1972","2","""event"",""trial"",""time""
""fullscreenenter"",""1"",""11957""
""blur"",""55"",""270766""
""fullscreenexit"",""55"",""270766""
""focus"",""55"",""274555""
","""event"",""trial"",""time""
""blur"",""55"",""270766""
","""event"",""trial"",""time""
""focus"",""55"",""274555""
","""event"",""trial"",""time""
""fullscreenenter"",""1"",""11957""
","""event"",""trial"",""time""
""fullscreenexit"",""55"",""270766""
","","","","","","null","<div style=""font-size:60px;"">+</div>","null","","fixation","","","","","","","","",""
"memory-trial","174","547252","0.0-15.0-1.65","1972","2","""event"",""trial"",""time""
""fullscreenenter"",""1"",""11957""
""blur"",""55"",""270766""
""fullscreenexit"",""55"",""270766""
""focus"",""55"",""274555""
","""event"",""trial"",""time""
""blur"",""55"",""270766""
","""event"",""trial"",""time""
""focus"",""55"",""274555""
","""event"",""trial"",""time""
""fullscreenenter"",""1"",""11957""
","""event"",""trial"",""time""
""fullscreenexit"",""55"",""270766""
","","","","","","1696.1000000014901","images/table2.png","","","memory_trial","3","maybe_new","","","","","","",""
"html-keyboard-response","175","547754","0.0-15.0-0.66","1972","2","""event"",""trial"",""time""
""fullscreenenter"",""1"",""11957""
""blur"",""55"",""270766""
""fullscreenexit"",""55"",""270766""
""focus"",""55"",""274555""
","""event"",""trial"",""time""
""blur"",""55"",""270766""
","""event"",""trial"",""time""
""focus"",""55"",""274555""
","""event"",""trial"",""time""
""fullscreenenter"",""1"",""11957""
","""event"",""trial"",""time""
""fullscreenexit"",""55"",""270766""
","","","","","","null","<div style=""font-size:60px;"">+</div>","null","","fixation","","","","","","","","",""
"memory-trial","176","550991","0.0-15.0-1.66","1972","2","""event"",""trial"",""time""
""fullscreenenter"",""1"",""11957""
""blur"",""55"",""270766""
""fullscreenexit"",""55"",""270766""
""focus"",""55"",""274555""
","""event"",""trial"",""time""
""blur"",""55"",""270766""
","""event"",""trial"",""time""
""focus"",""55"",""274555""
","""event"",""trial"",""time""
""fullscreenenter"",""1"",""11957""
","""event"",""trial"",""time""
""fullscreenexit"",""55"",""270766""
","","","","","","2233.5","images/bed1.png","","","memory_trial","4","definitely_new","","","","","","",""
"html-keyboard-response","177","551493","0.0-15.0-0.67","1972","2","""event"",""trial"",""time""
""fullscreenenter"",""1"",""11957""
""blur"",""55"",""270766""
""fullscreenexit"",""55"",""270766""
""focus"",""55"",""274555""
","""event"",""trial"",""time""
""blur"",""55"",""270766""
","""event"",""trial"",""time""
""focus"",""55"",""274555""
","""event"",""trial"",""time""
""fullscreenenter"",""1"",""11957""
","""event"",""trial"",""time""
""fullscreenexit"",""55"",""270766""
","","","","","","null","<div style=""font-size:60px;"">+</div>","null","","fixation","","","","","","","","",""
"memory-trial","178","555920","0.0-15.0-1.67","1972","2","""event"",""trial"",""time""
""fullscreenenter"",""1"",""11957""
""blur"",""55"",""270766""
""fullscreenexit"",""55"",""270766""
""focus"",""55"",""274555""
","""event"",""trial"",""time""
""blur"",""55"",""270766""
","""event"",""trial"",""time""
""focus"",""55"",""274555""
","""event"",""trial"",""time""
""fullscreenenter"",""1"",""11957""
","""event"",""trial"",""time""
""fullscreenexit"",""55"",""270766""
","","","","","","3422.599999997765","images/train1.png","","","memory_trial","1","definitely_old","","","","","","",""
"html-keyboard-response","179","556422","0.0-15.0-0.68","1972","2","""event"",""trial"",""time""
""fullscreenenter"",""1"",""11957""
""blur"",""55"",""270766""
""fullscreenexit"",""55"",""270766""
""focus"",""55"",""274555""
","""event"",""trial"",""time""
""blur"",""55"",""270766""
","""event"",""trial"",""time""
""focus"",""55"",""274555""
","""event"",""trial"",""time""
""fullscreenenter"",""1"",""11957""
","""event"",""trial"",""time""
""fullscreenexit"",""55"",""270766""
","","","","","","null","<div style=""font-size:60px;"">+</div>","null","","fixation","","","","","","","","",""
"memory-trial","180","559946","0.0-15.0-1.68","1972","2","""event"",""trial"",""time""
""fullscreenenter"",""1"",""11957""
""blur"",""55"",""270766""
""fullscreenexit"",""55"",""270766""
""focus"",""55"",""274555""
","""event"",""trial"",""time""
""blur"",""55"",""270766""
","""event"",""trial"",""time""
""focus"",""55"",""274555""
","""event"",""trial"",""time""
""fullscreenenter"",""1"",""11957""
","""event"",""trial"",""time""
""fullscreenexit"",""55"",""270766""
","","","","","","2519.10000000149","images/banana3.png","","","memory_trial","3","maybe_new","","","","","","",""
"html-keyboard-response","181","560447","0.0-15.0-0.69","1972","2","""event"",""trial"",""time""
""fullscreenenter"",""1"",""11957""
""blur"",""55"",""270766""
""fullscreenexit"",""55"",""270766""
""focus"",""55"",""274555""
","""event"",""trial"",""time""
""blur"",""55"",""270766""
","""event"",""trial"",""time""
""focus"",""55"",""274555""
","""event"",""trial"",""time""
""fullscreenenter"",""1"",""11957""
","""event"",""trial"",""time""
""fullscreenexit"",""55"",""270766""
","","","","","","null","<div style=""font-size:60px;"">+</div>","null","","fixation","","","","","","","","",""
"memory-trial","182","565407","0.0-15.0-1.69","1972","2","""event"",""trial"",""time""
""fullscreenenter"",""1"",""11957""
""blur"",""55"",""270766""
""fullscreenexit"",""55"",""270766""
""focus"",""55"",""274555""
","""event"",""trial"",""time""
""blur"",""55"",""270766""
","""event"",""trial"",""time""
""focus"",""55"",""274555""
","""event"",""trial"",""time""
""fullscreenenter"",""1"",""11957""
","""event"",""trial"",""time""
""fullscreenexit"",""55"",""270766""
","","","","","","3955.5","images/cow1.png","","","memory_trial","1","definitely_old","","","","","","",""
"html-keyboard-response","183","565909","0.0-15.0-0.70","1972","2","""event"",""trial"",""time""
""fullscreenenter"",""1"",""11957""
""blur"",""55"",""270766""
""fullscreenexit"",""55"",""270766""
""focus"",""55"",""274555""
","""event"",""trial"",""time""
""blur"",""55"",""270766""
","""event"",""trial"",""time""
""focus"",""55"",""274555""
","""event"",""trial"",""time""
""fullscreenenter"",""1"",""11957""
","""event"",""trial"",""time""
""fullscreenexit"",""55"",""270766""
","","","","","","null","<div style=""font-size:60px;"">+</div>","null","","fixation","","","","","","","","",""
"memory-trial","184","568800","0.0-15.0-1.70","1972","2","""event"",""trial"",""time""
""fullscreenenter"",""1"",""11957""
""blur"",""55"",""270766""
""fullscreenexit"",""55"",""270766""
""focus"",""55"",""274555""
","""event"",""trial"",""time""
""blur"",""55"",""270766""
","""event"",""trial"",""time""
""focus"",""55"",""274555""
","""event"",""trial"",""time""
""fullscreenenter"",""1"",""11957""
","""event"",""trial"",""time""
""fullscreenexit"",""55"",""270766""
","","","","","","1886.800000000745","images/rabbit2.png","","","memory_trial","3","maybe_new","","","","","","",""
"html-keyboard-response","185","569302","0.0-15.0-0.71","1972","2","""event"",""trial"",""time""
""fullscreenenter"",""1"",""11957""
""blur"",""55"",""270766""
""fullscreenexit"",""55"",""270766""
""focus"",""55"",""274555""
","""event"",""trial"",""time""
""blur"",""55"",""270766""
","""event"",""trial"",""time""
""focus"",""55"",""274555""
","""event"",""trial"",""time""
