"trial_type","trial_index","time_elapsed","internal_node_id","subject_id","task_version","interactions","blur_events","focus_events","fullscreenenter_events","fullscreenexit_events","success","timeout","failed_images","failed_audio","failed_video","rt","stimulus","response","button_pressed","task_part","key_press","answer","correct","left_choice","middle_choice","right_choice","choice_positions","option_selected","block"
"pavlovia","0","6","0.0-0.0","1509","2","""event"",""trial"",""time""
""fullscreenenter"",""1"",""14883""
","
","
","""event"",""trial"",""time""
""fullscreenenter"",""1"",""14883""
","
","","","","","","","","","","","","","","","","","","",""
"fullscreen","1","15857","0.0-1.0","1509","2","""event"",""trial"",""time""
""fullscreenenter"",""1"",""14883""
","
","
","""event"",""trial"",""time""
""fullscreenenter"",""1"",""14883""
","
","true","","","","","","","","","","","","","","","","","",""
"preload","2","16519","0.0-2.0","1509","2","""event"",""trial"",""time""
""fullscreenenter"",""1"",""14883""
","
","
","""event"",""trial"",""time""
""fullscreenenter"",""1"",""14883""
","
","true","false","[]","[]","[]","","","","","","","","","","","","","",""
"audio-keyboard-response","3","26797","0.0-3.0","1509","2","""event"",""trial"",""time""
""fullscreenenter"",""1"",""14883""
","
","
","""event"",""trial"",""time""
""fullscreenenter"",""1"",""14883""
","
","","","","","","10280.634920634922","audio/beep_loop.wav"," ","","","","","","","","","","",""
"audio-button-response","4","32686","0.0-4.0","1509","2","""event"",""trial"",""time""
""fullscreenenter"",""1"",""14883""
","
","
","""event"",""trial"",""time""
""fullscreenenter"",""1"",""14883""
","
","","","","","","5889","audio/turtle.wav","3","","","","","","","","","","",""
"audio-button-response","5","49172","0.0-5.0","1509","2","""event"",""trial"",""time""
""fullscreenenter"",""1"",""14883""
","
","
","""event"",""trial"",""time""
""fullscreenenter"",""1"",""14883""
","
","","","","","","15470","audio/shark.wav","0","","","","","","","","","","",""
"preload","6","51859","0.0-6.0","1509","2","""event"",""trial"",""time""
""fullscreenenter"",""1"",""14883""
""fullscreenexit"",""7"",""60963""
""blur"",""7"",""65401""
""focus"",""7"",""79319""
","""event"",""trial"",""time""
""blur"",""7"",""65401""
","""event"",""trial"",""time""
""focus"",""7"",""79319""
","""event"",""trial"",""time""
""fullscreenenter"",""1"",""14883""
","""event"",""trial"",""time""
""fullscreenexit"",""7"",""60963""
","true","false","[]","[]","[]","","","","","","","","","","","","","",""
"learning-instructions","7","90630","0.0-7.0-0.0","1509","2","""event"",""trial"",""time""
""fullscreenenter"",""1"",""14883""
""fullscreenexit"",""7"",""60963""
""blur"",""7"",""65401""
""focus"",""7"",""79319""
","""event"",""trial"",""time""
""blur"",""7"",""65401""
","""event"",""trial"",""time""
""focus"",""7"",""79319""
","""event"",""trial"",""time""
""fullscreenenter"",""1"",""14883""
","""event"",""trial"",""time""
""fullscreenexit"",""7"",""60963""
","","","","","","33962.5","<p> Welcome back! </p><p> Last week, you had to make choices about lots of different items.  </p>","","0","instructions","","","","","","","","",""
"learning-instructions","8","96833","0.0-7.0-0.1","1509","2","""event"",""trial"",""time""
""fullscreenenter"",""1"",""14883""
""fullscreenexit"",""7"",""60963""
""blur"",""7"",""65401""
""focus"",""7"",""79319""
","""event"",""trial"",""time""
""blur"",""7"",""65401""
","""event"",""trial"",""time""
""focus"",""7"",""79319""
","""event"",""trial"",""time""
""fullscreenenter"",""1"",""14883""
","""event"",""trial"",""time""
""fullscreenexit"",""7"",""60963""
","","","","","","1909.7000000029802","<p> Today, we are going to ask you to try to remember all the items. </p>","","0","instructions","","","","","","","","",""
"learning-instructions","9","108369","0.0-7.0-0.2","1509","2","""event"",""trial"",""time""
""fullscreenenter"",""1"",""14883""
""fullscreenexit"",""7"",""60963""
""blur"",""7"",""65401""
""focus"",""7"",""79319""
","""event"",""trial"",""time""
""blur"",""7"",""65401""
","""event"",""trial"",""time""
""focus"",""7"",""79319""
","""event"",""trial"",""time""
""fullscreenenter"",""1"",""14883""
","""event"",""trial"",""time""
""fullscreenexit"",""7"",""60963""
","","","","","","1398","<p> On every trial, you will see an image. </p><p> The image may be an OLD image you saw during the games last week or it may be a NEW image that was not presented. </p>","","0","instructions","","","","","","","","",""
"learning-instructions","10","119081","0.0-7.0-0.3","1509","2","""event"",""trial"",""time""
""fullscreenenter"",""1"",""14883""
""fullscreenexit"",""7"",""60963""
""blur"",""7"",""65401""
""focus"",""7"",""79319""
","""event"",""trial"",""time""
""blur"",""7"",""65401""
","""event"",""trial"",""time""
""focus"",""7"",""79319""
","""event"",""trial"",""time""
""fullscreenenter"",""1"",""14883""
","""event"",""trial"",""time""
""fullscreenexit"",""7"",""60963""
","","","","","","2186.5999999940395","<p> You need to select whether the image is:  </p><p>  'Definitely old', 'Maybe old', 'Maybe new', or 'Definitely new.'  </p><div class=""mem-choice-instructions-grid""><div class=""choice-option"" id=""choice-option-1"" ><img src=""images/definitely_old_1.png"" id=""choice-option-img-1"" class=""choice-option-img"" stage=""1""></div><div class=""choice-option"" id=""choice-option-2"" ><img src=""images/maybe_old_1.png"" id=""choice-option-img-2"" class=""choice-option-img"" stage=""1""></div><div class=""choice-option"" id=""choice-option-3"" ><img src=""images/maybe_new_1.png"" id=""choice-option-img-3"" class=""choice-option-img"" stage=""1""></div><div class=""choice-option"" id=""choice-option-4"" > <img src=""images/definitely_new_1.png"" id=""choice-option-img-4"" class=""choice-option-img"" stage=""1""></div></div>","","0","instructions","","","","","","","","",""
"learning-instructions","11","128593","0.0-7.0-0.4","1509","2","""event"",""trial"",""time""
""fullscreenenter"",""1"",""14883""
""fullscreenexit"",""7"",""60963""
""blur"",""7"",""65401""
""focus"",""7"",""79319""
","""event"",""trial"",""time""
""blur"",""7"",""65401""
","""event"",""trial"",""time""
""focus"",""7"",""79319""
","""event"",""trial"",""time""
""fullscreenenter"",""1"",""14883""
","""event"",""trial"",""time""
""fullscreenexit"",""7"",""60963""
","","","","","","2799.9000000059605","<p> You should use the 1, 2, 3, and 4 keys to make your responses.  </p><div class=""mem-choice-instructions-grid""><div class=""choice-option"" id=""choice-option-1"" ><img src=""images/definitely_old.png"" id=""choice-option-img-1"" class=""choice-option-img"" stage=""1""></div><div class=""choice-option"" id=""choice-option-2"" ><img src=""images/maybe_old.png"" id=""choice-option-img-2"" class=""choice-option-img"" stage=""1""></div><div class=""choice-option"" id=""choice-option-3"" ><img src=""images/maybe_new.png"" id=""choice-option-img-3"" class=""choice-option-img"" stage=""1""></div><div class=""choice-option"" id=""choice-option-4"" > <img src=""images/definitely_new.png"" id=""choice-option-img-4"" class=""choice-option-img"" stage=""1""></div></div>","","0","instructions","","","","","","","","",""
"learning-instructions","12","136924","0.0-7.0-0.5","1509","2","""event"",""trial"",""time""
""fullscreenenter"",""1"",""14883""
""fullscreenexit"",""7"",""60963""
""blur"",""7"",""65401""
""focus"",""7"",""79319""
","""event"",""trial"",""time""
""blur"",""7"",""65401""
","""event"",""trial"",""time""
""focus"",""7"",""79319""
","""event"",""trial"",""time""
""fullscreenenter"",""1"",""14883""
","""event"",""trial"",""time""
""fullscreenexit"",""7"",""60963""
","","","","","","1561.4000000059605","<p> You will have 10 seconds to make each response.  </p><p>  Make sure to respond before time runs out! </p>","","0","instructions","","","","","","","","",""
"learning-instructions","13","146505","0.0-7.0-0.6","1509","2","""event"",""trial"",""time""
""fullscreenenter"",""1"",""14883""
""fullscreenexit"",""7"",""60963""
""blur"",""7"",""65401""
""focus"",""7"",""79319""
","""event"",""trial"",""time""
""blur"",""7"",""65401""
","""event"",""trial"",""time""
""focus"",""7"",""79319""
","""event"",""trial"",""time""
""fullscreenenter"",""1"",""14883""
","""event"",""trial"",""time""
""fullscreenexit"",""7"",""60963""
","","","","","","1993.5","<p> Today, you will see each image ONCE only.  </p><p>  That means none of the images will repeat. </p>","","0","instructions","","","","","","","","",""
"learning-instructions","14","161435","0.0-7.0-0.7","1509","2","""event"",""trial"",""time""
""fullscreenenter"",""1"",""14883""
""fullscreenexit"",""7"",""60963""
""blur"",""7"",""65401""
""focus"",""7"",""79319""
","""event"",""trial"",""time""
""blur"",""7"",""65401""
","""event"",""trial"",""time""
""focus"",""7"",""79319""
","""event"",""trial"",""time""
""fullscreenenter"",""1"",""14883""
","""event"",""trial"",""time""
""fullscreenexit"",""7"",""60963""
","","","","","","2264.4000000059605","<p> Before you play the real game, it is time to practice. </p><p>  Just like in the real game, some of the images in the practice will be ones you have seen before. </p><p>  Others will be entirely new. </p>","","0","instructions","","","","","","","","",""
"html-button-response","15","163077","0.0-8.0","1509","2","""event"",""trial"",""time""
""fullscreenenter"",""1"",""14883""
""fullscreenexit"",""7"",""60963""
""blur"",""7"",""65401""
""focus"",""7"",""79319""
","""event"",""trial"",""time""
""blur"",""7"",""65401""
","""event"",""trial"",""time""
""focus"",""7"",""79319""
","""event"",""trial"",""time""
""fullscreenenter"",""1"",""14883""
","""event"",""trial"",""time""
""fullscreenexit"",""7"",""60963""
","","","","","","1530.9000000059605","<p> Ready to practice? </p><p> Remember, use the 1, 2, 3, and 4 keys to make your responses. </p>","0","","instructions","","","","","","","","",""
"html-keyboard-response","16","163693","0.0-9.0-0.0","1509","2","""event"",""trial"",""time""
""fullscreenenter"",""1"",""14883""
""fullscreenexit"",""7"",""60963""
""blur"",""7"",""65401""
""focus"",""7"",""79319""
","""event"",""trial"",""time""
""blur"",""7"",""65401""
","""event"",""trial"",""time""
""focus"",""7"",""79319""
","""event"",""trial"",""time""
""fullscreenenter"",""1"",""14883""
","""event"",""trial"",""time""
""fullscreenexit"",""7"",""60963""
","","","","","","null","<div style=""font-size:60px;"">+</div>","null","","fixation","","","","","","","","",""
"memory-trial","17","165409","0.0-9.0-1.0","1509","2","""event"",""trial"",""time""
""fullscreenenter"",""1"",""14883""
""fullscreenexit"",""7"",""60963""
""blur"",""7"",""65401""
""focus"",""7"",""79319""
","""event"",""trial"",""time""
""blur"",""7"",""65401""
","""event"",""trial"",""time""
""focus"",""7"",""79319""
","""event"",""trial"",""time""
""fullscreenenter"",""1"",""14883""
","""event"",""trial"",""time""
""fullscreenexit"",""7"",""60963""
","","","","","","695.2999999970198","images/ball1.png","","","practice","2","maybe_old","","","","","","",""
"html-keyboard-response","18","165919","0.0-9.0-0.1","1509","2","""event"",""trial"",""time""
""fullscreenenter"",""1"",""14883""
""fullscreenexit"",""7"",""60963""
""blur"",""7"",""65401""
""focus"",""7"",""79319""
","""event"",""trial"",""time""
""blur"",""7"",""65401""
","""event"",""trial"",""time""
""focus"",""7"",""79319""
","""event"",""trial"",""time""
""fullscreenenter"",""1"",""14883""
","""event"",""trial"",""time""
""fullscreenexit"",""7"",""60963""
","","","","","","null","<div style=""font-size:60px;"">+</div>","null","","fixation","","","","","","","","",""
"memory-trial","19","168039","0.0-9.0-1.1","1509","2","""event"",""trial"",""time""
""fullscreenenter"",""1"",""14883""
""fullscreenexit"",""7"",""60963""
""blur"",""7"",""65401""
""focus"",""7"",""79319""
","""event"",""trial"",""time""
""blur"",""7"",""65401""
","""event"",""trial"",""time""
""focus"",""7"",""79319""
","""event"",""trial"",""time""
""fullscreenenter"",""1"",""14883""
","""event"",""trial"",""time""
""fullscreenexit"",""7"",""60963""
","","","","","","1100.7000000029802","images/racket4.png","","","practice","3","maybe_new","","","","","","",""
"html-keyboard-response","20","168559","0.0-9.0-0.2","1509","2","""event"",""trial"",""time""
""fullscreenenter"",""1"",""14883""
""fullscreenexit"",""7"",""60963""
""blur"",""7"",""65401""
""focus"",""7"",""79319""
","""event"",""trial"",""time""
""blur"",""7"",""65401""
","""event"",""trial"",""time""
""focus"",""7"",""79319""
","""event"",""trial"",""time""
""fullscreenenter"",""1"",""14883""
","""event"",""trial"",""time""
""fullscreenexit"",""7"",""60963""
","","","","","","null","<div style=""font-size:60px;"">+</div>","null","","fixation","","","","","","","","",""
"memory-trial","21","171269","0.0-9.0-1.2","1509","2","""event"",""trial"",""time""
""fullscreenenter"",""1"",""14883""
""fullscreenexit"",""7"",""60963""
""blur"",""7"",""65401""
""focus"",""7"",""79319""
","""event"",""trial"",""time""
""blur"",""7"",""65401""
","""event"",""trial"",""time""
""focus"",""7"",""79319""
","""event"",""trial"",""time""
""fullscreenenter"",""1"",""14883""
","""event"",""trial"",""time""
""fullscreenexit"",""7"",""60963""
","","","","","","1692.5","images/ball2.png","","","practice","3","maybe_new","","","","","","",""
"html-keyboard-response","22","171779","0.0-9.0-0.3","1509","2","""event"",""trial"",""time""
""fullscreenenter"",""1"",""14883""
""fullscreenexit"",""7"",""60963""
""blur"",""7"",""65401""
""focus"",""7"",""79319""
","""event"",""trial"",""time""
""blur"",""7"",""65401""
","""event"",""trial"",""time""
""focus"",""7"",""79319""
","""event"",""trial"",""time""
""fullscreenenter"",""1"",""14883""
","""event"",""trial"",""time""
""fullscreenexit"",""7"",""60963""
","","","","","","null","<div style=""font-size:60px;"">+</div>","null","","fixation","","","","","","","","",""
"memory-trial","23","176010","0.0-9.0-1.3","1509","2","""event"",""trial"",""time""
""fullscreenenter"",""1"",""14883""
""fullscreenexit"",""7"",""60963""
""blur"",""7"",""65401""
""focus"",""7"",""79319""
","""event"",""trial"",""time""
""blur"",""7"",""65401""
","""event"",""trial"",""time""
""focus"",""7"",""79319""
","""event"",""trial"",""time""
""fullscreenenter"",""1"",""14883""
","""event"",""trial"",""time""
""fullscreenexit"",""7"",""60963""
","","","","","","3224","images/ball4.png","","","practice","1","definitely_old","","","","","","",""
"html-keyboard-response","24","176519","0.0-9.0-0.4","1509","2","""event"",""trial"",""time""
""fullscreenenter"",""1"",""14883""
""fullscreenexit"",""7"",""60963""
""blur"",""7"",""65401""
""focus"",""7"",""79319""
","""event"",""trial"",""time""
""blur"",""7"",""65401""
","""event"",""trial"",""time""
""focus"",""7"",""79319""
","""event"",""trial"",""time""
""fullscreenenter"",""1"",""14883""
","""event"",""trial"",""time""
""fullscreenexit"",""7"",""60963""
","","","","","","null","<div style=""font-size:60px;"">+</div>","null","","fixation","","","","","","","","",""
"memory-trial","25","179841","0.0-9.0-1.4","1509","2","""event"",""trial"",""time""
""fullscreenenter"",""1"",""14883""
""fullscreenexit"",""7"",""60963""
""blur"",""7"",""65401""
""focus"",""7"",""79319""
","""event"",""trial"",""time""
""blur"",""7"",""65401""
","""event"",""trial"",""time""
""focus"",""7"",""79319""
","""event"",""trial"",""time""
""fullscreenenter"",""1"",""14883""
","""event"",""trial"",""time""
""fullscreenexit"",""7"",""60963""
","","","","","","2296.7999999970198","images/ball3.png","","","practice","2","maybe_old","","","","","","",""
"html-keyboard-response","26","180350","0.0-9.0-0.5","1509","2","""event"",""trial"",""time""
""fullscreenenter"",""1"",""14883""
""fullscreenexit"",""7"",""60963""
""blur"",""7"",""65401""
""focus"",""7"",""79319""
","""event"",""trial"",""time""
""blur"",""7"",""65401""
","""event"",""trial"",""time""
""focus"",""7"",""79319""
","""event"",""trial"",""time""
""fullscreenenter"",""1"",""14883""
","""event"",""trial"",""time""
""fullscreenexit"",""7"",""60963""
","","","","","","null","<div style=""font-size:60px;"">+</div>","null","","fixation","","","","","","","","",""
"memory-trial","27","182816","0.0-9.0-1.5","1509","2","""event"",""trial"",""time""
""fullscreenenter"",""1"",""14883""
""fullscreenexit"",""7"",""60963""
""blur"",""7"",""65401""
""focus"",""7"",""79319""
","""event"",""trial"",""time""
""blur"",""7"",""65401""
","""event"",""trial"",""time""
""focus"",""7"",""79319""
","""event"",""trial"",""time""
""fullscreenenter"",""1"",""14883""
","""event"",""trial"",""time""
""fullscreenexit"",""7"",""60963""
","","","","","","1460.7999999970198","images/racket2.png","","","practice","4","definitely_new","","","","","","",""
"html-keyboard-response","28","183317","0.0-9.0-0.6","1509","2","""event"",""trial"",""time""
""fullscreenenter"",""1"",""14883""
""fullscreenexit"",""7"",""60963""
""blur"",""7"",""65401""
""focus"",""7"",""79319""
","""event"",""trial"",""time""
""blur"",""7"",""65401""
","""event"",""trial"",""time""
""focus"",""7"",""79319""
","""event"",""trial"",""time""
""fullscreenenter"",""1"",""14883""
","""event"",""trial"",""time""
""fullscreenexit"",""7"",""60963""
","","","","","","null","<div style=""font-size:60px;"">+</div>","null","","fixation","","","","","","","","",""
"memory-trial","29","186580","0.0-9.0-1.6","1509","2","""event"",""trial"",""time""
""fullscreenenter"",""1"",""14883""
""fullscreenexit"",""7"",""60963""
""blur"",""7"",""65401""
""focus"",""7"",""79319""
","""event"",""trial"",""time""
""blur"",""7"",""65401""
","""event"",""trial"",""time""
""focus"",""7"",""79319""
","""event"",""trial"",""time""
""fullscreenenter"",""1"",""14883""
","""event"",""trial"",""time""
""fullscreenexit"",""7"",""60963""
","","","","","","2247","images/racket3.png","","","practice","2","maybe_old","","","","","","",""
"html-keyboard-response","30","187099","0.0-9.0-0.7","1509","2","""event"",""trial"",""time""
""fullscreenenter"",""1"",""14883""
""fullscreenexit"",""7"",""60963""
""blur"",""7"",""65401""
""focus"",""7"",""79319""
","""event"",""trial"",""time""
""blur"",""7"",""65401""
","""event"",""trial"",""time""
""focus"",""7"",""79319""
","""event"",""trial"",""time""
""fullscreenenter"",""1"",""14883""
","""event"",""trial"",""time""
""fullscreenexit"",""7"",""60963""
","","","","","","null","<div style=""font-size:60px;"">+</div>","null","","fixation","","","","","","","","",""
"memory-trial","31","190897","0.0-9.0-1.7","1509","2","""event"",""trial"",""time""
""fullscreenenter"",""1"",""14883""
""fullscreenexit"",""7"",""60963""
""blur"",""7"",""65401""
""focus"",""7"",""79319""
","""event"",""trial"",""time""
""blur"",""7"",""65401""
","""event"",""trial"",""time""
""focus"",""7"",""79319""
","""event"",""trial"",""time""
""fullscreenenter"",""1"",""14883""
","""event"",""trial"",""time""
""fullscreenexit"",""7"",""60963""
","","","","","","2791.2000000029802","images/racket1.png","","","practice","4","definitely_new","","","","","","",""
"learning-instructions","32","204547","0.0-10.0-0.0","1509","2","""event"",""trial"",""time""
""fullscreenenter"",""1"",""14883""
""fullscreenexit"",""7"",""60963""
""blur"",""7"",""65401""
""focus"",""7"",""79319""
","""event"",""trial"",""time""
""blur"",""7"",""65401""
","""event"",""trial"",""time""
""focus"",""7"",""79319""
","""event"",""trial"",""time""
""fullscreenenter"",""1"",""14883""
","""event"",""trial"",""time""
""fullscreenexit"",""7"",""60963""
","","","","","","5712.29999999702","<p> Great! You have completed the practice. </p><p> Before you start, we're going to ask you a few questions about how the game works.  </p>","","0","instructions","","","","","","","","",""
"preload","33","208118","0.0-11.0","1509","2","""event"",""trial"",""time""
""fullscreenenter"",""1"",""14883""
""fullscreenexit"",""7"",""60963""
""blur"",""7"",""65401""
""focus"",""7"",""79319""
","""event"",""trial"",""time""
""blur"",""7"",""65401""
","""event"",""trial"",""time""
""focus"",""7"",""79319""
","""event"",""trial"",""time""
""fullscreenenter"",""1"",""14883""
","""event"",""trial"",""time""
""fullscreenexit"",""7"",""60963""
","true","false","[]","[]","[]","","","","","","","","","","","","","",""
"comp-q","34","216111","0.0-12.0-0.0","1509","2","""event"",""trial"",""time""
""fullscreenenter"",""1"",""14883""
""fullscreenexit"",""7"",""60963""
""blur"",""7"",""65401""
""focus"",""7"",""79319""
","""event"",""trial"",""time""
""blur"",""7"",""65401""
","""event"",""trial"",""time""
""focus"",""7"",""79319""
","""event"",""trial"",""time""
""fullscreenenter"",""1"",""14883""
","""event"",""trial"",""time""
""fullscreenexit"",""7"",""60963""
","","","","","","2166.4000000059605","<p> <b> True or False? </b> </p><p> In this game, you will only see each image once. </p>","","0","comp_question","","","true","","","","","",""
"comp-q","35","226717","0.0-12.0-1.0","1509","2","""event"",""trial"",""time""
""fullscreenenter"",""1"",""14883""
""fullscreenexit"",""7"",""60963""
""blur"",""7"",""65401""
""focus"",""7"",""79319""
","""event"",""trial"",""time""
""blur"",""7"",""65401""
","""event"",""trial"",""time""
""focus"",""7"",""79319""
","""event"",""trial"",""time""
""fullscreenenter"",""1"",""14883""
","""event"",""trial"",""time""
""fullscreenexit"",""7"",""60963""
","","","","","","4253","<p> <b> That's right! </b> You will see many different images <i> one time each </i> in this game. </p>","","0","comp_answer","","","","","","","","",""
"comp-q","36","234121","0.0-12.0-0.1","1509","2","""event"",""trial"",""time""
""fullscreenenter"",""1"",""14883""
""fullscreenexit"",""7"",""60963""
""blur"",""7"",""65401""
""focus"",""7"",""79319""
","""event"",""trial"",""time""
""blur"",""7"",""65401""
","""event"",""trial"",""time""
""focus"",""7"",""79319""
","""event"",""trial"",""time""
""fullscreenenter"",""1"",""14883""
","""event"",""trial"",""time""
""fullscreenexit"",""7"",""60963""
","","","","","","1597.1000000089407","<p> <b> True or False? </b> </p><p> You should use the mouse and click to make your response. </p>","","1","comp_question","","","true","","","","","",""
"comp-q","37","244391","0.0-12.0-1.1","1509","2","""event"",""trial"",""time""
""fullscreenenter"",""1"",""14883""
""fullscreenexit"",""7"",""60963""
""blur"",""7"",""65401""
""focus"",""7"",""79319""
","""event"",""trial"",""time""
""blur"",""7"",""65401""
","""event"",""trial"",""time""
""focus"",""7"",""79319""
","""event"",""trial"",""time""
""fullscreenenter"",""1"",""14883""
","""event"",""trial"",""time""
""fullscreenexit"",""7"",""60963""
","","","","","","2928.199999988079","<p><b> That's right! </b> You should use the '1', '2', '3', and '4' keys to make your response. </p>","","0","comp_answer","","","","","","","","",""
"comp-q","38","252341","0.0-12.0-0.2","1509","2","""event"",""trial"",""time""
""fullscreenenter"",""1"",""14883""
""fullscreenexit"",""7"",""60963""
""blur"",""7"",""65401""
""focus"",""7"",""79319""
","""event"",""trial"",""time""
""blur"",""7"",""65401""
","""event"",""trial"",""time""
""focus"",""7"",""79319""
","""event"",""trial"",""time""
""fullscreenenter"",""1"",""14883""
","""event"",""trial"",""time""
""fullscreenexit"",""7"",""60963""
","","","","","","1948.2000000029802","<p> <b> True or False? </b> </p><p> You will have as much time as you want to make each choice. </p>","","1","comp_question","","","true","","","","","",""
"comp-q","39","259607","0.0-12.0-1.2","1509","2","""event"",""trial"",""time""
""fullscreenenter"",""1"",""14883""
""fullscreenexit"",""7"",""60963""
""blur"",""7"",""65401""
""focus"",""7"",""79319""
","""event"",""trial"",""time""
""blur"",""7"",""65401""
","""event"",""trial"",""time""
""focus"",""7"",""79319""
","""event"",""trial"",""time""
""fullscreenenter"",""1"",""14883""
","""event"",""trial"",""time""
""fullscreenexit"",""7"",""60963""
","","","","","","1864.0999999940395","<p> <b> That's right! </b> You will only have 10 seconds to make each choice. </p>","","0","comp_answer","","","","","","","","",""
"learning-instructions","40","269513","0.0-13.0","1509","2","""event"",""trial"",""time""
""fullscreenenter"",""1"",""14883""
""fullscreenexit"",""7"",""60963""
""blur"",""7"",""65401""
""focus"",""7"",""79319""
","""event"",""trial"",""time""
""blur"",""7"",""65401""
","""event"",""trial"",""time""
""focus"",""7"",""79319""
","""event"",""trial"",""time""
""fullscreenenter"",""1"",""14883""
","""event"",""trial"",""time""
""fullscreenexit"",""7"",""60963""
","","","","","","1237.2999999970198","<p> Great! You are now ready to begin the game. </p><p> Remember, use the 1, 2, 3, and 4 keys to make your responses. </p>","","0","instructions","","","","","","","","",""
"preload","41","280004","0.0-14.0","1509","2","""event"",""trial"",""time""
""fullscreenenter"",""1"",""14883""
""fullscreenexit"",""7"",""60963""
""blur"",""7"",""65401""
""focus"",""7"",""79319""
","""event"",""trial"",""time""
""blur"",""7"",""65401""
","""event"",""trial"",""time""
""focus"",""7"",""79319""
","""event"",""trial"",""time""
""fullscreenenter"",""1"",""14883""
","""event"",""trial"",""time""
""fullscreenexit"",""7"",""60963""
","true","false","[]","[]","[]","","","","","","","","","","","","","",""
"html-keyboard-response","42","280522","0.0-15.0-0.0","1509","2","""event"",""trial"",""time""
""fullscreenenter"",""1"",""14883""
""fullscreenexit"",""7"",""60963""
""blur"",""7"",""65401""
""focus"",""7"",""79319""
","""event"",""trial"",""time""
""blur"",""7"",""65401""
","""event"",""trial"",""time""
""focus"",""7"",""79319""
","""event"",""trial"",""time""
""fullscreenenter"",""1"",""14883""
","""event"",""trial"",""time""
""fullscreenexit"",""7"",""60963""
","","","","","","null","<div style=""font-size:60px;"">+</div>","null","","fixation","","","","","","","","",""
"memory-trial","43","282052","0.0-15.0-1.0","1509","2","""event"",""trial"",""time""
""fullscreenenter"",""1"",""14883""
""fullscreenexit"",""7"",""60963""
""blur"",""7"",""65401""
""focus"",""7"",""79319""
","""event"",""trial"",""time""
""blur"",""7"",""65401""
","""event"",""trial"",""time""
""focus"",""7"",""79319""
","""event"",""trial"",""time""
""fullscreenenter"",""1"",""14883""
","""event"",""trial"",""time""
""fullscreenexit"",""7"",""60963""
","","","","","","512.5","images/apple2.png","","","memory_trial","3","maybe_new","","","","","","",""
"html-keyboard-response","44","282562","0.0-15.0-0.1","1509","2","""event"",""trial"",""time""
""fullscreenenter"",""1"",""14883""
""fullscreenexit"",""7"",""60963""
""blur"",""7"",""65401""
""focus"",""7"",""79319""
","""event"",""trial"",""time""
""blur"",""7"",""65401""
","""event"",""trial"",""time""
""focus"",""7"",""79319""
","""event"",""trial"",""time""
""fullscreenenter"",""1"",""14883""
","""event"",""trial"",""time""
""fullscreenexit"",""7"",""60963""
","","","","","","null","<div style=""font-size:60px;"">+</div>","null","","fixation","","","","","","","","",""
"memory-trial","45","284042","0.0-15.0-1.1","1509","2","""event"",""trial"",""time""
""fullscreenenter"",""1"",""14883""
""fullscreenexit"",""7"",""60963""
""blur"",""7"",""65401""
""focus"",""7"",""79319""
","""event"",""trial"",""time""
""blur"",""7"",""65401""
","""event"",""trial"",""time""
""focus"",""7"",""79319""
","""event"",""trial"",""time""
""fullscreenenter"",""1"",""14883""
","""event"",""trial"",""time""
""fullscreenexit"",""7"",""60963""
","","","","","","465","images/cow2.png","","","memory_trial","2","maybe_old","","","","","","",""
"html-keyboard-response","46","284551","0.0-15.0-0.2","1509","2","""event"",""trial"",""time""
""fullscreenenter"",""1"",""14883""
""fullscreenexit"",""7"",""60963""
""blur"",""7"",""65401""
""focus"",""7"",""79319""
","""event"",""trial"",""time""
""blur"",""7"",""65401""
","""event"",""trial"",""time""
""focus"",""7"",""79319""
","""event"",""trial"",""time""
""fullscreenenter"",""1"",""14883""
","""event"",""trial"",""time""
""fullscreenexit"",""7"",""60963""
","","","","","","null","<div style=""font-size:60px;"">+</div>","null","","fixation","","","","","","","","",""
"memory-trial","47","286012","0.0-15.0-1.2","1509","2","""event"",""trial"",""time""
""fullscreenenter"",""1"",""14883""
""fullscreenexit"",""7"",""60963""
""blur"",""7"",""65401""
""focus"",""7"",""79319""
","""event"",""trial"",""time""
""blur"",""7"",""65401""
","""event"",""trial"",""time""
""focus"",""7"",""79319""
","""event"",""trial"",""time""
""fullscreenenter"",""1"",""14883""
","""event"",""trial"",""time""
""fullscreenexit"",""7"",""60963""
","","","","","","451.6000000089407","images/truck5.png","","","memory_trial","1","definitely_old","","","","","","",""
"html-keyboard-response","48","286521","0.0-15.0-0.3","1509","2","""event"",""trial"",""time""
""fullscreenenter"",""1"",""14883""
""fullscreenexit"",""7"",""60963""
""blur"",""7"",""65401""
""focus"",""7"",""79319""
","""event"",""trial"",""time""
""blur"",""7"",""65401""
","""event"",""trial"",""time""
""focus"",""7"",""79319""
","""event"",""trial"",""time""
""fullscreenenter"",""1"",""14883""
","""event"",""trial"",""time""
""fullscreenexit"",""7"",""60963""
","","","","","","null","<div style=""font-size:60px;"">+</div>","null","","fixation","","","","","","","","",""
"memory-trial","49","287942","0.0-15.0-1.3","1509","2","""event"",""trial"",""time""
""fullscreenenter"",""1"",""14883""
""fullscreenexit"",""7"",""60963""
""blur"",""7"",""65401""
""focus"",""7"",""79319""
","""event"",""trial"",""time""
""blur"",""7"",""65401""
","""event"",""trial"",""time""
""focus"",""7"",""79319""
","""event"",""trial"",""time""
""fullscreenenter"",""1"",""14883""
","""event"",""trial"",""time""
""fullscreenexit"",""7"",""60963""
","","","","","","402.40000000596046","images/feline1.png","","","memory_trial","4","definitely_new","","","","","","",""
"html-keyboard-response","50","288452","0.0-15.0-0.4","1509","2","""event"",""trial"",""time""
""fullscreenenter"",""1"",""14883""
""fullscreenexit"",""7"",""60963""
""blur"",""7"",""65401""
""focus"",""7"",""79319""
","""event"",""trial"",""time""
""blur"",""7"",""65401""
","""event"",""trial"",""time""
""focus"",""7"",""79319""
","""event"",""trial"",""time""
""fullscreenenter"",""1"",""14883""
","""event"",""trial"",""time""
""fullscreenexit"",""7"",""60963""
","","","","","","null","<div style=""font-size:60px;"">+</div>","null","","fixation","","","","","","","","",""
"memory-trial","51","289952","0.0-15.0-1.4","1509","2","""event"",""trial"",""time""
""fullscreenenter"",""1"",""14883""
""fullscreenexit"",""7"",""60963""
""blur"",""7"",""65401""
""focus"",""7"",""79319""
","""event"",""trial"",""time""
""blur"",""7"",""65401""
","""event"",""trial"",""time""
""focus"",""7"",""79319""
","""event"",""trial"",""time""
""fullscreenenter"",""1"",""14883""
","""event"",""trial"",""time""
""fullscreenexit"",""7"",""60963""
","","","","","","488.1000000089407","images/straw4.png","","","memory_trial","2","maybe_old","","","","","","",""
"html-keyboard-response","52","290462","0.0-15.0-0.5","1509","2","""event"",""trial"",""time""
""fullscreenenter"",""1"",""14883""
""fullscreenexit"",""7"",""60963""
""blur"",""7"",""65401""
""focus"",""7"",""79319""
","""event"",""trial"",""time""
""blur"",""7"",""65401""
","""event"",""trial"",""time""
""focus"",""7"",""79319""
","""event"",""trial"",""time""
""fullscreenenter"",""1"",""14883""
","""event"",""trial"",""time""
""fullscreenexit"",""7"",""60963""
","","","","","","null","<div style=""font-size:60px;"">+</div>","null","","fixation","","","","","","","","",""
"memory-trial","53","291961","0.0-15.0-1.5","1509","2","""event"",""trial"",""time""
""fullscreenenter"",""1"",""14883""
""fullscreenexit"",""7"",""60963""
""blur"",""7"",""65401""
""focus"",""7"",""79319""
","""event"",""trial"",""time""
""blur"",""7"",""65401""
","""event"",""trial"",""time""
""focus"",""7"",""79319""
","""event"",""trial"",""time""
""fullscreenenter"",""1"",""14883""
","""event"",""trial"",""time""
""fullscreenexit"",""7"",""60963""
","","","","","","483","images/boat1.png","","","memory_trial","3","maybe_new","","","","","","",""
"html-keyboard-response","54","292481","0.0-15.0-0.6","1509","2","""event"",""trial"",""time""
""fullscreenenter"",""1"",""14883""
""fullscreenexit"",""7"",""60963""
""blur"",""7"",""65401""
""focus"",""7"",""79319""
","""event"",""trial"",""time""
""blur"",""7"",""65401""
","""event"",""trial"",""time""
""focus"",""7"",""79319""
","""event"",""trial"",""time""
""fullscreenenter"",""1"",""14883""
","""event"",""trial"",""time""
""fullscreenexit"",""7"",""60963""
","","","","","","null","<div style=""font-size:60px;"">+</div>","null","","fixation","","","","","","","","",""
"memory-trial","55","293962","0.0-15.0-1.6","1509","2","""event"",""trial"",""time""
""fullscreenenter"",""1"",""14883""
""fullscreenexit"",""7"",""60963""
""blur"",""7"",""65401""
""focus"",""7"",""79319""
","""event"",""trial"",""time""
""blur"",""7"",""65401""
","""event"",""trial"",""time""
""focus"",""7"",""79319""
","""event"",""trial"",""time""
""fullscreenenter"",""1"",""14883""
","""event"",""trial"",""time""
""fullscreenexit"",""7"",""60963""
","","","","","","458.3999999910593","images/tree4.png","","","memory_trial","3","maybe_new","","","","","","",""
"html-keyboard-response","56","294471","0.0-15.0-0.7","1509","2","""event"",""trial"",""time""
""fullscreenenter"",""1"",""14883""
""fullscreenexit"",""7"",""60963""
""blur"",""7"",""65401""
""focus"",""7"",""79319""
","""event"",""trial"",""time""
""blur"",""7"",""65401""
","""event"",""trial"",""time""
""focus"",""7"",""79319""
","""event"",""trial"",""time""
""fullscreenenter"",""1"",""14883""
","""event"",""trial"",""time""
""fullscreenexit"",""7"",""60963""
","","","","","","null","<div style=""font-size:60px;"">+</div>","null","","fixation","","","","","","","","",""
"memory-trial","57","295962","0.0-15.0-1.7","1509","2","""event"",""trial"",""time""
""fullscreenenter"",""1"",""14883""
""fullscreenexit"",""7"",""60963""
""blur"",""7"",""65401""
""focus"",""7"",""79319""
","""event"",""trial"",""time""
""blur"",""7"",""65401""
","""event"",""trial"",""time""
""focus"",""7"",""79319""
","""event"",""trial"",""time""
""fullscreenenter"",""1"",""14883""
","""event"",""trial"",""time""
""fullscreenexit"",""7"",""60963""
","","","","","","484.30000001192093","images/truck2.png","","","memory_trial","1","definitely_old","","","","","","",""
"html-keyboard-response","58","296471","0.0-15.0-0.8","1509","2","""event"",""trial"",""time""
""fullscreenenter"",""1"",""14883""
""fullscreenexit"",""7"",""60963""
""blur"",""7"",""65401""
""focus"",""7"",""79319""
","""event"",""trial"",""time""
""blur"",""7"",""65401""
","""event"",""trial"",""time""
""focus"",""7"",""79319""
","""event"",""trial"",""time""
""fullscreenenter"",""1"",""14883""
","""event"",""trial"",""time""
""fullscreenexit"",""7"",""60963""
","","","","","","null","<div style=""font-size:60px;"">+</div>","null","","fixation","","","","","","","","",""
"memory-trial","59","297911","0.0-15.0-1.8","1509","2","""event"",""trial"",""time""
""fullscreenenter"",""1"",""14883""
""fullscreenexit"",""7"",""60963""
""blur"",""7"",""65401""
""focus"",""7"",""79319""
","""event"",""trial"",""time""
""blur"",""7"",""65401""
","""event"",""trial"",""time""
""focus"",""7"",""79319""
","""event"",""trial"",""time""
""fullscreenenter"",""1"",""14883""
","""event"",""trial"",""time""
""fullscreenexit"",""7"",""60963""
","","","","","","435.6000000089407","images/cow1.png","","","memory_trial","4","definitely_new","","","","","","",""
"html-keyboard-response","60","298413","0.0-15.0-0.9","1509","2","""event"",""trial"",""time""
""fullscreenenter"",""1"",""14883""
""fullscreenexit"",""7"",""60963""
""blur"",""7"",""65401""
""focus"",""7"",""79319""
","""event"",""trial"",""time""
""blur"",""7"",""65401""
","""event"",""trial"",""time""
""focus"",""7"",""79319""
","""event"",""trial"",""time""
""fullscreenenter"",""1"",""14883""
","""event"",""trial"",""time""
""fullscreenexit"",""7"",""60963""
","","","","","","null","<div style=""font-size:60px;"">+</div>","null","","fixation","","","","","","","","",""
"memory-trial","61","300104","0.0-15.0-1.9","1509","2","""event"",""trial"",""time""
""fullscreenenter"",""1"",""14883""
""fullscreenexit"",""7"",""60963""
""blur"",""7"",""65401""
""focus"",""7"",""79319""
","""event"",""trial"",""time""
""blur"",""7"",""65401""
","""event"",""trial"",""time""
""focus"",""7"",""79319""
","""event"",""trial"",""time""
""fullscreenenter"",""1"",""14883""
","""event"",""trial"",""time""
""fullscreenexit"",""7"",""60963""
","","","","","","685.8999999910593","images/tree3.png","","","memory_trial","2","maybe_old","","","","","","",""
"html-keyboard-response","62","300606","0.0-15.0-0.10","1509","2","""event"",""trial"",""time""
""fullscreenenter"",""1"",""14883""
""fullscreenexit"",""7"",""60963""
""blur"",""7"",""65401""
""focus"",""7"",""79319""
","""event"",""trial"",""time""
""blur"",""7"",""65401""
","""event"",""trial"",""time""
""focus"",""7"",""79319""
","""event"",""trial"",""time""
""fullscreenenter"",""1"",""14883""
","""event"",""trial"",""time""
""fullscreenexit"",""7"",""60963""
","","","","","","null","<div style=""font-size:60px;"">+</div>","null","","fixation","","","","","","","","",""
"memory-trial","63","303096","0.0-15.0-1.10","1509","2","""event"",""trial"",""time""
""fullscreenenter"",""1"",""14883""
""fullscreenexit"",""7"",""60963""
""blur"",""7"",""65401""
""focus"",""7"",""79319""
","""event"",""trial"",""time""
""blur"",""7"",""65401""
","""event"",""trial"",""time""
""focus"",""7"",""79319""
","""event"",""trial"",""time""
""fullscreenenter"",""1"",""14883""
","""event"",""trial"",""time""
""fullscreenexit"",""7"",""60963""
","","","","","","1486.2999999970198","images/banana5.png","","","memory_trial","4","definitely_new","","","","","","",""
"html-keyboard-response","64","303598","0.0-15.0-0.11","1509","2","""event"",""trial"",""time""
""fullscreenenter"",""1"",""14883""
""fullscreenexit"",""7"",""60963""
""blur"",""7"",""65401""
""focus"",""7"",""79319""
","""event"",""trial"",""time""
""blur"",""7"",""65401""
","""event"",""trial"",""time""
""focus"",""7"",""79319""
","""event"",""trial"",""time""
""fullscreenenter"",""1"",""14883""
","""event"",""trial"",""time""
""fullscreenexit"",""7"",""60963""
","","","","","","null","<div style=""font-size:60px;"">+</div>","null","","fixation","","","","","","","","",""
"memory-trial","65","306657","0.0-15.0-1.11","1509","2","""event"",""trial"",""time""
""fullscreenenter"",""1"",""14883""
""fullscreenexit"",""7"",""60963""
""blur"",""7"",""65401""
""focus"",""7"",""79319""
","""event"",""trial"",""time""
""blur"",""7"",""65401""
","""event"",""trial"",""time""
""focus"",""7"",""79319""
","""event"",""trial"",""time""
""fullscreenenter"",""1"",""14883""
","""event"",""trial"",""time""
""fullscreenexit"",""7"",""60963""
","","","","","","2055.7999999970198","images/chair5.png","","","memory_trial","4","definitely_new","","","","","","",""
"html-keyboard-response","66","307159","0.0-15.0-0.12","1509","2","""event"",""trial"",""time""
""fullscreenenter"",""1"",""14883""
""fullscreenexit"",""7"",""60963""
""blur"",""7"",""65401""
""focus"",""7"",""79319""
","""event"",""trial"",""time""
""blur"",""7"",""65401""
","""event"",""trial"",""time""
""focus"",""7"",""79319""
","""event"",""trial"",""time""
""fullscreenenter"",""1"",""14883""
","""event"",""trial"",""time""
""fullscreenexit"",""7"",""60963""
","","","","","","null","<div style=""font-size:60px;"">+</div>","null","","fixation","","","","","","","","",""
"memory-trial","67","308926","0.0-15.0-1.12","1509","2","""event"",""trial"",""time""
""fullscreenenter"",""1"",""14883""
""fullscreenexit"",""7"",""60963""
""blur"",""7"",""65401""
""focus"",""7"",""79319""
","""event"",""trial"",""time""
""blur"",""7"",""65401""
","""event"",""trial"",""time""
""focus"",""7"",""79319""
","""event"",""trial"",""time""
""fullscreenenter"",""1"",""14883""
","""event"",""trial"",""time""
""fullscreenexit"",""7"",""60963""
","","","","","","761.7000000029802","images/cactus4.png","","","memory_trial","1","definitely_old","","","","","","",""
"html-keyboard-response","68","309429","0.0-15.0-0.13","1509","2","""event"",""trial"",""time""
""fullscreenenter"",""1"",""14883""
""fullscreenexit"",""7"",""60963""
""blur"",""7"",""65401""
""focus"",""7"",""79319""
","""event"",""trial"",""time""
""blur"",""7"",""65401""
","""event"",""trial"",""time""
""focus"",""7"",""79319""
","""event"",""trial"",""time""
""fullscreenenter"",""1"",""14883""
","""event"",""trial"",""time""
""fullscreenexit"",""7"",""60963""
","","","","","","null","<div style=""font-size:60px;"">+</div>","null","","fixation","","","","","","","","",""
"memory-trial","69","311582","0.0-15.0-1.13","1509","2","""event"",""trial"",""time""
""fullscreenenter"",""1"",""14883""
""fullscreenexit"",""7"",""60963""
""blur"",""7"",""65401""
""focus"",""7"",""79319""
","""event"",""trial"",""time""
""blur"",""7"",""65401""
","""event"",""trial"",""time""
""focus"",""7"",""79319""
","""event"",""trial"",""time""
""fullscreenenter"",""1"",""14883""
","""event"",""trial"",""time""
""fullscreenexit"",""7"",""60963""
","","","","","","1150.199999988079","images/feline2.png","","","memory_trial","1","definitely_old","","","","","","",""
"html-keyboard-response","70","312085","0.0-15.0-0.14","1509","2","""event"",""trial"",""time""
""fullscreenenter"",""1"",""14883""
""fullscreenexit"",""7"",""60963""
""blur"",""7"",""65401""
""focus"",""7"",""79319""
","""event"",""trial"",""time""
""blur"",""7"",""65401""
","""event"",""trial"",""time""
""focus"",""7"",""79319""
","""event"",""trial"",""time""
""fullscreenenter"",""1"",""14883""
","""event"",""trial"",""time""
""fullscreenexit"",""7"",""60963""
","","","","","","null","<div style=""font-size:60px;"">+</div>","null","","fixation","","","","","","","","",""
"memory-trial","71","314429","0.0-15.0-1.14","1509","2","""event"",""trial"",""time""
""fullscreenenter"",""1"",""14883""
""fullscreenexit"",""7"",""60963""
""blur"",""7"",""65401""
""focus"",""7"",""79319""
","""event"",""trial"",""time""
""blur"",""7"",""65401""
","""event"",""trial"",""time""
""focus"",""7"",""79319""
","""event"",""trial"",""time""
""fullscreenenter"",""1"",""14883""
","""event"",""trial"",""time""
""fullscreenexit"",""7"",""60963""
","","","","","","1340","images/banana1.png","","","memory_trial","2","maybe_old","","","","","","",""
"html-keyboard-response","72","314931","0.0-15.0-0.15","1509","2","""event"",""trial"",""time""
""fullscreenenter"",""1"",""14883""
""fullscreenexit"",""7"",""60963""
""blur"",""7"",""65401""
""focus"",""7"",""79319""
","""event"",""trial"",""time""
""blur"",""7"",""65401""
","""event"",""trial"",""time""
""focus"",""7"",""79319""
","""event"",""trial"",""time""
""fullscreenenter"",""1"",""14883""
","""event"",""trial"",""time""
""fullscreenexit"",""7"",""60963""
","","","","","","null","<div style=""font-size:60px;"">+</div>","null","","fixation","","","","","","","","",""
"memory-trial","73","316927","0.0-15.0-1.15","1509","2","""event"",""trial"",""time""
""fullscreenenter"",""1"",""14883""
""fullscreenexit"",""7"",""60963""
""blur"",""7"",""65401""
""focus"",""7"",""79319""
","""event"",""trial"",""time""
""blur"",""7"",""65401""
","""event"",""trial"",""time""
""focus"",""7"",""79319""
","""event"",""trial"",""time""
""fullscreenenter"",""1"",""14883""
","""event"",""trial"",""time""
""fullscreenexit"",""7"",""60963""
","","","","","","992.7999999970198","images/horse5.png","","","memory_trial","2","maybe_old","","","","","","",""
"html-keyboard-response","74","317430","0.0-15.0-0.16","1509","2","""event"",""trial"",""time""
""fullscreenenter"",""1"",""14883""
""fullscreenexit"",""7"",""60963""
""blur"",""7"",""65401""
""focus"",""7"",""79319""
","""event"",""trial"",""time""
""blur"",""7"",""65401""
","""event"",""trial"",""time""
""focus"",""7"",""79319""
","""event"",""trial"",""time""
""fullscreenenter"",""1"",""14883""
","""event"",""trial"",""time""
""fullscreenexit"",""7"",""60963""
","","","","","","null","<div style=""font-size:60px;"">+</div>","null","","fixation","","","","","","","","",""
"memory-trial","75","319373","0.0-15.0-1.16","1509","2","""event"",""trial"",""time""
""fullscreenenter"",""1"",""14883""
""fullscreenexit"",""7"",""60963""
""blur"",""7"",""65401""
""focus"",""7"",""79319""
","""event"",""trial"",""time""
""blur"",""7"",""65401""
","""event"",""trial"",""time""
""focus"",""7"",""79319""
","""event"",""trial"",""time""
""fullscreenenter"",""1"",""14883""
","""event"",""trial"",""time""
""fullscreenexit"",""7"",""60963""
","","","","","","940.2999999970198","images/goat3.png","","","memory_trial","3","maybe_new","","","","","","",""
"html-keyboard-response","76","319875","0.0-15.0-0.17","1509","2","""event"",""trial"",""time""
""fullscreenenter"",""1"",""14883""
""fullscreenexit"",""7"",""60963""
""blur"",""7"",""65401""
""focus"",""7"",""79319""
","""event"",""trial"",""time""
""blur"",""7"",""65401""
","""event"",""trial"",""time""
""focus"",""7"",""79319""
","""event"",""trial"",""time""
""fullscreenenter"",""1"",""14883""
","""event"",""trial"",""time""
""fullscreenexit"",""7"",""60963""
","","","","","","null","<div style=""font-size:60px;"">+</div>","null","","fixation","","","","","","","","",""
"memory-trial","77","321734","0.0-15.0-1.17","1509","2","""event"",""trial"",""time""
""fullscreenenter"",""1"",""14883""
""fullscreenexit"",""7"",""60963""
""blur"",""7"",""65401""
""focus"",""7"",""79319""
","""event"",""trial"",""time""
""blur"",""7"",""65401""
","""event"",""trial"",""time""
""focus"",""7"",""79319""
","""event"",""trial"",""time""
""fullscreenenter"",""1"",""14883""
","""event"",""trial"",""time""
""fullscreenexit"",""7"",""60963""
","","","","","","855.7999999970198","images/rabbit3.png","","","memory_trial","4","definitely_new","","","","","","",""
"html-keyboard-response","78","322236","0.0-15.0-0.18","1509","2","""event"",""trial"",""time""
""fullscreenenter"",""1"",""14883""
""fullscreenexit"",""7"",""60963""
""blur"",""7"",""65401""
""focus"",""7"",""79319""
","""event"",""trial"",""time""
""blur"",""7"",""65401""
","""event"",""trial"",""time""
""focus"",""7"",""79319""
","""event"",""trial"",""time""
""fullscreenenter"",""1"",""14883""
","""event"",""trial"",""time""
""fullscreenexit"",""7"",""60963""
","","","","","","null","<div style=""font-size:60px;"">+</div>","null","","fixation","","","","","","","","",""
"memory-trial","79","324497","0.0-15.0-1.18","1509","2","""event"",""trial"",""time""
""fullscreenenter"",""1"",""14883""
""fullscreenexit"",""7"",""60963""
""blur"",""7"",""65401""
""focus"",""7"",""79319""
","""event"",""trial"",""time""
""blur"",""7"",""65401""
","""event"",""trial"",""time""
""focus"",""7"",""79319""
","""event"",""trial"",""time""
""fullscreenenter"",""1"",""14883""
","""event"",""trial"",""time""
""fullscreenexit"",""7"",""60963""
","","","","","","1254.6000000089407","images/banana4.png","","","memory_trial","2","maybe_old","","","","","","",""
"html-keyboard-response","80","325000","0.0-15.0-0.19","1509","2","""event"",""trial"",""time""
""fullscreenenter"",""1"",""14883""
""fullscreenexit"",""7"",""60963""
""blur"",""7"",""65401""
""focus"",""7"",""79319""
","""event"",""trial"",""time""
""blur"",""7"",""65401""
","""event"",""trial"",""time""
""focus"",""7"",""79319""
","""event"",""trial"",""time""
""fullscreenenter"",""1"",""14883""
","""event"",""trial"",""time""
""fullscreenexit"",""7"",""60963""
","","","","","","null","<div style=""font-size:60px;"">+</div>","null","","fixation","","","","","","","","",""
"memory-trial","81","327119","0.0-15.0-1.19","1509","2","""event"",""trial"",""time""
""fullscreenenter"",""1"",""14883""
""fullscreenexit"",""7"",""60963""
""blur"",""7"",""65401""
""focus"",""7"",""79319""
","""event"",""trial"",""time""
""blur"",""7"",""65401""
","""event"",""trial"",""time""
""focus"",""7"",""79319""
","""event"",""trial"",""time""
""fullscreenenter"",""1"",""14883""
","""event"",""trial"",""time""
""fullscreenexit"",""7"",""60963""
","","","","","","1115.5","images/table1.png","","","memory_trial","3","maybe_new","","","","","","",""
"html-keyboard-response","82","327621","0.0-15.0-0.20","1509","2","""event"",""trial"",""time""
""fullscreenenter"",""1"",""14883""
""fullscreenexit"",""7"",""60963""
""blur"",""7"",""65401""
""focus"",""7"",""79319""
","""event"",""trial"",""time""
""blur"",""7"",""65401""
","""event"",""trial"",""time""
""focus"",""7"",""79319""
","""event"",""trial"",""time""
""fullscreenenter"",""1"",""14883""
","""event"",""trial"",""time""
""fullscreenexit"",""7"",""60963""
","","","","","","null","<div style=""font-size:60px;"">+</div>","null","","fixation","","","","","","","","",""
"memory-trial","83","329631","0.0-15.0-1.20","1509","2","""event"",""trial"",""time""
""fullscreenenter"",""1"",""14883""
""fullscreenexit"",""7"",""60963""
""blur"",""7"",""65401""
""focus"",""7"",""79319""
","""event"",""trial"",""time""
""blur"",""7"",""65401""
","""event"",""trial"",""time""
""focus"",""7"",""79319""
","""event"",""trial"",""time""
""fullscreenenter"",""1"",""14883""
","""event"",""trial"",""time""
""fullscreenexit"",""7"",""60963""
","","","","","","1005.5999999940395","images/feline4.png","","","memory_trial","2","maybe_old","","","","","","",""
"html-keyboard-response","84","330134","0.0-15.0-0.21","1509","2","""event"",""trial"",""time""
""fullscreenenter"",""1"",""14883""
""fullscreenexit"",""7"",""60963""
""blur"",""7"",""65401""
""focus"",""7"",""79319""
","""event"",""trial"",""time""
""blur"",""7"",""65401""
","""event"",""trial"",""time""
""focus"",""7"",""79319""
","""event"",""trial"",""time""
""fullscreenenter"",""1"",""14883""
","""event"",""trial"",""time""
""fullscreenexit"",""7"",""60963""
","","","","","","null","<div style=""font-size:60px;"">+</div>","null","","fixation","","","","","","","","",""
"memory-trial","85","332344","0.0-15.0-1.21","1509","2","""event"",""trial"",""time""
""fullscreenenter"",""1"",""14883""
""fullscreenexit"",""7"",""60963""
""blur"",""7"",""65401""
""focus"",""7"",""79319""
","""event"",""trial"",""time""
""blur"",""7"",""65401""
","""event"",""trial"",""time""
""focus"",""7"",""79319""
","""event"",""trial"",""time""
""fullscreenenter"",""1"",""14883""
","""event"",""trial"",""time""
""fullscreenexit"",""7"",""60963""
","","","","","","1206","images/table4.png","","","memory_trial","4","definitely_new","","","","","","",""
"html-keyboard-response","86","332846","0.0-15.0-0.22","1509","2","""event"",""trial"",""time""
""fullscreenenter"",""1"",""14883""
""fullscreenexit"",""7"",""60963""
""blur"",""7"",""65401""
""focus"",""7"",""79319""
","""event"",""trial"",""time""
""blur"",""7"",""65401""
","""event"",""trial"",""time""
""focus"",""7"",""79319""
","""event"",""trial"",""time""
""fullscreenenter"",""1"",""14883""
","""event"",""trial"",""time""
""fullscreenexit"",""7"",""60963""
","","","","","","null","<div style=""font-size:60px;"">+</div>","null","","fixation","","","","","","","","",""
"memory-trial","87","335233","0.0-15.0-1.22","1509","2","""event"",""trial"",""time""
""fullscreenenter"",""1"",""14883""
""fullscreenexit"",""7"",""60963""
""blur"",""7"",""65401""
""focus"",""7"",""79319""
","""event"",""trial"",""time""
""blur"",""7"",""65401""
","""event"",""trial"",""time""
""focus"",""7"",""79319""
","""event"",""trial"",""time""
""fullscreenenter"",""1"",""14883""
","""event"",""trial"",""time""
""fullscreenexit"",""7"",""60963""
","","","","","","1382.3999999910593","images/rabbit5.png","","","memory_trial","3","maybe_new","","","","","","",""
"html-keyboard-response","88","335737","0.0-15.0-0.23","1509","2","""event"",""trial"",""time""
""fullscreenenter"",""1"",""14883""
""fullscreenexit"",""7"",""60963""
""blur"",""7"",""65401""
""focus"",""7"",""79319""
","""event"",""trial"",""time""
""blur"",""7"",""65401""
","""event"",""trial"",""time""
""focus"",""7"",""79319""
","""event"",""trial"",""time""
""fullscreenenter"",""1"",""14883""
","""event"",""trial"",""time""
""fullscreenexit"",""7"",""60963""
","","","","","","null","<div style=""font-size:60px;"">+</div>","null","","fixation","","","","","","","","",""
"memory-trial","89","338201","0.0-15.0-1.23","1509","2","""event"",""trial"",""time""
""fullscreenenter"",""1"",""14883""
""fullscreenexit"",""7"",""60963""
""blur"",""7"",""65401""
""focus"",""7"",""79319""
","""event"",""trial"",""time""
""blur"",""7"",""65401""
","""event"",""trial"",""time""
""focus"",""7"",""79319""
","""event"",""trial"",""time""
""fullscreenenter"",""1"",""14883""
","""event"",""trial"",""time""
""fullscreenexit"",""7"",""60963""
","","","","","","1459.5999999940395","images/orange2.png","","","memory_trial","2","maybe_old","","","","","","",""
"html-keyboard-response","90","338705","0.0-15.0-0.24","1509","2","""event"",""trial"",""time""
""fullscreenenter"",""1"",""14883""
""fullscreenexit"",""7"",""60963""
""blur"",""7"",""65401""
""focus"",""7"",""79319""
","""event"",""trial"",""time""
""blur"",""7"",""65401""
","""event"",""trial"",""time""
""focus"",""7"",""79319""
","""event"",""trial"",""time""
""fullscreenenter"",""1"",""14883""
","""event"",""trial"",""time""
""fullscreenexit"",""7"",""60963""
","","","","","","null","<div style=""font-size:60px;"">+</div>","null","","fixation","","","","","","","","",""
"memory-trial","91","340784","0.0-15.0-1.24","1509","2","""event"",""trial"",""time""
""fullscreenenter"",""1"",""14883""
""fullscreenexit"",""7"",""60963""
""blur"",""7"",""65401""
""focus"",""7"",""79319""
","""event"",""trial"",""time""
""blur"",""7"",""65401""
","""event"",""trial"",""time""
""focus"",""7"",""79319""
","""event"",""trial"",""time""
""fullscreenenter"",""1"",""14883""
","""event"",""trial"",""time""
""fullscreenexit"",""7"",""60963""
","","","","","","1074.2999999970198","images/apple3.png","","","memory_trial","2","maybe_old","","","","","","",""
"html-keyboard-response","92","341287","0.0-15.0-0.25","1509","2","""event"",""trial"",""time""
""fullscreenenter"",""1"",""14883""
""fullscreenexit"",""7"",""60963""
""blur"",""7"",""65401""
""focus"",""7"",""79319""
","""event"",""trial"",""time""
""blur"",""7"",""65401""
","""event"",""trial"",""time""
""focus"",""7"",""79319""
","""event"",""trial"",""time""
""fullscreenenter"",""1"",""14883""
","""event"",""trial"",""time""
""fullscreenexit"",""7"",""60963""
","","","","","","null","<div style=""font-size:60px;"">+</div>","null","","fixation","","","","","","","","",""
"memory-trial","93","343642","0.0-15.0-1.25","1509","2","""event"",""trial"",""time""
""fullscreenenter"",""1"",""14883""
""fullscreenexit"",""7"",""60963""
""blur"",""7"",""65401""
""focus"",""7"",""79319""
","""event"",""trial"",""time""
""blur"",""7"",""65401""
","""event"",""trial"",""time""
""focus"",""7"",""79319""
","""event"",""trial"",""time""
""fullscreenenter"",""1"",""14883""
","""event"",""trial"",""time""
""fullscreenexit"",""7"",""60963""
","","","","","","1352.4000000059605","images/bed3.png","","","memory_trial","2","maybe_old","","","","","","",""
"html-keyboard-response","94","344146","0.0-15.0-0.26","1509","2","""event"",""trial"",""time""
""fullscreenenter"",""1"",""14883""
""fullscreenexit"",""7"",""60963""
""blur"",""7"",""65401""
""focus"",""7"",""79319""
","""event"",""trial"",""time""
""blur"",""7"",""65401""
","""event"",""trial"",""time""
""focus"",""7"",""79319""
","""event"",""trial"",""time""
""fullscreenenter"",""1"",""14883""
","""event"",""trial"",""time""
""fullscreenexit"",""7"",""60963""
","","","","","","null","<div style=""font-size:60px;"">+</div>","null","","fixation","","","","","","","","",""
"memory-trial","95","346390","0.0-15.0-1.26","1509","2","""event"",""trial"",""time""
""fullscreenenter"",""1"",""14883""
""fullscreenexit"",""7"",""60963""
""blur"",""7"",""65401""
""focus"",""7"",""79319""
","""event"",""trial"",""time""
""blur"",""7"",""65401""
","""event"",""trial"",""time""
""focus"",""7"",""79319""
","""event"",""trial"",""time""
""fullscreenenter"",""1"",""14883""
","""event"",""trial"",""time""
""fullscreenexit"",""7"",""60963""
","","","","","","1238.2999999970198","images/apple5.png","","","memory_trial","3","maybe_new","","","","","","",""
"html-keyboard-response","96","346892","0.0-15.0-0.27","1509","2","""event"",""trial"",""time""
""fullscreenenter"",""1"",""14883""
""fullscreenexit"",""7"",""60963""
""blur"",""7"",""65401""
""focus"",""7"",""79319""
","""event"",""trial"",""time""
""blur"",""7"",""65401""
","""event"",""trial"",""time""
""focus"",""7"",""79319""
","""event"",""trial"",""time""
""fullscreenenter"",""1"",""14883""
","""event"",""trial"",""time""
""fullscreenexit"",""7"",""60963""
","","","","","","null","<div style=""font-size:60px;"">+</div>","null","","fixation","","","","","","","","",""
"memory-trial","97","349417","0.0-15.0-1.27","1509","2","""event"",""trial"",""time""
""fullscreenenter"",""1"",""14883""
""fullscreenexit"",""7"",""60963""
""blur"",""7"",""65401""
""focus"",""7"",""79319""
","""event"",""trial"",""time""
""blur"",""7"",""65401""
","""event"",""trial"",""time""
""focus"",""7"",""79319""
","""event"",""trial"",""time""
""fullscreenenter"",""1"",""14883""
","""event"",""trial"",""time""
""fullscreenexit"",""7"",""60963""
","","","","","","1520.3999999910593","images/tree5.png","","","memory_trial","1","definitely_old","","","","","","",""
"html-keyboard-response","98","349919","0.0-15.0-0.28","1509","2","""event"",""trial"",""time""
""fullscreenenter"",""1"",""14883""
""fullscreenexit"",""7"",""60963""
""blur"",""7"",""65401""
""focus"",""7"",""79319""
","""event"",""trial"",""time""
""blur"",""7"",""65401""
","""event"",""trial"",""time""
""focus"",""7"",""79319""
","""event"",""trial"",""time""
""fullscreenenter"",""1"",""14883""
","""event"",""trial"",""time""
""fullscreenexit"",""7"",""60963""
","","","","","","null","<div style=""font-size:60px;"">+</div>","null","","fixation","","","","","","","","",""
"memory-trial","99","352393","0.0-15.0-1.28","1509","2","""event"",""trial"",""time""
""fullscreenenter"",""1"",""14883""
""fullscreenexit"",""7"",""60963""
""blur"",""7"",""65401""
""focus"",""7"",""79319""
","""event"",""trial"",""time""
""blur"",""7"",""65401""
","""event"",""trial"",""time""
""focus"",""7"",""79319""
","""event"",""trial"",""time""
""fullscreenenter"",""1"",""14883""
","""event"",""trial"",""time""
""fullscreenexit"",""7"",""60963""
","","","","","","1470.2000000029802","images/bush5.png","","","memory_trial","4","definitely_new","","","","","","",""
"html-keyboard-response","100","352895","0.0-15.0-0.29","1509","2","""event"",""trial"",""time""
""fullscreenenter"",""1"",""14883""
""fullscreenexit"",""7"",""60963""
""blur"",""7"",""65401""
""focus"",""7"",""79319""
","""event"",""trial"",""time""
""blur"",""7"",""65401""
","""event"",""trial"",""time""
""focus"",""7"",""79319""
","""event"",""trial"",""time""
""fullscreenenter"",""1"",""14883""
","""event"",""trial"",""time""
""fullscreenexit"",""7"",""60963""
","","","","","","null","<div style=""font-size:60px;"">+</div>","null","","fixation","","","","","","","","",""
"memory-trial","101","355552","0.0-15.0-1.29","1509","2","""event"",""trial"",""time""
""fullscreenenter"",""1"",""14883""
""fullscreenexit"",""7"",""60963""
""blur"",""7"",""65401""
""focus"",""7"",""79319""
","""event"",""trial"",""time""
""blur"",""7"",""65401""
","""event"",""trial"",""time""
""focus"",""7"",""79319""
","""event"",""trial"",""time""
""fullscreenenter"",""1"",""14883""
","""event"",""trial"",""time""
""fullscreenexit"",""7"",""60963""
","","","","","","1654.1000000089407","images/boat2.png","","","memory_trial","2","maybe_old","","","","","","",""
"html-keyboard-response","102","356055","0.0-15.0-0.30","1509","2","""event"",""trial"",""time""
""fullscreenenter"",""1"",""14883""
""fullscreenexit"",""7"",""60963""
""blur"",""7"",""65401""
""focus"",""7"",""79319""
","""event"",""trial"",""time""
""blur"",""7"",""65401""
","""event"",""trial"",""time""
""focus"",""7"",""79319""
","""event"",""trial"",""time""
""fullscreenenter"",""1"",""14883""
","""event"",""trial"",""time""
""fullscreenexit"",""7"",""60963""
","","","","","","null","<div style=""font-size:60px;"">+</div>","null","","fixation","","","","","","","","",""
"memory-trial","103","359216","0.0-15.0-1.30","1509","2","""event"",""trial"",""time""
""fullscreenenter"",""1"",""14883""
""fullscreenexit"",""7"",""60963""
""blur"",""7"",""65401""
""focus"",""7"",""79319""
","""event"",""trial"",""time""
""blur"",""7"",""65401""
","""event"",""trial"",""time""
""focus"",""7"",""79319""
","""event"",""trial"",""time""
""fullscreenenter"",""1"",""14883""
","""event"",""trial"",""time""
""fullscreenexit"",""7"",""60963""
","","","","","","2156.2999999970198","images/goat2.png","","","memory_trial","3","maybe_new","","","","","","",""
"html-keyboard-response","104","359719","0.0-15.0-0.31","1509","2","""event"",""trial"",""time""
""fullscreenenter"",""1"",""14883""
""fullscreenexit"",""7"",""60963""
""blur"",""7"",""65401""
""focus"",""7"",""79319""
","""event"",""trial"",""time""
""blur"",""7"",""65401""
","""event"",""trial"",""time""
""focus"",""7"",""79319""
","""event"",""trial"",""time""
""fullscreenenter"",""1"",""14883""
","""event"",""trial"",""time""
""fullscreenexit"",""7"",""60963""
","","","","","","null","<div style=""font-size:60px;"">+</div>","null","","fixation","","","","","","","","",""
"memory-trial","105","362337","0.0-15.0-1.31","1509","2","""event"",""trial"",""time""
""fullscreenenter"",""1"",""14883""
""fullscreenexit"",""7"",""60963""
""blur"",""7"",""65401""
""focus"",""7"",""79319""
","""event"",""trial"",""time""
""blur"",""7"",""65401""
","""event"",""trial"",""time""
""focus"",""7"",""79319""
","""event"",""trial"",""time""
""fullscreenenter"",""1"",""14883""
","""event"",""trial"",""time""
""fullscreenexit"",""7"",""60963""
","","","","","","1614.1000000089407","images/sheep5.png","","","memory_trial","2","maybe_old","","","","","","",""
"html-keyboard-response","106","362840","0.0-15.0-0.32","1509","2","""event"",""trial"",""time""
""fullscreenenter"",""1"",""14883""
""fullscreenexit"",""7"",""60963""
""blur"",""7"",""65401""
""focus"",""7"",""79319""
","""event"",""trial"",""time""
""blur"",""7"",""65401""
","""event"",""trial"",""time""
""focus"",""7"",""79319""
","""event"",""trial"",""time""
""fullscreenenter"",""1"",""14883""
","""event"",""trial"",""time""
""fullscreenexit"",""7"",""60963""
","","","","","","null","<div style=""font-size:60px;"">+</div>","null","","fixation","","","","","","","","",""
"memory-trial","107","365021","0.0-15.0-1.32","1509","2","""event"",""trial"",""time""
""fullscreenenter"",""1"",""14883""
""fullscreenexit"",""7"",""60963""
""blur"",""7"",""65401""
""focus"",""7"",""79319""
","""event"",""trial"",""time""
""blur"",""7"",""65401""
","""event"",""trial"",""time""
""focus"",""7"",""79319""
","""event"",""trial"",""time""
""fullscreenenter"",""1"",""14883""
","""event"",""trial"",""time""
""fullscreenexit"",""7"",""60963""
","","","","","","1176.3999999910593","images/plane3.png","","","memory_trial","4","definitely_new","","","","","","",""
"html-keyboard-response","108","365525","0.0-15.0-0.33","1509","2","""event"",""trial"",""time""
""fullscreenenter"",""1"",""14883""
""fullscreenexit"",""7"",""60963""
""blur"",""7"",""65401""
""focus"",""7"",""79319""
","""event"",""trial"",""time""
""blur"",""7"",""65401""
","""event"",""trial"",""time""
""focus"",""7"",""79319""
","""event"",""trial"",""time""
""fullscreenenter"",""1"",""14883""
","""event"",""trial"",""time""
""fullscreenexit"",""7"",""60963""
","","","","","","null","<div style=""font-size:60px;"">+</div>","null","","fixation","","","","","","","","",""
"memory-trial","109","367728","0.0-15.0-1.33","1509","2","""event"",""trial"",""time""
""fullscreenenter"",""1"",""14883""
""fullscreenexit"",""7"",""60963""
""blur"",""7"",""65401""
""focus"",""7"",""79319""
","""event"",""trial"",""time""
""blur"",""7"",""65401""
","""event"",""trial"",""time""
""focus"",""7"",""79319""
","""event"",""trial"",""time""
""fullscreenenter"",""1"",""14883""
","""event"",""trial"",""time""
""fullscreenexit"",""7"",""60963""
","","","","","","1198.7999999970198","images/bed5.png","","","memory_trial","2","maybe_old","","","","","","",""
"html-keyboard-response","110","368245","0.0-15.0-0.34","1509","2","""event"",""trial"",""time""
""fullscreenenter"",""1"",""14883""
""fullscreenexit"",""7"",""60963""
""blur"",""7"",""65401""
""focus"",""7"",""79319""
","""event"",""trial"",""time""
""blur"",""7"",""65401""
","""event"",""trial"",""time""
""focus"",""7"",""79319""
","""event"",""trial"",""time""
""fullscreenenter"",""1"",""14883""
","""event"",""trial"",""time""
""fullscreenexit"",""7"",""60963""
","","","","","","null","<div style=""font-size:60px;"">+</div>","null","","fixation","","","","","","","","",""
"memory-trial","111","369872","0.0-15.0-1.34","1509","2","""event"",""trial"",""time""
""fullscreenenter"",""1"",""14883""
""fullscreenexit"",""7"",""60963""
""blur"",""7"",""65401""
""focus"",""7"",""79319""
","""event"",""trial"",""time""
""blur"",""7"",""65401""
","""event"",""trial"",""time""
""focus"",""7"",""79319""
","""event"",""trial"",""time""
""fullscreenenter"",""1"",""14883""
","""event"",""trial"",""time""
""fullscreenexit"",""7"",""60963""
","","","","","","622.2000000029802","images/table3.png","","","memory_trial","1","definitely_old","","","","","","",""
"html-keyboard-response","112","370375","0.0-15.0-0.35","1509","2","""event"",""trial"",""time""
""fullscreenenter"",""1"",""14883""
""fullscreenexit"",""7"",""60963""
""blur"",""7"",""65401""
""focus"",""7"",""79319""
","""event"",""trial"",""time""
""blur"",""7"",""65401""
","""event"",""trial"",""time""
""focus"",""7"",""79319""
","""event"",""trial"",""time""
""fullscreenenter"",""1"",""14883""
","""event"",""trial"",""time""
""fullscreenexit"",""7"",""60963""
","","","","","","null","<div style=""font-size:60px;"">+</div>","null","","fixation","","","","","","","","",""
"memory-trial","113","371856","0.0-15.0-1.35","1509","2","""event"",""trial"",""time""
""fullscreenenter"",""1"",""14883""
""fullscreenexit"",""7"",""60963""
""blur"",""7"",""65401""
""focus"",""7"",""79319""
","""event"",""trial"",""time""
""blur"",""7"",""65401""
","""event"",""trial"",""time""
""focus"",""7"",""79319""
","""event"",""trial"",""time""
""fullscreenenter"",""1"",""14883""
","""event"",""trial"",""time""
""fullscreenexit"",""7"",""60963""
","","","","","","477","images/dog3.png","","","memory_trial","1","definitely_old","","","","","","",""
"html-keyboard-response","114","372358","0.0-15.0-0.36","1509","2","""event"",""trial"",""time""
""fullscreenenter"",""1"",""14883""
""fullscreenexit"",""7"",""60963""
""blur"",""7"",""65401""
""focus"",""7"",""79319""
","""event"",""trial"",""time""
""blur"",""7"",""65401""
","""event"",""trial"",""time""
""focus"",""7"",""79319""
","""event"",""trial"",""time""
""fullscreenenter"",""1"",""14883""
","""event"",""trial"",""time""
""fullscreenexit"",""7"",""60963""
","","","","","","null","<div style=""font-size:60px;"">+</div>","null","","fixation","","","","","","","","",""
"memory-trial","115","374448","0.0-15.0-1.36","1509","2","""event"",""trial"",""time""
""fullscreenenter"",""1"",""14883""
""fullscreenexit"",""7"",""60963""
""blur"",""7"",""65401""
""focus"",""7"",""79319""
","""event"",""trial"",""time""
""blur"",""7"",""65401""
","""event"",""trial"",""time""
""focus"",""7"",""79319""
","""event"",""trial"",""time""
""fullscreenenter"",""1"",""14883""
","""event"",""trial"",""time""
""fullscreenexit"",""7"",""60963""
","","","","","","1086.2999999970198","images/horse3.png","","","memory_trial","1","definitely_old","","","","","","",""
"html-keyboard-response","116","374950","0.0-15.0-0.37","1509","2","""event"",""trial"",""time""
""fullscreenenter"",""1"",""14883""
""fullscreenexit"",""7"",""60963""
""blur"",""7"",""65401""
""focus"",""7"",""79319""
","""event"",""trial"",""time""
""blur"",""7"",""65401""
","""event"",""trial"",""time""
""focus"",""7"",""79319""
","""event"",""trial"",""time""
""fullscreenenter"",""1"",""14883""
","""event"",""trial"",""time""
""fullscreenexit"",""7"",""60963""
","","","","","","null","<div style=""font-size:60px;"">+</div>","null","","fixation","","","","","","","","",""
"memory-trial","117","376583","0.0-15.0-1.37","1509","2","""event"",""trial"",""time""
""fullscreenenter"",""1"",""14883""
""fullscreenexit"",""7"",""60963""
""blur"",""7"",""65401""
""focus"",""7"",""79319""
","""event"",""trial"",""time""
""blur"",""7"",""65401""
","""event"",""trial"",""time""
""focus"",""7"",""79319""
","""event"",""trial"",""time""
""fullscreenenter"",""1"",""14883""
","""event"",""trial"",""time""
""fullscreenexit"",""7"",""60963""
","","","","","","629.5999999940395","images/sofa3.png","","","memory_trial","4","definitely_new","","","","","","",""
"html-keyboard-response","118","377085","0.0-15.0-0.38","1509","2","""event"",""trial"",""time""
""fullscreenenter"",""1"",""14883""
""fullscreenexit"",""7"",""60963""
""blur"",""7"",""65401""
""focus"",""7"",""79319""
","""event"",""trial"",""time""
""blur"",""7"",""65401""
","""event"",""trial"",""time""
""focus"",""7"",""79319""
","""event"",""trial"",""time""
""fullscreenenter"",""1"",""14883""
","""event"",""trial"",""time""
""fullscreenexit"",""7"",""60963""
","","","","","","null","<div style=""font-size:60px;"">+</div>","null","","fixation","","","","","","","","",""
"memory-trial","119","379432","0.0-15.0-1.38","1509","2","""event"",""trial"",""time""
""fullscreenenter"",""1"",""14883""
""fullscreenexit"",""7"",""60963""
""blur"",""7"",""65401""
""focus"",""7"",""79319""
","""event"",""trial"",""time""
""blur"",""7"",""65401""
","""event"",""trial"",""time""
""focus"",""7"",""79319""
","""event"",""trial"",""time""
""fullscreenenter"",""1"",""14883""
","""event"",""trial"",""time""
""fullscreenexit"",""7"",""60963""
","","","","","","1343.2999999970198","images/rabbit2.png","","","memory_trial","1","definitely_old","","","","","","",""
"html-keyboard-response","120","379935","0.0-15.0-0.39","1509","2","""event"",""trial"",""time""
""fullscreenenter"",""1"",""14883""
""fullscreenexit"",""7"",""60963""
""blur"",""7"",""65401""
""focus"",""7"",""79319""
","""event"",""trial"",""time""
""blur"",""7"",""65401""
","""event"",""trial"",""time""
""focus"",""7"",""79319""
","""event"",""trial"",""time""
""fullscreenenter"",""1"",""14883""
","""event"",""trial"",""time""
""fullscreenexit"",""7"",""60963""
","","","","","","null","<div style=""font-size:60px;"">+</div>","null","","fixation","","","","","","","","",""
"memory-trial","121","382108","0.0-15.0-1.39","1509","2","""event"",""trial"",""time""
""fullscreenenter"",""1"",""14883""
""fullscreenexit"",""7"",""60963""
""blur"",""7"",""65401""
""focus"",""7"",""79319""
","""event"",""trial"",""time""
""blur"",""7"",""65401""
","""event"",""trial"",""time""
""focus"",""7"",""79319""
","""event"",""trial"",""time""
""fullscreenenter"",""1"",""14883""
","""event"",""trial"",""time""
""fullscreenexit"",""7"",""60963""
","","","","","","1170.8999999910593","images/flower1.png","","","memory_trial","2","maybe_old","","","","","","",""
"html-keyboard-response","122","382610","0.0-15.0-0.40","1509","2","""event"",""trial"",""time""
""fullscreenenter"",""1"",""14883""
""fullscreenexit"",""7"",""60963""
""blur"",""7"",""65401""
""focus"",""7"",""79319""
","""event"",""trial"",""time""
""blur"",""7"",""65401""
","""event"",""trial"",""time""
""focus"",""7"",""79319""
","""event"",""trial"",""time""
""fullscreenenter"",""1"",""14883""
","""event"",""trial"",""time""
""fullscreenexit"",""7"",""60963""
","","","","","","null","<div style=""font-size:60px;"">+</div>","null","","fixation","","","","","","","","",""
"memory-trial","123","384953","0.0-15.0-1.40","1509","2","""event"",""trial"",""time""
""fullscreenenter"",""1"",""14883""
""fullscreenexit"",""7"",""60963""
""blur"",""7"",""65401""
""focus"",""7"",""79319""
","""event"",""trial"",""time""
""blur"",""7"",""65401""
","""event"",""trial"",""time""
""focus"",""7"",""79319""
","""event"",""trial"",""time""
""fullscreenenter"",""1"",""14883""
","""event"",""trial"",""time""
""fullscreenexit"",""7"",""60963""
","","","","","","1336.7999999970198","images/horse2.png","","","memory_trial","3","maybe_new","","","","","","",""
"html-keyboard-response","124","385456","0.0-15.0-0.41","1509","2","""event"",""trial"",""time""
""fullscreenenter"",""1"",""14883""
""fullscreenexit"",""7"",""60963""
""blur"",""7"",""65401""
""focus"",""7"",""79319""
","""event"",""trial"",""time""
""blur"",""7"",""65401""
","""event"",""trial"",""time""
""focus"",""7"",""79319""
","""event"",""trial"",""time""
""fullscreenenter"",""1"",""14883""
","""event"",""trial"",""time""
""fullscreenexit"",""7"",""60963""
","","","","","","null","<div style=""font-size:60px;"">+</div>","null","","fixation","","","","","","","","",""
"memory-trial","125","388385","0.0-15.0-1.41","1509","2","""event"",""trial"",""time""
""fullscreenenter"",""1"",""14883""
""fullscreenexit"",""7"",""60963""
""blur"",""7"",""65401""
""focus"",""7"",""79319""
","""event"",""trial"",""time""
""blur"",""7"",""65401""
","""event"",""trial"",""time""
""focus"",""7"",""79319""
","""event"",""trial"",""time""
""fullscreenenter"",""1"",""14883""
","""event"",""trial"",""time""
""fullscreenexit"",""7"",""60963""
","","","","","","1925.2000000029802","images/boat4.png","","","memory_trial","2","maybe_old","","","","","","",""
"html-keyboard-response","126","388888","0.0-15.0-0.42","1509","2","""event"",""trial"",""time""
""fullscreenenter"",""1"",""14883""
""fullscreenexit"",""7"",""60963""
""blur"",""7"",""65401""
""focus"",""7"",""79319""
","""event"",""trial"",""time""
""blur"",""7"",""65401""
","""event"",""trial"",""time""
""focus"",""7"",""79319""
","""event"",""trial"",""time""
""fullscreenenter"",""1"",""14883""
","""event"",""trial"",""time""
""fullscreenexit"",""7"",""60963""
","","","","","","null","<div style=""font-size:60px;"">+</div>","null","","fixation","","","","","","","","",""
"memory-trial","127","391096","0.0-15.0-1.42","1509","2","""event"",""trial"",""time""
""fullscreenenter"",""1"",""14883""
""fullscreenexit"",""7"",""60963""
""blur"",""7"",""65401""
""focus"",""7"",""79319""
","""event"",""trial"",""time""
""blur"",""7"",""65401""
","""event"",""trial"",""time""
""focus"",""7"",""79319""
","""event"",""trial"",""time""
""fullscreenenter"",""1"",""14883""
","""event"",""trial"",""time""
""fullscreenexit"",""7"",""60963""
","","","","","","1199.5999999940395","images/sofa1.png","","","memory_trial","4","definitely_new","","","","","","",""
"html-keyboard-response","128","391598","0.0-15.0-0.43","1509","2","""event"",""trial"",""time""
""fullscreenenter"",""1"",""14883""
""fullscreenexit"",""7"",""60963""
""blur"",""7"",""65401""
""focus"",""7"",""79319""
","""event"",""trial"",""time""
""blur"",""7"",""65401""
","""event"",""trial"",""time""
""focus"",""7"",""79319""
","""event"",""trial"",""time""
""fullscreenenter"",""1"",""14883""
","""event"",""trial"",""time""
""fullscreenexit"",""7"",""60963""
","","","","","","null","<div style=""font-size:60px;"">+</div>","null","","fixation","","","","","","","","",""
"memory-trial","129","393400","0.0-15.0-1.43","1509","2","""event"",""trial"",""time""
""fullscreenenter"",""1"",""14883""
""fullscreenexit"",""7"",""60963""
""blur"",""7"",""65401""
""focus"",""7"",""79319""
","""event"",""trial"",""time""
""blur"",""7"",""65401""
","""event"",""trial"",""time""
""focus"",""7"",""79319""
","""event"",""trial"",""time""
""fullscreenenter"",""1"",""14883""
","""event"",""trial"",""time""
""fullscreenexit"",""7"",""60963""
","","","","","","796.5999999940395","images/dog5.png","","","memory_trial","1","definitely_old","","","","","","",""
"html-keyboard-response","130","393901","0.0-15.0-0.44","1509","2","""event"",""trial"",""time""
""fullscreenenter"",""1"",""14883""
""fullscreenexit"",""7"",""60963""
""blur"",""7"",""65401""
""focus"",""7"",""79319""
","""event"",""trial"",""time""
""blur"",""7"",""65401""
","""event"",""trial"",""time""
""focus"",""7"",""79319""
","""event"",""trial"",""time""
""fullscreenenter"",""1"",""14883""
","""event"",""trial"",""time""
""fullscreenexit"",""7"",""60963""
","","","","","","null","<div style=""font-size:60px;"">+</div>","null","","fixation","","","","","","","","",""
"memory-trial","131","396145","0.0-15.0-1.44","1509","2","""event"",""trial"",""time""
""fullscreenenter"",""1"",""14883""
""fullscreenexit"",""7"",""60963""
""blur"",""7"",""65401""
""focus"",""7"",""79319""
","""event"",""trial"",""time""
""blur"",""7"",""65401""
","""event"",""trial"",""time""
""focus"",""7"",""79319""
","""event"",""trial"",""time""
""fullscreenenter"",""1"",""14883""
","""event"",""trial"",""time""
""fullscreenexit"",""7"",""60963""
","","","","","","1239.7999999970198","images/orange1.png","","","memory_trial","4","definitely_new","","","","","","",""
"html-keyboard-response","132","396647","0.0-15.0-0.45","1509","2","""event"",""trial"",""time""
""fullscreenenter"",""1"",""14883""
""fullscreenexit"",""7"",""60963""
""blur"",""7"",""65401""
""focus"",""7"",""79319""
","""event"",""trial"",""time""
""blur"",""7"",""65401""
","""event"",""trial"",""time""
""focus"",""7"",""79319""
","""event"",""trial"",""time""
""fullscreenenter"",""1"",""14883""
","""event"",""trial"",""time""
""fullscreenexit"",""7"",""60963""
","","","","","","null","<div style=""font-size:60px;"">+</div>","null","","fixation","","","","","","","","",""
"memory-trial","133","399392","0.0-15.0-1.45","1509","2","""event"",""trial"",""time""
""fullscreenenter"",""1"",""14883""
""fullscreenexit"",""7"",""60963""
""blur"",""7"",""65401""
""focus"",""7"",""79319""
","""event"",""trial"",""time""
""blur"",""7"",""65401""
","""event"",""trial"",""time""
""focus"",""7"",""79319""
","""event"",""trial"",""time""
""fullscreenenter"",""1"",""14883""
","""event"",""trial"",""time""
""fullscreenexit"",""7"",""60963""
","","","","","","1741.5","images/cactus3.png","","","memory_trial","2","maybe_old","","","","","","",""
"html-keyboard-response","134","399895","0.0-15.0-0.46","1509","2","""event"",""trial"",""time""
""fullscreenenter"",""1"",""14883""
""fullscreenexit"",""7"",""60963""
""blur"",""7"",""65401""
""focus"",""7"",""79319""
","""event"",""trial"",""time""
""blur"",""7"",""65401""
","""event"",""trial"",""time""
""focus"",""7"",""79319""
","""event"",""trial"",""time""
""fullscreenenter"",""1"",""14883""
","""event"",""trial"",""time""
""fullscreenexit"",""7"",""60963""
","","","","","","null","<div style=""font-size:60px;"">+</div>","null","","fixation","","","","","","","","",""
"memory-trial","135","402529","0.0-15.0-1.46","1509","2","""event"",""trial"",""time""
""fullscreenenter"",""1"",""14883""
""fullscreenexit"",""7"",""60963""
""blur"",""7"",""65401""
""focus"",""7"",""79319""
","""event"",""trial"",""time""
""blur"",""7"",""65401""
","""event"",""trial"",""time""
""focus"",""7"",""79319""
","""event"",""trial"",""time""
""fullscreenenter"",""1"",""14883""
","""event"",""trial"",""time""
""fullscreenexit"",""7"",""60963""
","","","","","","1630.3999999910593","images/cactus1.png","","","memory_trial","3","maybe_new","","","","","","",""
"html-button-response","136","420038","0.0-15.0-2.46-0.46","1509","2","""event"",""trial"",""time""
""fullscreenenter"",""1"",""14883""
""fullscreenexit"",""7"",""60963""
""blur"",""7"",""65401""
""focus"",""7"",""79319""
","""event"",""trial"",""time""
""blur"",""7"",""65401""
","""event"",""trial"",""time""
""focus"",""7"",""79319""
","""event"",""trial"",""time""
""fullscreenenter"",""1"",""14883""
","""event"",""trial"",""time""
""fullscreenexit"",""7"",""60963""
","","","","","","17507.09999999404","<p> Take a break! </p><p> Click the button to continue. </p>","0","","break","","","","","","","","",""
"html-keyboard-response","137","420541","0.0-15.0-0.47","1509","2","""event"",""trial"",""time""
""fullscreenenter"",""1"",""14883""
""fullscreenexit"",""7"",""60963""
""blur"",""7"",""65401""
""focus"",""7"",""79319""
","""event"",""trial"",""time""
""blur"",""7"",""65401""
","""event"",""trial"",""time""
""focus"",""7"",""79319""
","""event"",""trial"",""time""
""fullscreenenter"",""1"",""14883""
","""event"",""trial"",""time""
""fullscreenexit"",""7"",""60963""
","","","","","","null","<div style=""font-size:60px;"">+</div>","null","","fixation","","","","","","","","",""
"memory-trial","138","422775","0.0-15.0-1.47","1509","2","""event"",""trial"",""time""
""fullscreenenter"",""1"",""14883""
""fullscreenexit"",""7"",""60963""
""blur"",""7"",""65401""
""focus"",""7"",""79319""
","""event"",""trial"",""time""
""blur"",""7"",""65401""
","""event"",""trial"",""time""
""focus"",""7"",""79319""
","""event"",""trial"",""time""
""fullscreenenter"",""1"",""14883""
","""event"",""trial"",""time""
""fullscreenexit"",""7"",""60963""
","","","","","","1231.2000000029802","images/goat1.png","","","memory_trial","4","definitely_new","","","","","","",""
"html-keyboard-response","139","423283","0.0-15.0-0.48","1509","2","""event"",""trial"",""time""
""fullscreenenter"",""1"",""14883""
""fullscreenexit"",""7"",""60963""
""blur"",""7"",""65401""
""focus"",""7"",""79319""
","""event"",""trial"",""time""
""blur"",""7"",""65401""
","""event"",""trial"",""time""
""focus"",""7"",""79319""
","""event"",""trial"",""time""
""fullscreenenter"",""1"",""14883""
","""event"",""trial"",""time""
""fullscreenexit"",""7"",""60963""
","","","","","","null","<div style=""font-size:60px;"">+</div>","null","","fixation","","","","","","","","",""
"memory-trial","140","425375","0.0-15.0-1.48","1509","2","""event"",""trial"",""time""
""fullscreenenter"",""1"",""14883""
""fullscreenexit"",""7"",""60963""
""blur"",""7"",""65401""
""focus"",""7"",""79319""
","""event"",""trial"",""time""
""blur"",""7"",""65401""
","""event"",""trial"",""time""
""focus"",""7"",""79319""
","""event"",""trial"",""time""
""fullscreenenter"",""1"",""14883""
","""event"",""trial"",""time""
""fullscreenexit"",""7"",""60963""
","","","","","","1088.5","images/table2.png","","","memory_trial","1","definitely_old","","","","","","",""
"html-keyboard-response","141","425877","0.0-15.0-0.49","1509","2","""event"",""trial"",""time""
""fullscreenenter"",""1"",""14883""
""fullscreenexit"",""7"",""60963""
""blur"",""7"",""65401""
""focus"",""7"",""79319""
","""event"",""trial"",""time""
""blur"",""7"",""65401""
","""event"",""trial"",""time""
""focus"",""7"",""79319""
","""event"",""trial"",""time""
""fullscreenenter"",""1"",""14883""
","""event"",""trial"",""time""
""fullscreenexit"",""7"",""60963""
","","","","","","null","<div style=""font-size:60px;"">+</div>","null","","fixation","","","","","","","","",""
"memory-trial","142","427471","0.0-15.0-1.49","1509","2","""event"",""trial"",""time""
""fullscreenenter"",""1"",""14883""
""fullscreenexit"",""7"",""60963""
""blur"",""7"",""65401""
""focus"",""7"",""79319""
","""event"",""trial"",""time""
""blur"",""7"",""65401""
","""event"",""trial"",""time""
""focus"",""7"",""79319""
","""event"",""trial"",""time""
""fullscreenenter"",""1"",""14883""
","""event"",""trial"",""time""
""fullscreenexit"",""7"",""60963""
","","","","","","590.1999999880791","images/bush3.png","","","memory_trial","3","maybe_new","","","","","","",""
"html-keyboard-response","143","427973","0.0-15.0-0.50","1509","2","""event"",""trial"",""time""
""fullscreenenter"",""1"",""14883""
""fullscreenexit"",""7"",""60963""
""blur"",""7"",""65401""
""focus"",""7"",""79319""
","""event"",""trial"",""time""
""blur"",""7"",""65401""
","""event"",""trial"",""time""
""focus"",""7"",""79319""
","""event"",""trial"",""time""
""fullscreenenter"",""1"",""14883""
","""event"",""trial"",""time""
""fullscreenexit"",""7"",""60963""
","","","","","","null","<div style=""font-size:60px;"">+</div>","null","","fixation","","","","","","","","",""
"memory-trial","144","429446","0.0-15.0-1.50","1509","2","""event"",""trial"",""time""
""fullscreenenter"",""1"",""14883""
""fullscreenexit"",""7"",""60963""
""blur"",""7"",""65401""
""focus"",""7"",""79319""
","""event"",""trial"",""time""
""blur"",""7"",""65401""
","""event"",""trial"",""time""
""focus"",""7"",""79319""
","""event"",""trial"",""time""
""fullscreenenter"",""1"",""14883""
","""event"",""trial"",""time""
""fullscreenexit"",""7"",""60963""
","","","","","","470.8999999910593","images/sofa5.png","","","memory_trial","2","maybe_old","","","","","","",""
"html-keyboard-response","145","429949","0.0-15.0-0.51","1509","2","""event"",""trial"",""time""
""fullscreenenter"",""1"",""14883""
""fullscreenexit"",""7"",""60963""
""blur"",""7"",""65401""
""focus"",""7"",""79319""
","""event"",""trial"",""time""
""blur"",""7"",""65401""
","""event"",""trial"",""time""
""focus"",""7"",""79319""
","""event"",""trial"",""time""
""fullscreenenter"",""1"",""14883""
","""event"",""trial"",""time""
""fullscreenexit"",""7"",""60963""
","","","","","","null","<div style=""font-size:60px;"">+</div>","null","","fixation","","","","","","","","",""
"memory-trial","146","431049","0.0-15.0-1.51","1509","2","""event"",""trial"",""time""
""fullscreenenter"",""1"",""14883""
""fullscreenexit"",""7"",""60963""
""blur"",""7"",""65401""
""focus"",""7"",""79319""
","""event"",""trial"",""time""
""blur"",""7"",""65401""
","""event"",""trial"",""time""
""focus"",""7"",""79319""
","""event"",""trial"",""time""
""fullscreenenter"",""1"",""14883""
","""event"",""trial"",""time""
""fullscreenexit"",""7"",""60963""
","","","","","","95.59999999403954","images/sheep1.png","","","memory_trial","3","maybe_new","","","","","","",""
"html-keyboard-response","147","431551","0.0-15.0-0.52","1509","2","""event"",""trial"",""time""
""fullscreenenter"",""1"",""14883""
""fullscreenexit"",""7"",""60963""
""blur"",""7"",""65401""
""focus"",""7"",""79319""
","""event"",""trial"",""time""
""blur"",""7"",""65401""
","""event"",""trial"",""time""
""focus"",""7"",""79319""
","""event"",""trial"",""time""
""fullscreenenter"",""1"",""14883""
","""event"",""trial"",""time""
""fullscreenexit"",""7"",""60963""
","","","","","","null","<div style=""font-size:60px;"">+</div>","null","","fixation","","","","","","","","",""
"memory-trial","148","433047","0.0-15.0-1.52","1509","2","""event"",""trial"",""time""
""fullscreenenter"",""1"",""14883""
""fullscreenexit"",""7"",""60963""
""blur"",""7"",""65401""
""focus"",""7"",""79319""
","""event"",""trial"",""time""
""blur"",""7"",""65401""
","""event"",""trial"",""time""
""focus"",""7"",""79319""
","""event"",""trial"",""time""
""fullscreenenter"",""1"",""14883""
","""event"",""trial"",""time""
""fullscreenexit"",""7"",""60963""
","","","","","","492.59999999403954","images/cow4.png","","","memory_trial","4","definitely_new","","","","","","",""
"html-keyboard-response","149","433549","0.0-15.0-0.53","1509","2","""event"",""trial"",""time""
""fullscreenenter"",""1"",""14883""
""fullscreenexit"",""7"",""60963""
""blur"",""7"",""65401""
""focus"",""7"",""79319""
","""event"",""trial"",""time""
""blur"",""7"",""65401""
","""event"",""trial"",""time""
""focus"",""7"",""79319""
","""event"",""trial"",""time""
""fullscreenenter"",""1"",""14883""
","""event"",""trial"",""time""
""fullscreenexit"",""7"",""60963""
","","","","","","null","<div style=""font-size:60px;"">+</div>","null","","fixation","","","","","","","","",""
"memory-trial","150","434984","0.0-15.0-1.53","1509","2","""event"",""trial"",""time""
""fullscreenenter"",""1"",""14883""
""fullscreenexit"",""7"",""60963""
""blur"",""7"",""65401""
""focus"",""7"",""79319""
","""event"",""trial"",""time""
""blur"",""7"",""65401""
","""event"",""trial"",""time""
""focus"",""7"",""79319""
","""event"",""trial"",""time""
""fullscreenenter"",""1"",""14883""
","""event"",""trial"",""time""
""fullscreenexit"",""7"",""60963""
","","","","","","429.30000001192093","images/plane5.png","","","memory_trial","1","definitely_old","","","","","","",""
"html-keyboard-response","151","435486","0.0-15.0-0.54","1509","2","""event"",""trial"",""time""
""fullscreenenter"",""1"",""14883""
""fullscreenexit"",""7"",""60963""
""blur"",""7"",""65401""
""focus"",""7"",""79319""
","""event"",""trial"",""time""
""blur"",""7"",""65401""
","""event"",""trial"",""time""
""focus"",""7"",""79319""
","""event"",""trial"",""time""
""fullscreenenter"",""1"",""14883""
","""event"",""trial"",""time""
""fullscreenexit"",""7"",""60963""
","","","","","","null","<div style=""font-size:60px;"">+</div>","null","","fixation","","","","","","","","",""
"memory-trial","152","436589","0.0-15.0-1.54","1509","2","""event"",""trial"",""time""
""fullscreenenter"",""1"",""14883""
""fullscreenexit"",""7"",""60963""
""blur"",""7"",""65401""
""focus"",""7"",""79319""
","""event"",""trial"",""time""
""blur"",""7"",""65401""
","""event"",""trial"",""time""
""focus"",""7"",""79319""
","""event"",""trial"",""time""
""fullscreenenter"",""1"",""14883""
","""event"",""trial"",""time""
""fullscreenexit"",""7"",""60963""
","","","","","","97.1000000089407","images/train4.png","","","memory_trial","2","maybe_old","","","","","","",""
"html-keyboard-response","153","437091","0.0-15.0-0.55","1509","2","""event"",""trial"",""time""
""fullscreenenter"",""1"",""14883""
""fullscreenexit"",""7"",""60963""
""blur"",""7"",""65401""
""focus"",""7"",""79319""
","""event"",""trial"",""time""
""blur"",""7"",""65401""
","""event"",""trial"",""time""
""focus"",""7"",""79319""
","""event"",""trial"",""time""
""fullscreenenter"",""1"",""14883""
","""event"",""trial"",""time""
""fullscreenexit"",""7"",""60963""
","","","","","","null","<div style=""font-size:60px;"">+</div>","null","","fixation","","","","","","","","",""
"memory-trial","154","438389","0.0-15.0-1.55","1509","2","""event"",""trial"",""time""
""fullscreenenter"",""1"",""14883""
""fullscreenexit"",""7"",""60963""
""blur"",""7"",""65401""
""focus"",""7"",""79319""
","""event"",""trial"",""time""
""blur"",""7"",""65401""
","""event"",""trial"",""time""
""focus"",""7"",""79319""
","""event"",""trial"",""time""
""fullscreenenter"",""1"",""14883""
","""event"",""trial"",""time""
""fullscreenexit"",""7"",""60963""
","","","","","","294","images/tree2.png","","","memory_trial","3","maybe_new","","","","","","",""
"html-keyboard-response","155","438891","0.0-15.0-0.56","1509","2","""event"",""trial"",""time""
""fullscreenenter"",""1"",""14883""
""fullscreenexit"",""7"",""60963""
""blur"",""7"",""65401""
""focus"",""7"",""79319""
","""event"",""trial"",""time""
""blur"",""7"",""65401""
","""event"",""trial"",""time""
""focus"",""7"",""79319""
","""event"",""trial"",""time""
""fullscreenenter"",""1"",""14883""
","""event"",""trial"",""time""
""fullscreenexit"",""7"",""60963""
","","","","","","null","<div style=""font-size:60px;"">+</div>","null","","fixation","","","","","","","","",""
"memory-trial","156","440425","0.0-15.0-1.56","1509","2","""event"",""trial"",""time""
""fullscreenenter"",""1"",""14883""
""fullscreenexit"",""7"",""60963""
""blur"",""7"",""65401""
""focus"",""7"",""79319""
","""event"",""trial"",""time""
""blur"",""7"",""65401""
","""event"",""trial"",""time""
""focus"",""7"",""79319""
","""event"",""trial"",""time""
""fullscreenenter"",""1"",""14883""
","""event"",""trial"",""time""
""fullscreenexit"",""7"",""60963""
","","","","","","531","images/train2.png","","","memory_trial","2","maybe_old","","","","","","",""
"html-keyboard-response","157","440928","0.0-15.0-0.57","1509","2","""event"",""trial"",""time""
""fullscreenenter"",""1"",""14883""
""fullscreenexit"",""7"",""60963""
""blur"",""7"",""65401""
""focus"",""7"",""79319""
","""event"",""trial"",""time""
""blur"",""7"",""65401""
","""event"",""trial"",""time""
""focus"",""7"",""79319""
","""event"",""trial"",""time""
""fullscreenenter"",""1"",""14883""
","""event"",""trial"",""time""
""fullscreenexit"",""7"",""60963""
","","","","","","null","<div style=""font-size:60px;"">+</div>","null","","fixation","","","","","","","","",""
"memory-trial","158","442410","0.0-15.0-1.57","1509","2","""event"",""trial"",""time""
""fullscreenenter"",""1"",""14883""
""fullscreenexit"",""7"",""60963""
""blur"",""7"",""65401""
""focus"",""7"",""79319""
","""event"",""trial"",""time""
""blur"",""7"",""65401""
","""event"",""trial"",""time""
""focus"",""7"",""79319""
","""event"",""trial"",""time""
""fullscreenenter"",""1"",""14883""
","""event"",""trial"",""time""
""fullscreenexit"",""7"",""60963""
","","","","","","476.79999999701977","images/horse1.png","","","memory_trial","1","definitely_old","","","","","","",""
"html-keyboard-response","159","442911","0.0-15.0-0.58","1509","2","""event"",""trial"",""time""
""fullscreenenter"",""1"",""14883""
""fullscreenexit"",""7"",""60963""
""blur"",""7"",""65401""
""focus"",""7"",""79319""
","""event"",""trial"",""time""
""blur"",""7"",""65401""
","""event"",""trial"",""time""
""focus"",""7"",""79319""
","""event"",""trial"",""time""
""fullscreenenter"",""1"",""14883""
","""event"",""trial"",""time""
""fullscreenexit"",""7"",""60963""
","","","","","","null","<div style=""font-size:60px;"">+</div>","null","","fixation","","","","","","","","",""
"memory-trial","160","444311","0.0-15.0-1.58","1509","2","""event"",""trial"",""time""
""fullscreenenter"",""1"",""14883""
""fullscreenexit"",""7"",""60963""
""blur"",""7"",""65401""
""focus"",""7"",""79319""
","""event"",""trial"",""time""
""blur"",""7"",""65401""
","""event"",""trial"",""time""
""focus"",""7"",""79319""
","""event"",""trial"",""time""
""fullscreenenter"",""1"",""14883""
","""event"",""trial"",""time""
""fullscreenexit"",""7"",""60963""
","","","","","","394.59999999403954","images/orange3.png","","","memory_trial","4","definitely_new","","","","","","",""
"html-keyboard-response","161","444812","0.0-15.0-0.59","1509","2","""event"",""trial"",""time""
""fullscreenenter"",""1"",""14883""
""fullscreenexit"",""7"",""60963""
""blur"",""7"",""65401""
""focus"",""7"",""79319""
","""event"",""trial"",""time""
""blur"",""7"",""65401""
","""event"",""trial"",""time""
""focus"",""7"",""79319""
","""event"",""trial"",""time""
""fullscreenenter"",""1"",""14883""
","""event"",""trial"",""time""
""fullscreenexit"",""7"",""60963""
","","","","","","null","<div style=""font-size:60px;"">+</div>","null","","fixation","","","","","","","","",""
"memory-trial","162","446576","0.0-15.0-1.59","1509","2","""event"",""trial"",""time""
""fullscreenenter"",""1"",""14883""
""fullscreenexit"",""7"",""60963""
""blur"",""7"",""65401""
""focus"",""7"",""79319""
","""event"",""trial"",""time""
""blur"",""7"",""65401""
","""event"",""trial"",""time""
""focus"",""7"",""79319""
","""event"",""trial"",""time""
""fullscreenenter"",""1"",""14883""
","""event"",""trial"",""time""
""fullscreenexit"",""7"",""60963""
","","","","","","759","images/bed4.png","","","memory_trial","3","maybe_new","","","","","","",""
"html-keyboard-response","163","447079","0.0-15.0-0.60","1509","2","""event"",""trial"",""time""
""fullscreenenter"",""1"",""14883""
""fullscreenexit"",""7"",""60963""
""blur"",""7"",""65401""
""focus"",""7"",""79319""
","""event"",""trial"",""time""
""blur"",""7"",""65401""
","""event"",""trial"",""time""
""focus"",""7"",""79319""
","""event"",""trial"",""time""
""fullscreenenter"",""1"",""14883""
","""event"",""trial"",""time""
""fullscreenexit"",""7"",""60963""
","","","","","","null","<div style=""font-size:60px;"">+</div>","null","","fixation","","","","","","","","",""
"memory-trial","164","449208","0.0-15.0-1.60","1509","2","""event"",""trial"",""time""
""fullscreenenter"",""1"",""14883""
""fullscreenexit"",""7"",""60963""
""blur"",""7"",""65401""
""focus"",""7"",""79319""
","""event"",""trial"",""time""
""blur"",""7"",""65401""
","""event"",""trial"",""time""
""focus"",""7"",""79319""
","""event"",""trial"",""time""
""fullscreenenter"",""1"",""14883""
","""event"",""trial"",""time""
""fullscreenexit"",""7"",""60963""
","","","","","","1124","images/truck1.png","","","memory_trial","4","definitely_new","","","","","","",""
"html-keyboard-response","165","449711","0.0-15.0-0.61","1509","2","""event"",""trial"",""time""
""fullscreenenter"",""1"",""14883""
""fullscreenexit"",""7"",""60963""
""blur"",""7"",""65401""
""focus"",""7"",""79319""
","""event"",""trial"",""time""
""blur"",""7"",""65401""
","""event"",""trial"",""time""
""focus"",""7"",""79319""
","""event"",""trial"",""time""
""fullscreenenter"",""1"",""14883""
","""event"",""trial"",""time""
""fullscreenexit"",""7"",""60963""
","","","","","","null","<div style=""font-size:60px;"">+</div>","null","","fixation","","","","","","","","",""
"memory-trial","166","451753","0.0-15.0-1.61","1509","2","""event"",""trial"",""time""
""fullscreenenter"",""1"",""14883""
""fullscreenexit"",""7"",""60963""
""blur"",""7"",""65401""
""focus"",""7"",""79319""
","""event"",""trial"",""time""
""blur"",""7"",""65401""
","""event"",""trial"",""time""
""focus"",""7"",""79319""
","""event"",""trial"",""time""
""fullscreenenter"",""1"",""14883""
","""event"",""trial"",""time""
""fullscreenexit"",""7"",""60963""
","","","","","","1039.4000000059605","images/flower4.png","","","memory_trial","4","definitely_new","","","","","","",""
"html-keyboard-response","167","452256","0.0-15.0-0.62","1509","2","""event"",""trial"",""time""
