"trial_type","trial_index","time_elapsed","internal_node_id","subject_id","task_version","interactions","blur_events","focus_events","fullscreenenter_events","fullscreenexit_events","success","timeout","failed_images","failed_audio","failed_video","rt","stimulus","response","button_pressed","task_part","key_press","answer","correct","left_choice","middle_choice","right_choice","choice_positions","option_selected","block"
"pavlovia","0","7","0.0-0.0","2014","2","""event"",""trial"",""time""
""fullscreenenter"",""1"",""1571""
","
","
","""event"",""trial"",""time""
""fullscreenenter"",""1"",""1571""
","
","","","","","","","","","","","","","","","","","","",""
"fullscreen","1","2511","0.0-1.0","2014","2","""event"",""trial"",""time""
""fullscreenenter"",""1"",""1571""
","
","
","""event"",""trial"",""time""
""fullscreenenter"",""1"",""1571""
","
","true","","","","","","","","","","","","","","","","","",""
"preload","2","5061","0.0-2.0","2014","2","""event"",""trial"",""time""
""fullscreenenter"",""1"",""1571""
","
","
","""event"",""trial"",""time""
""fullscreenenter"",""1"",""1571""
","
","true","false","[]","[]","[]","","","","","","","","","","","","","",""
"audio-keyboard-response","3","6666","0.0-3.0","2014","2","""event"",""trial"",""time""
""fullscreenenter"",""1"",""1571""
","
","
","""event"",""trial"",""time""
""fullscreenenter"",""1"",""1571""
","
","","","","","","1600","audio/beep_loop.wav"," ","","","","","","","","","","",""
"audio-button-response","4","9264","0.0-4.0","2014","2","""event"",""trial"",""time""
""fullscreenenter"",""1"",""1571""
","
","
","""event"",""trial"",""time""
""fullscreenenter"",""1"",""1571""
","
","","","","","","2592","audio/turtle.wav","3","","","","","","","","","","",""
"audio-button-response","5","11479","0.0-5.0","2014","2","""event"",""trial"",""time""
""fullscreenenter"",""1"",""1571""
","
","
","""event"",""trial"",""time""
""fullscreenenter"",""1"",""1571""
","
","","","","","","1189","audio/shark.wav","2","","","","","","","","","","",""
"preload","6","35546","0.0-6.0","2014","2","""event"",""trial"",""time""
""fullscreenenter"",""1"",""1571""
","
","
","""event"",""trial"",""time""
""fullscreenenter"",""1"",""1571""
","
","true","false","[]","[]","[]","","","","","","","","","","","","","",""
"learning-instructions","7","43521","0.0-7.0-0.0","2014","2","""event"",""trial"",""time""
""fullscreenenter"",""1"",""1571""
","
","
","""event"",""trial"",""time""
""fullscreenenter"",""1"",""1571""
","
","","","","","","3160.5","<p> Welcome back! </p><p> Last week, you had to make choices about lots of different items.  </p>","","0","instructions","","","","","","","","",""
"learning-instructions","8","48892","0.0-7.0-0.1","2014","2","""event"",""trial"",""time""
""fullscreenenter"",""1"",""1571""
","
","
","""event"",""trial"",""time""
""fullscreenenter"",""1"",""1571""
","
","","","","","","1061.6000000238419","<p> Today, we are going to ask you to try to remember all the items. </p>","","0","instructions","","","","","","","","",""
"learning-instructions","9","59970","0.0-7.0-0.2","2014","2","""event"",""trial"",""time""
""fullscreenenter"",""1"",""1571""
","
","
","""event"",""trial"",""time""
""fullscreenenter"",""1"",""1571""
","
","","","","","","950","<p> On every trial, you will see an image. </p><p> The image may be an OLD image you saw during the games last week or it may be a NEW image that was not presented. </p>","","0","instructions","","","","","","","","",""
"learning-instructions","10","71422","0.0-7.0-0.3","2014","2","""event"",""trial"",""time""
""fullscreenenter"",""1"",""1571""
","
","
","""event"",""trial"",""time""
""fullscreenenter"",""1"",""1571""
","
","","","","","","2941.300000011921","<p> You need to select whether the image is:  </p><p>  'Definitely old', 'Maybe old', 'Maybe new', or 'Definitely new.'  </p><div class=""mem-choice-instructions-grid""><div class=""choice-option"" id=""choice-option-1"" ><img src=""images/definitely_old_1.png"" id=""choice-option-img-1"" class=""choice-option-img"" stage=""1""></div><div class=""choice-option"" id=""choice-option-2"" ><img src=""images/maybe_old_1.png"" id=""choice-option-img-2"" class=""choice-option-img"" stage=""1""></div><div class=""choice-option"" id=""choice-option-3"" ><img src=""images/maybe_new_1.png"" id=""choice-option-img-3"" class=""choice-option-img"" stage=""1""></div><div class=""choice-option"" id=""choice-option-4"" > <img src=""images/definitely_new_1.png"" id=""choice-option-img-4"" class=""choice-option-img"" stage=""1""></div></div>","","0","instructions","","","","","","","","",""
"learning-instructions","11","79443","0.0-7.0-0.4","2014","2","""event"",""trial"",""time""
""fullscreenenter"",""1"",""1571""
","
","
","""event"",""trial"",""time""
""fullscreenenter"",""1"",""1571""
","
","","","","","","1322","<p> You should use the 1, 2, 3, and 4 keys to make your responses.  </p><div class=""mem-choice-instructions-grid""><div class=""choice-option"" id=""choice-option-1"" ><img src=""images/definitely_old.png"" id=""choice-option-img-1"" class=""choice-option-img"" stage=""1""></div><div class=""choice-option"" id=""choice-option-2"" ><img src=""images/maybe_old.png"" id=""choice-option-img-2"" class=""choice-option-img"" stage=""1""></div><div class=""choice-option"" id=""choice-option-3"" ><img src=""images/maybe_new.png"" id=""choice-option-img-3"" class=""choice-option-img"" stage=""1""></div><div class=""choice-option"" id=""choice-option-4"" > <img src=""images/definitely_new.png"" id=""choice-option-img-4"" class=""choice-option-img"" stage=""1""></div></div>","","0","instructions","","","","","","","","",""
"learning-instructions","12","87428","0.0-7.0-0.5","2014","2","""event"",""trial"",""time""
""fullscreenenter"",""1"",""1571""
","
","
","""event"",""trial"",""time""
""fullscreenenter"",""1"",""1571""
","
","","","","","","1207.7999999821186","<p> You will have 10 seconds to make each response.  </p><p>  Make sure to respond before time runs out! </p>","","0","instructions","","","","","","","","",""
"learning-instructions","13","101765","0.0-7.0-0.6","2014","2","""event"",""trial"",""time""
""fullscreenenter"",""1"",""1571""
","
","
","""event"",""trial"",""time""
""fullscreenenter"",""1"",""1571""
","
","","","","","","6736.199999988079","<p> Today, you will see each image ONCE only.  </p><p>  That means none of the images will repeat. </p>","","0","instructions","","","","","","","","",""
"learning-instructions","14","115723","0.0-7.0-0.7","2014","2","""event"",""trial"",""time""
""fullscreenenter"",""1"",""1571""
","
","
","""event"",""trial"",""time""
""fullscreenenter"",""1"",""1571""
","
","","","","","","1272.2999999821186","<p> Before you play the real game, it is time to practice. </p><p>  Just like in the real game, some of the images in the practice will be ones you have seen before. </p><p>  Others will be entirely new. </p>","","0","instructions","","","","","","","","",""
"html-button-response","15","117190","0.0-8.0","2014","2","""event"",""trial"",""time""
""fullscreenenter"",""1"",""1571""
","
","
","""event"",""trial"",""time""
""fullscreenenter"",""1"",""1571""
","
","","","","","","1359.300000011921","<p> Ready to practice? </p><p> Remember, use the 1, 2, 3, and 4 keys to make your responses. </p>","0","","instructions","","","","","","","","",""
"html-keyboard-response","16","117817","0.0-9.0-0.0","2014","2","""event"",""trial"",""time""
""fullscreenenter"",""1"",""1571""
","
","
","""event"",""trial"",""time""
""fullscreenenter"",""1"",""1571""
","
","","","","","","null","<div style=""font-size:60px;"">+</div>","null","","fixation","","","","","","","","",""
"memory-trial","17","121666","0.0-9.0-1.0","2014","2","""event"",""trial"",""time""
""fullscreenenter"",""1"",""1571""
","
","
","""event"",""trial"",""time""
""fullscreenenter"",""1"",""1571""
","
","","","","","","2849.4000000059605","images/racket3.png","","","practice","4","definitely_new","","","","","","",""
"html-keyboard-response","18","122171","0.0-9.0-0.1","2014","2","""event"",""trial"",""time""
""fullscreenenter"",""1"",""1571""
","
","
","""event"",""trial"",""time""
""fullscreenenter"",""1"",""1571""
","
","","","","","","null","<div style=""font-size:60px;"">+</div>","null","","fixation","","","","","","","","",""
"memory-trial","19","125786","0.0-9.0-1.1","2014","2","""event"",""trial"",""time""
""fullscreenenter"",""1"",""1571""
","
","
","""event"",""trial"",""time""
""fullscreenenter"",""1"",""1571""
","
","","","","","","2598.2000000178814","images/ball2.png","","","practice","2","maybe_old","","","","","","",""
"html-keyboard-response","20","126296","0.0-9.0-0.2","2014","2","""event"",""trial"",""time""
""fullscreenenter"",""1"",""1571""
","
","
","""event"",""trial"",""time""
""fullscreenenter"",""1"",""1571""
","
","","","","","","null","<div style=""font-size:60px;"">+</div>","null","","fixation","","","","","","","","",""
"memory-trial","21","129236","0.0-9.0-1.2","2014","2","""event"",""trial"",""time""
""fullscreenenter"",""1"",""1571""
","
","
","""event"",""trial"",""time""
""fullscreenenter"",""1"",""1571""
","
","","","","","","1916.7000000178814","images/ball1.png","","","practice","1","definitely_old","","","","","","",""
"html-keyboard-response","22","129752","0.0-9.0-0.3","2014","2","""event"",""trial"",""time""
""fullscreenenter"",""1"",""1571""
","
","
","""event"",""trial"",""time""
""fullscreenenter"",""1"",""1571""
","
","","","","","","null","<div style=""font-size:60px;"">+</div>","null","","fixation","","","","","","","","",""
"memory-trial","23","132516","0.0-9.0-1.3","2014","2","""event"",""trial"",""time""
""fullscreenenter"",""1"",""1571""
","
","
","""event"",""trial"",""time""
""fullscreenenter"",""1"",""1571""
","
","","","","","","1751","images/ball4.png","","","practice","1","definitely_old","","","","","","",""
"html-keyboard-response","24","133026","0.0-9.0-0.4","2014","2","""event"",""trial"",""time""
""fullscreenenter"",""1"",""1571""
","
","
","""event"",""trial"",""time""
""fullscreenenter"",""1"",""1571""
","
","","","","","","null","<div style=""font-size:60px;"">+</div>","null","","fixation","","","","","","","","",""
"memory-trial","25","135648","0.0-9.0-1.4","2014","2","""event"",""trial"",""time""
""fullscreenenter"",""1"",""1571""
","
","
","""event"",""trial"",""time""
""fullscreenenter"",""1"",""1571""
","
","","","","","","1610.300000011921","images/racket4.png","","","practice","3","maybe_new","","","","","","",""
"html-keyboard-response","26","136161","0.0-9.0-0.5","2014","2","""event"",""trial"",""time""
""fullscreenenter"",""1"",""1571""
","
","
","""event"",""trial"",""time""
""fullscreenenter"",""1"",""1571""
","
","","","","","","null","<div style=""font-size:60px;"">+</div>","null","","fixation","","","","","","","","",""
"memory-trial","27","138062","0.0-9.0-1.5","2014","2","""event"",""trial"",""time""
""fullscreenenter"",""1"",""1571""
","
","
","""event"",""trial"",""time""
""fullscreenenter"",""1"",""1571""
","
","","","","","","886.2000000178814","images/racket2.png","","","practice","3","maybe_new","","","","","","",""
"html-keyboard-response","28","138577","0.0-9.0-0.6","2014","2","""event"",""trial"",""time""
""fullscreenenter"",""1"",""1571""
","
","
","""event"",""trial"",""time""
""fullscreenenter"",""1"",""1571""
","
","","","","","","null","<div style=""font-size:60px;"">+</div>","null","","fixation","","","","","","","","",""
"memory-trial","29","140762","0.0-9.0-1.6","2014","2","""event"",""trial"",""time""
""fullscreenenter"",""1"",""1571""
","
","
","""event"",""trial"",""time""
""fullscreenenter"",""1"",""1571""
","
","","","","","","1174.800000011921","images/ball3.png","","","practice","2","maybe_old","","","","","","",""
"html-keyboard-response","30","141275","0.0-9.0-0.7","2014","2","""event"",""trial"",""time""
""fullscreenenter"",""1"",""1571""
","
","
","""event"",""trial"",""time""
""fullscreenenter"",""1"",""1571""
","
","","","","","","null","<div style=""font-size:60px;"">+</div>","null","","fixation","","","","","","","","",""
"memory-trial","31","143632","0.0-9.0-1.7","2014","2","""event"",""trial"",""time""
""fullscreenenter"",""1"",""1571""
","
","
","""event"",""trial"",""time""
""fullscreenenter"",""1"",""1571""
","
","","","","","","1340.5","images/racket1.png","","","practice","3","maybe_new","","","","","","",""
"learning-instructions","32","153901","0.0-10.0-0.0","2014","2","""event"",""trial"",""time""
""fullscreenenter"",""1"",""1571""
""fullscreenexit"",""33"",""165735""
""blur"",""33"",""167177""
","""event"",""trial"",""time""
""blur"",""33"",""167177""
","
","""event"",""trial"",""time""
""fullscreenenter"",""1"",""1571""
","""event"",""trial"",""time""
""fullscreenexit"",""33"",""165735""
","","","","","","2322","<p> Great! You have completed the practice. </p><p> Before you start, we're going to ask you a few questions about how the game works.  </p>","","0","instructions","","","","","","","","",""
"preload","33","168897","0.0-11.0","2014","2","""event"",""trial"",""time""
""fullscreenenter"",""1"",""1571""
""fullscreenexit"",""33"",""165735""
""blur"",""33"",""167177""
""focus"",""34"",""247890""
","""event"",""trial"",""time""
""blur"",""33"",""167177""
","""event"",""trial"",""time""
""focus"",""34"",""247890""
","""event"",""trial"",""time""
""fullscreenenter"",""1"",""1571""
","""event"",""trial"",""time""
""fullscreenexit"",""33"",""165735""
","true","false","[]","[]","[]","","","","","","","","","","","","","",""
"comp-q","34","250447","0.0-12.0-0.0","2014","2","""event"",""trial"",""time""
""fullscreenenter"",""1"",""1571""
""fullscreenexit"",""33"",""165735""
""blur"",""33"",""167177""
""focus"",""34"",""247890""
","""event"",""trial"",""time""
""blur"",""33"",""167177""
","""event"",""trial"",""time""
""focus"",""34"",""247890""
","""event"",""trial"",""time""
""fullscreenenter"",""1"",""1571""
","""event"",""trial"",""time""
""fullscreenexit"",""33"",""165735""
","","","","","","75746.5","<p> <b> True or False? </b> </p><p> In this game, you will only see each image once. </p>","","0","comp_question","","","true","","","","","",""
"comp-q","35","261383","0.0-12.0-1.0","2014","2","""event"",""trial"",""time""
""fullscreenenter"",""1"",""1571""
""fullscreenexit"",""33"",""165735""
""blur"",""33"",""167177""
""focus"",""34"",""247890""
","""event"",""trial"",""time""
""blur"",""33"",""167177""
","""event"",""trial"",""time""
""focus"",""34"",""247890""
","""event"",""trial"",""time""
""fullscreenenter"",""1"",""1571""
","""event"",""trial"",""time""
""fullscreenexit"",""33"",""165735""
","","","","","","4180","<p> <b> That's right! </b> You will see many different images <i> one time each </i> in this game. </p>","","0","comp_answer","","","","","","","","",""
"comp-q","36","268915","0.0-12.0-0.1","2014","2","""event"",""trial"",""time""
""fullscreenenter"",""1"",""1571""
""fullscreenexit"",""33"",""165735""
""blur"",""33"",""167177""
""focus"",""34"",""247890""
","""event"",""trial"",""time""
""blur"",""33"",""167177""
","""event"",""trial"",""time""
""focus"",""34"",""247890""
","""event"",""trial"",""time""
""fullscreenenter"",""1"",""1571""
","""event"",""trial"",""time""
""fullscreenexit"",""33"",""165735""
","","","","","","1721.800000011921","<p> <b> True or False? </b> </p><p> You should use the mouse and click to make your response. </p>","","1","comp_question","","","true","","","","","",""
"comp-q","37","278619","0.0-12.0-1.1","2014","2","""event"",""trial"",""time""
""fullscreenenter"",""1"",""1571""
""fullscreenexit"",""33"",""165735""
""blur"",""33"",""167177""
""focus"",""34"",""247890""
","""event"",""trial"",""time""
""blur"",""33"",""167177""
","""event"",""trial"",""time""
""focus"",""34"",""247890""
","""event"",""trial"",""time""
""fullscreenenter"",""1"",""1571""
","""event"",""trial"",""time""
""fullscreenexit"",""33"",""165735""
","","","","","","2345.9000000059605","<p><b> That's right! </b> You should use the '1', '2', '3', and '4' keys to make your response. </p>","","0","comp_answer","","","","","","","","",""
"comp-q","38","286044","0.0-12.0-0.2","2014","2","""event"",""trial"",""time""
""fullscreenenter"",""1"",""1571""
""fullscreenexit"",""33"",""165735""
""blur"",""33"",""167177""
""focus"",""34"",""247890""
","""event"",""trial"",""time""
""blur"",""33"",""167177""
","""event"",""trial"",""time""
""focus"",""34"",""247890""
","""event"",""trial"",""time""
""fullscreenenter"",""1"",""1571""
","""event"",""trial"",""time""
""fullscreenexit"",""33"",""165735""
","","","","","","1430.4000000059605","<p> <b> True or False? </b> </p><p> You will have as much time as you want to make each choice. </p>","","1","comp_question","","","true","","","","","",""
"comp-q","39","292775","0.0-12.0-1.2","2014","2","""event"",""trial"",""time""
""fullscreenenter"",""1"",""1571""
""fullscreenexit"",""33"",""165735""
""blur"",""33"",""167177""
""focus"",""34"",""247890""
","""event"",""trial"",""time""
""blur"",""33"",""167177""
","""event"",""trial"",""time""
""focus"",""34"",""247890""
","""event"",""trial"",""time""
""fullscreenenter"",""1"",""1571""
","""event"",""trial"",""time""
""fullscreenexit"",""33"",""165735""
","","","","","","1331.9000000059605","<p> <b> That's right! </b> You will only have 10 seconds to make each choice. </p>","","0","comp_answer","","","","","","","","",""
"learning-instructions","40","303659","0.0-13.0","2014","2","""event"",""trial"",""time""
""fullscreenenter"",""1"",""1571""
""fullscreenexit"",""33"",""165735""
""blur"",""33"",""167177""
""focus"",""34"",""247890""
""blur"",""41"",""340463""
""focus"",""41"",""342951""
","""event"",""trial"",""time""
""blur"",""33"",""167177""
""blur"",""41"",""340463""
","""event"",""trial"",""time""
""focus"",""34"",""247890""
""focus"",""41"",""342951""
","""event"",""trial"",""time""
""fullscreenenter"",""1"",""1571""
","""event"",""trial"",""time""
""fullscreenexit"",""33"",""165735""
","","","","","","2205.5","<p> Great! You are now ready to begin the game. </p><p> Remember, use the 1, 2, 3, and 4 keys to make your responses. </p>","","0","instructions","","","","","","","","",""
"preload","41","347652","0.0-14.0","2014","2","""event"",""trial"",""time""
""fullscreenenter"",""1"",""1571""
""fullscreenexit"",""33"",""165735""
""blur"",""33"",""167177""
""focus"",""34"",""247890""
""blur"",""41"",""340463""
""focus"",""41"",""342951""
","""event"",""trial"",""time""
""blur"",""33"",""167177""
""blur"",""41"",""340463""
","""event"",""trial"",""time""
""focus"",""34"",""247890""
""focus"",""41"",""342951""
","""event"",""trial"",""time""
""fullscreenenter"",""1"",""1571""
","""event"",""trial"",""time""
""fullscreenexit"",""33"",""165735""
","true","false","[]","[]","[]","","","","","","","","","","","","","",""
"html-keyboard-response","42","348164","0.0-15.0-0.0","2014","2","""event"",""trial"",""time""
""fullscreenenter"",""1"",""1571""
""fullscreenexit"",""33"",""165735""
""blur"",""33"",""167177""
""focus"",""34"",""247890""
""blur"",""41"",""340463""
""focus"",""41"",""342951""
","""event"",""trial"",""time""
""blur"",""33"",""167177""
""blur"",""41"",""340463""
","""event"",""trial"",""time""
""focus"",""34"",""247890""
""focus"",""41"",""342951""
","""event"",""trial"",""time""
""fullscreenenter"",""1"",""1571""
","""event"",""trial"",""time""
""fullscreenexit"",""33"",""165735""
","","","","","","null","<div style=""font-size:60px;"">+</div>","null","","fixation","","","","","","","","",""
"memory-trial","43","351872","0.0-15.0-1.0","2014","2","""event"",""trial"",""time""
""fullscreenenter"",""1"",""1571""
""fullscreenexit"",""33"",""165735""
""blur"",""33"",""167177""
""focus"",""34"",""247890""
""blur"",""41"",""340463""
""focus"",""41"",""342951""
","""event"",""trial"",""time""
""blur"",""33"",""167177""
""blur"",""41"",""340463""
","""event"",""trial"",""time""
""focus"",""34"",""247890""
""focus"",""41"",""342951""
","""event"",""trial"",""time""
""fullscreenenter"",""1"",""1571""
","""event"",""trial"",""time""
""fullscreenexit"",""33"",""165735""
","","","","","","2697.0999999940395","images/orange4.png","","","memory_trial","3","maybe_new","","","","","","",""
"html-keyboard-response","44","352379","0.0-15.0-0.1","2014","2","""event"",""trial"",""time""
""fullscreenenter"",""1"",""1571""
""fullscreenexit"",""33"",""165735""
""blur"",""33"",""167177""
""focus"",""34"",""247890""
""blur"",""41"",""340463""
""focus"",""41"",""342951""
","""event"",""trial"",""time""
""blur"",""33"",""167177""
""blur"",""41"",""340463""
","""event"",""trial"",""time""
""focus"",""34"",""247890""
""focus"",""41"",""342951""
","""event"",""trial"",""time""
""fullscreenenter"",""1"",""1571""
","""event"",""trial"",""time""
""fullscreenexit"",""33"",""165735""
","","","","","","null","<div style=""font-size:60px;"">+</div>","null","","fixation","","","","","","","","",""
"memory-trial","45","354798","0.0-15.0-1.1","2014","2","""event"",""trial"",""time""
""fullscreenenter"",""1"",""1571""
""fullscreenexit"",""33"",""165735""
""blur"",""33"",""167177""
""focus"",""34"",""247890""
""blur"",""41"",""340463""
""focus"",""41"",""342951""
","""event"",""trial"",""time""
""blur"",""33"",""167177""
""blur"",""41"",""340463""
","""event"",""trial"",""time""
""focus"",""34"",""247890""
""focus"",""41"",""342951""
","""event"",""trial"",""time""
""fullscreenenter"",""1"",""1571""
","""event"",""trial"",""time""
""fullscreenexit"",""33"",""165735""
","","","","","","1403","images/horse1.png","","","memory_trial","4","definitely_new","","","","","","",""
"html-keyboard-response","46","355303","0.0-15.0-0.2","2014","2","""event"",""trial"",""time""
""fullscreenenter"",""1"",""1571""
""fullscreenexit"",""33"",""165735""
""blur"",""33"",""167177""
""focus"",""34"",""247890""
""blur"",""41"",""340463""
""focus"",""41"",""342951""
","""event"",""trial"",""time""
""blur"",""33"",""167177""
""blur"",""41"",""340463""
","""event"",""trial"",""time""
""focus"",""34"",""247890""
""focus"",""41"",""342951""
","""event"",""trial"",""time""
""fullscreenenter"",""1"",""1571""
","""event"",""trial"",""time""
""fullscreenexit"",""33"",""165735""
","","","","","","null","<div style=""font-size:60px;"">+</div>","null","","fixation","","","","","","","","",""
"memory-trial","47","358096","0.0-15.0-1.2","2014","2","""event"",""trial"",""time""
""fullscreenenter"",""1"",""1571""
""fullscreenexit"",""33"",""165735""
""blur"",""33"",""167177""
""focus"",""34"",""247890""
""blur"",""41"",""340463""
""focus"",""41"",""342951""
","""event"",""trial"",""time""
""blur"",""33"",""167177""
""blur"",""41"",""340463""
","""event"",""trial"",""time""
""focus"",""34"",""247890""
""focus"",""41"",""342951""
","""event"",""trial"",""time""
""fullscreenenter"",""1"",""1571""
","""event"",""trial"",""time""
""fullscreenexit"",""33"",""165735""
","","","","","","1782.199999988079","images/table5.png","","","memory_trial","4","definitely_new","","","","","","",""
"html-keyboard-response","48","358602","0.0-15.0-0.3","2014","2","""event"",""trial"",""time""
""fullscreenenter"",""1"",""1571""
""fullscreenexit"",""33"",""165735""
""blur"",""33"",""167177""
""focus"",""34"",""247890""
""blur"",""41"",""340463""
""focus"",""41"",""342951""
","""event"",""trial"",""time""
""blur"",""33"",""167177""
""blur"",""41"",""340463""
","""event"",""trial"",""time""
""focus"",""34"",""247890""
""focus"",""41"",""342951""
","""event"",""trial"",""time""
""fullscreenenter"",""1"",""1571""
","""event"",""trial"",""time""
""fullscreenexit"",""33"",""165735""
","","","","","","null","<div style=""font-size:60px;"">+</div>","null","","fixation","","","","","","","","",""
"memory-trial","49","361125","0.0-15.0-1.3","2014","2","""event"",""trial"",""time""
""fullscreenenter"",""1"",""1571""
""fullscreenexit"",""33"",""165735""
""blur"",""33"",""167177""
""focus"",""34"",""247890""
""blur"",""41"",""340463""
""focus"",""41"",""342951""
","""event"",""trial"",""time""
""blur"",""33"",""167177""
""blur"",""41"",""340463""
","""event"",""trial"",""time""
""focus"",""34"",""247890""
""focus"",""41"",""342951""
","""event"",""trial"",""time""
""fullscreenenter"",""1"",""1571""
","""event"",""trial"",""time""
""fullscreenexit"",""33"",""165735""
","","","","","","1514.0999999940395","images/chair4.png","","","memory_trial","4","definitely_new","","","","","","",""
"html-keyboard-response","50","361634","0.0-15.0-0.4","2014","2","""event"",""trial"",""time""
""fullscreenenter"",""1"",""1571""
""fullscreenexit"",""33"",""165735""
""blur"",""33"",""167177""
""focus"",""34"",""247890""
""blur"",""41"",""340463""
""focus"",""41"",""342951""
","""event"",""trial"",""time""
""blur"",""33"",""167177""
""blur"",""41"",""340463""
","""event"",""trial"",""time""
""focus"",""34"",""247890""
""focus"",""41"",""342951""
","""event"",""trial"",""time""
""fullscreenenter"",""1"",""1571""
","""event"",""trial"",""time""
""fullscreenexit"",""33"",""165735""
","","","","","","null","<div style=""font-size:60px;"">+</div>","null","","fixation","","","","","","","","",""
"memory-trial","51","363569","0.0-15.0-1.4","2014","2","""event"",""trial"",""time""
""fullscreenenter"",""1"",""1571""
""fullscreenexit"",""33"",""165735""
""blur"",""33"",""167177""
""focus"",""34"",""247890""
""blur"",""41"",""340463""
""focus"",""41"",""342951""
","""event"",""trial"",""time""
""blur"",""33"",""167177""
""blur"",""41"",""340463""
","""event"",""trial"",""time""
""focus"",""34"",""247890""
""focus"",""41"",""342951""
","""event"",""trial"",""time""
""fullscreenenter"",""1"",""1571""
","""event"",""trial"",""time""
""fullscreenexit"",""33"",""165735""
","","","","","","929.3000000119209","images/train4.png","","","memory_trial","4","definitely_new","","","","","","",""
"html-keyboard-response","52","364075","0.0-15.0-0.5","2014","2","""event"",""trial"",""time""
""fullscreenenter"",""1"",""1571""
""fullscreenexit"",""33"",""165735""
""blur"",""33"",""167177""
""focus"",""34"",""247890""
""blur"",""41"",""340463""
""focus"",""41"",""342951""
","""event"",""trial"",""time""
""blur"",""33"",""167177""
""blur"",""41"",""340463""
","""event"",""trial"",""time""
""focus"",""34"",""247890""
""focus"",""41"",""342951""
","""event"",""trial"",""time""
""fullscreenenter"",""1"",""1571""
","""event"",""trial"",""time""
""fullscreenexit"",""33"",""165735""
","","","","","","null","<div style=""font-size:60px;"">+</div>","null","","fixation","","","","","","","","",""
"memory-trial","53","366868","0.0-15.0-1.5","2014","2","""event"",""trial"",""time""
""fullscreenenter"",""1"",""1571""
""fullscreenexit"",""33"",""165735""
""blur"",""33"",""167177""
""focus"",""34"",""247890""
""blur"",""41"",""340463""
""focus"",""41"",""342951""
","""event"",""trial"",""time""
""blur"",""33"",""167177""
""blur"",""41"",""340463""
","""event"",""trial"",""time""
""focus"",""34"",""247890""
""focus"",""41"",""342951""
","""event"",""trial"",""time""
""fullscreenenter"",""1"",""1571""
","""event"",""trial"",""time""
""fullscreenexit"",""33"",""165735""
","","","","","","1783.9000000059605","images/goat3.png","","","memory_trial","2","maybe_old","","","","","","",""
"html-keyboard-response","54","367382","0.0-15.0-0.6","2014","2","""event"",""trial"",""time""
""fullscreenenter"",""1"",""1571""
""fullscreenexit"",""33"",""165735""
""blur"",""33"",""167177""
""focus"",""34"",""247890""
""blur"",""41"",""340463""
""focus"",""41"",""342951""
","""event"",""trial"",""time""
""blur"",""33"",""167177""
""blur"",""41"",""340463""
","""event"",""trial"",""time""
""focus"",""34"",""247890""
""focus"",""41"",""342951""
","""event"",""trial"",""time""
""fullscreenenter"",""1"",""1571""
","""event"",""trial"",""time""
""fullscreenexit"",""33"",""165735""
","","","","","","null","<div style=""font-size:60px;"">+</div>","null","","fixation","","","","","","","","",""
"memory-trial","55","369771","0.0-15.0-1.6","2014","2","""event"",""trial"",""time""
""fullscreenenter"",""1"",""1571""
""fullscreenexit"",""33"",""165735""
""blur"",""33"",""167177""
""focus"",""34"",""247890""
""blur"",""41"",""340463""
""focus"",""41"",""342951""
","""event"",""trial"",""time""
""blur"",""33"",""167177""
""blur"",""41"",""340463""
","""event"",""trial"",""time""
""focus"",""34"",""247890""
""focus"",""41"",""342951""
","""event"",""trial"",""time""
""fullscreenenter"",""1"",""1571""
","""event"",""trial"",""time""
""fullscreenexit"",""33"",""165735""
","","","","","","1379.5999999940395","images/chair2.png","","","memory_trial","1","definitely_old","","","","","","",""
"html-keyboard-response","56","370278","0.0-15.0-0.7","2014","2","""event"",""trial"",""time""
""fullscreenenter"",""1"",""1571""
""fullscreenexit"",""33"",""165735""
""blur"",""33"",""167177""
""focus"",""34"",""247890""
""blur"",""41"",""340463""
""focus"",""41"",""342951""
","""event"",""trial"",""time""
""blur"",""33"",""167177""
""blur"",""41"",""340463""
","""event"",""trial"",""time""
""focus"",""34"",""247890""
""focus"",""41"",""342951""
","""event"",""trial"",""time""
""fullscreenenter"",""1"",""1571""
","""event"",""trial"",""time""
""fullscreenexit"",""33"",""165735""
","","","","","","null","<div style=""font-size:60px;"">+</div>","null","","fixation","","","","","","","","",""
"memory-trial","57","372698","0.0-15.0-1.7","2014","2","""event"",""trial"",""time""
""fullscreenenter"",""1"",""1571""
""fullscreenexit"",""33"",""165735""
""blur"",""33"",""167177""
""focus"",""34"",""247890""
""blur"",""41"",""340463""
""focus"",""41"",""342951""
","""event"",""trial"",""time""
""blur"",""33"",""167177""
""blur"",""41"",""340463""
","""event"",""trial"",""time""
""focus"",""34"",""247890""
""focus"",""41"",""342951""
","""event"",""trial"",""time""
""fullscreenenter"",""1"",""1571""
","""event"",""trial"",""time""
""fullscreenexit"",""33"",""165735""
","","","","","","1406.0999999940395","images/goat4.png","","","memory_trial","2","maybe_old","","","","","","",""
"html-keyboard-response","58","373206","0.0-15.0-0.8","2014","2","""event"",""trial"",""time""
""fullscreenenter"",""1"",""1571""
""fullscreenexit"",""33"",""165735""
""blur"",""33"",""167177""
""focus"",""34"",""247890""
""blur"",""41"",""340463""
""focus"",""41"",""342951""
","""event"",""trial"",""time""
""blur"",""33"",""167177""
""blur"",""41"",""340463""
","""event"",""trial"",""time""
""focus"",""34"",""247890""
""focus"",""41"",""342951""
","""event"",""trial"",""time""
""fullscreenenter"",""1"",""1571""
","""event"",""trial"",""time""
""fullscreenexit"",""33"",""165735""
","","","","","","null","<div style=""font-size:60px;"">+</div>","null","","fixation","","","","","","","","",""
"memory-trial","59","376670","0.0-15.0-1.8","2014","2","""event"",""trial"",""time""
""fullscreenenter"",""1"",""1571""
""fullscreenexit"",""33"",""165735""
""blur"",""33"",""167177""
""focus"",""34"",""247890""
""blur"",""41"",""340463""
""focus"",""41"",""342951""
","""event"",""trial"",""time""
""blur"",""33"",""167177""
""blur"",""41"",""340463""
","""event"",""trial"",""time""
""focus"",""34"",""247890""
""focus"",""41"",""342951""
","""event"",""trial"",""time""
""fullscreenenter"",""1"",""1571""
","""event"",""trial"",""time""
""fullscreenexit"",""33"",""165735""
","","","","","","2445.9000000059605","images/banana1.png","","","memory_trial","4","definitely_new","","","","","","",""
"html-keyboard-response","60","377186","0.0-15.0-0.9","2014","2","""event"",""trial"",""time""
""fullscreenenter"",""1"",""1571""
""fullscreenexit"",""33"",""165735""
""blur"",""33"",""167177""
""focus"",""34"",""247890""
""blur"",""41"",""340463""
""focus"",""41"",""342951""
","""event"",""trial"",""time""
""blur"",""33"",""167177""
""blur"",""41"",""340463""
","""event"",""trial"",""time""
""focus"",""34"",""247890""
""focus"",""41"",""342951""
","""event"",""trial"",""time""
""fullscreenenter"",""1"",""1571""
","""event"",""trial"",""time""
""fullscreenexit"",""33"",""165735""
","","","","","","null","<div style=""font-size:60px;"">+</div>","null","","fixation","","","","","","","","",""
"memory-trial","61","379248","0.0-15.0-1.9","2014","2","""event"",""trial"",""time""
""fullscreenenter"",""1"",""1571""
""fullscreenexit"",""33"",""165735""
""blur"",""33"",""167177""
""focus"",""34"",""247890""
""blur"",""41"",""340463""
""focus"",""41"",""342951""
","""event"",""trial"",""time""
""blur"",""33"",""167177""
""blur"",""41"",""340463""
","""event"",""trial"",""time""
""focus"",""34"",""247890""
""focus"",""41"",""342951""
","""event"",""trial"",""time""
""fullscreenenter"",""1"",""1571""
","""event"",""trial"",""time""
""fullscreenexit"",""33"",""165735""
","","","","","","1053.199999988079","images/orange1.png","","","memory_trial","4","definitely_new","","","","","","",""
"html-keyboard-response","62","379754","0.0-15.0-0.10","2014","2","""event"",""trial"",""time""
""fullscreenenter"",""1"",""1571""
""fullscreenexit"",""33"",""165735""
""blur"",""33"",""167177""
""focus"",""34"",""247890""
""blur"",""41"",""340463""
""focus"",""41"",""342951""
","""event"",""trial"",""time""
""blur"",""33"",""167177""
""blur"",""41"",""340463""
","""event"",""trial"",""time""
""focus"",""34"",""247890""
""focus"",""41"",""342951""
","""event"",""trial"",""time""
""fullscreenenter"",""1"",""1571""
","""event"",""trial"",""time""
""fullscreenexit"",""33"",""165735""
","","","","","","null","<div style=""font-size:60px;"">+</div>","null","","fixation","","","","","","","","",""
"memory-trial","63","382581","0.0-15.0-1.10","2014","2","""event"",""trial"",""time""
""fullscreenenter"",""1"",""1571""
""fullscreenexit"",""33"",""165735""
""blur"",""33"",""167177""
""focus"",""34"",""247890""
""blur"",""41"",""340463""
""focus"",""41"",""342951""
","""event"",""trial"",""time""
""blur"",""33"",""167177""
""blur"",""41"",""340463""
","""event"",""trial"",""time""
""focus"",""34"",""247890""
""focus"",""41"",""342951""
","""event"",""trial"",""time""
""fullscreenenter"",""1"",""1571""
","""event"",""trial"",""time""
""fullscreenexit"",""33"",""165735""
","","","","","","1814","images/rodent3.png","","","memory_trial","3","maybe_new","","","","","","",""
"html-keyboard-response","64","383097","0.0-15.0-0.11","2014","2","""event"",""trial"",""time""
""fullscreenenter"",""1"",""1571""
""fullscreenexit"",""33"",""165735""
""blur"",""33"",""167177""
""focus"",""34"",""247890""
""blur"",""41"",""340463""
""focus"",""41"",""342951""
","""event"",""trial"",""time""
""blur"",""33"",""167177""
""blur"",""41"",""340463""
","""event"",""trial"",""time""
""focus"",""34"",""247890""
""focus"",""41"",""342951""
","""event"",""trial"",""time""
""fullscreenenter"",""1"",""1571""
","""event"",""trial"",""time""
""fullscreenexit"",""33"",""165735""
","","","","","","null","<div style=""font-size:60px;"">+</div>","null","","fixation","","","","","","","","",""
"memory-trial","65","385501","0.0-15.0-1.11","2014","2","""event"",""trial"",""time""
""fullscreenenter"",""1"",""1571""
""fullscreenexit"",""33"",""165735""
""blur"",""33"",""167177""
""focus"",""34"",""247890""
""blur"",""41"",""340463""
""focus"",""41"",""342951""
","""event"",""trial"",""time""
""blur"",""33"",""167177""
""blur"",""41"",""340463""
","""event"",""trial"",""time""
""focus"",""34"",""247890""
""focus"",""41"",""342951""
","""event"",""trial"",""time""
""fullscreenenter"",""1"",""1571""
","""event"",""trial"",""time""
""fullscreenexit"",""33"",""165735""
","","","","","","1397.4000000059605","images/sheep2.png","","","memory_trial","4","definitely_new","","","","","","",""
"html-keyboard-response","66","386017","0.0-15.0-0.12","2014","2","""event"",""trial"",""time""
""fullscreenenter"",""1"",""1571""
""fullscreenexit"",""33"",""165735""
""blur"",""33"",""167177""
""focus"",""34"",""247890""
""blur"",""41"",""340463""
""focus"",""41"",""342951""
","""event"",""trial"",""time""
""blur"",""33"",""167177""
""blur"",""41"",""340463""
","""event"",""trial"",""time""
""focus"",""34"",""247890""
""focus"",""41"",""342951""
","""event"",""trial"",""time""
""fullscreenenter"",""1"",""1571""
","""event"",""trial"",""time""
""fullscreenexit"",""33"",""165735""
","","","","","","null","<div style=""font-size:60px;"">+</div>","null","","fixation","","","","","","","","",""
"memory-trial","67","388140","0.0-15.0-1.12","2014","2","""event"",""trial"",""time""
""fullscreenenter"",""1"",""1571""
""fullscreenexit"",""33"",""165735""
""blur"",""33"",""167177""
""focus"",""34"",""247890""
""blur"",""41"",""340463""
""focus"",""41"",""342951""
","""event"",""trial"",""time""
""blur"",""33"",""167177""
""blur"",""41"",""340463""
","""event"",""trial"",""time""
""focus"",""34"",""247890""
""focus"",""41"",""342951""
","""event"",""trial"",""time""
""fullscreenenter"",""1"",""1571""
","""event"",""trial"",""time""
""fullscreenexit"",""33"",""165735""
","","","","","","1110.0999999940395","images/goat1.png","","","memory_trial","4","definitely_new","","","","","","",""
"html-keyboard-response","68","388645","0.0-15.0-0.13","2014","2","""event"",""trial"",""time""
""fullscreenenter"",""1"",""1571""
""fullscreenexit"",""33"",""165735""
""blur"",""33"",""167177""
""focus"",""34"",""247890""
""blur"",""41"",""340463""
""focus"",""41"",""342951""
","""event"",""trial"",""time""
""blur"",""33"",""167177""
""blur"",""41"",""340463""
","""event"",""trial"",""time""
""focus"",""34"",""247890""
""focus"",""41"",""342951""
","""event"",""trial"",""time""
""fullscreenenter"",""1"",""1571""
","""event"",""trial"",""time""
""fullscreenexit"",""33"",""165735""
","","","","","","null","<div style=""font-size:60px;"">+</div>","null","","fixation","","","","","","","","",""
"memory-trial","69","391706","0.0-15.0-1.13","2014","2","""event"",""trial"",""time""
""fullscreenenter"",""1"",""1571""
""fullscreenexit"",""33"",""165735""
""blur"",""33"",""167177""
""focus"",""34"",""247890""
""blur"",""41"",""340463""
""focus"",""41"",""342951""
","""event"",""trial"",""time""
""blur"",""33"",""167177""
""blur"",""41"",""340463""
","""event"",""trial"",""time""
""focus"",""34"",""247890""
""focus"",""41"",""342951""
","""event"",""trial"",""time""
""fullscreenenter"",""1"",""1571""
","""event"",""trial"",""time""
""fullscreenexit"",""33"",""165735""
","","","","","","2055.800000011921","images/tree5.png","","","memory_trial","1","definitely_old","","","","","","",""
"html-keyboard-response","70","392211","0.0-15.0-0.14","2014","2","""event"",""trial"",""time""
""fullscreenenter"",""1"",""1571""
""fullscreenexit"",""33"",""165735""
""blur"",""33"",""167177""
""focus"",""34"",""247890""
""blur"",""41"",""340463""
""focus"",""41"",""342951""
","""event"",""trial"",""time""
""blur"",""33"",""167177""
""blur"",""41"",""340463""
","""event"",""trial"",""time""
""focus"",""34"",""247890""
""focus"",""41"",""342951""
","""event"",""trial"",""time""
""fullscreenenter"",""1"",""1571""
","""event"",""trial"",""time""
""fullscreenexit"",""33"",""165735""
","","","","","","null","<div style=""font-size:60px;"">+</div>","null","","fixation","","","","","","","","",""
"memory-trial","71","395741","0.0-15.0-1.14","2014","2","""event"",""trial"",""time""
""fullscreenenter"",""1"",""1571""
""fullscreenexit"",""33"",""165735""
""blur"",""33"",""167177""
""focus"",""34"",""247890""
""blur"",""41"",""340463""
""focus"",""41"",""342951""
","""event"",""trial"",""time""
""blur"",""33"",""167177""
""blur"",""41"",""340463""
","""event"",""trial"",""time""
""focus"",""34"",""247890""
""focus"",""41"",""342951""
","""event"",""trial"",""time""
""fullscreenenter"",""1"",""1571""
","""event"",""trial"",""time""
""fullscreenexit"",""33"",""165735""
","","","","","","2521.600000023842","images/feline3.png","","","memory_trial","3","maybe_new","","","","","","",""
"html-keyboard-response","72","396258","0.0-15.0-0.15","2014","2","""event"",""trial"",""time""
""fullscreenenter"",""1"",""1571""
""fullscreenexit"",""33"",""165735""
""blur"",""33"",""167177""
""focus"",""34"",""247890""
""blur"",""41"",""340463""
""focus"",""41"",""342951""
","""event"",""trial"",""time""
""blur"",""33"",""167177""
""blur"",""41"",""340463""
","""event"",""trial"",""time""
""focus"",""34"",""247890""
""focus"",""41"",""342951""
","""event"",""trial"",""time""
""fullscreenenter"",""1"",""1571""
","""event"",""trial"",""time""
""fullscreenexit"",""33"",""165735""
","","","","","","null","<div style=""font-size:60px;"">+</div>","null","","fixation","","","","","","","","",""
"memory-trial","73","399577","0.0-15.0-1.15","2014","2","""event"",""trial"",""time""
""fullscreenenter"",""1"",""1571""
""fullscreenexit"",""33"",""165735""
""blur"",""33"",""167177""
""focus"",""34"",""247890""
""blur"",""41"",""340463""
""focus"",""41"",""342951""
","""event"",""trial"",""time""
""blur"",""33"",""167177""
""blur"",""41"",""340463""
","""event"",""trial"",""time""
""focus"",""34"",""247890""
""focus"",""41"",""342951""
","""event"",""trial"",""time""
""fullscreenenter"",""1"",""1571""
","""event"",""trial"",""time""
""fullscreenexit"",""33"",""165735""
","","","","","","2302.399999976158","images/bush3.png","","","memory_trial","1","definitely_old","","","","","","",""
"html-keyboard-response","74","400090","0.0-15.0-0.16","2014","2","""event"",""trial"",""time""
""fullscreenenter"",""1"",""1571""
""fullscreenexit"",""33"",""165735""
""blur"",""33"",""167177""
""focus"",""34"",""247890""
""blur"",""41"",""340463""
""focus"",""41"",""342951""
","""event"",""trial"",""time""
""blur"",""33"",""167177""
""blur"",""41"",""340463""
","""event"",""trial"",""time""
""focus"",""34"",""247890""
""focus"",""41"",""342951""
","""event"",""trial"",""time""
""fullscreenenter"",""1"",""1571""
","""event"",""trial"",""time""
""fullscreenexit"",""33"",""165735""
","","","","","","null","<div style=""font-size:60px;"">+</div>","null","","fixation","","","","","","","","",""
"memory-trial","75","403286","0.0-15.0-1.16","2014","2","""event"",""trial"",""time""
""fullscreenenter"",""1"",""1571""
""fullscreenexit"",""33"",""165735""
""blur"",""33"",""167177""
""focus"",""34"",""247890""
""blur"",""41"",""340463""
""focus"",""41"",""342951""
","""event"",""trial"",""time""
""blur"",""33"",""167177""
""blur"",""41"",""340463""
","""event"",""trial"",""time""
""focus"",""34"",""247890""
""focus"",""41"",""342951""
","""event"",""trial"",""time""
""fullscreenenter"",""1"",""1571""
","""event"",""trial"",""time""
""fullscreenexit"",""33"",""165735""
","","","","","","2189.199999988079","images/rodent5.png","","","memory_trial","4","definitely_new","","","","","","",""
"html-keyboard-response","76","403794","0.0-15.0-0.17","2014","2","""event"",""trial"",""time""
""fullscreenenter"",""1"",""1571""
""fullscreenexit"",""33"",""165735""
""blur"",""33"",""167177""
""focus"",""34"",""247890""
""blur"",""41"",""340463""
""focus"",""41"",""342951""
","""event"",""trial"",""time""
""blur"",""33"",""167177""
""blur"",""41"",""340463""
","""event"",""trial"",""time""
""focus"",""34"",""247890""
""focus"",""41"",""342951""
","""event"",""trial"",""time""
""fullscreenenter"",""1"",""1571""
","""event"",""trial"",""time""
""fullscreenexit"",""33"",""165735""
","","","","","","null","<div style=""font-size:60px;"">+</div>","null","","fixation","","","","","","","","",""
"memory-trial","77","406771","0.0-15.0-1.17","2014","2","""event"",""trial"",""time""
""fullscreenenter"",""1"",""1571""
""fullscreenexit"",""33"",""165735""
""blur"",""33"",""167177""
""focus"",""34"",""247890""
""blur"",""41"",""340463""
""focus"",""41"",""342951""
","""event"",""trial"",""time""
""blur"",""33"",""167177""
""blur"",""41"",""340463""
","""event"",""trial"",""time""
""focus"",""34"",""247890""
""focus"",""41"",""342951""
","""event"",""trial"",""time""
""fullscreenenter"",""1"",""1571""
","""event"",""trial"",""time""
""fullscreenexit"",""33"",""165735""
","","","","","","1968.699999988079","images/cow1.png","","","memory_trial","1","definitely_old","","","","","","",""
"html-keyboard-response","78","407273","0.0-15.0-0.18","2014","2","""event"",""trial"",""time""
""fullscreenenter"",""1"",""1571""
""fullscreenexit"",""33"",""165735""
""blur"",""33"",""167177""
""focus"",""34"",""247890""
""blur"",""41"",""340463""
""focus"",""41"",""342951""
","""event"",""trial"",""time""
""blur"",""33"",""167177""
""blur"",""41"",""340463""
","""event"",""trial"",""time""
""focus"",""34"",""247890""
""focus"",""41"",""342951""
","""event"",""trial"",""time""
""fullscreenenter"",""1"",""1571""
","""event"",""trial"",""time""
""fullscreenexit"",""33"",""165735""
","","","","","","null","<div style=""font-size:60px;"">+</div>","null","","fixation","","","","","","","","",""
"memory-trial","79","410464","0.0-15.0-1.18","2014","2","""event"",""trial"",""time""
""fullscreenenter"",""1"",""1571""
""fullscreenexit"",""33"",""165735""
""blur"",""33"",""167177""
""focus"",""34"",""247890""
""blur"",""41"",""340463""
""focus"",""41"",""342951""
","""event"",""trial"",""time""
""blur"",""33"",""167177""
""blur"",""41"",""340463""
","""event"",""trial"",""time""
""focus"",""34"",""247890""
""focus"",""41"",""342951""
","""event"",""trial"",""time""
""fullscreenenter"",""1"",""1571""
","""event"",""trial"",""time""
""fullscreenexit"",""33"",""165735""
","","","","","","2176.0999999940395","images/apple3.png","","","memory_trial","4","definitely_new","","","","","","",""
"html-keyboard-response","80","410979","0.0-15.0-0.19","2014","2","""event"",""trial"",""time""
""fullscreenenter"",""1"",""1571""
""fullscreenexit"",""33"",""165735""
""blur"",""33"",""167177""
""focus"",""34"",""247890""
""blur"",""41"",""340463""
""focus"",""41"",""342951""
","""event"",""trial"",""time""
""blur"",""33"",""167177""
""blur"",""41"",""340463""
","""event"",""trial"",""time""
""focus"",""34"",""247890""
""focus"",""41"",""342951""
","""event"",""trial"",""time""
""fullscreenenter"",""1"",""1571""
","""event"",""trial"",""time""
""fullscreenexit"",""33"",""165735""
","","","","","","null","<div style=""font-size:60px;"">+</div>","null","","fixation","","","","","","","","",""
"memory-trial","81","413977","0.0-15.0-1.19","2014","2","""event"",""trial"",""time""
""fullscreenenter"",""1"",""1571""
""fullscreenexit"",""33"",""165735""
""blur"",""33"",""167177""
""focus"",""34"",""247890""
""blur"",""41"",""340463""
""focus"",""41"",""342951""
","""event"",""trial"",""time""
""blur"",""33"",""167177""
""blur"",""41"",""340463""
","""event"",""trial"",""time""
""focus"",""34"",""247890""
""focus"",""41"",""342951""
","""event"",""trial"",""time""
""fullscreenenter"",""1"",""1571""
","""event"",""trial"",""time""
""fullscreenexit"",""33"",""165735""
","","","","","","1992","images/banana2.png","","","memory_trial","4","definitely_new","","","","","","",""
"html-keyboard-response","82","414493","0.0-15.0-0.20","2014","2","""event"",""trial"",""time""
""fullscreenenter"",""1"",""1571""
""fullscreenexit"",""33"",""165735""
""blur"",""33"",""167177""
""focus"",""34"",""247890""
""blur"",""41"",""340463""
""focus"",""41"",""342951""
","""event"",""trial"",""time""
""blur"",""33"",""167177""
""blur"",""41"",""340463""
","""event"",""trial"",""time""
""focus"",""34"",""247890""
""focus"",""41"",""342951""
","""event"",""trial"",""time""
""fullscreenenter"",""1"",""1571""
","""event"",""trial"",""time""
""fullscreenexit"",""33"",""165735""
","","","","","","null","<div style=""font-size:60px;"">+</div>","null","","fixation","","","","","","","","",""
"memory-trial","83","416651","0.0-15.0-1.20","2014","2","""event"",""trial"",""time""
""fullscreenenter"",""1"",""1571""
""fullscreenexit"",""33"",""165735""
""blur"",""33"",""167177""
""focus"",""34"",""247890""
""blur"",""41"",""340463""
""focus"",""41"",""342951""
","""event"",""trial"",""time""
""blur"",""33"",""167177""
""blur"",""41"",""340463""
","""event"",""trial"",""time""
""focus"",""34"",""247890""
""focus"",""41"",""342951""
","""event"",""trial"",""time""
""fullscreenenter"",""1"",""1571""
","""event"",""trial"",""time""
""fullscreenexit"",""33"",""165735""
","","","","","","1142.800000011921","images/rabbit4.png","","","memory_trial","4","definitely_new","","","","","","",""
"html-keyboard-response","84","417163","0.0-15.0-0.21","2014","2","""event"",""trial"",""time""
""fullscreenenter"",""1"",""1571""
""fullscreenexit"",""33"",""165735""
""blur"",""33"",""167177""
""focus"",""34"",""247890""
""blur"",""41"",""340463""
""focus"",""41"",""342951""
","""event"",""trial"",""time""
""blur"",""33"",""167177""
""blur"",""41"",""340463""
","""event"",""trial"",""time""
""focus"",""34"",""247890""
""focus"",""41"",""342951""
","""event"",""trial"",""time""
""fullscreenenter"",""1"",""1571""
","""event"",""trial"",""time""
""fullscreenexit"",""33"",""165735""
","","","","","","null","<div style=""font-size:60px;"">+</div>","null","","fixation","","","","","","","","",""
"memory-trial","85","419169","0.0-15.0-1.21","2014","2","""event"",""trial"",""time""
""fullscreenenter"",""1"",""1571""
""fullscreenexit"",""33"",""165735""
""blur"",""33"",""167177""
""focus"",""34"",""247890""
""blur"",""41"",""340463""
""focus"",""41"",""342951""
","""event"",""trial"",""time""
""blur"",""33"",""167177""
""blur"",""41"",""340463""
","""event"",""trial"",""time""
""focus"",""34"",""247890""
""focus"",""41"",""342951""
","""event"",""trial"",""time""
""fullscreenenter"",""1"",""1571""
","""event"",""trial"",""time""
""fullscreenexit"",""33"",""165735""
","","","","","","998","images/sofa2.png","","","memory_trial","1","definitely_old","","","","","","",""
"html-keyboard-response","86","419676","0.0-15.0-0.22","2014","2","""event"",""trial"",""time""
""fullscreenenter"",""1"",""1571""
""fullscreenexit"",""33"",""165735""
""blur"",""33"",""167177""
""focus"",""34"",""247890""
""blur"",""41"",""340463""
""focus"",""41"",""342951""
","""event"",""trial"",""time""
""blur"",""33"",""167177""
""blur"",""41"",""340463""
","""event"",""trial"",""time""
""focus"",""34"",""247890""
""focus"",""41"",""342951""
","""event"",""trial"",""time""
""fullscreenenter"",""1"",""1571""
","""event"",""trial"",""time""
""fullscreenexit"",""33"",""165735""
","","","","","","null","<div style=""font-size:60px;"">+</div>","null","","fixation","","","","","","","","",""
"memory-trial","87","421906","0.0-15.0-1.22","2014","2","""event"",""trial"",""time""
""fullscreenenter"",""1"",""1571""
""fullscreenexit"",""33"",""165735""
""blur"",""33"",""167177""
""focus"",""34"",""247890""
""blur"",""41"",""340463""
""focus"",""41"",""342951""
","""event"",""trial"",""time""
""blur"",""33"",""167177""
""blur"",""41"",""340463""
","""event"",""trial"",""time""
""focus"",""34"",""247890""
""focus"",""41"",""342951""
","""event"",""trial"",""time""
""fullscreenenter"",""1"",""1571""
","""event"",""trial"",""time""
""fullscreenexit"",""33"",""165735""
","","","","","","1216.5999999940395","images/rabbit3.png","","","memory_trial","4","definitely_new","","","","","","",""
"html-keyboard-response","88","422424","0.0-15.0-0.23","2014","2","""event"",""trial"",""time""
""fullscreenenter"",""1"",""1571""
""fullscreenexit"",""33"",""165735""
""blur"",""33"",""167177""
""focus"",""34"",""247890""
""blur"",""41"",""340463""
""focus"",""41"",""342951""
","""event"",""trial"",""time""
""blur"",""33"",""167177""
""blur"",""41"",""340463""
","""event"",""trial"",""time""
""focus"",""34"",""247890""
""focus"",""41"",""342951""
","""event"",""trial"",""time""
""fullscreenenter"",""1"",""1571""
","""event"",""trial"",""time""
""fullscreenexit"",""33"",""165735""
","","","","","","null","<div style=""font-size:60px;"">+</div>","null","","fixation","","","","","","","","",""
"memory-trial","89","425721","0.0-15.0-1.23","2014","2","""event"",""trial"",""time""
""fullscreenenter"",""1"",""1571""
""fullscreenexit"",""33"",""165735""
""blur"",""33"",""167177""
""focus"",""34"",""247890""
""blur"",""41"",""340463""
""focus"",""41"",""342951""
","""event"",""trial"",""time""
""blur"",""33"",""167177""
""blur"",""41"",""340463""
","""event"",""trial"",""time""
""focus"",""34"",""247890""
""focus"",""41"",""342951""
","""event"",""trial"",""time""
""fullscreenenter"",""1"",""1571""
","""event"",""trial"",""time""
""fullscreenexit"",""33"",""165735""
","","","","","","2281.800000011921","images/boat5.png","","","memory_trial","2","maybe_old","","","","","","",""
"html-keyboard-response","90","426228","0.0-15.0-0.24","2014","2","""event"",""trial"",""time""
""fullscreenenter"",""1"",""1571""
""fullscreenexit"",""33"",""165735""
""blur"",""33"",""167177""
""focus"",""34"",""247890""
""blur"",""41"",""340463""
""focus"",""41"",""342951""
","""event"",""trial"",""time""
""blur"",""33"",""167177""
""blur"",""41"",""340463""
","""event"",""trial"",""time""
""focus"",""34"",""247890""
""focus"",""41"",""342951""
","""event"",""trial"",""time""
""fullscreenenter"",""1"",""1571""
","""event"",""trial"",""time""
""fullscreenexit"",""33"",""165735""
","","","","","","null","<div style=""font-size:60px;"">+</div>","null","","fixation","","","","","","","","",""
"memory-trial","91","428153","0.0-15.0-1.24","2014","2","""event"",""trial"",""time""
""fullscreenenter"",""1"",""1571""
""fullscreenexit"",""33"",""165735""
""blur"",""33"",""167177""
""focus"",""34"",""247890""
""blur"",""41"",""340463""
""focus"",""41"",""342951""
","""event"",""trial"",""time""
""blur"",""33"",""167177""
""blur"",""41"",""340463""
","""event"",""trial"",""time""
""focus"",""34"",""247890""
""focus"",""41"",""342951""
","""event"",""trial"",""time""
""fullscreenenter"",""1"",""1571""
","""event"",""trial"",""time""
""fullscreenexit"",""33"",""165735""
","","","","","","907.3999999761581","images/apple5.png","","","memory_trial","4","definitely_new","","","","","","",""
"html-keyboard-response","92","428658","0.0-15.0-0.25","2014","2","""event"",""trial"",""time""
""fullscreenenter"",""1"",""1571""
""fullscreenexit"",""33"",""165735""
""blur"",""33"",""167177""
""focus"",""34"",""247890""
""blur"",""41"",""340463""
""focus"",""41"",""342951""
","""event"",""trial"",""time""
""blur"",""33"",""167177""
""blur"",""41"",""340463""
","""event"",""trial"",""time""
""focus"",""34"",""247890""
""focus"",""41"",""342951""
","""event"",""trial"",""time""
""fullscreenenter"",""1"",""1571""
","""event"",""trial"",""time""
""fullscreenexit"",""33"",""165735""
","","","","","","null","<div style=""font-size:60px;"">+</div>","null","","fixation","","","","","","","","",""
"memory-trial","93","431821","0.0-15.0-1.25","2014","2","""event"",""trial"",""time""
""fullscreenenter"",""1"",""1571""
""fullscreenexit"",""33"",""165735""
""blur"",""33"",""167177""
""focus"",""34"",""247890""
""blur"",""41"",""340463""
""focus"",""41"",""342951""
","""event"",""trial"",""time""
""blur"",""33"",""167177""
""blur"",""41"",""340463""
","""event"",""trial"",""time""
""focus"",""34"",""247890""
""focus"",""41"",""342951""
","""event"",""trial"",""time""
""fullscreenenter"",""1"",""1571""
","""event"",""trial"",""time""
""fullscreenexit"",""33"",""165735""
","","","","","","2160.7000000178814","images/banana4.png","","","memory_trial","1","definitely_old","","","","","","",""
"html-keyboard-response","94","432338","0.0-15.0-0.26","2014","2","""event"",""trial"",""time""
""fullscreenenter"",""1"",""1571""
""fullscreenexit"",""33"",""165735""
""blur"",""33"",""167177""
""focus"",""34"",""247890""
""blur"",""41"",""340463""
""focus"",""41"",""342951""
","""event"",""trial"",""time""
""blur"",""33"",""167177""
""blur"",""41"",""340463""
","""event"",""trial"",""time""
""focus"",""34"",""247890""
""focus"",""41"",""342951""
","""event"",""trial"",""time""
""fullscreenenter"",""1"",""1571""
","""event"",""trial"",""time""
""fullscreenexit"",""33"",""165735""
","","","","","","null","<div style=""font-size:60px;"">+</div>","null","","fixation","","","","","","","","",""
"memory-trial","95","434207","0.0-15.0-1.26","2014","2","""event"",""trial"",""time""
""fullscreenenter"",""1"",""1571""
""fullscreenexit"",""33"",""165735""
""blur"",""33"",""167177""
""focus"",""34"",""247890""
""blur"",""41"",""340463""
""focus"",""41"",""342951""
","""event"",""trial"",""time""
""blur"",""33"",""167177""
""blur"",""41"",""340463""
","""event"",""trial"",""time""
""focus"",""34"",""247890""
""focus"",""41"",""342951""
","""event"",""trial"",""time""
""fullscreenenter"",""1"",""1571""
","""event"",""trial"",""time""
""fullscreenexit"",""33"",""165735""
","","","","","","859","images/straw5.png","","","memory_trial","4","definitely_new","","","","","","",""
"html-keyboard-response","96","434717","0.0-15.0-0.27","2014","2","""event"",""trial"",""time""
""fullscreenenter"",""1"",""1571""
""fullscreenexit"",""33"",""165735""
""blur"",""33"",""167177""
""focus"",""34"",""247890""
""blur"",""41"",""340463""
""focus"",""41"",""342951""
","""event"",""trial"",""time""
""blur"",""33"",""167177""
""blur"",""41"",""340463""
","""event"",""trial"",""time""
""focus"",""34"",""247890""
""focus"",""41"",""342951""
","""event"",""trial"",""time""
""fullscreenenter"",""1"",""1571""
","""event"",""trial"",""time""
""fullscreenexit"",""33"",""165735""
","","","","","","null","<div style=""font-size:60px;"">+</div>","null","","fixation","","","","","","","","",""
"memory-trial","97","437175","0.0-15.0-1.27","2014","2","""event"",""trial"",""time""
""fullscreenenter"",""1"",""1571""
""fullscreenexit"",""33"",""165735""
""blur"",""33"",""167177""
""focus"",""34"",""247890""
""blur"",""41"",""340463""
""focus"",""41"",""342951""
","""event"",""trial"",""time""
""blur"",""33"",""167177""
""blur"",""41"",""340463""
","""event"",""trial"",""time""
""focus"",""34"",""247890""
""focus"",""41"",""342951""
","""event"",""trial"",""time""
""fullscreenenter"",""1"",""1571""
","""event"",""trial"",""time""
""fullscreenexit"",""33"",""165735""
","","","","","","1450","images/chair1.png","","","memory_trial","1","definitely_old","","","","","","",""
"html-keyboard-response","98","437687","0.0-15.0-0.28","2014","2","""event"",""trial"",""time""
""fullscreenenter"",""1"",""1571""
""fullscreenexit"",""33"",""165735""
""blur"",""33"",""167177""
""focus"",""34"",""247890""
""blur"",""41"",""340463""
""focus"",""41"",""342951""
","""event"",""trial"",""time""
""blur"",""33"",""167177""
""blur"",""41"",""340463""
","""event"",""trial"",""time""
""focus"",""34"",""247890""
""focus"",""41"",""342951""
","""event"",""trial"",""time""
""fullscreenenter"",""1"",""1571""
","""event"",""trial"",""time""
""fullscreenexit"",""33"",""165735""
","","","","","","null","<div style=""font-size:60px;"">+</div>","null","","fixation","","","","","","","","",""
"memory-trial","99","440604","0.0-15.0-1.28","2014","2","""event"",""trial"",""time""
""fullscreenenter"",""1"",""1571""
""fullscreenexit"",""33"",""165735""
""blur"",""33"",""167177""
""focus"",""34"",""247890""
""blur"",""41"",""340463""
""focus"",""41"",""342951""
","""event"",""trial"",""time""
""blur"",""33"",""167177""
""blur"",""41"",""340463""
","""event"",""trial"",""time""
""focus"",""34"",""247890""
""focus"",""41"",""342951""
","""event"",""trial"",""time""
""fullscreenenter"",""1"",""1571""
","""event"",""trial"",""time""
""fullscreenexit"",""33"",""165735""
","","","","","","1911.699999988079","images/rabbit1.png","","","memory_trial","4","definitely_new","","","","","","",""
"html-keyboard-response","100","441110","0.0-15.0-0.29","2014","2","""event"",""trial"",""time""
""fullscreenenter"",""1"",""1571""
""fullscreenexit"",""33"",""165735""
""blur"",""33"",""167177""
""focus"",""34"",""247890""
""blur"",""41"",""340463""
""focus"",""41"",""342951""
","""event"",""trial"",""time""
""blur"",""33"",""167177""
""blur"",""41"",""340463""
","""event"",""trial"",""time""
""focus"",""34"",""247890""
""focus"",""41"",""342951""
","""event"",""trial"",""time""
""fullscreenenter"",""1"",""1571""
","""event"",""trial"",""time""
""fullscreenexit"",""33"",""165735""
","","","","","","null","<div style=""font-size:60px;"">+</div>","null","","fixation","","","","","","","","",""
"memory-trial","101","445022","0.0-15.0-1.29","2014","2","""event"",""trial"",""time""
""fullscreenenter"",""1"",""1571""
""fullscreenexit"",""33"",""165735""
""blur"",""33"",""167177""
""focus"",""34"",""247890""
""blur"",""41"",""340463""
""focus"",""41"",""342951""
","""event"",""trial"",""time""
""blur"",""33"",""167177""
""blur"",""41"",""340463""
","""event"",""trial"",""time""
""focus"",""34"",""247890""
""focus"",""41"",""342951""
","""event"",""trial"",""time""
""fullscreenenter"",""1"",""1571""
","""event"",""trial"",""time""
""fullscreenexit"",""33"",""165735""
","","","","","","2903.0999999940395","images/cow2.png","","","memory_trial","3","maybe_new","","","","","","",""
"html-keyboard-response","102","445529","0.0-15.0-0.30","2014","2","""event"",""trial"",""time""
""fullscreenenter"",""1"",""1571""
""fullscreenexit"",""33"",""165735""
""blur"",""33"",""167177""
""focus"",""34"",""247890""
""blur"",""41"",""340463""
""focus"",""41"",""342951""
","""event"",""trial"",""time""
""blur"",""33"",""167177""
""blur"",""41"",""340463""
","""event"",""trial"",""time""
""focus"",""34"",""247890""
""focus"",""41"",""342951""
","""event"",""trial"",""time""
""fullscreenenter"",""1"",""1571""
","""event"",""trial"",""time""
""fullscreenexit"",""33"",""165735""
","","","","","","null","<div style=""font-size:60px;"">+</div>","null","","fixation","","","","","","","","",""
"memory-trial","103","448671","0.0-15.0-1.30","2014","2","""event"",""trial"",""time""
""fullscreenenter"",""1"",""1571""
""fullscreenexit"",""33"",""165735""
""blur"",""33"",""167177""
""focus"",""34"",""247890""
""blur"",""41"",""340463""
""focus"",""41"",""342951""
","""event"",""trial"",""time""
""blur"",""33"",""167177""
""blur"",""41"",""340463""
","""event"",""trial"",""time""
""focus"",""34"",""247890""
""focus"",""41"",""342951""
","""event"",""trial"",""time""
""fullscreenenter"",""1"",""1571""
","""event"",""trial"",""time""
""fullscreenexit"",""33"",""165735""
","","","","","","2135.600000023842","images/table1.png","","","memory_trial","3","maybe_new","","","","","","",""
"html-keyboard-response","104","449177","0.0-15.0-0.31","2014","2","""event"",""trial"",""time""
""fullscreenenter"",""1"",""1571""
""fullscreenexit"",""33"",""165735""
""blur"",""33"",""167177""
""focus"",""34"",""247890""
""blur"",""41"",""340463""
""focus"",""41"",""342951""
","""event"",""trial"",""time""
""blur"",""33"",""167177""
""blur"",""41"",""340463""
","""event"",""trial"",""time""
""focus"",""34"",""247890""
""focus"",""41"",""342951""
","""event"",""trial"",""time""
""fullscreenenter"",""1"",""1571""
","""event"",""trial"",""time""
""fullscreenexit"",""33"",""165735""
","","","","","","null","<div style=""font-size:60px;"">+</div>","null","","fixation","","","","","","","","",""
"memory-trial","105","451877","0.0-15.0-1.31","2014","2","""event"",""trial"",""time""
""fullscreenenter"",""1"",""1571""
""fullscreenexit"",""33"",""165735""
""blur"",""33"",""167177""
""focus"",""34"",""247890""
""blur"",""41"",""340463""
""focus"",""41"",""342951""
","""event"",""trial"",""time""
""blur"",""33"",""167177""
""blur"",""41"",""340463""
","""event"",""trial"",""time""
""focus"",""34"",""247890""
""focus"",""41"",""342951""
","""event"",""trial"",""time""
""fullscreenenter"",""1"",""1571""
","""event"",""trial"",""time""
""fullscreenexit"",""33"",""165735""
","","","","","","1684.4000000059605","images/bed2.png","","","memory_trial","1","definitely_old","","","","","","",""
"html-keyboard-response","106","452382","0.0-15.0-0.32","2014","2","""event"",""trial"",""time""
""fullscreenenter"",""1"",""1571""
""fullscreenexit"",""33"",""165735""
""blur"",""33"",""167177""
""focus"",""34"",""247890""
""blur"",""41"",""340463""
""focus"",""41"",""342951""
","""event"",""trial"",""time""
""blur"",""33"",""167177""
""blur"",""41"",""340463""
","""event"",""trial"",""time""
""focus"",""34"",""247890""
""focus"",""41"",""342951""
","""event"",""trial"",""time""
""fullscreenenter"",""1"",""1571""
","""event"",""trial"",""time""
""fullscreenexit"",""33"",""165735""
","","","","","","null","<div style=""font-size:60px;"">+</div>","null","","fixation","","","","","","","","",""
"memory-trial","107","455736","0.0-15.0-1.32","2014","2","""event"",""trial"",""time""
""fullscreenenter"",""1"",""1571""
""fullscreenexit"",""33"",""165735""
""blur"",""33"",""167177""
""focus"",""34"",""247890""
""blur"",""41"",""340463""
""focus"",""41"",""342951""
","""event"",""trial"",""time""
""blur"",""33"",""167177""
""blur"",""41"",""340463""
","""event"",""trial"",""time""
""focus"",""34"",""247890""
""focus"",""41"",""342951""
","""event"",""trial"",""time""
""fullscreenenter"",""1"",""1571""
","""event"",""trial"",""time""
""fullscreenexit"",""33"",""165735""
","","","","","","2344","images/apple1.png","","","memory_trial","4","definitely_new","","","","","","",""
"html-keyboard-response","108","456242","0.0-15.0-0.33","2014","2","""event"",""trial"",""time""
""fullscreenenter"",""1"",""1571""
""fullscreenexit"",""33"",""165735""
""blur"",""33"",""167177""
""focus"",""34"",""247890""
""blur"",""41"",""340463""
""focus"",""41"",""342951""
","""event"",""trial"",""time""
""blur"",""33"",""167177""
""blur"",""41"",""340463""
","""event"",""trial"",""time""
""focus"",""34"",""247890""
""focus"",""41"",""342951""
","""event"",""trial"",""time""
""fullscreenenter"",""1"",""1571""
","""event"",""trial"",""time""
""fullscreenexit"",""33"",""165735""
","","","","","","null","<div style=""font-size:60px;"">+</div>","null","","fixation","","","","","","","","",""
"memory-trial","109","458030","0.0-15.0-1.33","2014","2","""event"",""trial"",""time""
""fullscreenenter"",""1"",""1571""
""fullscreenexit"",""33"",""165735""
""blur"",""33"",""167177""
""focus"",""34"",""247890""
""blur"",""41"",""340463""
""focus"",""41"",""342951""
","""event"",""trial"",""time""
""blur"",""33"",""167177""
""blur"",""41"",""340463""
","""event"",""trial"",""time""
""focus"",""34"",""247890""
""focus"",""41"",""342951""
","""event"",""trial"",""time""
""fullscreenenter"",""1"",""1571""
","""event"",""trial"",""time""
""fullscreenexit"",""33"",""165735""
","","","","","","777.1999999880791","images/apple2.png","","","memory_trial","4","definitely_new","","","","","","",""
"html-keyboard-response","110","458536","0.0-15.0-0.34","2014","2","""event"",""trial"",""time""
""fullscreenenter"",""1"",""1571""
""fullscreenexit"",""33"",""165735""
""blur"",""33"",""167177""
""focus"",""34"",""247890""
""blur"",""41"",""340463""
""focus"",""41"",""342951""
","""event"",""trial"",""time""
""blur"",""33"",""167177""
""blur"",""41"",""340463""
","""event"",""trial"",""time""
""focus"",""34"",""247890""
""focus"",""41"",""342951""
","""event"",""trial"",""time""
""fullscreenenter"",""1"",""1571""
","""event"",""trial"",""time""
""fullscreenexit"",""33"",""165735""
","","","","","","null","<div style=""font-size:60px;"">+</div>","null","","fixation","","","","","","","","",""
"memory-trial","111","463756","0.0-15.0-1.34","2014","2","""event"",""trial"",""time""
""fullscreenenter"",""1"",""1571""
""fullscreenexit"",""33"",""165735""
""blur"",""33"",""167177""
""focus"",""34"",""247890""
""blur"",""41"",""340463""
""focus"",""41"",""342951""
","""event"",""trial"",""time""
""blur"",""33"",""167177""
""blur"",""41"",""340463""
","""event"",""trial"",""time""
""focus"",""34"",""247890""
""focus"",""41"",""342951""
","""event"",""trial"",""time""
""fullscreenenter"",""1"",""1571""
","""event"",""trial"",""time""
""fullscreenexit"",""33"",""165735""
","","","","","","4207.0999999940395","images/dog3.png","","","memory_trial","1","definitely_old","","","","","","",""
"html-keyboard-response","112","464261","0.0-15.0-0.35","2014","2","""event"",""trial"",""time""
""fullscreenenter"",""1"",""1571""
""fullscreenexit"",""33"",""165735""
""blur"",""33"",""167177""
""focus"",""34"",""247890""
""blur"",""41"",""340463""
""focus"",""41"",""342951""
","""event"",""trial"",""time""
""blur"",""33"",""167177""
""blur"",""41"",""340463""
","""event"",""trial"",""time""
""focus"",""34"",""247890""
""focus"",""41"",""342951""
","""event"",""trial"",""time""
""fullscreenenter"",""1"",""1571""
","""event"",""trial"",""time""
""fullscreenexit"",""33"",""165735""
","","","","","","null","<div style=""font-size:60px;"">+</div>","null","","fixation","","","","","","","","",""
"memory-trial","113","468392","0.0-15.0-1.35","2014","2","""event"",""trial"",""time""
""fullscreenenter"",""1"",""1571""
""fullscreenexit"",""33"",""165735""
""blur"",""33"",""167177""
""focus"",""34"",""247890""
""blur"",""41"",""340463""
""focus"",""41"",""342951""
","""event"",""trial"",""time""
""blur"",""33"",""167177""
""blur"",""41"",""340463""
","""event"",""trial"",""time""
""focus"",""34"",""247890""
""focus"",""41"",""342951""
","""event"",""trial"",""time""
""fullscreenenter"",""1"",""1571""
","""event"",""trial"",""time""
""fullscreenexit"",""33"",""165735""
","","","","","","3118.5","images/sheep4.png","","","memory_trial","3","maybe_new","","","","","","",""
"html-keyboard-response","114","468896","0.0-15.0-0.36","2014","2","""event"",""trial"",""time""
""fullscreenenter"",""1"",""1571""
""fullscreenexit"",""33"",""165735""
""blur"",""33"",""167177""
""focus"",""34"",""247890""
""blur"",""41"",""340463""
""focus"",""41"",""342951""
","""event"",""trial"",""time""
""blur"",""33"",""167177""
""blur"",""41"",""340463""
","""event"",""trial"",""time""
""focus"",""34"",""247890""
""focus"",""41"",""342951""
","""event"",""trial"",""time""
""fullscreenenter"",""1"",""1571""
","""event"",""trial"",""time""
""fullscreenexit"",""33"",""165735""
","","","","","","null","<div style=""font-size:60px;"">+</div>","null","","fixation","","","","","","","","",""
"memory-trial","115","471050","0.0-15.0-1.36","2014","2","""event"",""trial"",""time""
""fullscreenenter"",""1"",""1571""
""fullscreenexit"",""33"",""165735""
""blur"",""33"",""167177""
""focus"",""34"",""247890""
""blur"",""41"",""340463""
""focus"",""41"",""342951""
","""event"",""trial"",""time""
""blur"",""33"",""167177""
""blur"",""41"",""340463""
","""event"",""trial"",""time""
""focus"",""34"",""247890""
""focus"",""41"",""342951""
","""event"",""trial"",""time""
""fullscreenenter"",""1"",""1571""
","""event"",""trial"",""time""
""fullscreenexit"",""33"",""165735""
","","","","","","1137.4000000059605","images/cactus5.png","","","memory_trial","4","definitely_new","","","","","","",""
"html-keyboard-response","116","471554","0.0-15.0-0.37","2014","2","""event"",""trial"",""time""
""fullscreenenter"",""1"",""1571""
""fullscreenexit"",""33"",""165735""
""blur"",""33"",""167177""
""focus"",""34"",""247890""
""blur"",""41"",""340463""
""focus"",""41"",""342951""
","""event"",""trial"",""time""
""blur"",""33"",""167177""
""blur"",""41"",""340463""
","""event"",""trial"",""time""
""focus"",""34"",""247890""
""focus"",""41"",""342951""
","""event"",""trial"",""time""
""fullscreenenter"",""1"",""1571""
","""event"",""trial"",""time""
""fullscreenexit"",""33"",""165735""
","","","","","","null","<div style=""font-size:60px;"">+</div>","null","","fixation","","","","","","","","",""
"memory-trial","117","473809","0.0-15.0-1.37","2014","2","""event"",""trial"",""time""
""fullscreenenter"",""1"",""1571""
""fullscreenexit"",""33"",""165735""
""blur"",""33"",""167177""
""focus"",""34"",""247890""
""blur"",""41"",""340463""
""focus"",""41"",""342951""
","""event"",""trial"",""time""
""blur"",""33"",""167177""
""blur"",""41"",""340463""
","""event"",""trial"",""time""
""focus"",""34"",""247890""
""focus"",""41"",""342951""
","""event"",""trial"",""time""
""fullscreenenter"",""1"",""1571""
","""event"",""trial"",""time""
""fullscreenexit"",""33"",""165735""
","","","","","","1240.2000000178814","images/dog1.png","","","memory_trial","4","definitely_new","","","","","","",""
"html-keyboard-response","118","474323","0.0-15.0-0.38","2014","2","""event"",""trial"",""time""
""fullscreenenter"",""1"",""1571""
""fullscreenexit"",""33"",""165735""
""blur"",""33"",""167177""
""focus"",""34"",""247890""
""blur"",""41"",""340463""
""focus"",""41"",""342951""
","""event"",""trial"",""time""
""blur"",""33"",""167177""
""blur"",""41"",""340463""
","""event"",""trial"",""time""
""focus"",""34"",""247890""
""focus"",""41"",""342951""
","""event"",""trial"",""time""
""fullscreenenter"",""1"",""1571""
","""event"",""trial"",""time""
""fullscreenexit"",""33"",""165735""
","","","","","","null","<div style=""font-size:60px;"">+</div>","null","","fixation","","","","","","","","",""
"memory-trial","119","476092","0.0-15.0-1.38","2014","2","""event"",""trial"",""time""
""fullscreenenter"",""1"",""1571""
""fullscreenexit"",""33"",""165735""
""blur"",""33"",""167177""
""focus"",""34"",""247890""
""blur"",""41"",""340463""
""focus"",""41"",""342951""
","""event"",""trial"",""time""
""blur"",""33"",""167177""
""blur"",""41"",""340463""
","""event"",""trial"",""time""
""focus"",""34"",""247890""
""focus"",""41"",""342951""
","""event"",""trial"",""time""
""fullscreenenter"",""1"",""1571""
","""event"",""trial"",""time""
""fullscreenexit"",""33"",""165735""
","","","","","","758.2000000178814","images/plane3.png","","","memory_trial","4","definitely_new","","","","","","",""
"html-keyboard-response","120","476607","0.0-15.0-0.39","2014","2","""event"",""trial"",""time""
""fullscreenenter"",""1"",""1571""
""fullscreenexit"",""33"",""165735""
""blur"",""33"",""167177""
""focus"",""34"",""247890""
""blur"",""41"",""340463""
""focus"",""41"",""342951""
","""event"",""trial"",""time""
""blur"",""33"",""167177""
""blur"",""41"",""340463""
","""event"",""trial"",""time""
""focus"",""34"",""247890""
""focus"",""41"",""342951""
","""event"",""trial"",""time""
""fullscreenenter"",""1"",""1571""
","""event"",""trial"",""time""
""fullscreenexit"",""33"",""165735""
","","","","","","null","<div style=""font-size:60px;"">+</div>","null","","fixation","","","","","","","","",""
"memory-trial","121","478181","0.0-15.0-1.39","2014","2","""event"",""trial"",""time""
""fullscreenenter"",""1"",""1571""
""fullscreenexit"",""33"",""165735""
""blur"",""33"",""167177""
""focus"",""34"",""247890""
""blur"",""41"",""340463""
""focus"",""41"",""342951""
","""event"",""trial"",""time""
""blur"",""33"",""167177""
""blur"",""41"",""340463""
","""event"",""trial"",""time""
""focus"",""34"",""247890""
""focus"",""41"",""342951""
","""event"",""trial"",""time""
""fullscreenenter"",""1"",""1571""
","""event"",""trial"",""time""
""fullscreenexit"",""33"",""165735""
","","","","","","557.3000000119209","images/flower3.png","","","memory_trial","4","definitely_new","","","","","","",""
"html-keyboard-response","122","478692","0.0-15.0-0.40","2014","2","""event"",""trial"",""time""
""fullscreenenter"",""1"",""1571""
""fullscreenexit"",""33"",""165735""
""blur"",""33"",""167177""
""focus"",""34"",""247890""
""blur"",""41"",""340463""
""focus"",""41"",""342951""
","""event"",""trial"",""time""
""blur"",""33"",""167177""
""blur"",""41"",""340463""
","""event"",""trial"",""time""
""focus"",""34"",""247890""
""focus"",""41"",""342951""
","""event"",""trial"",""time""
""fullscreenenter"",""1"",""1571""
","""event"",""trial"",""time""
""fullscreenexit"",""33"",""165735""
","","","","","","null","<div style=""font-size:60px;"">+</div>","null","","fixation","","","","","","","","",""
"memory-trial","123","480563","0.0-15.0-1.40","2014","2","""event"",""trial"",""time""
""fullscreenenter"",""1"",""1571""
""fullscreenexit"",""33"",""165735""
""blur"",""33"",""167177""
""focus"",""34"",""247890""
""blur"",""41"",""340463""
""focus"",""41"",""342951""
","""event"",""trial"",""time""
""blur"",""33"",""167177""
""blur"",""41"",""340463""
","""event"",""trial"",""time""
""focus"",""34"",""247890""
""focus"",""41"",""342951""
","""event"",""trial"",""time""
""fullscreenenter"",""1"",""1571""
","""event"",""trial"",""time""
""fullscreenexit"",""33"",""165735""
","","","","","","858.9000000059605","images/train1.png","","","memory_trial","4","definitely_new","","","","","","",""
"html-keyboard-response","124","481081","0.0-15.0-0.41","2014","2","""event"",""trial"",""time""
""fullscreenenter"",""1"",""1571""
""fullscreenexit"",""33"",""165735""
""blur"",""33"",""167177""
""focus"",""34"",""247890""
""blur"",""41"",""340463""
""focus"",""41"",""342951""
","""event"",""trial"",""time""
""blur"",""33"",""167177""
""blur"",""41"",""340463""
","""event"",""trial"",""time""
""focus"",""34"",""247890""
""focus"",""41"",""342951""
","""event"",""trial"",""time""
""fullscreenenter"",""1"",""1571""
","""event"",""trial"",""time""
""fullscreenexit"",""33"",""165735""
","","","","","","null","<div style=""font-size:60px;"">+</div>","null","","fixation","","","","","","","","",""
"memory-trial","125","483210","0.0-15.0-1.41","2014","2","""event"",""trial"",""time""
""fullscreenenter"",""1"",""1571""
""fullscreenexit"",""33"",""165735""
""blur"",""33"",""167177""
""focus"",""34"",""247890""
""blur"",""41"",""340463""
""focus"",""41"",""342951""
","""event"",""trial"",""time""
""blur"",""33"",""167177""
""blur"",""41"",""340463""
","""event"",""trial"",""time""
""focus"",""34"",""247890""
""focus"",""41"",""342951""
","""event"",""trial"",""time""
""fullscreenenter"",""1"",""1571""
","""event"",""trial"",""time""
""fullscreenexit"",""33"",""165735""
","","","","","","1118.2000000178814","images/banana3.png","","","memory_trial","2","maybe_old","","","","","","",""
"html-keyboard-response","126","483719","0.0-15.0-0.42","2014","2","""event"",""trial"",""time""
""fullscreenenter"",""1"",""1571""
""fullscreenexit"",""33"",""165735""
""blur"",""33"",""167177""
""focus"",""34"",""247890""
""blur"",""41"",""340463""
""focus"",""41"",""342951""
","""event"",""trial"",""time""
""blur"",""33"",""167177""
""blur"",""41"",""340463""
","""event"",""trial"",""time""
""focus"",""34"",""247890""
""focus"",""41"",""342951""
","""event"",""trial"",""time""
""fullscreenenter"",""1"",""1571""
","""event"",""trial"",""time""
""fullscreenexit"",""33"",""165735""
","","","","","","null","<div style=""font-size:60px;"">+</div>","null","","fixation","","","","","","","","",""
"memory-trial","127","485103","0.0-15.0-1.42","2014","2","""event"",""trial"",""time""
""fullscreenenter"",""1"",""1571""
""fullscreenexit"",""33"",""165735""
""blur"",""33"",""167177""
""focus"",""34"",""247890""
""blur"",""41"",""340463""
""focus"",""41"",""342951""
","""event"",""trial"",""time""
""blur"",""33"",""167177""
""blur"",""41"",""340463""
","""event"",""trial"",""time""
""focus"",""34"",""247890""
""focus"",""41"",""342951""
","""event"",""trial"",""time""
""fullscreenenter"",""1"",""1571""
","""event"",""trial"",""time""
""fullscreenexit"",""33"",""165735""
","","","","","","372.2000000178814","images/tree4.png","","","memory_trial","2","maybe_old","","","","","","",""
"html-keyboard-response","128","485609","0.0-15.0-0.43","2014","2","""event"",""trial"",""time""
""fullscreenenter"",""1"",""1571""
""fullscreenexit"",""33"",""165735""
""blur"",""33"",""167177""
""focus"",""34"",""247890""
""blur"",""41"",""340463""
""focus"",""41"",""342951""
","""event"",""trial"",""time""
""blur"",""33"",""167177""
""blur"",""41"",""340463""
","""event"",""trial"",""time""
""focus"",""34"",""247890""
""focus"",""41"",""342951""
","""event"",""trial"",""time""
""fullscreenenter"",""1"",""1571""
","""event"",""trial"",""time""
""fullscreenexit"",""33"",""165735""
","","","","","","null","<div style=""font-size:60px;"">+</div>","null","","fixation","","","","","","","","",""
"memory-trial","129","487499","0.0-15.0-1.43","2014","2","""event"",""trial"",""time""
""fullscreenenter"",""1"",""1571""
""fullscreenexit"",""33"",""165735""
""blur"",""33"",""167177""
""focus"",""34"",""247890""
""blur"",""41"",""340463""
""focus"",""41"",""342951""
","""event"",""trial"",""time""
""blur"",""33"",""167177""
""blur"",""41"",""340463""
","""event"",""trial"",""time""
""focus"",""34"",""247890""
""focus"",""41"",""342951""
","""event"",""trial"",""time""
""fullscreenenter"",""1"",""1571""
","""event"",""trial"",""time""
""fullscreenexit"",""33"",""165735""
","","","","","","882.7999999821186","images/train2.png","","","memory_trial","4","definitely_new","","","","","","",""
"html-keyboard-response","130","488004","0.0-15.0-0.44","2014","2","""event"",""trial"",""time""
""fullscreenenter"",""1"",""1571""
""fullscreenexit"",""33"",""165735""
""blur"",""33"",""167177""
""focus"",""34"",""247890""
""blur"",""41"",""340463""
""focus"",""41"",""342951""
","""event"",""trial"",""time""
""blur"",""33"",""167177""
""blur"",""41"",""340463""
","""event"",""trial"",""time""
""focus"",""34"",""247890""
""focus"",""41"",""342951""
","""event"",""trial"",""time""
""fullscreenenter"",""1"",""1571""
","""event"",""trial"",""time""
""fullscreenexit"",""33"",""165735""
","","","","","","null","<div style=""font-size:60px;"">+</div>","null","","fixation","","","","","","","","",""
"memory-trial","131","489760","0.0-15.0-1.44","2014","2","""event"",""trial"",""time""
""fullscreenenter"",""1"",""1571""
""fullscreenexit"",""33"",""165735""
""blur"",""33"",""167177""
""focus"",""34"",""247890""
""blur"",""41"",""340463""
""focus"",""41"",""342951""
","""event"",""trial"",""time""
""blur"",""33"",""167177""
""blur"",""41"",""340463""
","""event"",""trial"",""time""
""focus"",""34"",""247890""
""focus"",""41"",""342951""
","""event"",""trial"",""time""
""fullscreenenter"",""1"",""1571""
","""event"",""trial"",""time""
""fullscreenexit"",""33"",""165735""
","","","","","","734.9000000059605","images/apple4.png","","","memory_trial","3","maybe_new","","","","","","",""
"html-keyboard-response","132","490264","0.0-15.0-0.45","2014","2","""event"",""trial"",""time""
""fullscreenenter"",""1"",""1571""
""fullscreenexit"",""33"",""165735""
""blur"",""33"",""167177""
""focus"",""34"",""247890""
""blur"",""41"",""340463""
""focus"",""41"",""342951""
","""event"",""trial"",""time""
""blur"",""33"",""167177""
""blur"",""41"",""340463""
","""event"",""trial"",""time""
""focus"",""34"",""247890""
""focus"",""41"",""342951""
","""event"",""trial"",""time""
""fullscreenenter"",""1"",""1571""
","""event"",""trial"",""time""
""fullscreenexit"",""33"",""165735""
","","","","","","null","<div style=""font-size:60px;"">+</div>","null","","fixation","","","","","","","","",""
"memory-trial","133","492527","0.0-15.0-1.45","2014","2","""event"",""trial"",""time""
""fullscreenenter"",""1"",""1571""
""fullscreenexit"",""33"",""165735""
""blur"",""33"",""167177""
""focus"",""34"",""247890""
""blur"",""41"",""340463""
""focus"",""41"",""342951""
","""event"",""trial"",""time""
""blur"",""33"",""167177""
""blur"",""41"",""340463""
","""event"",""trial"",""time""
""focus"",""34"",""247890""
""focus"",""41"",""342951""
","""event"",""trial"",""time""
""fullscreenenter"",""1"",""1571""
","""event"",""trial"",""time""
""fullscreenexit"",""33"",""165735""
","","","","","","1259.699999988079","images/boat3.png","","","memory_trial","2","maybe_old","","","","","","",""
"html-keyboard-response","134","493033","0.0-15.0-0.46","2014","2","""event"",""trial"",""time""
""fullscreenenter"",""1"",""1571""
""fullscreenexit"",""33"",""165735""
""blur"",""33"",""167177""
""focus"",""34"",""247890""
""blur"",""41"",""340463""
""focus"",""41"",""342951""
","""event"",""trial"",""time""
""blur"",""33"",""167177""
""blur"",""41"",""340463""
","""event"",""trial"",""time""
""focus"",""34"",""247890""
""focus"",""41"",""342951""
","""event"",""trial"",""time""
""fullscreenenter"",""1"",""1571""
","""event"",""trial"",""time""
""fullscreenexit"",""33"",""165735""
","","","","","","null","<div style=""font-size:60px;"">+</div>","null","","fixation","","","","","","","","",""
"memory-trial","135","495148","0.0-15.0-1.46","2014","2","""event"",""trial"",""time""
""fullscreenenter"",""1"",""1571""
""fullscreenexit"",""33"",""165735""
""blur"",""33"",""167177""
""focus"",""34"",""247890""
""blur"",""41"",""340463""
""focus"",""41"",""342951""
","""event"",""trial"",""time""
""blur"",""33"",""167177""
""blur"",""41"",""340463""
","""event"",""trial"",""time""
""focus"",""34"",""247890""
""focus"",""41"",""342951""
","""event"",""trial"",""time""
""fullscreenenter"",""1"",""1571""
","""event"",""trial"",""time""
""fullscreenexit"",""33"",""165735""
","","","","","","1090.7999999821186","images/cactus1.png","","","memory_trial","4","definitely_new","","","","","","",""
"html-button-response","136","498019","0.0-15.0-2.46-0.46","2014","2","""event"",""trial"",""time""
""fullscreenenter"",""1"",""1571""
""fullscreenexit"",""33"",""165735""
""blur"",""33"",""167177""
""focus"",""34"",""247890""
""blur"",""41"",""340463""
""focus"",""41"",""342951""
","""event"",""trial"",""time""
""blur"",""33"",""167177""
""blur"",""41"",""340463""
","""event"",""trial"",""time""
""focus"",""34"",""247890""
""focus"",""41"",""342951""
","""event"",""trial"",""time""
""fullscreenenter"",""1"",""1571""
","""event"",""trial"",""time""
""fullscreenexit"",""33"",""165735""
","","","","","","2868.5999999940395","<p> Take a break! </p><p> Click the button to continue. </p>","0","","break","","","","","","","","",""
"html-keyboard-response","137","498521","0.0-15.0-0.47","2014","2","""event"",""trial"",""time""
""fullscreenenter"",""1"",""1571""
""fullscreenexit"",""33"",""165735""
""blur"",""33"",""167177""
""focus"",""34"",""247890""
""blur"",""41"",""340463""
""focus"",""41"",""342951""
","""event"",""trial"",""time""
""blur"",""33"",""167177""
""blur"",""41"",""340463""
","""event"",""trial"",""time""
""focus"",""34"",""247890""
""focus"",""41"",""342951""
","""event"",""trial"",""time""
""fullscreenenter"",""1"",""1571""
","""event"",""trial"",""time""
""fullscreenexit"",""33"",""165735""
","","","","","","null","<div style=""font-size:60px;"">+</div>","null","","fixation","","","","","","","","",""
"memory-trial","138","502050","0.0-15.0-1.47","2014","2","""event"",""trial"",""time""
""fullscreenenter"",""1"",""1571""
""fullscreenexit"",""33"",""165735""
""blur"",""33"",""167177""
""focus"",""34"",""247890""
""blur"",""41"",""340463""
""focus"",""41"",""342951""
","""event"",""trial"",""time""
""blur"",""33"",""167177""
""blur"",""41"",""340463""
","""event"",""trial"",""time""
""focus"",""34"",""247890""
""focus"",""41"",""342951""
","""event"",""trial"",""time""
""fullscreenenter"",""1"",""1571""
","""event"",""trial"",""time""
""fullscreenexit"",""33"",""165735""
","","","","","","2517","images/train5.png","","","memory_trial","4","definitely_new","","","","","","",""
"html-keyboard-response","139","502569","0.0-15.0-0.48","2014","2","""event"",""trial"",""time""
""fullscreenenter"",""1"",""1571""
""fullscreenexit"",""33"",""165735""
""blur"",""33"",""167177""
""focus"",""34"",""247890""
""blur"",""41"",""340463""
""focus"",""41"",""342951""
","""event"",""trial"",""time""
""blur"",""33"",""167177""
""blur"",""41"",""340463""
","""event"",""trial"",""time""
""focus"",""34"",""247890""
""focus"",""41"",""342951""
","""event"",""trial"",""time""
""fullscreenenter"",""1"",""1571""
","""event"",""trial"",""time""
""fullscreenexit"",""33"",""165735""
","","","","","","null","<div style=""font-size:60px;"">+</div>","null","","fixation","","","","","","","","",""
"memory-trial","140","505315","0.0-15.0-1.48","2014","2","""event"",""trial"",""time""
""fullscreenenter"",""1"",""1571""
""fullscreenexit"",""33"",""165735""
""blur"",""33"",""167177""
""focus"",""34"",""247890""
""blur"",""41"",""340463""
""focus"",""41"",""342951""
","""event"",""trial"",""time""
""blur"",""33"",""167177""
""blur"",""41"",""340463""
","""event"",""trial"",""time""
""focus"",""34"",""247890""
""focus"",""41"",""342951""
","""event"",""trial"",""time""
""fullscreenenter"",""1"",""1571""
","""event"",""trial"",""time""
""fullscreenexit"",""33"",""165735""
","","","","","","1729.2999999821186","images/feline4.png","","","memory_trial","4","definitely_new","","","","","","",""
"html-keyboard-response","141","505831","0.0-15.0-0.49","2014","2","""event"",""trial"",""time""
""fullscreenenter"",""1"",""1571""
""fullscreenexit"",""33"",""165735""
""blur"",""33"",""167177""
""focus"",""34"",""247890""
""blur"",""41"",""340463""
""focus"",""41"",""342951""
","""event"",""trial"",""time""
""blur"",""33"",""167177""
""blur"",""41"",""340463""
","""event"",""trial"",""time""
""focus"",""34"",""247890""
""focus"",""41"",""342951""
","""event"",""trial"",""time""
""fullscreenenter"",""1"",""1571""
","""event"",""trial"",""time""
""fullscreenexit"",""33"",""165735""
","","","","","","null","<div style=""font-size:60px;"">+</div>","null","","fixation","","","","","","","","",""
"memory-trial","142","508349","0.0-15.0-1.49","2014","2","""event"",""trial"",""time""
""fullscreenenter"",""1"",""1571""
""fullscreenexit"",""33"",""165735""
""blur"",""33"",""167177""
""focus"",""34"",""247890""
""blur"",""41"",""340463""
""focus"",""41"",""342951""
","""event"",""trial"",""time""
""blur"",""33"",""167177""
""blur"",""41"",""340463""
","""event"",""trial"",""time""
""focus"",""34"",""247890""
""focus"",""41"",""342951""
","""event"",""trial"",""time""
""fullscreenenter"",""1"",""1571""
","""event"",""trial"",""time""
""fullscreenexit"",""33"",""165735""
","","","","","","1498.5999999940395","images/chair5.png","","","memory_trial","1","definitely_old","","","","","","",""
"html-keyboard-response","143","508856","0.0-15.0-0.50","2014","2","""event"",""trial"",""time""
""fullscreenenter"",""1"",""1571""
""fullscreenexit"",""33"",""165735""
""blur"",""33"",""167177""
""focus"",""34"",""247890""
""blur"",""41"",""340463""
""focus"",""41"",""342951""
","""event"",""trial"",""time""
""blur"",""33"",""167177""
""blur"",""41"",""340463""
","""event"",""trial"",""time""
""focus"",""34"",""247890""
""focus"",""41"",""342951""
","""event"",""trial"",""time""
""fullscreenenter"",""1"",""1571""
","""event"",""trial"",""time""
""fullscreenexit"",""33"",""165735""
","","","","","","null","<div style=""font-size:60px;"">+</div>","null","","fixation","","","","","","","","",""
"memory-trial","144","512537","0.0-15.0-1.50","2014","2","""event"",""trial"",""time""
""fullscreenenter"",""1"",""1571""
""fullscreenexit"",""33"",""165735""
""blur"",""33"",""167177""
""focus"",""34"",""247890""
""blur"",""41"",""340463""
""focus"",""41"",""342951""
","""event"",""trial"",""time""
""blur"",""33"",""167177""
""blur"",""41"",""340463""
","""event"",""trial"",""time""
""focus"",""34"",""247890""
""focus"",""41"",""342951""
","""event"",""trial"",""time""
""fullscreenenter"",""1"",""1571""
","""event"",""trial"",""time""
""fullscreenexit"",""33"",""165735""
","","","","","","2660.2000000178814","images/rodent2.png","","","memory_trial","4","definitely_new","","","","","","",""
"html-keyboard-response","145","513043","0.0-15.0-0.51","2014","2","""event"",""trial"",""time""
""fullscreenenter"",""1"",""1571""
""fullscreenexit"",""33"",""165735""
""blur"",""33"",""167177""
""focus"",""34"",""247890""
""blur"",""41"",""340463""
""focus"",""41"",""342951""
","""event"",""trial"",""time""
""blur"",""33"",""167177""
""blur"",""41"",""340463""
","""event"",""trial"",""time""
""focus"",""34"",""247890""
""focus"",""41"",""342951""
","""event"",""trial"",""time""
""fullscreenenter"",""1"",""1571""
","""event"",""trial"",""time""
""fullscreenexit"",""33"",""165735""
","","","","","","null","<div style=""font-size:60px;"">+</div>","null","","fixation","","","","","","","","",""
"memory-trial","146","515483","0.0-15.0-1.51","2014","2","""event"",""trial"",""time""
""fullscreenenter"",""1"",""1571""
""fullscreenexit"",""33"",""165735""
""blur"",""33"",""167177""
""focus"",""34"",""247890""
""blur"",""41"",""340463""
""focus"",""41"",""342951""
","""event"",""trial"",""time""
""blur"",""33"",""167177""
""blur"",""41"",""340463""
","""event"",""trial"",""time""
""focus"",""34"",""247890""
""focus"",""41"",""342951""
","""event"",""trial"",""time""
""fullscreenenter"",""1"",""1571""
","""event"",""trial"",""time""
""fullscreenexit"",""33"",""165735""
","","","","","","1431.6000000238419","images/cactus3.png","","","memory_trial","4","definitely_new","","","","","","",""
"html-keyboard-response","147","516001","0.0-15.0-0.52","2014","2","""event"",""trial"",""time""
""fullscreenenter"",""1"",""1571""
""fullscreenexit"",""33"",""165735""
""blur"",""33"",""167177""
""focus"",""34"",""247890""
""blur"",""41"",""340463""
""focus"",""41"",""342951""
","""event"",""trial"",""time""
""blur"",""33"",""167177""
""blur"",""41"",""340463""
","""event"",""trial"",""time""
""focus"",""34"",""247890""
""focus"",""41"",""342951""
","""event"",""trial"",""time""
""fullscreenenter"",""1"",""1571""
","""event"",""trial"",""time""
""fullscreenexit"",""33"",""165735""
","","","","","","null","<div style=""font-size:60px;"">+</div>","null","","fixation","","","","","","","","",""
"memory-trial","148","518042","0.0-15.0-1.52","2014","2","""event"",""trial"",""time""
""fullscreenenter"",""1"",""1571""
""fullscreenexit"",""33"",""165735""
""blur"",""33"",""167177""
""focus"",""34"",""247890""
""blur"",""41"",""340463""
""focus"",""41"",""342951""
","""event"",""trial"",""time""
""blur"",""33"",""167177""
""blur"",""41"",""340463""
","""event"",""trial"",""time""
""focus"",""34"",""247890""
""focus"",""41"",""342951""
","""event"",""trial"",""time""
""fullscreenenter"",""1"",""1571""
","""event"",""trial"",""time""
""fullscreenexit"",""33"",""165735""
","","","","","","1033.6000000238419","images/sheep1.png","","","memory_trial","4","definitely_new","","","","","","",""
"html-keyboard-response","149","518548","0.0-15.0-0.53","2014","2","""event"",""trial"",""time""
""fullscreenenter"",""1"",""1571""
""fullscreenexit"",""33"",""165735""
""blur"",""33"",""167177""
""focus"",""34"",""247890""
""blur"",""41"",""340463""
""focus"",""41"",""342951""
","""event"",""trial"",""time""
""blur"",""33"",""167177""
""blur"",""41"",""340463""
","""event"",""trial"",""time""
""focus"",""34"",""247890""
""focus"",""41"",""342951""
","""event"",""trial"",""time""
""fullscreenenter"",""1"",""1571""
","""event"",""trial"",""time""
""fullscreenexit"",""33"",""165735""
","","","","","","null","<div style=""font-size:60px;"">+</div>","null","","fixation","","","","","","","","",""
"memory-trial","150","520938","0.0-15.0-1.53","2014","2","""event"",""trial"",""time""
""fullscreenenter"",""1"",""1571""
""fullscreenexit"",""33"",""165735""
""blur"",""33"",""167177""
""focus"",""34"",""247890""
""blur"",""41"",""340463""
""focus"",""41"",""342951""
","""event"",""trial"",""time""
""blur"",""33"",""167177""
""blur"",""41"",""340463""
","""event"",""trial"",""time""
""focus"",""34"",""247890""
""focus"",""41"",""342951""
","""event"",""trial"",""time""
""fullscreenenter"",""1"",""1571""
","""event"",""trial"",""time""
""fullscreenexit"",""33"",""165735""
","","","","","","1377.199999988079","images/dog5.png","","","memory_trial","4","definitely_new","","","","","","",""
"html-keyboard-response","151","521452","0.0-15.0-0.54","2014","2","""event"",""trial"",""time""
""fullscreenenter"",""1"",""1571""
""fullscreenexit"",""33"",""165735""
""blur"",""33"",""167177""
""focus"",""34"",""247890""
""blur"",""41"",""340463""
""focus"",""41"",""342951""
","""event"",""trial"",""time""
""blur"",""33"",""167177""
""blur"",""41"",""340463""
","""event"",""trial"",""time""
""focus"",""34"",""247890""
""focus"",""41"",""342951""
","""event"",""trial"",""time""
""fullscreenenter"",""1"",""1571""
","""event"",""trial"",""time""
""fullscreenexit"",""33"",""165735""
","","","","","","null","<div style=""font-size:60px;"">+</div>","null","","fixation","","","","","","","","",""
"memory-trial","152","523672","0.0-15.0-1.54","2014","2","""event"",""trial"",""time""
""fullscreenenter"",""1"",""1571""
""fullscreenexit"",""33"",""165735""
""blur"",""33"",""167177""
""focus"",""34"",""247890""
""blur"",""41"",""340463""
""focus"",""41"",""342951""
","""event"",""trial"",""time""
""blur"",""33"",""167177""
""blur"",""41"",""340463""
","""event"",""trial"",""time""
""focus"",""34"",""247890""
""focus"",""41"",""342951""
","""event"",""trial"",""time""
""fullscreenenter"",""1"",""1571""
","""event"",""trial"",""time""
""fullscreenexit"",""33"",""165735""
","","","","","","1201.4000000059605","images/dog4.png","","","memory_trial","4","definitely_new","","","","","","",""
"html-keyboard-response","153","524175","0.0-15.0-0.55","2014","2","""event"",""trial"",""time""
""fullscreenenter"",""1"",""1571""
""fullscreenexit"",""33"",""165735""
""blur"",""33"",""167177""
""focus"",""34"",""247890""
""blur"",""41"",""340463""
""focus"",""41"",""342951""
","""event"",""trial"",""time""
""blur"",""33"",""167177""
""blur"",""41"",""340463""
","""event"",""trial"",""time""
""focus"",""34"",""247890""
""focus"",""41"",""342951""
","""event"",""trial"",""time""
""fullscreenenter"",""1"",""1571""
","""event"",""trial"",""time""
""fullscreenexit"",""33"",""165735""
","","","","","","null","<div style=""font-size:60px;"">+</div>","null","","fixation","","","","","","","","",""
"memory-trial","154","526361","0.0-15.0-1.55","2014","2","""event"",""trial"",""time""
""fullscreenenter"",""1"",""1571""
""fullscreenexit"",""33"",""165735""
""blur"",""33"",""167177""
""focus"",""34"",""247890""
""blur"",""41"",""340463""
""focus"",""41"",""342951""
","""event"",""trial"",""time""
""blur"",""33"",""167177""
""blur"",""41"",""340463""
","""event"",""trial"",""time""
""focus"",""34"",""247890""
""focus"",""41"",""342951""
","""event"",""trial"",""time""
