"trial_type","trial_index","time_elapsed","internal_node_id","subject_id","task_version","interactions","blur_events","focus_events","fullscreenenter_events","fullscreenexit_events","success","timeout","failed_images","failed_audio","failed_video","rt","stimulus","response","button_pressed","task_part","key_press","answer","correct","left_choice","middle_choice","right_choice","choice_positions","option_selected","block"
"pavlovia","0","6","0.0-0.0","1852","2","""event"",""trial"",""time""
""fullscreenenter"",""1"",""1441""
","
","
","""event"",""trial"",""time""
""fullscreenenter"",""1"",""1441""
","
","","","","","","","","","","","","","","","","","","",""
"fullscreen","1","2389","0.0-1.0","1852","2","""event"",""trial"",""time""
""fullscreenenter"",""1"",""1441""
","
","
","""event"",""trial"",""time""
""fullscreenenter"",""1"",""1441""
","
","true","","","","","","","","","","","","","","","","","",""
"preload","2","3003","0.0-2.0","1852","2","""event"",""trial"",""time""
""fullscreenenter"",""1"",""1441""
","
","
","""event"",""trial"",""time""
""fullscreenenter"",""1"",""1441""
","
","true","false","[]","[]","[]","","","","","","","","","","","","","",""
"audio-keyboard-response","3","6857","0.0-3.0","1852","2","""event"",""trial"",""time""
""fullscreenenter"",""1"",""1441""
","
","
","""event"",""trial"",""time""
""fullscreenenter"",""1"",""1441""
","
","","","","","","3848.707482993197","audio/beep_loop.wav"," ","","","","","","","","","","",""
"audio-button-response","4","9602","0.0-4.0","1852","2","""event"",""trial"",""time""
""fullscreenenter"",""1"",""1441""
","
","
","""event"",""trial"",""time""
""fullscreenenter"",""1"",""1441""
","
","","","","","","2746","audio/turtle.wav","3","","","","","","","","","","",""
"audio-button-response","5","11560","0.0-5.0","1852","2","""event"",""trial"",""time""
""fullscreenenter"",""1"",""1441""
","
","
","""event"",""trial"",""time""
""fullscreenenter"",""1"",""1441""
","
","","","","","","952","audio/shark.wav","2","","","","","","","","","","",""
"preload","6","13753","0.0-6.0","1852","2","""event"",""trial"",""time""
""fullscreenenter"",""1"",""1441""
","
","
","""event"",""trial"",""time""
""fullscreenenter"",""1"",""1441""
","
","true","false","[]","[]","[]","","","","","","","","","","","","","",""
"learning-instructions","7","19824","0.0-7.0-0.0","1852","2","""event"",""trial"",""time""
""fullscreenenter"",""1"",""1441""
","
","
","""event"",""trial"",""time""
""fullscreenenter"",""1"",""1441""
","
","","","","","","1263.4000000000233","<p> Welcome back! </p><p> Last week, you had to make choices about lots of different items.  </p>","","0","instructions","","","","","","","","",""
"learning-instructions","8","24844","0.0-7.0-0.1","1852","2","""event"",""trial"",""time""
""fullscreenenter"",""1"",""1441""
","
","
","""event"",""trial"",""time""
""fullscreenenter"",""1"",""1441""
","
","","","","","","723.7999999999302","<p> Today, we are going to ask you to try to remember all the items. </p>","","0","instructions","","","","","","","","",""
"learning-instructions","9","35715","0.0-7.0-0.2","1852","2","""event"",""trial"",""time""
""fullscreenenter"",""1"",""1441""
","
","
","""event"",""trial"",""time""
""fullscreenenter"",""1"",""1441""
","
","","","","","","738.4000000000233","<p> On every trial, you will see an image. </p><p> The image may be an OLD image you saw during the games last week or it may be a NEW image that was not presented. </p>","","0","instructions","","","","","","","","",""
"learning-instructions","10","45239","0.0-7.0-0.3","1852","2","""event"",""trial"",""time""
""fullscreenenter"",""1"",""1441""
","
","
","""event"",""trial"",""time""
""fullscreenenter"",""1"",""1441""
","
","","","","","","1026.6999999999534","<p> You need to select whether the image is:  </p><p>  'Definitely old', 'Maybe old', 'Maybe new', or 'Definitely new.'  </p><div class=""mem-choice-instructions-grid""><div class=""choice-option"" id=""choice-option-1"" ><img src=""images/definitely_old_1.png"" id=""choice-option-img-1"" class=""choice-option-img"" stage=""1""></div><div class=""choice-option"" id=""choice-option-2"" ><img src=""images/maybe_old_1.png"" id=""choice-option-img-2"" class=""choice-option-img"" stage=""1""></div><div class=""choice-option"" id=""choice-option-3"" ><img src=""images/maybe_new_1.png"" id=""choice-option-img-3"" class=""choice-option-img"" stage=""1""></div><div class=""choice-option"" id=""choice-option-4"" > <img src=""images/definitely_new_1.png"" id=""choice-option-img-4"" class=""choice-option-img"" stage=""1""></div></div>","","0","instructions","","","","","","","","",""
"learning-instructions","11","52946","0.0-7.0-0.4","1852","2","""event"",""trial"",""time""
""fullscreenenter"",""1"",""1441""
","
","
","""event"",""trial"",""time""
""fullscreenenter"",""1"",""1441""
","
","","","","","","1012.3000000000466","<p> You should use the 1, 2, 3, and 4 keys to make your responses.  </p><div class=""mem-choice-instructions-grid""><div class=""choice-option"" id=""choice-option-1"" ><img src=""images/definitely_old.png"" id=""choice-option-img-1"" class=""choice-option-img"" stage=""1""></div><div class=""choice-option"" id=""choice-option-2"" ><img src=""images/maybe_old.png"" id=""choice-option-img-2"" class=""choice-option-img"" stage=""1""></div><div class=""choice-option"" id=""choice-option-3"" ><img src=""images/maybe_new.png"" id=""choice-option-img-3"" class=""choice-option-img"" stage=""1""></div><div class=""choice-option"" id=""choice-option-4"" > <img src=""images/definitely_new.png"" id=""choice-option-img-4"" class=""choice-option-img"" stage=""1""></div></div>","","0","instructions","","","","","","","","",""
"learning-instructions","12","61895","0.0-7.0-0.5","1852","2","""event"",""trial"",""time""
""fullscreenenter"",""1"",""1441""
","
","
","""event"",""trial"",""time""
""fullscreenenter"",""1"",""1441""
","
","","","","","","2190.4000000000233","<p> You will have 10 seconds to make each response.  </p><p>  Make sure to respond before time runs out! </p>","","0","instructions","","","","","","","","",""
"learning-instructions","13","70318","0.0-7.0-0.6","1852","2","""event"",""trial"",""time""
""fullscreenenter"",""1"",""1441""
","
","
","""event"",""trial"",""time""
""fullscreenenter"",""1"",""1441""
","
","","","","","","843.2999999999302","<p> Today, you will see each image ONCE only.  </p><p>  That means none of the images will repeat. </p>","","0","instructions","","","","","","","","",""
"learning-instructions","14","83793","0.0-7.0-0.7","1852","2","""event"",""trial"",""time""
""fullscreenenter"",""1"",""1441""
","
","
","""event"",""trial"",""time""
""fullscreenenter"",""1"",""1441""
","
","","","","","","809.4000000000233","<p> Before you play the real game, it is time to practice. </p><p>  Just like in the real game, some of the images in the practice will be ones you have seen before. </p><p>  Others will be entirely new. </p>","","0","instructions","","","","","","","","",""
"html-button-response","15","88687","0.0-8.0","1852","2","""event"",""trial"",""time""
""fullscreenenter"",""1"",""1441""
","
","
","""event"",""trial"",""time""
""fullscreenenter"",""1"",""1441""
","
","","","","","","4790.900000000023","<p> Ready to practice? </p><p> Remember, use the 1, 2, 3, and 4 keys to make your responses. </p>","0","","instructions","","","","","","","","",""
"html-keyboard-response","16","89293","0.0-9.0-0.0","1852","2","""event"",""trial"",""time""
""fullscreenenter"",""1"",""1441""
","
","
","""event"",""trial"",""time""
""fullscreenenter"",""1"",""1441""
","
","","","","","","null","<div style=""font-size:60px;"">+</div>","null","","fixation","","","","","","","","",""
"memory-trial","17","92567","0.0-9.0-1.0","1852","2","""event"",""trial"",""time""
""fullscreenenter"",""1"",""1441""
","
","
","""event"",""trial"",""time""
""fullscreenenter"",""1"",""1441""
","
","","","","","","2269","images/racket3.png","","","practice","4","definitely_new","","","","","","",""
"html-keyboard-response","18","93072","0.0-9.0-0.1","1852","2","""event"",""trial"",""time""
""fullscreenenter"",""1"",""1441""
","
","
","""event"",""trial"",""time""
""fullscreenenter"",""1"",""1441""
","
","","","","","","null","<div style=""font-size:60px;"">+</div>","null","","fixation","","","","","","","","",""
"memory-trial","19","97292","0.0-9.0-1.1","1852","2","""event"",""trial"",""time""
""fullscreenenter"",""1"",""1441""
","
","
","""event"",""trial"",""time""
""fullscreenenter"",""1"",""1441""
","
","","","","","","3213.79999999993","images/ball2.png","","","practice","2","maybe_old","","","","","","",""
"html-keyboard-response","20","97797","0.0-9.0-0.2","1852","2","""event"",""trial"",""time""
""fullscreenenter"",""1"",""1441""
","
","
","""event"",""trial"",""time""
""fullscreenenter"",""1"",""1441""
","
","","","","","","null","<div style=""font-size:60px;"">+</div>","null","","fixation","","","","","","","","",""
"memory-trial","21","100311","0.0-9.0-1.2","1852","2","""event"",""trial"",""time""
""fullscreenenter"",""1"",""1441""
","
","
","""event"",""trial"",""time""
""fullscreenenter"",""1"",""1441""
","
","","","","","","1506.1999999999534","images/racket1.png","","","practice","1","definitely_old","","","","","","",""
"html-keyboard-response","22","100816","0.0-9.0-0.3","1852","2","""event"",""trial"",""time""
""fullscreenenter"",""1"",""1441""
","
","
","""event"",""trial"",""time""
""fullscreenenter"",""1"",""1441""
","
","","","","","","null","<div style=""font-size:60px;"">+</div>","null","","fixation","","","","","","","","",""
"memory-trial","23","103307","0.0-9.0-1.3","1852","2","""event"",""trial"",""time""
""fullscreenenter"",""1"",""1441""
","
","
","""event"",""trial"",""time""
""fullscreenenter"",""1"",""1441""
","
","","","","","","1488.6999999999534","images/racket2.png","","","practice","4","definitely_new","","","","","","",""
"html-keyboard-response","24","103811","0.0-9.0-0.4","1852","2","""event"",""trial"",""time""
""fullscreenenter"",""1"",""1441""
","
","
","""event"",""trial"",""time""
""fullscreenenter"",""1"",""1441""
","
","","","","","","null","<div style=""font-size:60px;"">+</div>","null","","fixation","","","","","","","","",""
"memory-trial","25","106866","0.0-9.0-1.4","1852","2","""event"",""trial"",""time""
""fullscreenenter"",""1"",""1441""
","
","
","""event"",""trial"",""time""
""fullscreenenter"",""1"",""1441""
","
","","","","","","2048.20000000007","images/racket4.png","","","practice","2","maybe_old","","","","","","",""
"html-keyboard-response","26","107369","0.0-9.0-0.5","1852","2","""event"",""trial"",""time""
""fullscreenenter"",""1"",""1441""
","
","
","""event"",""trial"",""time""
""fullscreenenter"",""1"",""1441""
","
","","","","","","null","<div style=""font-size:60px;"">+</div>","null","","fixation","","","","","","","","",""
"memory-trial","27","111008","0.0-9.0-1.5","1852","2","""event"",""trial"",""time""
""fullscreenenter"",""1"",""1441""
","
","
","""event"",""trial"",""time""
""fullscreenenter"",""1"",""1441""
","
","","","","","","2631.5","images/ball4.png","","","practice","1","definitely_old","","","","","","",""
"html-keyboard-response","28","111514","0.0-9.0-0.6","1852","2","""event"",""trial"",""time""
""fullscreenenter"",""1"",""1441""
","
","
","""event"",""trial"",""time""
""fullscreenenter"",""1"",""1441""
","
","","","","","","null","<div style=""font-size:60px;"">+</div>","null","","fixation","","","","","","","","",""
"memory-trial","29","115271","0.0-9.0-1.6","1852","2","""event"",""trial"",""time""
""fullscreenenter"",""1"",""1441""
","
","
","""event"",""trial"",""time""
""fullscreenenter"",""1"",""1441""
","
","","","","","","2753.5","images/ball1.png","","","practice","4","definitely_new","","","","","","",""
"html-keyboard-response","30","115776","0.0-9.0-0.7","1852","2","""event"",""trial"",""time""
""fullscreenenter"",""1"",""1441""
","
","
","""event"",""trial"",""time""
""fullscreenenter"",""1"",""1441""
","
","","","","","","null","<div style=""font-size:60px;"">+</div>","null","","fixation","","","","","","","","",""
"memory-trial","31","120693","0.0-9.0-1.7","1852","2","""event"",""trial"",""time""
""fullscreenenter"",""1"",""1441""
","
","
","""event"",""trial"",""time""
""fullscreenenter"",""1"",""1441""
","
","","","","","","3912.8000000000466","images/ball3.png","","","practice","4","definitely_new","","","","","","",""
"learning-instructions","32","129608","0.0-10.0-0.0","1852","2","""event"",""trial"",""time""
""fullscreenenter"",""1"",""1441""
","
","
","""event"",""trial"",""time""
""fullscreenenter"",""1"",""1441""
","
","","","","","","950.5999999999767","<p> Great! You have completed the practice. </p><p> Before you start, we're going to ask you a few questions about how the game works.  </p>","","0","instructions","","","","","","","","",""
"preload","33","130768","0.0-11.0","1852","2","""event"",""trial"",""time""
""fullscreenenter"",""1"",""1441""
","
","
","""event"",""trial"",""time""
""fullscreenenter"",""1"",""1441""
","
","true","false","[]","[]","[]","","","","","","","","","","","","","",""
"comp-q","34","137404","0.0-12.0-0.0","1852","2","""event"",""trial"",""time""
""fullscreenenter"",""1"",""1441""
","
","
","""event"",""trial"",""time""
""fullscreenenter"",""1"",""1441""
","
","","","","","","798.7000000000698","<p> <b> True or False? </b> </p><p> In this game, you will only see each image once. </p>","","0","comp_question","","","true","","","","","",""
"comp-q","35","144888","0.0-12.0-1.0","1852","2","""event"",""trial"",""time""
""fullscreenenter"",""1"",""1441""
","
","
","""event"",""trial"",""time""
""fullscreenenter"",""1"",""1441""
","
","","","","","","1141.7999999999302","<p> <b> That's right! </b> You will see many different images <i> one time each </i> in this game. </p>","","0","comp_answer","","","","","","","","",""
"comp-q","36","152828","0.0-12.0-0.1","1852","2","""event"",""trial"",""time""
""fullscreenenter"",""1"",""1441""
","
","
","""event"",""trial"",""time""
""fullscreenenter"",""1"",""1441""
","
","","","","","","2133.9000000000233","<p> <b> True or False? </b> </p><p> You should use the mouse and click to make your response. </p>","","1","comp_question","","","true","","","","","",""
"comp-q","37","161095","0.0-12.0-1.1","1852","2","""event"",""trial"",""time""
""fullscreenenter"",""1"",""1441""
","
","
","""event"",""trial"",""time""
""fullscreenenter"",""1"",""1441""
","
","","","","","","919.0999999999767","<p><b> That's right! </b> You should use the '1', '2', '3', and '4' keys to make your response. </p>","","0","comp_answer","","","","","","","","",""
"comp-q","38","167876","0.0-12.0-0.2","1852","2","""event"",""trial"",""time""
""fullscreenenter"",""1"",""1441""
","
","
","""event"",""trial"",""time""
""fullscreenenter"",""1"",""1441""
","
","","","","","","783.8999999999069","<p> <b> True or False? </b> </p><p> You will have as much time as you want to make each choice. </p>","","1","comp_question","","","true","","","","","",""
"comp-q","39","174624","0.0-12.0-1.2","1852","2","""event"",""trial"",""time""
""fullscreenenter"",""1"",""1441""
","
","
","""event"",""trial"",""time""
""fullscreenenter"",""1"",""1441""
","
","","","","","","1354.5999999999767","<p> <b> That's right! </b> You will only have 10 seconds to make each choice. </p>","","0","comp_answer","","","","","","","","",""
"learning-instructions","40","184806","0.0-13.0","1852","2","""event"",""trial"",""time""
""fullscreenenter"",""1"",""1441""
","
","
","""event"",""trial"",""time""
""fullscreenenter"",""1"",""1441""
","
","","","","","","1510","<p> Great! You are now ready to begin the game. </p><p> Remember, use the 1, 2, 3, and 4 keys to make your responses. </p>","","0","instructions","","","","","","","","",""
"preload","41","186823","0.0-14.0","1852","2","""event"",""trial"",""time""
""fullscreenenter"",""1"",""1441""
","
","
","""event"",""trial"",""time""
""fullscreenenter"",""1"",""1441""
","
","true","false","[]","[]","[]","","","","","","","","","","","","","",""
"html-keyboard-response","42","187324","0.0-15.0-0.0","1852","2","""event"",""trial"",""time""
""fullscreenenter"",""1"",""1441""
","
","
","""event"",""trial"",""time""
""fullscreenenter"",""1"",""1441""
","
","","","","","","null","<div style=""font-size:60px;"">+</div>","null","","fixation","","","","","","","","",""
"memory-trial","43","191086","0.0-15.0-1.0","1852","2","""event"",""trial"",""time""
""fullscreenenter"",""1"",""1441""
","
","
","""event"",""trial"",""time""
""fullscreenenter"",""1"",""1441""
","
","","","","","","2755.0999999999767","images/rabbit3.png","","","memory_trial","2","maybe_old","","","","","","",""
"html-keyboard-response","44","191592","0.0-15.0-0.1","1852","2","""event"",""trial"",""time""
""fullscreenenter"",""1"",""1441""
","
","
","""event"",""trial"",""time""
""fullscreenenter"",""1"",""1441""
","
","","","","","","null","<div style=""font-size:60px;"">+</div>","null","","fixation","","","","","","","","",""
"memory-trial","45","194238","0.0-15.0-1.1","1852","2","""event"",""trial"",""time""
""fullscreenenter"",""1"",""1441""
","
","
","""event"",""trial"",""time""
""fullscreenenter"",""1"",""1441""
","
","","","","","","1639.7999999999302","images/dog5.png","","","memory_trial","1","definitely_old","","","","","","",""
"html-keyboard-response","46","194743","0.0-15.0-0.2","1852","2","""event"",""trial"",""time""
""fullscreenenter"",""1"",""1441""
","
","
","""event"",""trial"",""time""
""fullscreenenter"",""1"",""1441""
","
","","","","","","null","<div style=""font-size:60px;"">+</div>","null","","fixation","","","","","","","","",""
"memory-trial","47","196897","0.0-15.0-1.2","1852","2","""event"",""trial"",""time""
""fullscreenenter"",""1"",""1441""
","
","
","""event"",""trial"",""time""
""fullscreenenter"",""1"",""1441""
","
","","","","","","1147","images/boat4.png","","","memory_trial","4","definitely_new","","","","","","",""
"html-keyboard-response","48","197402","0.0-15.0-0.3","1852","2","""event"",""trial"",""time""
""fullscreenenter"",""1"",""1441""
","
","
","""event"",""trial"",""time""
""fullscreenenter"",""1"",""1441""
","
","","","","","","null","<div style=""font-size:60px;"">+</div>","null","","fixation","","","","","","","","",""
"memory-trial","49","199341","0.0-15.0-1.3","1852","2","""event"",""trial"",""time""
""fullscreenenter"",""1"",""1441""
","
","
","""event"",""trial"",""time""
""fullscreenenter"",""1"",""1441""
","
","","","","","","936.2000000000698","images/rodent2.png","","","memory_trial","4","definitely_new","","","","","","",""
"html-keyboard-response","50","199842","0.0-15.0-0.4","1852","2","""event"",""trial"",""time""
""fullscreenenter"",""1"",""1441""
","
","
","""event"",""trial"",""time""
""fullscreenenter"",""1"",""1441""
","
","","","","","","null","<div style=""font-size:60px;"">+</div>","null","","fixation","","","","","","","","",""
"memory-trial","51","202789","0.0-15.0-1.4","1852","2","""event"",""trial"",""time""
""fullscreenenter"",""1"",""1441""
","
","
","""event"",""trial"",""time""
""fullscreenenter"",""1"",""1441""
","
","","","","","","1944.5","images/rabbit2.png","","","memory_trial","2","maybe_old","","","","","","",""
"html-keyboard-response","52","203294","0.0-15.0-0.5","1852","2","""event"",""trial"",""time""
""fullscreenenter"",""1"",""1441""
","
","
","""event"",""trial"",""time""
""fullscreenenter"",""1"",""1441""
","
","","","","","","null","<div style=""font-size:60px;"">+</div>","null","","fixation","","","","","","","","",""
"memory-trial","53","205496","0.0-15.0-1.5","1852","2","""event"",""trial"",""time""
""fullscreenenter"",""1"",""1441""
","
","
","""event"",""trial"",""time""
""fullscreenenter"",""1"",""1441""
","
","","","","","","1195.5999999999767","images/goat3.png","","","memory_trial","1","definitely_old","","","","","","",""
"html-keyboard-response","54","205999","0.0-15.0-0.6","1852","2","""event"",""trial"",""time""
""fullscreenenter"",""1"",""1441""
","
","
","""event"",""trial"",""time""
""fullscreenenter"",""1"",""1441""
","
","","","","","","null","<div style=""font-size:60px;"">+</div>","null","","fixation","","","","","","","","",""
"memory-trial","55","209239","0.0-15.0-1.6","1852","2","""event"",""trial"",""time""
""fullscreenenter"",""1"",""1441""
","
","
","""event"",""trial"",""time""
""fullscreenenter"",""1"",""1441""
","
","","","","","","2232","images/banana3.png","","","memory_trial","1","definitely_old","","","","","","",""
"html-keyboard-response","56","209744","0.0-15.0-0.7","1852","2","""event"",""trial"",""time""
""fullscreenenter"",""1"",""1441""
","
","
","""event"",""trial"",""time""
""fullscreenenter"",""1"",""1441""
","
","","","","","","null","<div style=""font-size:60px;"">+</div>","null","","fixation","","","","","","","","",""
"memory-trial","57","211513","0.0-15.0-1.7","1852","2","""event"",""trial"",""time""
""fullscreenenter"",""1"",""1441""
","
","
","""event"",""trial"",""time""
""fullscreenenter"",""1"",""1441""
","
","","","","","","762.3000000000466","images/straw3.png","","","memory_trial","1","definitely_old","","","","","","",""
"html-keyboard-response","58","212016","0.0-15.0-0.8","1852","2","""event"",""trial"",""time""
""fullscreenenter"",""1"",""1441""
","
","
","""event"",""trial"",""time""
""fullscreenenter"",""1"",""1441""
","
","","","","","","null","<div style=""font-size:60px;"">+</div>","null","","fixation","","","","","","","","",""
"memory-trial","59","214033","0.0-15.0-1.8","1852","2","""event"",""trial"",""time""
""fullscreenenter"",""1"",""1441""
","
","
","""event"",""trial"",""time""
""fullscreenenter"",""1"",""1441""
","
","","","","","","1013.0999999999767","images/cow4.png","","","memory_trial","1","definitely_old","","","","","","",""
"html-keyboard-response","60","214534","0.0-15.0-0.9","1852","2","""event"",""trial"",""time""
""fullscreenenter"",""1"",""1441""
","
","
","""event"",""trial"",""time""
""fullscreenenter"",""1"",""1441""
","
","","","","","","null","<div style=""font-size:60px;"">+</div>","null","","fixation","","","","","","","","",""
"memory-trial","61","216479","0.0-15.0-1.9","1852","2","""event"",""trial"",""time""
""fullscreenenter"",""1"",""1441""
","
","
","""event"",""trial"",""time""
""fullscreenenter"",""1"",""1441""
","
","","","","","","942.4000000000233","images/bush3.png","","","memory_trial","1","definitely_old","","","","","","",""
"html-keyboard-response","62","216984","0.0-15.0-0.10","1852","2","""event"",""trial"",""time""
""fullscreenenter"",""1"",""1441""
","
","
","""event"",""trial"",""time""
""fullscreenenter"",""1"",""1441""
","
","","","","","","null","<div style=""font-size:60px;"">+</div>","null","","fixation","","","","","","","","",""
"memory-trial","63","220717","0.0-15.0-1.10","1852","2","""event"",""trial"",""time""
""fullscreenenter"",""1"",""1441""
","
","
","""event"",""trial"",""time""
""fullscreenenter"",""1"",""1441""
","
","","","","","","2727.4000000000233","images/chair5.png","","","memory_trial","3","maybe_new","","","","","","",""
"html-keyboard-response","64","221223","0.0-15.0-0.11","1852","2","""event"",""trial"",""time""
""fullscreenenter"",""1"",""1441""
","
","
","""event"",""trial"",""time""
""fullscreenenter"",""1"",""1441""
","
","","","","","","null","<div style=""font-size:60px;"">+</div>","null","","fixation","","","","","","","","",""
"memory-trial","65","223852","0.0-15.0-1.11","1852","2","""event"",""trial"",""time""
""fullscreenenter"",""1"",""1441""
","
","
","""event"",""trial"",""time""
""fullscreenenter"",""1"",""1441""
","
","","","","","","1623.3000000000466","images/sofa3.png","","","memory_trial","3","maybe_new","","","","","","",""
"html-keyboard-response","66","224357","0.0-15.0-0.12","1852","2","""event"",""trial"",""time""
""fullscreenenter"",""1"",""1441""
","
","
","""event"",""trial"",""time""
""fullscreenenter"",""1"",""1441""
","
","","","","","","null","<div style=""font-size:60px;"">+</div>","null","","fixation","","","","","","","","",""
"memory-trial","67","226191","0.0-15.0-1.12","1852","2","""event"",""trial"",""time""
""fullscreenenter"",""1"",""1441""
","
","
","""event"",""trial"",""time""
""fullscreenenter"",""1"",""1441""
","
","","","","","","827.6999999999534","images/tree4.png","","","memory_trial","1","definitely_old","","","","","","",""
"html-keyboard-response","68","226696","0.0-15.0-0.13","1852","2","""event"",""trial"",""time""
""fullscreenenter"",""1"",""1441""
","
","
","""event"",""trial"",""time""
""fullscreenenter"",""1"",""1441""
","
","","","","","","null","<div style=""font-size:60px;"">+</div>","null","","fixation","","","","","","","","",""
"memory-trial","69","228310","0.0-15.0-1.13","1852","2","""event"",""trial"",""time""
""fullscreenenter"",""1"",""1441""
","
","
","""event"",""trial"",""time""
""fullscreenenter"",""1"",""1441""
","
","","","","","","611.7999999999302","images/straw4.png","","","memory_trial","1","definitely_old","","","","","","",""
"html-keyboard-response","70","228815","0.0-15.0-0.14","1852","2","""event"",""trial"",""time""
""fullscreenenter"",""1"",""1441""
","
","
","""event"",""trial"",""time""
""fullscreenenter"",""1"",""1441""
","
","","","","","","null","<div style=""font-size:60px;"">+</div>","null","","fixation","","","","","","","","",""
"memory-trial","71","230824","0.0-15.0-1.14","1852","2","""event"",""trial"",""time""
""fullscreenenter"",""1"",""1441""
","
","
","""event"",""trial"",""time""
""fullscreenenter"",""1"",""1441""
","
","","","","","","1006.2000000000698","images/banana2.png","","","memory_trial","1","definitely_old","","","","","","",""
"html-keyboard-response","72","231329","0.0-15.0-0.15","1852","2","""event"",""trial"",""time""
""fullscreenenter"",""1"",""1441""
","
","
","""event"",""trial"",""time""
""fullscreenenter"",""1"",""1441""
","
","","","","","","null","<div style=""font-size:60px;"">+</div>","null","","fixation","","","","","","","","",""
"memory-trial","73","233343","0.0-15.0-1.15","1852","2","""event"",""trial"",""time""
""fullscreenenter"",""1"",""1441""
","
","
","""event"",""trial"",""time""
""fullscreenenter"",""1"",""1441""
","
","","","","","","1011","images/apple1.png","","","memory_trial","4","definitely_new","","","","","","",""
"html-keyboard-response","74","233848","0.0-15.0-0.16","1852","2","""event"",""trial"",""time""
""fullscreenenter"",""1"",""1441""
","
","
","""event"",""trial"",""time""
""fullscreenenter"",""1"",""1441""
","
","","","","","","null","<div style=""font-size:60px;"">+</div>","null","","fixation","","","","","","","","",""
"memory-trial","75","235485","0.0-15.0-1.16","1852","2","""event"",""trial"",""time""
""fullscreenenter"",""1"",""1441""
","
","
","""event"",""trial"",""time""
""fullscreenenter"",""1"",""1441""
","
","","","","","","634.1999999999534","images/apple5.png","","","memory_trial","4","definitely_new","","","","","","",""
"html-keyboard-response","76","235990","0.0-15.0-0.17","1852","2","""event"",""trial"",""time""
""fullscreenenter"",""1"",""1441""
","
","
","""event"",""trial"",""time""
""fullscreenenter"",""1"",""1441""
","
","","","","","","null","<div style=""font-size:60px;"">+</div>","null","","fixation","","","","","","","","",""
"memory-trial","77","237894","0.0-15.0-1.17","1852","2","""event"",""trial"",""time""
""fullscreenenter"",""1"",""1441""
","
","
","""event"",""trial"",""time""
""fullscreenenter"",""1"",""1441""
","
","","","","","","897.5","images/rabbit4.png","","","memory_trial","4","definitely_new","","","","","","",""
"html-keyboard-response","78","238399","0.0-15.0-0.18","1852","2","""event"",""trial"",""time""
""fullscreenenter"",""1"",""1441""
","
","
","""event"",""trial"",""time""
""fullscreenenter"",""1"",""1441""
","
","","","","","","null","<div style=""font-size:60px;"">+</div>","null","","fixation","","","","","","","","",""
"memory-trial","79","241598","0.0-15.0-1.18","1852","2","""event"",""trial"",""time""
""fullscreenenter"",""1"",""1441""
","
","
","""event"",""trial"",""time""
""fullscreenenter"",""1"",""1441""
","
","","","","","","2192.5","images/orange4.png","","","memory_trial","2","maybe_old","","","","","","",""
"html-keyboard-response","80","242103","0.0-15.0-0.19","1852","2","""event"",""trial"",""time""
""fullscreenenter"",""1"",""1441""
","
","
","""event"",""trial"",""time""
""fullscreenenter"",""1"",""1441""
","
","","","","","","null","<div style=""font-size:60px;"">+</div>","null","","fixation","","","","","","","","",""
"memory-trial","81","243932","0.0-15.0-1.19","1852","2","""event"",""trial"",""time""
""fullscreenenter"",""1"",""1441""
","
","
","""event"",""trial"",""time""
""fullscreenenter"",""1"",""1441""
","
","","","","","","825.7000000001863","images/flower2.png","","","memory_trial","4","definitely_new","","","","","","",""
"html-keyboard-response","82","244437","0.0-15.0-0.20","1852","2","""event"",""trial"",""time""
""fullscreenenter"",""1"",""1441""
","
","
","""event"",""trial"",""time""
""fullscreenenter"",""1"",""1441""
","
","","","","","","null","<div style=""font-size:60px;"">+</div>","null","","fixation","","","","","","","","",""
"memory-trial","83","246561","0.0-15.0-1.20","1852","2","""event"",""trial"",""time""
""fullscreenenter"",""1"",""1441""
","
","
","""event"",""trial"",""time""
""fullscreenenter"",""1"",""1441""
","
","","","","","","1122.7000000001863","images/rodent4.png","","","memory_trial","4","definitely_new","","","","","","",""
"html-keyboard-response","84","247066","0.0-15.0-0.21","1852","2","""event"",""trial"",""time""
""fullscreenenter"",""1"",""1441""
","
","
","""event"",""trial"",""time""
""fullscreenenter"",""1"",""1441""
","
","","","","","","null","<div style=""font-size:60px;"">+</div>","null","","fixation","","","","","","","","",""
"memory-trial","85","249155","0.0-15.0-1.21","1852","2","""event"",""trial"",""time""
""fullscreenenter"",""1"",""1441""
","
","
","""event"",""trial"",""time""
""fullscreenenter"",""1"",""1441""
","
","","","","","","1082.5999999998603","images/bush1.png","","","memory_trial","1","definitely_old","","","","","","",""
"html-keyboard-response","86","249661","0.0-15.0-0.22","1852","2","""event"",""trial"",""time""
""fullscreenenter"",""1"",""1441""
","
","
","""event"",""trial"",""time""
""fullscreenenter"",""1"",""1441""
","
","","","","","","null","<div style=""font-size:60px;"">+</div>","null","","fixation","","","","","","","","",""
"memory-trial","87","251362","0.0-15.0-1.22","1852","2","""event"",""trial"",""time""
""fullscreenenter"",""1"",""1441""
","
","
","""event"",""trial"",""time""
""fullscreenenter"",""1"",""1441""
","
","","","","","","697.4000000001397","images/flower4.png","","","memory_trial","4","definitely_new","","","","","","",""
"html-keyboard-response","88","251867","0.0-15.0-0.23","1852","2","""event"",""trial"",""time""
""fullscreenenter"",""1"",""1441""
","
","
","""event"",""trial"",""time""
""fullscreenenter"",""1"",""1441""
","
","","","","","","null","<div style=""font-size:60px;"">+</div>","null","","fixation","","","","","","","","",""
"memory-trial","89","255396","0.0-15.0-1.23","1852","2","""event"",""trial"",""time""
""fullscreenenter"",""1"",""1441""
","
","
","""event"",""trial"",""time""
""fullscreenenter"",""1"",""1441""
","
","","","","","","2526","images/plane2.png","","","memory_trial","3","maybe_new","","","","","","",""
"html-keyboard-response","90","255902","0.0-15.0-0.24","1852","2","""event"",""trial"",""time""
""fullscreenenter"",""1"",""1441""
","
","
","""event"",""trial"",""time""
""fullscreenenter"",""1"",""1441""
","
","","","","","","null","<div style=""font-size:60px;"">+</div>","null","","fixation","","","","","","","","",""
"memory-trial","91","257719","0.0-15.0-1.24","1852","2","""event"",""trial"",""time""
""fullscreenenter"",""1"",""1441""
","
","
","""event"",""trial"",""time""
""fullscreenenter"",""1"",""1441""
","
","","","","","","810.0999999998603","images/tree3.png","","","memory_trial","1","definitely_old","","","","","","",""
"html-keyboard-response","92","258224","0.0-15.0-0.25","1852","2","""event"",""trial"",""time""
""fullscreenenter"",""1"",""1441""
","
","
","""event"",""trial"",""time""
""fullscreenenter"",""1"",""1441""
","
","","","","","","null","<div style=""font-size:60px;"">+</div>","null","","fixation","","","","","","","","",""
"memory-trial","93","261341","0.0-15.0-1.25","1852","2","""event"",""trial"",""time""
""fullscreenenter"",""1"",""1441""
","
","
","""event"",""trial"",""time""
""fullscreenenter"",""1"",""1441""
","
","","","","","","2110.5","images/sofa4.png","","","memory_trial","2","maybe_old","","","","","","",""
"html-keyboard-response","94","261846","0.0-15.0-0.26","1852","2","""event"",""trial"",""time""
""fullscreenenter"",""1"",""1441""
","
","
","""event"",""trial"",""time""
""fullscreenenter"",""1"",""1441""
","
","","","","","","null","<div style=""font-size:60px;"">+</div>","null","","fixation","","","","","","","","",""
"memory-trial","95","264076","0.0-15.0-1.26","1852","2","""event"",""trial"",""time""
""fullscreenenter"",""1"",""1441""
","
","
","""event"",""trial"",""time""
""fullscreenenter"",""1"",""1441""
","
","","","","","","1226.1999999999534","images/dog1.png","","","memory_trial","4","definitely_new","","","","","","",""
"html-keyboard-response","96","264581","0.0-15.0-0.27","1852","2","""event"",""trial"",""time""
""fullscreenenter"",""1"",""1441""
","
","
","""event"",""trial"",""time""
""fullscreenenter"",""1"",""1441""
","
","","","","","","null","<div style=""font-size:60px;"">+</div>","null","","fixation","","","","","","","","",""
"memory-trial","97","266618","0.0-15.0-1.27","1852","2","""event"",""trial"",""time""
""fullscreenenter"",""1"",""1441""
","
","
","""event"",""trial"",""time""
""fullscreenenter"",""1"",""1441""
","
","","","","","","1032","images/chair4.png","","","memory_trial","4","definitely_new","","","","","","",""
"html-keyboard-response","98","267123","0.0-15.0-0.28","1852","2","""event"",""trial"",""time""
""fullscreenenter"",""1"",""1441""
","
","
","""event"",""trial"",""time""
""fullscreenenter"",""1"",""1441""
","
","","","","","","null","<div style=""font-size:60px;"">+</div>","null","","fixation","","","","","","","","",""
"memory-trial","99","268911","0.0-15.0-1.28","1852","2","""event"",""trial"",""time""
""fullscreenenter"",""1"",""1441""
","
","
","""event"",""trial"",""time""
""fullscreenenter"",""1"",""1441""
","
","","","","","","781.8999999999069","images/apple3.png","","","memory_trial","4","definitely_new","","","","","","",""
"html-keyboard-response","100","269416","0.0-15.0-0.29","1852","2","""event"",""trial"",""time""
""fullscreenenter"",""1"",""1441""
","
","
","""event"",""trial"",""time""
""fullscreenenter"",""1"",""1441""
","
","","","","","","null","<div style=""font-size:60px;"">+</div>","null","","fixation","","","","","","","","",""
"memory-trial","101","271796","0.0-15.0-1.29","1852","2","""event"",""trial"",""time""
""fullscreenenter"",""1"",""1441""
","
","
","""event"",""trial"",""time""
""fullscreenenter"",""1"",""1441""
","
","","","","","","1377.1999999999534","images/chair3.png","","","memory_trial","4","definitely_new","","","","","","",""
"html-keyboard-response","102","272302","0.0-15.0-0.30","1852","2","""event"",""trial"",""time""
""fullscreenenter"",""1"",""1441""
","
","
","""event"",""trial"",""time""
""fullscreenenter"",""1"",""1441""
","
","","","","","","null","<div style=""font-size:60px;"">+</div>","null","","fixation","","","","","","","","",""
"memory-trial","103","274310","0.0-15.0-1.30","1852","2","""event"",""trial"",""time""
""fullscreenenter"",""1"",""1441""
","
","
","""event"",""trial"",""time""
""fullscreenenter"",""1"",""1441""
","
","","","","","","1003","images/straw2.png","","","memory_trial","1","definitely_old","","","","","","",""
"html-keyboard-response","104","274815","0.0-15.0-0.31","1852","2","""event"",""trial"",""time""
""fullscreenenter"",""1"",""1441""
","
","
","""event"",""trial"",""time""
""fullscreenenter"",""1"",""1441""
","
","","","","","","null","<div style=""font-size:60px;"">+</div>","null","","fixation","","","","","","","","",""
"memory-trial","105","276644","0.0-15.0-1.31","1852","2","""event"",""trial"",""time""
""fullscreenenter"",""1"",""1441""
","
","
","""event"",""trial"",""time""
""fullscreenenter"",""1"",""1441""
","
","","","","","","825.1999999999534","images/truck1.png","","","memory_trial","4","definitely_new","","","","","","",""
"html-keyboard-response","106","277149","0.0-15.0-0.32","1852","2","""event"",""trial"",""time""
""fullscreenenter"",""1"",""1441""
","
","
","""event"",""trial"",""time""
""fullscreenenter"",""1"",""1441""
","
","","","","","","null","<div style=""font-size:60px;"">+</div>","null","","fixation","","","","","","","","",""
"memory-trial","107","279506","0.0-15.0-1.32","1852","2","""event"",""trial"",""time""
""fullscreenenter"",""1"",""1441""
","
","
","""event"",""trial"",""time""
""fullscreenenter"",""1"",""1441""
","
","","","","","","1349.8999999999069","images/bed1.png","","","memory_trial","1","definitely_old","","","","","","",""
"html-keyboard-response","108","280011","0.0-15.0-0.33","1852","2","""event"",""trial"",""time""
""fullscreenenter"",""1"",""1441""
","
","
","""event"",""trial"",""time""
""fullscreenenter"",""1"",""1441""
","
","","","","","","null","<div style=""font-size:60px;"">+</div>","null","","fixation","","","","","","","","",""
"memory-trial","109","282054","0.0-15.0-1.33","1852","2","""event"",""trial"",""time""
""fullscreenenter"",""1"",""1441""
","
","
","""event"",""trial"",""time""
""fullscreenenter"",""1"",""1441""
","
","","","","","","1037.3999999999069","images/plane5.png","","","memory_trial","4","definitely_new","","","","","","",""
"html-keyboard-response","110","282559","0.0-15.0-0.34","1852","2","""event"",""trial"",""time""
""fullscreenenter"",""1"",""1441""
","
","
","""event"",""trial"",""time""
""fullscreenenter"",""1"",""1441""
","
","","","","","","null","<div style=""font-size:60px;"">+</div>","null","","fixation","","","","","","","","",""
"memory-trial","111","285473","0.0-15.0-1.34","1852","2","""event"",""trial"",""time""
""fullscreenenter"",""1"",""1441""
","
","
","""event"",""trial"",""time""
""fullscreenenter"",""1"",""1441""
","
","","","","","","1910.3999999999069","images/banana5.png","","","memory_trial","3","maybe_new","","","","","","",""
"html-keyboard-response","112","285978","0.0-15.0-0.35","1852","2","""event"",""trial"",""time""
""fullscreenenter"",""1"",""1441""
","
","
","""event"",""trial"",""time""
""fullscreenenter"",""1"",""1441""
","
","","","","","","null","<div style=""font-size:60px;"">+</div>","null","","fixation","","","","","","","","",""
"memory-trial","113","289751","0.0-15.0-1.35","1852","2","""event"",""trial"",""time""
""fullscreenenter"",""1"",""1441""
","
","
","""event"",""trial"",""time""
""fullscreenenter"",""1"",""1441""
","
","","","","","","2765.5","images/goat1.png","","","memory_trial","3","maybe_new","","","","","","",""
"html-keyboard-response","114","290257","0.0-15.0-0.36","1852","2","""event"",""trial"",""time""
""fullscreenenter"",""1"",""1441""
","
","
","""event"",""trial"",""time""
""fullscreenenter"",""1"",""1441""
","
","","","","","","null","<div style=""font-size:60px;"">+</div>","null","","fixation","","","","","","","","",""
"memory-trial","115","292887","0.0-15.0-1.36","1852","2","""event"",""trial"",""time""
""fullscreenenter"",""1"",""1441""
","
","
","""event"",""trial"",""time""
""fullscreenenter"",""1"",""1441""
","
","","","","","","1624.1999999999534","images/chair2.png","","","memory_trial","4","definitely_new","","","","","","",""
"html-keyboard-response","116","293392","0.0-15.0-0.37","1852","2","""event"",""trial"",""time""
""fullscreenenter"",""1"",""1441""
","
","
","""event"",""trial"",""time""
""fullscreenenter"",""1"",""1441""
","
","","","","","","null","<div style=""font-size:60px;"">+</div>","null","","fixation","","","","","","","","",""
"memory-trial","117","295209","0.0-15.0-1.37","1852","2","""event"",""trial"",""time""
""fullscreenenter"",""1"",""1441""
","
","
","""event"",""trial"",""time""
""fullscreenenter"",""1"",""1441""
","
","","","","","","812","images/truck4.png","","","memory_trial","4","definitely_new","","","","","","",""
"html-keyboard-response","118","295714","0.0-15.0-0.38","1852","2","""event"",""trial"",""time""
""fullscreenenter"",""1"",""1441""
","
","
","""event"",""trial"",""time""
""fullscreenenter"",""1"",""1441""
","
","","","","","","null","<div style=""font-size:60px;"">+</div>","null","","fixation","","","","","","","","",""
"memory-trial","119","298210","0.0-15.0-1.38","1852","2","""event"",""trial"",""time""
""fullscreenenter"",""1"",""1441""
","
","
","""event"",""trial"",""time""
""fullscreenenter"",""1"",""1441""
","
","","","","","","1493.1999999999534","images/goat5.png","","","memory_trial","4","definitely_new","","","","","","",""
"html-keyboard-response","120","298715","0.0-15.0-0.39","1852","2","""event"",""trial"",""time""
""fullscreenenter"",""1"",""1441""
","
","
","""event"",""trial"",""time""
""fullscreenenter"",""1"",""1441""
","
","","","","","","null","<div style=""font-size:60px;"">+</div>","null","","fixation","","","","","","","","",""
"memory-trial","121","300341","0.0-15.0-1.39","1852","2","""event"",""trial"",""time""
""fullscreenenter"",""1"",""1441""
","
","
","""event"",""trial"",""time""
""fullscreenenter"",""1"",""1441""
","
","","","","","","620.0999999998603","images/apple2.png","","","memory_trial","4","definitely_new","","","","","","",""
"html-keyboard-response","122","300846","0.0-15.0-0.40","1852","2","""event"",""trial"",""time""
""fullscreenenter"",""1"",""1441""
","
","
","""event"",""trial"",""time""
""fullscreenenter"",""1"",""1441""
","
","","","","","","null","<div style=""font-size:60px;"">+</div>","null","","fixation","","","","","","","","",""
"memory-trial","123","304009","0.0-15.0-1.40","1852","2","""event"",""trial"",""time""
""fullscreenenter"",""1"",""1441""
","
","
","""event"",""trial"",""time""
""fullscreenenter"",""1"",""1441""
","
","","","","","","2156.7999999998137","images/cow1.png","","","memory_trial","1","definitely_old","","","","","","",""
"html-keyboard-response","124","304514","0.0-15.0-0.41","1852","2","""event"",""trial"",""time""
""fullscreenenter"",""1"",""1441""
","
","
","""event"",""trial"",""time""
""fullscreenenter"",""1"",""1441""
","
","","","","","","null","<div style=""font-size:60px;"">+</div>","null","","fixation","","","","","","","","",""
"memory-trial","125","306320","0.0-15.0-1.41","1852","2","""event"",""trial"",""time""
""fullscreenenter"",""1"",""1441""
","
","
","""event"",""trial"",""time""
""fullscreenenter"",""1"",""1441""
","
","","","","","","800.5999999998603","images/sheep3.png","","","memory_trial","1","definitely_old","","","","","","",""
"html-keyboard-response","126","306825","0.0-15.0-0.42","1852","2","""event"",""trial"",""time""
""fullscreenenter"",""1"",""1441""
","
","
","""event"",""trial"",""time""
""fullscreenenter"",""1"",""1441""
","
","","","","","","null","<div style=""font-size:60px;"">+</div>","null","","fixation","","","","","","","","",""
"memory-trial","127","308764","0.0-15.0-1.42","1852","2","""event"",""trial"",""time""
""fullscreenenter"",""1"",""1441""
","
","
","""event"",""trial"",""time""
""fullscreenenter"",""1"",""1441""
","
","","","","","","932.6000000000931","images/straw1.png","","","memory_trial","1","definitely_old","","","","","","",""
"html-keyboard-response","128","309269","0.0-15.0-0.43","1852","2","""event"",""trial"",""time""
""fullscreenenter"",""1"",""1441""
","
","
","""event"",""trial"",""time""
""fullscreenenter"",""1"",""1441""
","
","","","","","","null","<div style=""font-size:60px;"">+</div>","null","","fixation","","","","","","","","",""
"memory-trial","129","312130","0.0-15.0-1.43","1852","2","""event"",""trial"",""time""
""fullscreenenter"",""1"",""1441""
","
","
","""event"",""trial"",""time""
""fullscreenenter"",""1"",""1441""
","
","","","","","","1854.5","images/cow2.png","","","memory_trial","2","maybe_old","","","","","","",""
"html-keyboard-response","130","312636","0.0-15.0-0.44","1852","2","""event"",""trial"",""time""
""fullscreenenter"",""1"",""1441""
","
","
","""event"",""trial"",""time""
""fullscreenenter"",""1"",""1441""
","
","","","","","","null","<div style=""font-size:60px;"">+</div>","null","","fixation","","","","","","","","",""
"memory-trial","131","314557","0.0-15.0-1.44","1852","2","""event"",""trial"",""time""
""fullscreenenter"",""1"",""1441""
","
","
","""event"",""trial"",""time""
""fullscreenenter"",""1"",""1441""
","
","","","","","","914.5999999998603","images/feline2.png","","","memory_trial","1","definitely_old","","","","","","",""
"html-keyboard-response","132","315062","0.0-15.0-0.45","1852","2","""event"",""trial"",""time""
""fullscreenenter"",""1"",""1441""
","
","
","""event"",""trial"",""time""
""fullscreenenter"",""1"",""1441""
","
","","","","","","null","<div style=""font-size:60px;"">+</div>","null","","fixation","","","","","","","","",""
"memory-trial","133","317262","0.0-15.0-1.45","1852","2","""event"",""trial"",""time""
""fullscreenenter"",""1"",""1441""
","
","
","""event"",""trial"",""time""
""fullscreenenter"",""1"",""1441""
","
","","","","","","1196.8000000000466","images/cactus3.png","","","memory_trial","1","definitely_old","","","","","","",""
"html-keyboard-response","134","317768","0.0-15.0-0.46","1852","2","""event"",""trial"",""time""
""fullscreenenter"",""1"",""1441""
","
","
","""event"",""trial"",""time""
""fullscreenenter"",""1"",""1441""
","
","","","","","","null","<div style=""font-size:60px;"">+</div>","null","","fixation","","","","","","","","",""
"memory-trial","135","321093","0.0-15.0-1.46","1852","2","""event"",""trial"",""time""
""fullscreenenter"",""1"",""1441""
","
","
","""event"",""trial"",""time""
""fullscreenenter"",""1"",""1441""
","
","","","","","","2318.899999999907","images/cow3.png","","","memory_trial","3","maybe_new","","","","","","",""
"html-button-response","136","323079","0.0-15.0-2.46-0.46","1852","2","""event"",""trial"",""time""
""fullscreenenter"",""1"",""1441""
","
","
","""event"",""trial"",""time""
""fullscreenenter"",""1"",""1441""
","
","","","","","","1984.0999999998603","<p> Take a break! </p><p> Click the button to continue. </p>","0","","break","","","","","","","","",""
"html-keyboard-response","137","323581","0.0-15.0-0.47","1852","2","""event"",""trial"",""time""
""fullscreenenter"",""1"",""1441""
","
","
","""event"",""trial"",""time""
""fullscreenenter"",""1"",""1441""
","
","","","","","","null","<div style=""font-size:60px;"">+</div>","null","","fixation","","","","","","","","",""
"memory-trial","138","325616","0.0-15.0-1.47","1852","2","""event"",""trial"",""time""
""fullscreenenter"",""1"",""1441""
","
","
","""event"",""trial"",""time""
""fullscreenenter"",""1"",""1441""
","
","","","","","","1031.6999999999534","images/truck5.png","","","memory_trial","4","definitely_new","","","","","","",""
"html-keyboard-response","139","326119","0.0-15.0-0.48","1852","2","""event"",""trial"",""time""
""fullscreenenter"",""1"",""1441""
","
","
","""event"",""trial"",""time""
""fullscreenenter"",""1"",""1441""
","
","","","","","","null","<div style=""font-size:60px;"">+</div>","null","","fixation","","","","","","","","",""
"memory-trial","140","328014","0.0-15.0-1.48","1852","2","""event"",""trial"",""time""
""fullscreenenter"",""1"",""1441""
","
","
","""event"",""trial"",""time""
""fullscreenenter"",""1"",""1441""
","
","","","","","","890","images/goat2.png","","","memory_trial","4","definitely_new","","","","","","",""
"html-keyboard-response","141","328518","0.0-15.0-0.49","1852","2","""event"",""trial"",""time""
""fullscreenenter"",""1"",""1441""
","
","
","""event"",""trial"",""time""
""fullscreenenter"",""1"",""1441""
","
","","","","","","null","<div style=""font-size:60px;"">+</div>","null","","fixation","","","","","","","","",""
"memory-trial","142","331392","0.0-15.0-1.49","1852","2","""event"",""trial"",""time""
""fullscreenenter"",""1"",""1441""
","
","
","""event"",""trial"",""time""
""fullscreenenter"",""1"",""1441""
","
","","","","","","1867.5","images/orange1.png","","","memory_trial","2","maybe_old","","","","","","",""
"html-keyboard-response","143","331897","0.0-15.0-0.50","1852","2","""event"",""trial"",""time""
""fullscreenenter"",""1"",""1441""
","
","
","""event"",""trial"",""time""
""fullscreenenter"",""1"",""1441""
","
","","","","","","null","<div style=""font-size:60px;"">+</div>","null","","fixation","","","","","","","","",""
"memory-trial","144","335108","0.0-15.0-1.50","1852","2","""event"",""trial"",""time""
""fullscreenenter"",""1"",""1441""
","
","
","""event"",""trial"",""time""
""fullscreenenter"",""1"",""1441""
","
","","","","","","2204.1999999999534","images/banana4.png","","","memory_trial","2","maybe_old","","","","","","",""
"html-keyboard-response","145","335613","0.0-15.0-0.51","1852","2","""event"",""trial"",""time""
""fullscreenenter"",""1"",""1441""
","
","
","""event"",""trial"",""time""
""fullscreenenter"",""1"",""1441""
","
","","","","","","null","<div style=""font-size:60px;"">+</div>","null","","fixation","","","","","","","","",""
"memory-trial","146","338067","0.0-15.0-1.51","1852","2","""event"",""trial"",""time""
""fullscreenenter"",""1"",""1441""
","
","
","""event"",""trial"",""time""
""fullscreenenter"",""1"",""1441""
","
","","","","","","1448.3000000000466","images/boat1.png","","","memory_trial","1","definitely_old","","","","","","",""
"html-keyboard-response","147","338573","0.0-15.0-0.52","1852","2","""event"",""trial"",""time""
""fullscreenenter"",""1"",""1441""
","
","
","""event"",""trial"",""time""
""fullscreenenter"",""1"",""1441""
","
","","","","","","null","<div style=""font-size:60px;"">+</div>","null","","fixation","","","","","","","","",""
"memory-trial","148","340427","0.0-15.0-1.52","1852","2","""event"",""trial"",""time""
""fullscreenenter"",""1"",""1441""
","
","
","""event"",""trial"",""time""
""fullscreenenter"",""1"",""1441""
","
","","","","","","850.4000000001397","images/bush4.png","","","memory_trial","1","definitely_old","","","","","","",""
"html-keyboard-response","149","340930","0.0-15.0-0.53","1852","2","""event"",""trial"",""time""
""fullscreenenter"",""1"",""1441""
","
","
","""event"",""trial"",""time""
""fullscreenenter"",""1"",""1441""
","
","","","","","","null","<div style=""font-size:60px;"">+</div>","null","","fixation","","","","","","","","",""
"memory-trial","150","343194","0.0-15.0-1.53","1852","2","""event"",""trial"",""time""
""fullscreenenter"",""1"",""1441""
","
","
","""event"",""trial"",""time""
""fullscreenenter"",""1"",""1441""
","
","","","","","","1259.3999999999069","images/table3.png","","","memory_trial","1","definitely_old","","","","","","",""
"html-keyboard-response","151","343699","0.0-15.0-0.54","1852","2","""event"",""trial"",""time""
""fullscreenenter"",""1"",""1441""
","
","
","""event"",""trial"",""time""
""fullscreenenter"",""1"",""1441""
","
","","","","","","null","<div style=""font-size:60px;"">+</div>","null","","fixation","","","","","","","","",""
"memory-trial","152","345476","0.0-15.0-1.54","1852","2","""event"",""trial"",""time""
""fullscreenenter"",""1"",""1441""
","
","
","""event"",""trial"",""time""
""fullscreenenter"",""1"",""1441""
","
","","","","","","769.8999999999069","images/flower5.png","","","memory_trial","4","definitely_new","","","","","","",""
"html-keyboard-response","153","345981","0.0-15.0-0.55","1852","2","""event"",""trial"",""time""
""fullscreenenter"",""1"",""1441""
","
","
","""event"",""trial"",""time""
""fullscreenenter"",""1"",""1441""
","
","","","","","","null","<div style=""font-size:60px;"">+</div>","null","","fixation","","","","","","","","",""
"memory-trial","154","348065","0.0-15.0-1.55","1852","2","""event"",""trial"",""time""
""fullscreenenter"",""1"",""1441""
","
","
","""event"",""trial"",""time""
""fullscreenenter"",""1"",""1441""
","
","","","","","","1078.6999999999534","images/bed5.png","","","memory_trial","4","definitely_new","","","","","","",""
"html-keyboard-response","155","348570","0.0-15.0-0.56","1852","2","""event"",""trial"",""time""
""fullscreenenter"",""1"",""1441""
","
","
","""event"",""trial"",""time""
""fullscreenenter"",""1"",""1441""
","
","","","","","","null","<div style=""font-size:60px;"">+</div>","null","","fixation","","","","","","","","",""
"memory-trial","156","350573","0.0-15.0-1.56","1852","2","""event"",""trial"",""time""
""fullscreenenter"",""1"",""1441""
","
","
","""event"",""trial"",""time""
""fullscreenenter"",""1"",""1441""
","
","","","","","","1000.1000000000931","images/cactus4.png","","","memory_trial","1","definitely_old","","","","","","",""
"html-keyboard-response","157","351078","0.0-15.0-0.57","1852","2","""event"",""trial"",""time""
""fullscreenenter"",""1"",""1441""
","
","
","""event"",""trial"",""time""
""fullscreenenter"",""1"",""1441""
","
","","","","","","null","<div style=""font-size:60px;"">+</div>","null","","fixation","","","","","","","","",""
"memory-trial","158","353399","0.0-15.0-1.57","1852","2","""event"",""trial"",""time""
""fullscreenenter"",""1"",""1441""
","
","
","""event"",""trial"",""time""
""fullscreenenter"",""1"",""1441""
","
","","","","","","1315.4000000001397","images/train2.png","","","memory_trial","1","definitely_old","","","","","","",""
"html-keyboard-response","159","353905","0.0-15.0-0.58","1852","2","""event"",""trial"",""time""
""fullscreenenter"",""1"",""1441""
","
","
","""event"",""trial"",""time""
""fullscreenenter"",""1"",""1441""
","
","","","","","","null","<div style=""font-size:60px;"">+</div>","null","","fixation","","","","","","","","",""
"memory-trial","160","356140","0.0-15.0-1.58","1852","2","""event"",""trial"",""time""
""fullscreenenter"",""1"",""1441""
","
","
","""event"",""trial"",""time""
""fullscreenenter"",""1"",""1441""
","
","","","","","","1231","images/orange3.png","","","memory_trial","3","maybe_new","","","","","","",""
"html-keyboard-response","161","356645","0.0-15.0-0.59","1852","2","""event"",""trial"",""time""
""fullscreenenter"",""1"",""1441""
","
","
","""event"",""trial"",""time""
""fullscreenenter"",""1"",""1441""
","
","","","","","","null","<div style=""font-size:60px;"">+</div>","null","","fixation","","","","","","","","",""
"memory-trial","162","360285","0.0-15.0-1.59","1852","2","""event"",""trial"",""time""
""fullscreenenter"",""1"",""1441""
","
","
","""event"",""trial"",""time""
""fullscreenenter"",""1"",""1441""
","
","","","","","","2635.0999999998603","images/bed2.png","","","memory_trial","3","maybe_new","","","","","","",""
"html-keyboard-response","163","360790","0.0-15.0-0.60","1852","2","""event"",""trial"",""time""
""fullscreenenter"",""1"",""1441""
","
","
","""event"",""trial"",""time""
""fullscreenenter"",""1"",""1441""
","
","","","","","","null","<div style=""font-size:60px;"">+</div>","null","","fixation","","","","","","","","",""
"memory-trial","164","363077","0.0-15.0-1.60","1852","2","""event"",""trial"",""time""
""fullscreenenter"",""1"",""1441""
","
","
","""event"",""trial"",""time""
""fullscreenenter"",""1"",""1441""
","
","","","","","","1281.3000000000466","images/tree5.png","","","memory_trial","1","definitely_old","","","","","","",""
"html-keyboard-response","165","363580","0.0-15.0-0.61","1852","2","""event"",""trial"",""time""
""fullscreenenter"",""1"",""1441""
","
","
","""event"",""trial"",""time""
""fullscreenenter"",""1"",""1441""
","
","","","","","","null","<div style=""font-size:60px;"">+</div>","null","","fixation","","","","","","","","",""
"memory-trial","166","365381","0.0-15.0-1.61","1852","2","""event"",""trial"",""time""
""fullscreenenter"",""1"",""1441""
","
","
","""event"",""trial"",""time""
""fullscreenenter"",""1"",""1441""
","
","","","","","","794.4000000001397","images/flower1.png","","","memory_trial","4","definitely_new","","","","","","",""
"html-keyboard-response","167","365887","0.0-15.0-0.62","1852","2","""event"",""trial"",""time""
""fullscreenenter"",""1"",""1441""
","
","
","""event"",""trial"",""time""
""fullscreenenter"",""1"",""1441""
","
","","","","","","null","<div style=""font-size:60px;"">+</div>","null","","fixation","","","","","","","","",""
"memory-trial","168","368447","0.0-15.0-1.62","1852","2","""event"",""trial"",""time""
""fullscreenenter"",""1"",""1441""
","
","
","""event"",""trial"",""time""
""fullscreenenter"",""1"",""1441""
","
","","","","","","1555.5","images/straw5.png","","","memory_trial","4","definitely_new","","","","","","",""
"html-keyboard-response","169","368952","0.0-15.0-0.63","1852","2","""event"",""trial"",""time""
""fullscreenenter"",""1"",""1441""
","
","
","""event"",""trial"",""time""
""fullscreenenter"",""1"",""1441""
","
","","","","","","null","<div style=""font-size:60px;"">+</div>","null","","fixation","","","","","","","","",""
"memory-trial","170","371030","0.0-15.0-1.63","1852","2","""event"",""trial"",""time""
""fullscreenenter"",""1"",""1441""
","
","
","""event"",""trial"",""time""
""fullscreenenter"",""1"",""1441""
","
","","","","","","1074.8000000000466","images/feline1.png","","","memory_trial","4","definitely_new","","","","","","",""
"html-keyboard-response","171","371535","0.0-15.0-0.64","1852","2","""event"",""trial"",""time""
""fullscreenenter"",""1"",""1441""
","
","
","""event"",""trial"",""time""
""fullscreenenter"",""1"",""1441""
","
","","","","","","null","<div style=""font-size:60px;"">+</div>","null","","fixation","","","","","","","","",""
"memory-trial","172","373364","0.0-15.0-1.64","1852","2","""event"",""trial"",""time""
""fullscreenenter"",""1"",""1441""
","
","
","""event"",""trial"",""time""
""fullscreenenter"",""1"",""1441""
","
","","","","","","825.5","images/table1.png","","","memory_trial","4","definitely_new","","","","","","",""
"html-keyboard-response","173","373869","0.0-15.0-0.65","1852","2","""event"",""trial"",""time""
""fullscreenenter"",""1"",""1441""
","
","
","""event"",""trial"",""time""
""fullscreenenter"",""1"",""1441""
","
","","","","","","null","<div style=""font-size:60px;"">+</div>","null","","fixation","","","","","","","","",""
"memory-trial","174","377532","0.0-15.0-1.65","1852","2","""event"",""trial"",""time""
""fullscreenenter"",""1"",""1441""
","
","
","""event"",""trial"",""time""
""fullscreenenter"",""1"",""1441""
","
","","","","","","2658","images/cow5.png","","","memory_trial","2","maybe_old","","","","","","",""
"html-keyboard-response","175","378036","0.0-15.0-0.66","1852","2","""event"",""trial"",""time""
""fullscreenenter"",""1"",""1441""
","
","
","""event"",""trial"",""time""
""fullscreenenter"",""1"",""1441""
","
","","","","","","null","<div style=""font-size:60px;"">+</div>","null","","fixation","","","","","","","","",""
"memory-trial","176","379918","0.0-15.0-1.66","1852","2","""event"",""trial"",""time""
""fullscreenenter"",""1"",""1441""
","
","
","""event"",""trial"",""time""
""fullscreenenter"",""1"",""1441""
","
","","","","","","875","images/horse5.png","","","memory_trial","4","definitely_new","","","","","","",""
"html-keyboard-response","177","380423","0.0-15.0-0.67","1852","2","""event"",""trial"",""time""
""fullscreenenter"",""1"",""1441""
","
","
","""event"",""trial"",""time""
""fullscreenenter"",""1"",""1441""
","
","","","","","","null","<div style=""font-size:60px;"">+</div>","null","","fixation","","","","","","","","",""
"memory-trial","178","382919","0.0-15.0-1.67","1852","2","""event"",""trial"",""time""
""fullscreenenter"",""1"",""1441""
","
","
","""event"",""trial"",""time""
""fullscreenenter"",""1"",""1441""
","
","","","","","","1492.3000000000466","images/feline5.png","","","memory_trial","1","definitely_old","","","","","","",""
"html-keyboard-response","179","383424","0.0-15.0-0.68","1852","2","""event"",""trial"",""time""
""fullscreenenter"",""1"",""1441""
","
","
","""event"",""trial"",""time""
""fullscreenenter"",""1"",""1441""
","
","","","","","","null","<div style=""font-size:60px;"">+</div>","null","","fixation","","","","","","","","",""
"memory-trial","180","385473","0.0-15.0-1.68","1852","2","""event"",""trial"",""time""
""fullscreenenter"",""1"",""1441""
","
","
","""event"",""trial"",""time""
""fullscreenenter"",""1"",""1441""
","
","","","","","","1044.1000000000931","images/dog2.png","","","memory_trial","1","definitely_old","","","","","","",""
"html-keyboard-response","181","385978","0.0-15.0-0.69","1852","2","""event"",""trial"",""time""
""fullscreenenter"",""1"",""1441""
","
","
","""event"",""trial"",""time""
""fullscreenenter"",""1"",""1441""
","
","","","","","","null","<div style=""font-size:60px;"">+</div>","null","","fixation","","","","","","","","",""
"memory-trial","182","388097","0.0-15.0-1.69","1852","2","""event"",""trial"",""time""
""fullscreenenter"",""1"",""1441""
","
","
","""event"",""trial"",""time""
""fullscreenenter"",""1"",""1441""
","
","","","","","","1113.8000000000466","images/dog3.png","","","memory_trial","4","definitely_new","","","","","","",""
"html-keyboard-response","183","388602","0.0-15.0-0.70","1852","2","""event"",""trial"",""time""
""fullscreenenter"",""1"",""1441""
","
","
","""event"",""trial"",""time""
""fullscreenenter"",""1"",""1441""
","
","","","","","","null","<div style=""font-size:60px;"">+</div>","null","","fixation","","","","","","","","",""
"memory-trial","184","391087","0.0-15.0-1.70","1852","2","""event"",""trial"",""time""
""fullscreenenter"",""1"",""1441""
","
","
","""event"",""trial"",""time""
""fullscreenenter"",""1"",""1441""
","
","","","","","","1479.6999999999534","images/train4.png","","","memory_trial","3","maybe_new","","","","","","",""
"html-keyboard-response","185","391592","0.0-15.0-0.71","1852","2","""event"",""trial"",""time""
""fullscreenenter"",""1"",""1441""
","
","
","""event"",""trial"",""time""
""fullscreenenter"",""1"",""1441""
","
","","","","","","null","<div style=""font-size:60px;"">+</div>","null","","fixation","","","","","","","","",""
"memory-trial","186","393380","0.0-15.0-1.71","1852","2","""event"",""trial"",""time""
""fullscreenenter"",""1"",""1441""
","
","
","""event"",""trial"",""time""
""fullscreenenter"",""1"",""1441""
","
","","","","","","785.6999999999534","images/horse1.png","","","memory_trial","4","definitely_new","","","","","","",""
"html-keyboard-response","187","393885","0.0-15.0-0.72","1852","2","""event"",""trial"",""time""
""fullscreenenter"",""1"",""1441""
","
","
","""event"",""trial"",""time""
""fullscreenenter"",""1"",""1441""
","
","","","","","","null","<div style=""font-size:60px;"">+</div>","null","","fixation","","","","","","","","",""
"memory-trial","188","395563","0.0-15.0-1.72","1852","2","""event"",""trial"",""time""
""fullscreenenter"",""1"",""1441""
","
","
","""event"",""trial"",""time""
""fullscreenenter"",""1"",""1441""
","
","","","","","","673.0999999998603","images/flower3.png","","","memory_trial","4","definitely_new","","","","","","",""
"html-keyboard-response","189","396068","0.0-15.0-0.73","1852","2","""event"",""trial"",""time""
""fullscreenenter"",""1"",""1441""
","
","
","""event"",""trial"",""time""
""fullscreenenter"",""1"",""1441""
","
","","","","","","null","<div style=""font-size:60px;"">+</div>","null","","fixation","","","","","","","","",""
"memory-trial","190","399115","0.0-15.0-1.73","1852","2","""event"",""trial"",""time""
""fullscreenenter"",""1"",""1441""
","
","
","""event"",""trial"",""time""
""fullscreenenter"",""1"",""1441""
","
","","","","","","2040.6999999999534","images/sheep4.png","","","memory_trial","3","maybe_new","","","","","","",""
"html-keyboard-response","191","399617","0.0-15.0-0.74","1852","2","""event"",""trial"",""time""
""fullscreenenter"",""1"",""1441""
","
","
","""event"",""trial"",""time""
""fullscreenenter"",""1"",""1441""
","
","","","","","","null","<div style=""font-size:60px;"">+</div>","null","","fixation","","","","","","","","",""
"memory-trial","192","401960","0.0-15.0-1.74","1852","2","""event"",""trial"",""time""
""fullscreenenter"",""1"",""1441""
","
","
","""event"",""trial"",""time""
""fullscreenenter"",""1"",""1441""
","
","","","","","","1336","images/feline3.png","","","memory_trial","3","maybe_new","","","","","","",""
"html-keyboard-response","193","402465","0.0-15.0-0.75","1852","2","""event"",""trial"",""time""
""fullscreenenter"",""1"",""1441""
","
","
","""event"",""trial"",""time""
""fullscreenenter"",""1"",""1441""
","
","","","","","","null","<div style=""font-size:60px;"">+</div>","null","","fixation","","","","","","","","",""
"memory-trial","194","404944","0.0-15.0-1.75","1852","2","""event"",""trial"",""time""
""fullscreenenter"",""1"",""1441""
","
","
","""event"",""trial"",""time""
""fullscreenenter"",""1"",""1441""
","
","","","","","","1476.1999999999534","images/bed3.png","","","memory_trial","1","definitely_old","","","","","","",""
"html-keyboard-response","195","405449","0.0-15.0-0.76","1852","2","""event"",""trial"",""time""
""fullscreenenter"",""1"",""1441""
","
","
","""event"",""trial"",""time""
""fullscreenenter"",""1"",""1441""
","
","","","","","","null","<div style=""font-size:60px;"">+</div>","null","","fixation","","","","","","","","",""
"memory-trial","196","408555","0.0-15.0-1.76","1852","2","""event"",""trial"",""time""
""fullscreenenter"",""1"",""1441""
","
","
","""event"",""trial"",""time""
""fullscreenenter"",""1"",""1441""
","
","","","","","","2102.5","images/sheep2.png","","","memory_trial","3","maybe_new","","","","","","",""
"html-keyboard-response","197","409060","0.0-15.0-0.77","1852","2","""event"",""trial"",""time""
""fullscreenenter"",""1"",""1441""
","
","
","""event"",""trial"",""time""
""fullscreenenter"",""1"",""1441""
","
","","","","","","null","<div style=""font-size:60px;"">+</div>","null","","fixation","","","","","","","","",""
"memory-trial","198","411411","0.0-15.0-1.77","1852","2","""event"",""trial"",""time""
""fullscreenenter"",""1"",""1441""
","
","
","""event"",""trial"",""time""
""fullscreenenter"",""1"",""1441""
","
","","","","","","1345","images/tree2.png","","","memory_trial","4","definitely_new","","","","","","",""
"html-keyboard-response","199","411916","0.0-15.0-0.78","1852","2","""event"",""trial"",""time""
""fullscreenenter"",""1"",""1441""
","
","
","""event"",""trial"",""time""
""fullscreenenter"",""1"",""1441""
","
","","","","","","null","<div style=""font-size:60px;"">+</div>","null","","fixation","","","","","","","","",""
"memory-trial","200","414133","0.0-15.0-1.78","1852","2","""event"",""trial"",""time""
""fullscreenenter"",""1"",""1441""
","
","
","""event"",""trial"",""time""
""fullscreenenter"",""1"",""1441""
","
","","","","","","1210.3000000000466","images/feline4.png","","","memory_trial","1","definitely_old","","","","","","",""
"html-keyboard-response","201","414638","0.0-15.0-0.79","1852","2","""event"",""trial"",""time""
""fullscreenenter"",""1"",""1441""
","
","
","""event"",""trial"",""time""
""fullscreenenter"",""1"",""1441""
","
","","","","","","null","<div style=""font-size:60px;"">+</div>","null","","fixation","","","","","","","","",""
"memory-trial","202","417756","0.0-15.0-1.79","1852","2","""event"",""trial"",""time""
""fullscreenenter"",""1"",""1441""
","
","
","""event"",""trial"",""time""
""fullscreenenter"",""1"",""1441""
","
","","","","","","2115.1999999999534","images/sheep1.png","","","memory_trial","1","definitely_old","","","","","","",""
"html-keyboard-response","203","418261","0.0-15.0-0.80","1852","2","""event"",""trial"",""time""
""fullscreenenter"",""1"",""1441""
","
","
","""event"",""trial"",""time""
""fullscreenenter"",""1"",""1441""
","
","","","","","","null","<div style=""font-size:60px;"">+</div>","null","","fixation","","","","","","","","",""
"memory-trial","204","421645","0.0-15.0-1.80","1852","2","""event"",""trial"",""time""
""fullscreenenter"",""1"",""1441""
","
","
","""event"",""trial"",""time""
""fullscreenenter"",""1"",""1441""
","
","","","","","","2380.3000000000466","images/bush5.png","","","memory_trial","3","maybe_new","","","","","","",""
"html-keyboard-response","205","422150","0.0-15.0-0.81","1852","2","""event"",""trial"",""time""
""fullscreenenter"",""1"",""1441""
","
","
","""event"",""trial"",""time""
""fullscreenenter"",""1"",""1441""
","
","","","","","","null","<div style=""font-size:60px;"">+</div>","null","","fixation","","","","","","","","",""
"memory-trial","206","424791","0.0-15.0-1.81","1852","2","""event"",""trial"",""time""
""fullscreenenter"",""1"",""1441""
","
","
","""event"",""trial"",""time""
""fullscreenenter"",""1"",""1441""
","
","","","","","","1637","images/orange5.png","","","memory_trial","2","maybe_old","","","","","","",""
"html-keyboard-response","207","425297","0.0-15.0-0.82","1852","2","""event"",""trial"",""time""
""fullscreenenter"",""1"",""1441""
","
","
","""event"",""trial"",""time""
""fullscreenenter"",""1"",""1441""
","
","","","","","","null","<div style=""font-size:60px;"">+</div>","null","","fixation","","","","","","","","",""
"memory-trial","208","427555","0.0-15.0-1.82","1852","2","""event"",""trial"",""time""
""fullscreenenter"",""1"",""1441""
","
","
","""event"",""trial"",""time""
""fullscreenenter"",""1"",""1441""
","
","","","","","","1254","images/train5.png","","","memory_trial","1","definitely_old","","","","","","",""
"html-keyboard-response","209","428057","0.0-15.0-0.83","1852","2","""event"",""trial"",""time""
""fullscreenenter"",""1"",""1441""
","
","
","""event"",""trial"",""time""
""fullscreenenter"",""1"",""1441""
","
","","","","","","null","<div style=""font-size:60px;"">+</div>","null","","fixation","","","","","","","","",""
"memory-trial","210","429790","0.0-15.0-1.83","1852","2","""event"",""trial"",""time""
""fullscreenenter"",""1"",""1441""
","
","
","""event"",""trial"",""time""
""fullscreenenter"",""1"",""1441""
","
","","","","","","730.3000000000466","images/truck3.png","","","memory_trial","4","definitely_new","","","","","","",""
"html-keyboard-response","211","430295","0.0-15.0-0.84","1852","2","""event"",""trial"",""time""
""fullscreenenter"",""1"",""1441""
","
","
","""event"",""trial"",""time""
""fullscreenenter"",""1"",""1441""
","
","","","","","","null","<div style=""font-size:60px;"">+</div>","null","","fixation","","","","","","","","",""
"memory-trial","212","432768","0.0-15.0-1.84","1852","2","""event"",""trial"",""time""
""fullscreenenter"",""1"",""1441""
","
","
","""event"",""trial"",""time""
""fullscreenenter"",""1"",""1441""
","
","","","","","","1469.5","images/banana1.png","","","memory_trial","4","definitely_new","","","","","","",""
"html-keyboard-response","213","433273","0.0-15.0-0.85","1852","2","""event"",""trial"",""time""
""fullscreenenter"",""1"",""1441""
","
","
","""event"",""trial"",""time""
""fullscreenenter"",""1"",""1441""
","
","","","","","","null","<div style=""font-size:60px;"">+</div>","null","","fixation","","","","","","","","",""
"memory-trial","214","434933","0.0-15.0-1.85","1852","2","""event"",""trial"",""time""
""fullscreenenter"",""1"",""1441""
","
","
","""event"",""trial"",""time""
""fullscreenenter"",""1"",""1441""
","
","","","","","","657.5999999998603","images/horse2.png","","","memory_trial","4","definitely_new","","","","","","",""
"html-keyboard-response","215","435438","0.0-15.0-0.86","1852","2","""event"",""trial"",""time""
""fullscreenenter"",""1"",""1441""
","
","
","""event"",""trial"",""time""
""fullscreenenter"",""1"",""1441""
","
","","","","","","null","<div style=""font-size:60px;"">+</div>","null","","fixation","","","","","","","","",""
"memory-trial","216","437238","0.0-15.0-1.86","1852","2","""event"",""trial"",""time""
""fullscreenenter"",""1"",""1441""
","
","
","""event"",""trial"",""time""
""fullscreenenter"",""1"",""1441""
","
","","","","","","795.1000000000931","images/bed4.png","","","memory_trial","4","definitely_new","","","","","","",""
"html-keyboard-response","217","437743","0.0-15.0-0.87","1852","2","""event"",""trial"",""time""
""fullscreenenter"",""1"",""1441""
","
","
","""event"",""trial"",""time""
""fullscreenenter"",""1"",""1441""
","
","","","","","","null","<div style=""font-size:60px;"">+</div>","null","","fixation","","","","","","","","",""
"memory-trial","218","440900","0.0-15.0-1.87","1852","2","""event"",""trial"",""time""
""fullscreenenter"",""1"",""1441""
","
","
","""event"",""trial"",""time""
""fullscreenenter"",""1"",""1441""
","
","","","","","","2149.6999999999534","images/rodent1.png","","","memory_trial","3","maybe_new","","","","","","",""
"html-keyboard-response","219","441406","0.0-15.0-0.88","1852","2","""event"",""trial"",""time""
""fullscreenenter"",""1"",""1441""
","
","
","""event"",""trial"",""time""
""fullscreenenter"",""1"",""1441""
","
","","","","","","null","<div style=""font-size:60px;"">+</div>","null","","fixation","","","","","","","","",""
"memory-trial","220","443248","0.0-15.0-1.88","1852","2","""event"",""trial"",""time""
""fullscreenenter"",""1"",""1441""
","
","
","""event"",""trial"",""time""
""fullscreenenter"",""1"",""1441""
","
","","","","","","838","images/cactus1.png","","","memory_trial","1","definitely_old","","","","","","",""
"html-keyboard-response","221","443751","0.0-15.0-0.89","1852","2","""event"",""trial"",""time""
""fullscreenenter"",""1"",""1441""
","
","
","""event"",""trial"",""time""
""fullscreenenter"",""1"",""1441""
","
","","","","","","null","<div style=""font-size:60px;"">+</div>","null","","fixation","","","","","","","","",""
"memory-trial","222","446300","0.0-15.0-1.89","1852","2","""event"",""trial"",""time""
""fullscreenenter"",""1"",""1441""
","
","
","""event"",""trial"",""time""
""fullscreenenter"",""1"",""1441""
","
","","","","","","1540.7999999998137","images/orange2.png","","","memory_trial","3","maybe_new","","","","","","",""
"html-keyboard-response","223","446805","0.0-15.0-0.90","1852","2","""event"",""trial"",""time""
""fullscreenenter"",""1"",""1441""
","
","
","""event"",""trial"",""time""
""fullscreenenter"",""1"",""1441""
","
","","","","","","null","<div style=""font-size:60px;"">+</div>","null","","fixation","","","","","","","","",""
"memory-trial","224","448780","0.0-15.0-1.90","1852","2","""event"",""trial"",""time""
""fullscreenenter"",""1"",""1441""
","
","
","""event"",""trial"",""time""
""fullscreenenter"",""1"",""1441""
","
","","","","","","972.3000000000466","images/table2.png","","","memory_trial","4","definitely_new","","","","","","",""
"html-keyboard-response","225","449285","0.0-15.0-0.91","1852","2","""event"",""trial"",""time""
""fullscreenenter"",""1"",""1441""
","
","
","""event"",""trial"",""time""
""fullscreenenter"",""1"",""1441""
","
","","","","","","null","<div style=""font-size:60px;"">+</div>","null","","fixation","","","","","","","","",""
"memory-trial","226","451281","0.0-15.0-1.91","1852","2","""event"",""trial"",""time""
""fullscreenenter"",""1"",""1441""
","
","
","""event"",""trial"",""time""
""fullscreenenter"",""1"",""1441""
","
","","","","","","988.3999999999069","images/train1.png","","","memory_trial","1","definitely_old","","","","","","",""
"html-keyboard-response","227","451786","0.0-15.0-0.92","1852","2","""event"",""trial"",""time""
""fullscreenenter"",""1"",""1441""
","
","
","""event"",""trial"",""time""
""fullscreenenter"",""1"",""1441""
","
","","","","","","null","<div style=""font-size:60px;"">+</div>","null","","fixation","","","","","","","","",""
"memory-trial","228","453934","0.0-15.0-1.92","1852","2","""event"",""trial"",""time""
""fullscreenenter"",""1"",""1441""
","
","
","""event"",""trial"",""time""
""fullscreenenter"",""1"",""1441""
","
","","","","","","1144.5999999998603","images/goat4.png","","","memory_trial","1","definitely_old","","","","","","",""
"html-keyboard-response","229","454439","0.0-15.0-0.93","1852","2","""event"",""trial"",""time""
""fullscreenenter"",""1"",""1441""
","
","
","""event"",""trial"",""time""
""fullscreenenter"",""1"",""1441""
","
","","","","","","null","<div style=""font-size:60px;"">+</div>","null","","fixation","","","","","","","","",""
"memory-trial","230","456970","0.0-15.0-1.93","1852","2","""event"",""trial"",""time""
""fullscreenenter"",""1"",""1441""
","
","
","""event"",""trial"",""time""
""fullscreenenter"",""1"",""1441""
","
","","","","","","1528.5","images/rodent3.png","","","memory_trial","3","maybe_new","","","","","","",""
"html-keyboard-response","231","457475","0.0-15.0-0.94","1852","2","""event"",""trial"",""time""
""fullscreenenter"",""1"",""1441""
","
","
","""event"",""trial"",""time""
""fullscreenenter"",""1"",""1441""
","
","","","","","","null","<div style=""font-size:60px;"">+</div>","null","","fixation","","","","","","","","",""
"memory-trial","232","460615","0.0-15.0-1.94","1852","2","""event"",""trial"",""time""
""fullscreenenter"",""1"",""1441""
","
","
","""event"",""trial"",""time""
""fullscreenenter"",""1"",""1441""
","
","","","","","","2134","images/plane4.png","","","memory_trial","2","maybe_old","","","","","","",""
"html-keyboard-response","233","461120","0.0-15.0-0.95","1852","2","""event"",""trial"",""time""
""fullscreenenter"",""1"",""1441""
","
","
","""event"",""trial"",""time""
""fullscreenenter"",""1"",""1441""
","
","","","","","","null","<div style=""font-size:60px;"">+</div>","null","","fixation","","","","","","","","",""
"memory-trial","234","464098","0.0-15.0-1.95","1852","2","""event"",""trial"",""time""
""fullscreenenter"",""1"",""1441""
","
","
","""event"",""trial"",""time""
""fullscreenenter"",""1"",""1441""
","
","","","","","","1971.5999999998603","images/train3.png","","","memory_trial","1","definitely_old","","","","","","",""
"html-keyboard-response","235","464603","0.0-15.0-0.96","1852","2","""event"",""trial"",""time""
""fullscreenenter"",""1"",""1441""
","
","
","""event"",""trial"",""time""
""fullscreenenter"",""1"",""1441""
","
","","","","","","null","<div style=""font-size:60px;"">+</div>","null","","fixation","","","","","","","","",""
"memory-trial","236","468219","0.0-15.0-1.96","1852","2","""event"",""trial"",""time""
""fullscreenenter"",""1"",""1441""
","
","
","""event"",""trial"",""time""
""fullscreenenter"",""1"",""1441""
","
","","","","","","2608.1999999999534","images/dog4.png","","","memory_trial","2","maybe_old","","","","","","",""
"html-keyboard-response","237","468725","0.0-15.0-0.97","1852","2","""event"",""trial"",""time""
""fullscreenenter"",""1"",""1441""
","
","
","""event"",""trial"",""time""
""fullscreenenter"",""1"",""1441""
","
","","","","","","null","<div style=""font-size:60px;"">+</div>","null","","fixation","","","","","","","","",""
"memory-trial","238","470913","0.0-15.0-1.97","1852","2","""event"",""trial"",""time""
""fullscreenenter"",""1"",""1441""
","
","
","""event"",""trial"",""time""
""fullscreenenter"",""1"",""1441""
","
","","","","","","1180.5999999998603","images/plane1.png","","","memory_trial","1","definitely_old","","","","","","",""
"html-keyboard-response","239","471419","0.0-15.0-0.98","1852","2","""event"",""trial"",""time""
""fullscreenenter"",""1"",""1441""
","
","
","""event"",""trial"",""time""
""fullscreenenter"",""1"",""1441""
","
","","","","","","null","<div style=""font-size:60px;"">+</div>","null","","fixation","","","","","","","","",""
"memory-trial","240","473114","0.0-15.0-1.98","1852","2","""event"",""trial"",""time""
""fullscreenenter"",""1"",""1441""
","
","
","""event"",""trial"",""time""
""fullscreenenter"",""1"",""1441""
","
","","","","","","691.5","images/bush2.png","","","memory_trial","1","definitely_old","","","","","","",""
"html-keyboard-response","241","473619","0.0-15.0-0.99","1852","2","""event"",""trial"",""time""
""fullscreenenter"",""1"",""1441""
","
","
","""event"",""trial"",""time""
""fullscreenenter"",""1"",""1441""
","
","","","","","","null","<div style=""font-size:60px;"">+</div>","null","","fixation","","","","","","","","",""
"memory-trial","242","476284","0.0-15.0-1.99","1852","2","""event"",""trial"",""time""
""fullscreenenter"",""1"",""1441""
","
","
","""event"",""trial"",""time""
""fullscreenenter"",""1"",""1441""
","
","","","","","","1658","images/sheep5.png","","","memory_trial","2","maybe_old","","","","","","",""
"html-keyboard-response","243","476788","0.0-15.0-0.100","1852","2","""event"",""trial"",""time""
""fullscreenenter"",""1"",""1441""
","
","
","""event"",""trial"",""time""
""fullscreenenter"",""1"",""1441""
","
","","","","","","null","<div style=""font-size:60px;"">+</div>","null","","fixation","","","","","","","","",""
"memory-trial","244","478623","0.0-15.0-1.100","1852","2","""event"",""trial"",""time""
""fullscreenenter"",""1"",""1441""
","
","
","""event"",""trial"",""time""
""fullscreenenter"",""1"",""1441""
","
","","","","","","829.1999999999534","images/boat2.png","","","memory_trial","1","definitely_old","","","","","","",""
"html-keyboard-response","245","479128","0.0-15.0-0.101","1852","2","""event"",""trial"",""time""
""fullscreenenter"",""1"",""1441""
","
","
","""event"",""trial"",""time""
""fullscreenenter"",""1"",""1441""
","
","","","","","","null","<div style=""font-size:60px;"">+</div>","null","","fixation","","","","","","","","",""
"memory-trial","246","482048","0.0-15.0-1.101","1852","2","""event"",""trial"",""time""
""fullscreenenter"",""1"",""1441""
","
","
","""event"",""trial"",""time""
""fullscreenenter"",""1"",""1441""
","
","","","","","","1916.8000000000466","images/chair1.png","","","memory_trial","2","maybe_old","","","","","","",""
"html-button-response","247","485995","0.0-15.0-2.101-0.101","1852","2","""event"",""trial"",""time""
""fullscreenenter"",""1"",""1441""
","
","
","""event"",""trial"",""time""
""fullscreenenter"",""1"",""1441""
","
","","","","","","3944.8000000000466","<p> Take a break! </p><p> Click the button to continue. </p>","0","","break","","","","","","","","",""
"html-keyboard-response","248","486497","0.0-15.0-0.102","1852","2","""event"",""trial"",""time""
""fullscreenenter"",""1"",""1441""
","
","
","""event"",""trial"",""time""
""fullscreenenter"",""1"",""1441""
","
","","","","","","null","<div style=""font-size:60px;"">+</div>","null","","fixation","","","","","","","","",""
"memory-trial","249","489693","0.0-15.0-1.102","1852","2","""event"",""trial"",""time""
""fullscreenenter"",""1"",""1441""
","
","
","""event"",""trial"",""time""
""fullscreenenter"",""1"",""1441""
","
","","","","","","2189.4000000001397","images/plane3.png","","","memory_trial","1","definitely_old","","","","","","",""
"html-keyboard-response","250","490198","0.0-15.0-0.103","1852","2","""event"",""trial"",""time""
""fullscreenenter"",""1"",""1441""
","
","
","""event"",""trial"",""time""
""fullscreenenter"",""1"",""1441""
","
","","","","","","null","<div style=""font-size:60px;"">+</div>","null","","fixation","","","","","","","","",""
"memory-trial","251","492317","0.0-15.0-1.103","1852","2","""event"",""trial"",""time""
""fullscreenenter"",""1"",""1441""
","
","
","""event"",""trial"",""time""
""fullscreenenter"",""1"",""1441""
","
","","","","","","1113.8000000000466","images/rabbit1.png","","","memory_trial","1","definitely_old","","","","","","",""
"html-keyboard-response","252","492822","0.0-15.0-0.104","1852","2","""event"",""trial"",""time""
""fullscreenenter"",""1"",""1441""
","
","
","""event"",""trial"",""time""
""fullscreenenter"",""1"",""1441""
","
","","","","","","null","<div style=""font-size:60px;"">+</div>","null","","fixation","","","","","","","","",""
"memory-trial","253","494558","0.0-15.0-1.104","1852","2","""event"",""trial"",""time""
""fullscreenenter"",""1"",""1441""
","
","
","""event"",""trial"",""time""
""fullscreenenter"",""1"",""1441""
","
","","","","","","729.3000000000466","images/sofa5.png","","","memory_trial","1","definitely_old","","","","","","",""
"html-keyboard-response","254","495063","0.0-15.0-0.105","1852","2","""event"",""trial"",""time""
""fullscreenenter"",""1"",""1441""
","
","
","""event"",""trial"",""time""
""fullscreenenter"",""1"",""1441""
","
","","","","","","null","<div style=""font-size:60px;"">+</div>","null","","fixation","","","","","","","","",""
"memory-trial","255","497118","0.0-15.0-1.105","1852","2","""event"",""trial"",""time""
""fullscreenenter"",""1"",""1441""
","
","
","""event"",""trial"",""time""
""fullscreenenter"",""1"",""1441""
","
","","","","","","1052.3000000000466","images/sofa2.png","","","memory_trial","4","definitely_new","","","","","","",""
"html-keyboard-response","256","497623","0.0-15.0-0.106","1852","2","""event"",""trial"",""time""
""fullscreenenter"",""1"",""1441""
","
","
","""event"",""trial"",""time""
""fullscreenenter"",""1"",""1441""
","
","","","","","","null","<div style=""font-size:60px;"">+</div>","null","","fixation","","","","","","","","",""
"memory-trial","257","499556","0.0-15.0-1.106","1852","2","""event"",""trial"",""time""
""fullscreenenter"",""1"",""1441""
","
","
","""event"",""trial"",""time""
""fullscreenenter"",""1"",""1441""
","
","","","","","","927.3999999999069","images/truck2.png","","","memory_trial","4","definitely_new","","","","","","",""
"html-keyboard-response","258","500061","0.0-15.0-0.107","1852","2","""event"",""trial"",""time""
""fullscreenenter"",""1"",""1441""
","
","
","""event"",""trial"",""time""
""fullscreenenter"",""1"",""1441""
","
","","","","","","null","<div style=""font-size:60px;"">+</div>","null","","fixation","","","","","","","","",""
"memory-trial","259","501770","0.0-15.0-1.107","1852","2","""event"",""trial"",""time""
""fullscreenenter"",""1"",""1441""
","
","
","""event"",""trial"",""time""
""fullscreenenter"",""1"",""1441""
","
","","","","","","704.7999999998137","images/cactus2.png","","","memory_trial","1","definitely_old","","","","","","",""
"html-keyboard-response","260","502273","0.0-15.0-0.108","1852","2","""event"",""trial"",""time""
""fullscreenenter"",""1"",""1441""
","
","
","""event"",""trial"",""time""
""fullscreenenter"",""1"",""1441""
","
","","","","","","null","<div style=""font-size:60px;"">+</div>","null","","fixation","","","","","","","","",""
"memory-trial","261","503976","0.0-15.0-1.108","1852","2","""event"",""trial"",""time""
""fullscreenenter"",""1"",""1441""
","
","
","""event"",""trial"",""time""
""fullscreenenter"",""1"",""1441""
","
","","","","","","699.2000000001863","images/apple4.png","","","memory_trial","4","definitely_new","","","","","","",""
"html-keyboard-response","262","504479","0.0-15.0-0.109","1852","2","""event"",""trial"",""time""
""fullscreenenter"",""1"",""1441""
","
","
","""event"",""trial"",""time""
""fullscreenenter"",""1"",""1441""
","
","","","","","","null","<div style=""font-size:60px;"">+</div>","null","","fixation","","","","","","","","",""
"memory-trial","263","506702","0.0-15.0-1.109","1852","2","""event"",""trial"",""time""
""fullscreenenter"",""1"",""1441""
","
","
","""event"",""trial"",""time""
""fullscreenenter"",""1"",""1441""
","
","","","","","","1216.1000000000931","images/cactus5.png","","","memory_trial","1","definitely_old","","","","","","",""
"html-keyboard-response","264","507208","0.0-15.0-0.110","1852","2","""event"",""trial"",""time""
""fullscreenenter"",""1"",""1441""
","
","
","""event"",""trial"",""time""
""fullscreenenter"",""1"",""1441""
","
","","","","","","null","<div style=""font-size:60px;"">+</div>","null","","fixation","","","","","","","","",""
"memory-trial","265","509367","0.0-15.0-1.110","1852","2","""event"",""trial"",""time""
""fullscreenenter"",""1"",""1441""
","
","
","""event"",""trial"",""time""
""fullscreenenter"",""1"",""1441""
","
","","","","","","1153.9000000001397","images/rodent5.png","","","memory_trial","4","definitely_new","","","","","","",""
"html-keyboard-response","266","509872","0.0-15.0-0.111","1852","2","""event"",""trial"",""time""
""fullscreenenter"",""1"",""1441""
","
","
","""event"",""trial"",""time""
""fullscreenenter"",""1"",""1441""
","
","","","","","","null","<div style=""font-size:60px;"">+</div>","null","","fixation","","","","","","","","",""
"memory-trial","267","511538","0.0-15.0-1.111","1852","2","""event"",""trial"",""time""
""fullscreenenter"",""1"",""1441""
","
","
","""event"",""trial"",""time""
""fullscreenenter"",""1"",""1441""
","
","","","","","","662.6999999999534","images/tree1.png","","","memory_trial","1","definitely_old","","","","","","",""
"html-keyboard-response","268","512043","0.0-15.0-0.112","1852","2","""event"",""trial"",""time""
""fullscreenenter"",""1"",""1441""
","
","
","""event"",""trial"",""time""
""fullscreenenter"",""1"",""1441""
","
","","","","","","null","<div style=""font-size:60px;"">+</div>","null","","fixation","","","","","","","","",""
"memory-trial","269","514377","0.0-15.0-1.112","1852","2","""event"",""trial"",""time""
""fullscreenenter"",""1"",""1441""
","
","
","""event"",""trial"",""time""
""fullscreenenter"",""1"",""1441""
","
","","","","","","1326.8000000000466","images/table4.png","","","memory_trial","1","definitely_old","","","","","","",""
"html-keyboard-response","270","514882","0.0-15.0-0.113","1852","2","""event"",""trial"",""time""
""fullscreenenter"",""1"",""1441""
","
","
","""event"",""trial"",""time""
""fullscreenenter"",""1"",""1441""
","
","","","","","","null","<div style=""font-size:60px;"">+</div>","null","","fixation","","","","","","","","",""
"memory-trial","271","517355","0.0-15.0-1.113","1852","2","""event"",""trial"",""time""
""fullscreenenter"",""1"",""1441""
","
","
","""event"",""trial"",""time""
""fullscreenenter"",""1"",""1441""
","
","","","","","","1466.8999999999069","images/rabbit5.png","","","memory_trial","2","maybe_old","","","","","","",""
"html-keyboard-response","272","517860","0.0-15.0-0.114","1852","2","""event"",""trial"",""time""
""fullscreenenter"",""1"",""1441""
","
","
","""event"",""trial"",""time""
""fullscreenenter"",""1"",""1441""
","
","","","","","","null","<div style=""font-size:60px;"">+</div>","null","","fixation","","","","","","","","",""
"memory-trial","273","520124","0.0-15.0-1.114","1852","2","""event"",""trial"",""time""
""fullscreenenter"",""1"",""1441""
","
","
","""event"",""trial"",""time""
""fullscreenenter"",""1"",""1441""
","
","","","","","","1260.5999999998603","images/table5.png","","","memory_trial","4","definitely_new","","","","","","",""
"html-keyboard-response","274","520629","0.0-15.0-0.115","1852","2","""event"",""trial"",""time""
""fullscreenenter"",""1"",""1441""
","
","
","""event"",""trial"",""time""
""fullscreenenter"",""1"",""1441""
","
","","","","","","null","<div style=""font-size:60px;"">+</div>","null","","fixation","","","","","","","","",""
"memory-trial","275","522690","0.0-15.0-1.115","1852","2","""event"",""trial"",""time""
""fullscreenenter"",""1"",""1441""
","
","
","""event"",""trial"",""time""
""fullscreenenter"",""1"",""1441""
","
","","","","","","1054.6999999999534","images/boat5.png","","","memory_trial","1","definitely_old","","","","","","",""
"html-keyboard-response","276","523195","0.0-15.0-0.116","1852","2","""event"",""trial"",""time""
""fullscreenenter"",""1"",""1441""
","
","
","""event"",""trial"",""time""
""fullscreenenter"",""1"",""1441""
","
","","","","","","null","<div style=""font-size:60px;"">+</div>","null","","fixation","","","","","","","","",""
"memory-trial","277","524977","0.0-15.0-1.116","1852","2","""event"",""trial"",""time""
""fullscreenenter"",""1"",""1441""
","
","
","""event"",""trial"",""time""
""fullscreenenter"",""1"",""1441""
","
","","","","","","777.1999999999534","images/horse4.png","","","memory_trial","4","definitely_new","","","","","","",""
"html-keyboard-response","278","525482","0.0-15.0-0.117","1852","2","""event"",""trial"",""time""
""fullscreenenter"",""1"",""1441""
","
","
","""event"",""trial"",""time""
""fullscreenenter"",""1"",""1441""
","
","","","","","","null","<div style=""font-size:60px;"">+</div>","null","","fixation","","","","","","","","",""
"memory-trial","279","528578","0.0-15.0-1.117","1852","2","""event"",""trial"",""time""
""fullscreenenter"",""1"",""1441""
","
","
","""event"",""trial"",""time""
""fullscreenenter"",""1"",""1441""
","
","","","","","","2092.5","images/sofa1.png","","","memory_trial","2","maybe_old","","","","","","",""
"html-keyboard-response","280","529083","0.0-15.0-0.118","1852","2","""event"",""trial"",""time""
""fullscreenenter"",""1"",""1441""
","
","
","""event"",""trial"",""time""
""fullscreenenter"",""1"",""1441""
","
","","","","","","null","<div style=""font-size:60px;"">+</div>","null","","fixation","","","","","","","","",""
"memory-trial","281","531909","0.0-15.0-1.118","1852","2","""event"",""trial"",""time""
""fullscreenenter"",""1"",""1441""
","
","
","""event"",""trial"",""time""
""fullscreenenter"",""1"",""1441""
","
","","","","","","1819.6999999999534","images/boat3.png","","","memory_trial","1","definitely_old","","","","","","",""
"html-keyboard-response","282","532414","0.0-15.0-0.119","1852","2","""event"",""trial"",""time""
""fullscreenenter"",""1"",""1441""
","
","
","""event"",""trial"",""time""
""fullscreenenter"",""1"",""1441""
","
","","","","","","null","<div style=""font-size:60px;"">+</div>","null","","fixation","","","","","","","","",""
"memory-trial","283","533975","0.0-15.0-1.119","1852","2","""event"",""trial"",""time""
""fullscreenenter"",""1"",""1441""
","
","
","""event"",""trial"",""time""
""fullscreenenter"",""1"",""1441""
","
","","","","","","558.5","images/horse3.png","","","memory_trial","4","definitely_new","","","","","","",""
"preload","284","535861","0.0-16.0","1852","2","""event"",""trial"",""time""
""fullscreenenter"",""1"",""1441""
","
","
","""event"",""trial"",""time""
""fullscreenenter"",""1"",""1441""
","
","true","false","[]","[]","[]","","","","","","","","","","","","","",""
"learning-instructions","285","542421","0.0-17.0-0.0-0.0-0.0","1852","2","""event"",""trial"",""time""
""fullscreenenter"",""1"",""1441""
","
","
","""event"",""trial"",""time""
""fullscreenenter"",""1"",""1441""
","
","","","","","","3119.2000000001863","<p> We're now going to ask you to deliver furniture again. </p>","","0","instructions","","","","","","","","",""
"learning-instructions","286","549822","0.0-17.0-0.0-0.0-0.1","1852","2","""event"",""trial"",""time""
""fullscreenenter"",""1"",""1441""
","
","
","""event"",""trial"",""time""
""fullscreenenter"",""1"",""1441""
","
","","","","","","1110.8999999999069","<p> On each trial, you will see a furniture item. Select the building where you think the furniture item belongs. </p>","","0","instructions","","","","","","","","",""
"learning-instructions","287","557117","0.0-17.0-0.0-0.0-0.2","1852","2","""event"",""trial"",""time""
""fullscreenenter"",""1"",""1441""
","
","
","""event"",""trial"",""time""
""fullscreenenter"",""1"",""1441""
","
","","","","","","232.10000000009313","<p> To make your selection, think about what you learned last week. You will NOT receive any feedback about your choice. </p>","","0","instructions","","","","","","","","",""
"learning-instructions","288","566515","0.0-17.0-0.0-0.0-0.3","1852","2","""event"",""trial"",""time""
""fullscreenenter"",""1"",""1441""
","
","
","""event"",""trial"",""time""
""fullscreenenter"",""1"",""1441""
","
","","","","","","1112.8999999999069","<p> You should use the 1 key to select the building on the left, the 2 key to select the building in the middle, and the 3 key to select the building on the right. </p><br><div class=""choice-mem-instructions-grid""> <div class=""choice-mem-option""><img src=""images/furniture_choice1.png"" class=""choice-mem-option-img"" stage=""instructions"" position=""0"" ><div class=""choice-mem-option-text""> Press ""1."" </div></div><div class=""choice-mem-option""><img src=""images/furniture_choice2.png"" class=""choice-mem-option-img"" stage=""instructions"" position=""1"" ><div class=""choice-mem-option-text""> Press ""2."" </div></div><div class=""choice-mem-option""><img src=""images/furniture_choice3.png"" class=""choice-mem-option-img"" stage=""instructions"" position=""2"" ><div class=""choice-mem-option-text""> Press ""3."" </div></div></div>","","0","instructions","","","","","","","","",""
"learning-instructions","289","574596","0.0-17.0-0.0-0.0-0.4","1852","2","""event"",""trial"",""time""
""fullscreenenter"",""1"",""1441""
","
","
","""event"",""trial"",""time""
""fullscreenenter"",""1"",""1441""
","
","","","","","","1816.3000000000466","<p> You will have 10 seconds to make each selection. Try to respond before time runs out! </p>","","0","instructions","","","","","","","","",""
"learning-instructions","290","577495","0.0-17.0-0.0-1.0","1852","2","""event"",""trial"",""time""
""fullscreenenter"",""1"",""1441""
","
","
","""event"",""trial"",""time""
""fullscreenenter"",""1"",""1441""
","
","","","","","","837.8000000000466","<p> You are now ready to begin the game. </p>","","0","instructions","","","","","","","","",""
"html-keyboard-response","291","578102","0.0-17.0-0.0-2.0-0.0","1852","2","""event"",""trial"",""time""
""fullscreenenter"",""1"",""1441""
","
","
","""event"",""trial"",""time""
""fullscreenenter"",""1"",""1441""
","
","","","","","","null","<div style=""font-size:60px;"">+</div>","null","","fixation","","","","","","","","",""
"choice-memory-trial","292","581609","0.0-17.0-0.0-2.0-1.0","1852","2","""event"",""trial"",""time""
""fullscreenenter"",""1"",""1441""
","
","
","""event"",""trial"",""time""
""fullscreenenter"",""1"",""1441""
","
