"trial_type","trial_index","time_elapsed","internal_node_id","subject_id","task_version","interactions","blur_events","focus_events","fullscreenenter_events","fullscreenexit_events","success","timeout","failed_images","failed_audio","failed_video","rt","stimulus","response"
"pavlovia","0","2","0.0-0.0","1696","2","""event"",""trial"",""time""
""fullscreenenter"",""1"",""1477""
","
","
","""event"",""trial"",""time""
""fullscreenenter"",""1"",""1477""
","
","","","","","","","",""
"fullscreen","1","2435","0.0-1.0","1696","2","""event"",""trial"",""time""
""fullscreenenter"",""1"",""1477""
","
","
","""event"",""trial"",""time""
""fullscreenenter"",""1"",""1477""
","
","true","","","","","","",""
"preload","2","2530","0.0-2.0","1696","2","""event"",""trial"",""time""
""fullscreenenter"",""1"",""1477""
","
","
","""event"",""trial"",""time""
""fullscreenenter"",""1"",""1477""
","
","true","false","[]","[]","[]","","",""
"audio-keyboard-response","3","2911","0.0-3.0","1696","2","""event"",""trial"",""time""
""fullscreenenter"",""1"",""1477""
","
","
","""event"",""trial"",""time""
""fullscreenenter"",""1"",""1477""
","
","","","","","","0","audio/beep_loop.wav","audiovolumedown"
"audio-button-response","4","4637","0.0-4.0","1696","2","""event"",""trial"",""time""
""fullscreenenter"",""1"",""1477""
","
","
","""event"",""trial"",""time""
""fullscreenenter"",""1"",""1477""
","
","","","","","","981","audio/turtle.wav","3"
"audio-button-response","5","6674","0.0-5.0","1696","2","""event"",""trial"",""time""
""fullscreenenter"",""1"",""1477""
""fullscreenexit"",""6"",""10973""
""blur"",""6"",""356882""
""focus"",""6"",""356888""
","""event"",""trial"",""time""
""blur"",""6"",""356882""
","""event"",""trial"",""time""
""focus"",""6"",""356888""
","""event"",""trial"",""time""
""fullscreenenter"",""1"",""1477""
","""event"",""trial"",""time""
""fullscreenexit"",""6"",""10973""
","","","","","","1032","audio/shark.wav","2"
