"trial_type","trial_index","time_elapsed","internal_node_id","subject_id","task_version","interactions","blur_events","focus_events","fullscreenenter_events","fullscreenexit_events","success","timeout","failed_images","failed_audio","failed_video","rt","stimulus","response","button_pressed","task_part","key_press","answer","correct","left_choice","middle_choice","right_choice","choice_positions","option_selected","block"
"pavlovia","0","2","0.0-0.0","1736","2","""event"",""trial"",""time""
""fullscreenenter"",""1"",""5087""
","
","
","""event"",""trial"",""time""
""fullscreenenter"",""1"",""5087""
","
","","","","","","","","","","","","","","","","","","",""
"fullscreen","1","6065","0.0-1.0","1736","2","""event"",""trial"",""time""
""fullscreenenter"",""1"",""5087""
","
","
","""event"",""trial"",""time""
""fullscreenenter"",""1"",""5087""
","
","true","","","","","","","","","","","","","","","","","",""
"preload","2","7147","0.0-2.0","1736","2","""event"",""trial"",""time""
""fullscreenenter"",""1"",""5087""
","
","
","""event"",""trial"",""time""
""fullscreenenter"",""1"",""5087""
","
","true","false","[]","[]","[]","","","","","","","","","","","","","",""
"audio-keyboard-response","3","19214","0.0-3.0","1736","2","""event"",""trial"",""time""
""fullscreenenter"",""1"",""5087""
","
","
","""event"",""trial"",""time""
""fullscreenenter"",""1"",""5087""
","
","","","","","","12069.333333333334","audio/beep_loop.wav"," ","","","","","","","","","","",""
"audio-button-response","4","23883","0.0-4.0","1736","2","""event"",""trial"",""time""
""fullscreenenter"",""1"",""5087""
","
","
","""event"",""trial"",""time""
""fullscreenenter"",""1"",""5087""
","
","","","","","","4661","audio/turtle.wav","0","","","","","","","","","","",""
"audio-button-response","5","26086","0.0-5.0","1736","2","""event"",""trial"",""time""
""fullscreenenter"",""1"",""5087""
","
","
","""event"",""trial"",""time""
""fullscreenenter"",""1"",""5087""
","
","","","","","","1200","audio/shark.wav","2","","","","","","","","","","",""
"preload","6","29800","0.0-6.0","1736","2","""event"",""trial"",""time""
""fullscreenenter"",""1"",""5087""
","
","
","""event"",""trial"",""time""
""fullscreenenter"",""1"",""5087""
","
","true","false","[]","[]","[]","","","","","","","","","","","","","",""
"learning-instructions","7","36994","0.0-7.0-0.0","1736","2","""event"",""trial"",""time""
""fullscreenenter"",""1"",""5087""
","
","
","""event"",""trial"",""time""
""fullscreenenter"",""1"",""5087""
","
","","","","","","2391.5","<p> Welcome back! </p><p> Last week, you had to make choices about lots of different items.  </p>","","0","instructions","","","","","","","","",""
"learning-instructions","8","43518","0.0-7.0-0.1","1736","2","""event"",""trial"",""time""
""fullscreenenter"",""1"",""5087""
","
","
","""event"",""trial"",""time""
""fullscreenenter"",""1"",""5087""
","
","","","","","","2215.3000000715256","<p> Today, we are going to ask you to try to remember all the items. </p>","","0","instructions","","","","","","","","",""
"learning-instructions","9","54226","0.0-7.0-0.2","1736","2","""event"",""trial"",""time""
""fullscreenenter"",""1"",""5087""
","
","
","""event"",""trial"",""time""
""fullscreenenter"",""1"",""5087""
","
","","","","","","573.6999999284744","<p> On every trial, you will see an image. </p><p> The image may be an OLD image you saw during the games last week or it may be a NEW image that was not presented. </p>","","0","instructions","","","","","","","","",""
"learning-instructions","10","63995","0.0-7.0-0.3","1736","2","""event"",""trial"",""time""
""fullscreenenter"",""1"",""5087""
","
","
","""event"",""trial"",""time""
""fullscreenenter"",""1"",""5087""
","
","","","","","","1263.3000000715256","<p> You need to select whether the image is:  </p><p>  'Definitely old', 'Maybe old', 'Maybe new', or 'Definitely new.'  </p><div class=""mem-choice-instructions-grid""><div class=""choice-option"" id=""choice-option-1"" ><img src=""images/definitely_old_1.png"" id=""choice-option-img-1"" class=""choice-option-img"" stage=""1""></div><div class=""choice-option"" id=""choice-option-2"" ><img src=""images/maybe_old_1.png"" id=""choice-option-img-2"" class=""choice-option-img"" stage=""1""></div><div class=""choice-option"" id=""choice-option-3"" ><img src=""images/maybe_new_1.png"" id=""choice-option-img-3"" class=""choice-option-img"" stage=""1""></div><div class=""choice-option"" id=""choice-option-4"" > <img src=""images/definitely_new_1.png"" id=""choice-option-img-4"" class=""choice-option-img"" stage=""1""></div></div>","","0","instructions","","","","","","","","",""
"learning-instructions","11","71031","0.0-7.0-0.4","1736","2","""event"",""trial"",""time""
""fullscreenenter"",""1"",""5087""
","
","
","""event"",""trial"",""time""
""fullscreenenter"",""1"",""5087""
","
","","","","","","339.39999997615814","<p> You should use the 1, 2, 3, and 4 keys to make your responses.  </p><div class=""mem-choice-instructions-grid""><div class=""choice-option"" id=""choice-option-1"" ><img src=""images/definitely_old.png"" id=""choice-option-img-1"" class=""choice-option-img"" stage=""1""></div><div class=""choice-option"" id=""choice-option-2"" ><img src=""images/maybe_old.png"" id=""choice-option-img-2"" class=""choice-option-img"" stage=""1""></div><div class=""choice-option"" id=""choice-option-3"" ><img src=""images/maybe_new.png"" id=""choice-option-img-3"" class=""choice-option-img"" stage=""1""></div><div class=""choice-option"" id=""choice-option-4"" > <img src=""images/definitely_new.png"" id=""choice-option-img-4"" class=""choice-option-img"" stage=""1""></div></div>","","0","instructions","","","","","","","","",""
"learning-instructions","12","78857","0.0-7.0-0.5","1736","2","""event"",""trial"",""time""
""fullscreenenter"",""1"",""5087""
","
","
","""event"",""trial"",""time""
""fullscreenenter"",""1"",""5087""
","
","","","","","","1054.6000000238419","<p> You will have 10 seconds to make each response.  </p><p>  Make sure to respond before time runs out! </p>","","0","instructions","","","","","","","","",""
"learning-instructions","13","86981","0.0-7.0-0.6","1736","2","""event"",""trial"",""time""
""fullscreenenter"",""1"",""5087""
","
","
","""event"",""trial"",""time""
""fullscreenenter"",""1"",""5087""
","
","","","","","","538.2999999523163","<p> Today, you will see each image ONCE only.  </p><p>  That means none of the images will repeat. </p>","","0","instructions","","","","","","","","",""
"learning-instructions","14","102290","0.0-7.0-0.7","1736","2","""event"",""trial"",""time""
""fullscreenenter"",""1"",""5087""
","
","
","""event"",""trial"",""time""
""fullscreenenter"",""1"",""5087""
","
","","","","","","2637.600000023842","<p> Before you play the real game, it is time to practice. </p><p>  Just like in the real game, some of the images in the practice will be ones you have seen before. </p><p>  Others will be entirely new. </p>","","0","instructions","","","","","","","","",""
"html-button-response","15","107617","0.0-8.0","1736","2","""event"",""trial"",""time""
""fullscreenenter"",""1"",""5087""
","
","
","""event"",""trial"",""time""
""fullscreenenter"",""1"",""5087""
","
","","","","","","5224.5","<p> Ready to practice? </p><p> Remember, use the 1, 2, 3, and 4 keys to make your responses. </p>","0","","instructions","","","","","","","","",""
"html-keyboard-response","16","108244","0.0-9.0-0.0","1736","2","""event"",""trial"",""time""
""fullscreenenter"",""1"",""5087""
","
","
","""event"",""trial"",""time""
""fullscreenenter"",""1"",""5087""
","
","","","","","","null","<div style=""font-size:60px;"">+</div>","null","","fixation","","","","","","","","",""
"memory-trial","17","112264","0.0-9.0-1.0","1736","2","""event"",""trial"",""time""
""fullscreenenter"",""1"",""5087""
","
","
","""event"",""trial"",""time""
""fullscreenenter"",""1"",""5087""
","
","","","","","","3002.5","images/racket1.png","","","practice","4","definitely_new","","","","","","",""
"html-keyboard-response","18","112775","0.0-9.0-0.1","1736","2","""event"",""trial"",""time""
""fullscreenenter"",""1"",""5087""
","
","
","""event"",""trial"",""time""
""fullscreenenter"",""1"",""5087""
","
","","","","","","null","<div style=""font-size:60px;"">+</div>","null","","fixation","","","","","","","","",""
"memory-trial","19","115874","0.0-9.0-1.1","1736","2","""event"",""trial"",""time""
""fullscreenenter"",""1"",""5087""
","
","
","""event"",""trial"",""time""
""fullscreenenter"",""1"",""5087""
","
","","","","","","2084.5999999046326","images/ball1.png","","","practice","1","definitely_old","","","","","","",""
"html-keyboard-response","20","116382","0.0-9.0-0.2","1736","2","""event"",""trial"",""time""
""fullscreenenter"",""1"",""5087""
","
","
","""event"",""trial"",""time""
""fullscreenenter"",""1"",""5087""
","
","","","","","","null","<div style=""font-size:60px;"">+</div>","null","","fixation","","","","","","","","",""
"memory-trial","21","118679","0.0-9.0-1.2","1736","2","""event"",""trial"",""time""
""fullscreenenter"",""1"",""5087""
","
","
","""event"",""trial"",""time""
""fullscreenenter"",""1"",""5087""
","
","","","","","","1290.3000000715256","images/ball2.png","","","practice","1","definitely_old","","","","","","",""
"html-keyboard-response","22","119181","0.0-9.0-0.3","1736","2","""event"",""trial"",""time""
""fullscreenenter"",""1"",""5087""
","
","
","""event"",""trial"",""time""
""fullscreenenter"",""1"",""5087""
","
","","","","","","null","<div style=""font-size:60px;"">+</div>","null","","fixation","","","","","","","","",""
"memory-trial","23","121605","0.0-9.0-1.3","1736","2","""event"",""trial"",""time""
""fullscreenenter"",""1"",""5087""
","
","
","""event"",""trial"",""time""
""fullscreenenter"",""1"",""5087""
","
","","","","","","1411","images/racket3.png","","","practice","4","definitely_new","","","","","","",""
"html-keyboard-response","24","122121","0.0-9.0-0.4","1736","2","""event"",""trial"",""time""
""fullscreenenter"",""1"",""5087""
","
","
","""event"",""trial"",""time""
""fullscreenenter"",""1"",""5087""
","
","","","","","","null","<div style=""font-size:60px;"">+</div>","null","","fixation","","","","","","","","",""
"memory-trial","25","124491","0.0-9.0-1.4","1736","2","""event"",""trial"",""time""
""fullscreenenter"",""1"",""5087""
","
","
","""event"",""trial"",""time""
""fullscreenenter"",""1"",""5087""
","
","","","","","","1364.3000000715256","images/racket4.png","","","practice","4","definitely_new","","","","","","",""
"html-keyboard-response","26","124996","0.0-9.0-0.5","1736","2","""event"",""trial"",""time""
""fullscreenenter"",""1"",""5087""
","
","
","""event"",""trial"",""time""
""fullscreenenter"",""1"",""5087""
","
","","","","","","null","<div style=""font-size:60px;"">+</div>","null","","fixation","","","","","","","","",""
"memory-trial","27","130533","0.0-9.0-1.5","1736","2","""event"",""trial"",""time""
""fullscreenenter"",""1"",""5087""
","
","
","""event"",""trial"",""time""
""fullscreenenter"",""1"",""5087""
","
","","","","","","4533.200000047684","images/ball3.png","","","practice","4","definitely_new","","","","","","",""
"html-keyboard-response","28","131036","0.0-9.0-0.6","1736","2","""event"",""trial"",""time""
""fullscreenenter"",""1"",""5087""
","
","
","""event"",""trial"",""time""
""fullscreenenter"",""1"",""5087""
","
","","","","","","null","<div style=""font-size:60px;"">+</div>","null","","fixation","","","","","","","","",""
"memory-trial","29","132917","0.0-9.0-1.6","1736","2","""event"",""trial"",""time""
""fullscreenenter"",""1"",""5087""
","
","
","""event"",""trial"",""time""
""fullscreenenter"",""1"",""5087""
","
","","","","","","879.2999999523163","images/ball4.png","","","practice","1","definitely_old","","","","","","",""
"html-keyboard-response","30","133418","0.0-9.0-0.7","1736","2","""event"",""trial"",""time""
""fullscreenenter"",""1"",""5087""
","
","
","""event"",""trial"",""time""
""fullscreenenter"",""1"",""5087""
","
","","","","","","null","<div style=""font-size:60px;"">+</div>","null","","fixation","","","","","","","","",""
"memory-trial","31","136327","0.0-9.0-1.7","1736","2","""event"",""trial"",""time""
""fullscreenenter"",""1"",""5087""
","
","
","""event"",""trial"",""time""
""fullscreenenter"",""1"",""5087""
","
","","","","","","1906.2999999523163","images/racket2.png","","","practice","1","definitely_old","","","","","","",""
"learning-instructions","32","145045","0.0-10.0-0.0","1736","2","""event"",""trial"",""time""
""fullscreenenter"",""1"",""5087""
","
","
","""event"",""trial"",""time""
""fullscreenenter"",""1"",""5087""
","
","","","","","","772.5","<p> Great! You have completed the practice. </p><p> Before you start, we're going to ask you a few questions about how the game works.  </p>","","0","instructions","","","","","","","","",""
"preload","33","147153","0.0-11.0","1736","2","""event"",""trial"",""time""
""fullscreenenter"",""1"",""5087""
","
","
","""event"",""trial"",""time""
""fullscreenenter"",""1"",""5087""
","
","true","false","[]","[]","[]","","","","","","","","","","","","","",""
"comp-q","34","154540","0.0-12.0-0.0","1736","2","""event"",""trial"",""time""
""fullscreenenter"",""1"",""5087""
","
","
","""event"",""trial"",""time""
""fullscreenenter"",""1"",""5087""
","
","","","","","","1557.8999999761581","<p> <b> True or False? </b> </p><p> In this game, you will only see each image once. </p>","","0","comp_question","","","true","","","","","",""
"comp-q","35","163319","0.0-12.0-1.0","1736","2","""event"",""trial"",""time""
""fullscreenenter"",""1"",""5087""
","
","
","""event"",""trial"",""time""
""fullscreenenter"",""1"",""5087""
","
","","","","","","2426.1999999284744","<p> <b> That's right! </b> You will see many different images <i> one time each </i> in this game. </p>","","0","comp_answer","","","","","","","","",""
"comp-q","36","170060","0.0-12.0-0.1","1736","2","""event"",""trial"",""time""
""fullscreenenter"",""1"",""5087""
","
","
","""event"",""trial"",""time""
""fullscreenenter"",""1"",""5087""
","
","","","","","","927.8000000715256","<p> <b> True or False? </b> </p><p> You should use the mouse and click to make your response. </p>","","1","comp_question","","","true","","","","","",""
"comp-q","37","178812","0.0-12.0-1.1","1736","2","""event"",""trial"",""time""
""fullscreenenter"",""1"",""5087""
","
","
","""event"",""trial"",""time""
""fullscreenenter"",""1"",""5087""
","
","","","","","","1399","<p><b> That's right! </b> You should use the '1', '2', '3', and '4' keys to make your response. </p>","","0","comp_answer","","","","","","","","",""
"comp-q","38","186791","0.0-12.0-0.2","1736","2","""event"",""trial"",""time""
""fullscreenenter"",""1"",""5087""
","
","
","""event"",""trial"",""time""
""fullscreenenter"",""1"",""5087""
","
","","","","","","1988.2999999523163","<p> <b> True or False? </b> </p><p> You will have as much time as you want to make each choice. </p>","","1","comp_question","","","true","","","","","",""
"comp-q","39","193942","0.0-12.0-1.2","1736","2","""event"",""trial"",""time""
""fullscreenenter"",""1"",""5087""
","
","
","""event"",""trial"",""time""
""fullscreenenter"",""1"",""5087""
","
","","","","","","1758.7999999523163","<p> <b> That's right! </b> You will only have 10 seconds to make each choice. </p>","","0","comp_answer","","","","","","","","",""
"learning-instructions","40","204163","0.0-13.0","1736","2","""event"",""trial"",""time""
""fullscreenenter"",""1"",""5087""
","
","
","""event"",""trial"",""time""
""fullscreenenter"",""1"",""5087""
","
","","","","","","1540.3999999761581","<p> Great! You are now ready to begin the game. </p><p> Remember, use the 1, 2, 3, and 4 keys to make your responses. </p>","","0","instructions","","","","","","","","",""
"preload","41","207585","0.0-14.0","1736","2","""event"",""trial"",""time""
""fullscreenenter"",""1"",""5087""
","
","
","""event"",""trial"",""time""
""fullscreenenter"",""1"",""5087""
","
","true","false","[]","[]","[]","","","","","","","","","","","","","",""
"html-keyboard-response","42","208101","0.0-15.0-0.0","1736","2","""event"",""trial"",""time""
""fullscreenenter"",""1"",""5087""
","
","
","""event"",""trial"",""time""
""fullscreenenter"",""1"",""5087""
","
","","","","","","null","<div style=""font-size:60px;"">+</div>","null","","fixation","","","","","","","","",""
"memory-trial","43","212038","0.0-15.0-1.0","1736","2","""event"",""trial"",""time""
""fullscreenenter"",""1"",""5087""
","
","
","""event"",""trial"",""time""
""fullscreenenter"",""1"",""5087""
","
","","","","","","2929.100000023842","images/chair1.png","","","memory_trial","4","definitely_new","","","","","","",""
"html-keyboard-response","44","212554","0.0-15.0-0.1","1736","2","""event"",""trial"",""time""
""fullscreenenter"",""1"",""5087""
","
","
","""event"",""trial"",""time""
""fullscreenenter"",""1"",""5087""
","
","","","","","","null","<div style=""font-size:60px;"">+</div>","null","","fixation","","","","","","","","",""
"memory-trial","45","215512","0.0-15.0-1.1","1736","2","""event"",""trial"",""time""
""fullscreenenter"",""1"",""5087""
","
","
","""event"",""trial"",""time""
""fullscreenenter"",""1"",""5087""
","
","","","","","","1950.3000000715256","images/train3.png","","","memory_trial","4","definitely_new","","","","","","",""
"html-keyboard-response","46","216027","0.0-15.0-0.2","1736","2","""event"",""trial"",""time""
""fullscreenenter"",""1"",""5087""
","
","
","""event"",""trial"",""time""
""fullscreenenter"",""1"",""5087""
","
","","","","","","null","<div style=""font-size:60px;"">+</div>","null","","fixation","","","","","","","","",""
"memory-trial","47","219171","0.0-15.0-1.2","1736","2","""event"",""trial"",""time""
""fullscreenenter"",""1"",""5087""
","
","
","""event"",""trial"",""time""
""fullscreenenter"",""1"",""5087""
","
","","","","","","2140.899999976158","images/goat1.png","","","memory_trial","1","definitely_old","","","","","","",""
"html-keyboard-response","48","219687","0.0-15.0-0.3","1736","2","""event"",""trial"",""time""
""fullscreenenter"",""1"",""5087""
","
","
","""event"",""trial"",""time""
""fullscreenenter"",""1"",""5087""
","
","","","","","","null","<div style=""font-size:60px;"">+</div>","null","","fixation","","","","","","","","",""
"memory-trial","49","221588","0.0-15.0-1.3","1736","2","""event"",""trial"",""time""
""fullscreenenter"",""1"",""5087""
","
","
","""event"",""trial"",""time""
""fullscreenenter"",""1"",""5087""
","
","","","","","","897.8000000715256","images/banana2.png","","","memory_trial","4","definitely_new","","","","","","",""
"html-keyboard-response","50","222091","0.0-15.0-0.4","1736","2","""event"",""trial"",""time""
""fullscreenenter"",""1"",""5087""
","
","
","""event"",""trial"",""time""
""fullscreenenter"",""1"",""5087""
","
","","","","","","null","<div style=""font-size:60px;"">+</div>","null","","fixation","","","","","","","","",""
"memory-trial","51","224009","0.0-15.0-1.4","1736","2","""event"",""trial"",""time""
""fullscreenenter"",""1"",""5087""
","
","
","""event"",""trial"",""time""
""fullscreenenter"",""1"",""5087""
","
","","","","","","906.3999999761581","images/flower4.png","","","memory_trial","2","maybe_old","","","","","","",""
"html-keyboard-response","52","224525","0.0-15.0-0.5","1736","2","""event"",""trial"",""time""
""fullscreenenter"",""1"",""5087""
","
","
","""event"",""trial"",""time""
""fullscreenenter"",""1"",""5087""
","
","","","","","","null","<div style=""font-size:60px;"">+</div>","null","","fixation","","","","","","","","",""
"memory-trial","53","227038","0.0-15.0-1.5","1736","2","""event"",""trial"",""time""
""fullscreenenter"",""1"",""5087""
","
","
","""event"",""trial"",""time""
""fullscreenenter"",""1"",""5087""
","
","","","","","","1505.9000000953674","images/bush1.png","","","memory_trial","4","definitely_new","","","","","","",""
"html-keyboard-response","54","227542","0.0-15.0-0.6","1736","2","""event"",""trial"",""time""
""fullscreenenter"",""1"",""5087""
","
","
","""event"",""trial"",""time""
""fullscreenenter"",""1"",""5087""
","
","","","","","","null","<div style=""font-size:60px;"">+</div>","null","","fixation","","","","","","","","",""
"memory-trial","55","229701","0.0-15.0-1.6","1736","2","""event"",""trial"",""time""
""fullscreenenter"",""1"",""5087""
","
","
","""event"",""trial"",""time""
""fullscreenenter"",""1"",""5087""
","
","","","","","","1146.1999999284744","images/chair2.png","","","memory_trial","1","definitely_old","","","","","","",""
"html-keyboard-response","56","230205","0.0-15.0-0.7","1736","2","""event"",""trial"",""time""
""fullscreenenter"",""1"",""5087""
","
","
","""event"",""trial"",""time""
""fullscreenenter"",""1"",""5087""
","
","","","","","","null","<div style=""font-size:60px;"">+</div>","null","","fixation","","","","","","","","",""
"memory-trial","57","233540","0.0-15.0-1.7","1736","2","""event"",""trial"",""time""
""fullscreenenter"",""1"",""5087""
","
","
","""event"",""trial"",""time""
""fullscreenenter"",""1"",""5087""
","
","","","","","","2331.7999999523163","images/plane3.png","","","memory_trial","1","definitely_old","","","","","","",""
"html-keyboard-response","58","234042","0.0-15.0-0.8","1736","2","""event"",""trial"",""time""
""fullscreenenter"",""1"",""5087""
","
","
","""event"",""trial"",""time""
""fullscreenenter"",""1"",""5087""
","
","","","","","","null","<div style=""font-size:60px;"">+</div>","null","","fixation","","","","","","","","",""
"memory-trial","59","236332","0.0-15.0-1.8","1736","2","""event"",""trial"",""time""
""fullscreenenter"",""1"",""5087""
","
","
","""event"",""trial"",""time""
""fullscreenenter"",""1"",""5087""
","
","","","","","","1288","images/apple3.png","","","memory_trial","1","definitely_old","","","","","","",""
"html-keyboard-response","60","236852","0.0-15.0-0.9","1736","2","""event"",""trial"",""time""
""fullscreenenter"",""1"",""5087""
","
","
","""event"",""trial"",""time""
""fullscreenenter"",""1"",""5087""
","
","","","","","","null","<div style=""font-size:60px;"">+</div>","null","","fixation","","","","","","","","",""
"memory-trial","61","238852","0.0-15.0-1.9","1736","2","""event"",""trial"",""time""
""fullscreenenter"",""1"",""5087""
","
","
","""event"",""trial"",""time""
""fullscreenenter"",""1"",""5087""
","
","","","","","","998.1999999284744","images/apple2.png","","","memory_trial","1","definitely_old","","","","","","",""
"html-keyboard-response","62","239354","0.0-15.0-0.10","1736","2","""event"",""trial"",""time""
""fullscreenenter"",""1"",""5087""
","
","
","""event"",""trial"",""time""
""fullscreenenter"",""1"",""5087""
","
","","","","","","null","<div style=""font-size:60px;"">+</div>","null","","fixation","","","","","","","","",""
"memory-trial","63","242033","0.0-15.0-1.10","1736","2","""event"",""trial"",""time""
""fullscreenenter"",""1"",""5087""
","
","
","""event"",""trial"",""time""
""fullscreenenter"",""1"",""5087""
","
","","","","","","1676.3999999761581","images/bush4.png","","","memory_trial","4","definitely_new","","","","","","",""
"html-keyboard-response","64","242535","0.0-15.0-0.11","1736","2","""event"",""trial"",""time""
""fullscreenenter"",""1"",""5087""
","
","
","""event"",""trial"",""time""
""fullscreenenter"",""1"",""5087""
","
","","","","","","null","<div style=""font-size:60px;"">+</div>","null","","fixation","","","","","","","","",""
"memory-trial","65","244786","0.0-15.0-1.11","1736","2","""event"",""trial"",""time""
""fullscreenenter"",""1"",""5087""
","
","
","""event"",""trial"",""time""
""fullscreenenter"",""1"",""5087""
","
","","","","","","1249.1000000238419","images/bed1.png","","","memory_trial","4","definitely_new","","","","","","",""
"html-keyboard-response","66","245289","0.0-15.0-0.12","1736","2","""event"",""trial"",""time""
""fullscreenenter"",""1"",""5087""
","
","
","""event"",""trial"",""time""
""fullscreenenter"",""1"",""5087""
","
","","","","","","null","<div style=""font-size:60px;"">+</div>","null","","fixation","","","","","","","","",""
"memory-trial","67","247632","0.0-15.0-1.12","1736","2","""event"",""trial"",""time""
""fullscreenenter"",""1"",""5087""
","
","
","""event"",""trial"",""time""
""fullscreenenter"",""1"",""5087""
","
","","","","","","1340.5","images/apple5.png","","","memory_trial","4","definitely_new","","","","","","",""
"html-keyboard-response","68","248133","0.0-15.0-0.13","1736","2","""event"",""trial"",""time""
""fullscreenenter"",""1"",""5087""
","
","
","""event"",""trial"",""time""
""fullscreenenter"",""1"",""5087""
","
","","","","","","null","<div style=""font-size:60px;"">+</div>","null","","fixation","","","","","","","","",""
"memory-trial","69","250233","0.0-15.0-1.13","1736","2","""event"",""trial"",""time""
""fullscreenenter"",""1"",""5087""
","
","
","""event"",""trial"",""time""
""fullscreenenter"",""1"",""5087""
","
","","","","","","1094","images/boat1.png","","","memory_trial","4","definitely_new","","","","","","",""
"html-keyboard-response","70","250736","0.0-15.0-0.14","1736","2","""event"",""trial"",""time""
""fullscreenenter"",""1"",""5087""
","
","
","""event"",""trial"",""time""
""fullscreenenter"",""1"",""5087""
","
","","","","","","null","<div style=""font-size:60px;"">+</div>","null","","fixation","","","","","","","","",""
"memory-trial","71","252631","0.0-15.0-1.14","1736","2","""event"",""trial"",""time""
""fullscreenenter"",""1"",""5087""
","
","
","""event"",""trial"",""time""
""fullscreenenter"",""1"",""5087""
","
","","","","","","893.1000000238419","images/sofa2.png","","","memory_trial","4","definitely_new","","","","","","",""
"html-keyboard-response","72","253133","0.0-15.0-0.15","1736","2","""event"",""trial"",""time""
""fullscreenenter"",""1"",""5087""
","
","
","""event"",""trial"",""time""
""fullscreenenter"",""1"",""5087""
","
","","","","","","null","<div style=""font-size:60px;"">+</div>","null","","fixation","","","","","","","","",""
"memory-trial","73","254983","0.0-15.0-1.15","1736","2","""event"",""trial"",""time""
""fullscreenenter"",""1"",""5087""
","
","
","""event"",""trial"",""time""
""fullscreenenter"",""1"",""5087""
","
","","","","","","847","images/dog3.png","","","memory_trial","1","definitely_old","","","","","","",""
"html-keyboard-response","74","255484","0.0-15.0-0.16","1736","2","""event"",""trial"",""time""
""fullscreenenter"",""1"",""5087""
","
","
","""event"",""trial"",""time""
""fullscreenenter"",""1"",""5087""
","
","","","","","","null","<div style=""font-size:60px;"">+</div>","null","","fixation","","","","","","","","",""
"memory-trial","75","257771","0.0-15.0-1.16","1736","2","""event"",""trial"",""time""
""fullscreenenter"",""1"",""5087""
","
","
","""event"",""trial"",""time""
""fullscreenenter"",""1"",""5087""
","
","","","","","","1284.5","images/flower1.png","","","memory_trial","1","definitely_old","","","","","","",""
"html-keyboard-response","76","258273","0.0-15.0-0.17","1736","2","""event"",""trial"",""time""
""fullscreenenter"",""1"",""5087""
","
","
","""event"",""trial"",""time""
""fullscreenenter"",""1"",""5087""
","
","","","","","","null","<div style=""font-size:60px;"">+</div>","null","","fixation","","","","","","","","",""
"memory-trial","77","260345","0.0-15.0-1.17","1736","2","""event"",""trial"",""time""
""fullscreenenter"",""1"",""5087""
","
","
","""event"",""trial"",""time""
""fullscreenenter"",""1"",""5087""
","
","","","","","","1068.8999999761581","images/feline1.png","","","memory_trial","1","definitely_old","","","","","","",""
"html-keyboard-response","78","260847","0.0-15.0-0.18","1736","2","""event"",""trial"",""time""
""fullscreenenter"",""1"",""5087""
","
","
","""event"",""trial"",""time""
""fullscreenenter"",""1"",""5087""
","
","","","","","","null","<div style=""font-size:60px;"">+</div>","null","","fixation","","","","","","","","",""
"memory-trial","79","262792","0.0-15.0-1.18","1736","2","""event"",""trial"",""time""
""fullscreenenter"",""1"",""5087""
","
","
","""event"",""trial"",""time""
""fullscreenenter"",""1"",""5087""
","
","","","","","","934.8999999761581","images/goat5.png","","","memory_trial","1","definitely_old","","","","","","",""
"html-keyboard-response","80","263294","0.0-15.0-0.19","1736","2","""event"",""trial"",""time""
""fullscreenenter"",""1"",""5087""
","
","
","""event"",""trial"",""time""
""fullscreenenter"",""1"",""5087""
","
","","","","","","null","<div style=""font-size:60px;"">+</div>","null","","fixation","","","","","","","","",""
"memory-trial","81","266062","0.0-15.0-1.19","1736","2","""event"",""trial"",""time""
""fullscreenenter"",""1"",""5087""
","
","
","""event"",""trial"",""time""
""fullscreenenter"",""1"",""5087""
","
","","","","","","1766.8999999761581","images/table4.png","","","memory_trial","4","definitely_new","","","","","","",""
"html-keyboard-response","82","266572","0.0-15.0-0.20","1736","2","""event"",""trial"",""time""
""fullscreenenter"",""1"",""5087""
","
","
","""event"",""trial"",""time""
""fullscreenenter"",""1"",""5087""
","
","","","","","","null","<div style=""font-size:60px;"">+</div>","null","","fixation","","","","","","","","",""
"memory-trial","83","269387","0.0-15.0-1.20","1736","2","""event"",""trial"",""time""
""fullscreenenter"",""1"",""5087""
","
","
","""event"",""trial"",""time""
""fullscreenenter"",""1"",""5087""
","
","","","","","","1812","images/feline5.png","","","memory_trial","4","definitely_new","","","","","","",""
"html-keyboard-response","84","269889","0.0-15.0-0.21","1736","2","""event"",""trial"",""time""
""fullscreenenter"",""1"",""5087""
","
","
","""event"",""trial"",""time""
""fullscreenenter"",""1"",""5087""
","
","","","","","","null","<div style=""font-size:60px;"">+</div>","null","","fixation","","","","","","","","",""
"memory-trial","85","271645","0.0-15.0-1.21","1736","2","""event"",""trial"",""time""
""fullscreenenter"",""1"",""5087""
","
","
","""event"",""trial"",""time""
""fullscreenenter"",""1"",""5087""
","
","","","","","","754.2000000476837","images/bed5.png","","","memory_trial","4","definitely_new","","","","","","",""
"html-keyboard-response","86","272147","0.0-15.0-0.22","1736","2","""event"",""trial"",""time""
""fullscreenenter"",""1"",""5087""
","
","
","""event"",""trial"",""time""
""fullscreenenter"",""1"",""5087""
","
","","","","","","null","<div style=""font-size:60px;"">+</div>","null","","fixation","","","","","","","","",""
"memory-trial","87","274773","0.0-15.0-1.22","1736","2","""event"",""trial"",""time""
""fullscreenenter"",""1"",""5087""
","
","
","""event"",""trial"",""time""
""fullscreenenter"",""1"",""5087""
","
","","","","","","1622.9000000953674","images/flower5.png","","","memory_trial","1","definitely_old","","","","","","",""
"html-keyboard-response","88","275276","0.0-15.0-0.23","1736","2","""event"",""trial"",""time""
""fullscreenenter"",""1"",""5087""
","
","
","""event"",""trial"",""time""
""fullscreenenter"",""1"",""5087""
","
","","","","","","null","<div style=""font-size:60px;"">+</div>","null","","fixation","","","","","","","","",""
"memory-trial","89","280625","0.0-15.0-1.23","1736","2","""event"",""trial"",""time""
""fullscreenenter"",""1"",""5087""
","
","
","""event"",""trial"",""time""
""fullscreenenter"",""1"",""5087""
","
","","","","","","4344.300000071526","images/cow1.png","","","memory_trial","1","definitely_old","","","","","","",""
"html-keyboard-response","90","281128","0.0-15.0-0.24","1736","2","""event"",""trial"",""time""
""fullscreenenter"",""1"",""5087""
","
","
","""event"",""trial"",""time""
""fullscreenenter"",""1"",""5087""
","
","","","","","","null","<div style=""font-size:60px;"">+</div>","null","","fixation","","","","","","","","",""
"memory-trial","91","283523","0.0-15.0-1.24","1736","2","""event"",""trial"",""time""
""fullscreenenter"",""1"",""5087""
","
","
","""event"",""trial"",""time""
""fullscreenenter"",""1"",""5087""
","
","","","","","","1387.2999999523163","images/cow4.png","","","memory_trial","4","definitely_new","","","","","","",""
"html-keyboard-response","92","284024","0.0-15.0-0.25","1736","2","""event"",""trial"",""time""
""fullscreenenter"",""1"",""5087""
","
","
","""event"",""trial"",""time""
""fullscreenenter"",""1"",""5087""
","
","","","","","","null","<div style=""font-size:60px;"">+</div>","null","","fixation","","","","","","","","",""
"memory-trial","93","285782","0.0-15.0-1.25","1736","2","""event"",""trial"",""time""
""fullscreenenter"",""1"",""5087""
","
","
","""event"",""trial"",""time""
""fullscreenenter"",""1"",""5087""
","
","","","","","","754.4000000953674","images/bed3.png","","","memory_trial","4","definitely_new","","","","","","",""
"html-keyboard-response","94","286285","0.0-15.0-0.26","1736","2","""event"",""trial"",""time""
""fullscreenenter"",""1"",""5087""
","
","
","""event"",""trial"",""time""
""fullscreenenter"",""1"",""5087""
","
","","","","","","null","<div style=""font-size:60px;"">+</div>","null","","fixation","","","","","","","","",""
"memory-trial","95","288569","0.0-15.0-1.26","1736","2","""event"",""trial"",""time""
""fullscreenenter"",""1"",""5087""
","
","
","""event"",""trial"",""time""
""fullscreenenter"",""1"",""5087""
","
","","","","","","1278.7000000476837","images/table5.png","","","memory_trial","4","definitely_new","","","","","","",""
"html-keyboard-response","96","289072","0.0-15.0-0.27","1736","2","""event"",""trial"",""time""
""fullscreenenter"",""1"",""5087""
","
","
","""event"",""trial"",""time""
""fullscreenenter"",""1"",""5087""
","
","","","","","","null","<div style=""font-size:60px;"">+</div>","null","","fixation","","","","","","","","",""
"memory-trial","97","292864","0.0-15.0-1.27","1736","2","""event"",""trial"",""time""
""fullscreenenter"",""1"",""5087""
","
","
","""event"",""trial"",""time""
""fullscreenenter"",""1"",""5087""
","
","","","","","","2788.2999999523163","images/rodent5.png","","","memory_trial","4","definitely_new","","","","","","",""
"html-keyboard-response","98","293365","0.0-15.0-0.28","1736","2","""event"",""trial"",""time""
""fullscreenenter"",""1"",""5087""
","
","
","""event"",""trial"",""time""
""fullscreenenter"",""1"",""5087""
","
","","","","","","null","<div style=""font-size:60px;"">+</div>","null","","fixation","","","","","","","","",""
"memory-trial","99","295990","0.0-15.0-1.28","1736","2","""event"",""trial"",""time""
""fullscreenenter"",""1"",""5087""
","
","
","""event"",""trial"",""time""
""fullscreenenter"",""1"",""5087""
","
","","","","","","1619.7000000476837","images/boat3.png","","","memory_trial","1","definitely_old","","","","","","",""
"html-keyboard-response","100","296491","0.0-15.0-0.29","1736","2","""event"",""trial"",""time""
""fullscreenenter"",""1"",""5087""
","
","
","""event"",""trial"",""time""
""fullscreenenter"",""1"",""5087""
","
","","","","","","null","<div style=""font-size:60px;"">+</div>","null","","fixation","","","","","","","","",""
"memory-trial","101","298526","0.0-15.0-1.29","1736","2","""event"",""trial"",""time""
""fullscreenenter"",""1"",""5087""
","
","
","""event"",""trial"",""time""
""fullscreenenter"",""1"",""5087""
","
","","","","","","1030.7000000476837","images/sofa3.png","","","memory_trial","1","definitely_old","","","","","","",""
"html-keyboard-response","102","299028","0.0-15.0-0.30","1736","2","""event"",""trial"",""time""
""fullscreenenter"",""1"",""5087""
","
","
","""event"",""trial"",""time""
""fullscreenenter"",""1"",""5087""
","
","","","","","","null","<div style=""font-size:60px;"">+</div>","null","","fixation","","","","","","","","",""
"memory-trial","103","301008","0.0-15.0-1.30","1736","2","""event"",""trial"",""time""
""fullscreenenter"",""1"",""5087""
","
","
","""event"",""trial"",""time""
""fullscreenenter"",""1"",""5087""
","
","","","","","","976.7999999523163","images/truck3.png","","","memory_trial","4","definitely_new","","","","","","",""
"html-keyboard-response","104","301510","0.0-15.0-0.31","1736","2","""event"",""trial"",""time""
""fullscreenenter"",""1"",""5087""
","
","
","""event"",""trial"",""time""
""fullscreenenter"",""1"",""5087""
","
","","","","","","null","<div style=""font-size:60px;"">+</div>","null","","fixation","","","","","","","","",""
"memory-trial","105","303724","0.0-15.0-1.31","1736","2","""event"",""trial"",""time""
""fullscreenenter"",""1"",""5087""
","
","
","""event"",""trial"",""time""
""fullscreenenter"",""1"",""5087""
","
","","","","","","1212.5","images/horse5.png","","","memory_trial","1","definitely_old","","","","","","",""
"html-keyboard-response","106","304226","0.0-15.0-0.32","1736","2","""event"",""trial"",""time""
""fullscreenenter"",""1"",""5087""
","
","
","""event"",""trial"",""time""
""fullscreenenter"",""1"",""5087""
","
","","","","","","null","<div style=""font-size:60px;"">+</div>","null","","fixation","","","","","","","","",""
"memory-trial","107","306114","0.0-15.0-1.32","1736","2","""event"",""trial"",""time""
""fullscreenenter"",""1"",""5087""
","
","
","""event"",""trial"",""time""
""fullscreenenter"",""1"",""5087""
","
","","","","","","885.2999999523163","images/table2.png","","","memory_trial","1","definitely_old","","","","","","",""
"html-keyboard-response","108","306616","0.0-15.0-0.33","1736","2","""event"",""trial"",""time""
""fullscreenenter"",""1"",""5087""
","
","
","""event"",""trial"",""time""
""fullscreenenter"",""1"",""5087""
","
","","","","","","null","<div style=""font-size:60px;"">+</div>","null","","fixation","","","","","","","","",""
"memory-trial","109","308321","0.0-15.0-1.33","1736","2","""event"",""trial"",""time""
""fullscreenenter"",""1"",""5087""
","
","
","""event"",""trial"",""time""
""fullscreenenter"",""1"",""5087""
","
","","","","","","702","images/banana3.png","","","memory_trial","4","definitely_new","","","","","","",""
"html-keyboard-response","110","308823","0.0-15.0-0.34","1736","2","""event"",""trial"",""time""
""fullscreenenter"",""1"",""5087""
","
","
","""event"",""trial"",""time""
""fullscreenenter"",""1"",""5087""
","
","","","","","","null","<div style=""font-size:60px;"">+</div>","null","","fixation","","","","","","","","",""
"memory-trial","111","310679","0.0-15.0-1.34","1736","2","""event"",""trial"",""time""
""fullscreenenter"",""1"",""5087""
","
","
","""event"",""trial"",""time""
""fullscreenenter"",""1"",""5087""
","
","","","","","","854","images/train5.png","","","memory_trial","4","definitely_new","","","","","","",""
"html-keyboard-response","112","311186","0.0-15.0-0.35","1736","2","""event"",""trial"",""time""
""fullscreenenter"",""1"",""5087""
","
","
","""event"",""trial"",""time""
""fullscreenenter"",""1"",""5087""
","
","","","","","","null","<div style=""font-size:60px;"">+</div>","null","","fixation","","","","","","","","",""
"memory-trial","113","313072","0.0-15.0-1.35","1736","2","""event"",""trial"",""time""
""fullscreenenter"",""1"",""5087""
","
","
","""event"",""trial"",""time""
""fullscreenenter"",""1"",""5087""
","
","","","","","","882.5","images/plane2.png","","","memory_trial","2","maybe_old","","","","","","",""
"html-keyboard-response","114","313573","0.0-15.0-0.36","1736","2","""event"",""trial"",""time""
""fullscreenenter"",""1"",""5087""
","
","
","""event"",""trial"",""time""
""fullscreenenter"",""1"",""5087""
","
","","","","","","null","<div style=""font-size:60px;"">+</div>","null","","fixation","","","","","","","","",""
"memory-trial","115","315506","0.0-15.0-1.36","1736","2","""event"",""trial"",""time""
""fullscreenenter"",""1"",""5087""
","
","
","""event"",""trial"",""time""
""fullscreenenter"",""1"",""5087""
","
","","","","","","930.5999999046326","images/dog5.png","","","memory_trial","1","definitely_old","","","","","","",""
"html-keyboard-response","116","316007","0.0-15.0-0.37","1736","2","""event"",""trial"",""time""
""fullscreenenter"",""1"",""5087""
","
","
","""event"",""trial"",""time""
""fullscreenenter"",""1"",""5087""
","
","","","","","","null","<div style=""font-size:60px;"">+</div>","null","","fixation","","","","","","","","",""
"memory-trial","117","317776","0.0-15.0-1.37","1736","2","""event"",""trial"",""time""
""fullscreenenter"",""1"",""5087""
","
","
","""event"",""trial"",""time""
""fullscreenenter"",""1"",""5087""
","
","","","","","","765.2999999523163","images/cactus5.png","","","memory_trial","1","definitely_old","","","","","","",""
"html-keyboard-response","118","318277","0.0-15.0-0.38","1736","2","""event"",""trial"",""time""
""fullscreenenter"",""1"",""5087""
","
","
","""event"",""trial"",""time""
""fullscreenenter"",""1"",""5087""
","
","","","","","","null","<div style=""font-size:60px;"">+</div>","null","","fixation","","","","","","","","",""
"memory-trial","119","320009","0.0-15.0-1.38","1736","2","""event"",""trial"",""time""
""fullscreenenter"",""1"",""5087""
","
","
","""event"",""trial"",""time""
""fullscreenenter"",""1"",""5087""
","
","","","","","","729.5","images/cactus3.png","","","memory_trial","1","definitely_old","","","","","","",""
"html-keyboard-response","120","320512","0.0-15.0-0.39","1736","2","""event"",""trial"",""time""
""fullscreenenter"",""1"",""5087""
","
","
","""event"",""trial"",""time""
""fullscreenenter"",""1"",""5087""
","
","","","","","","null","<div style=""font-size:60px;"">+</div>","null","","fixation","","","","","","","","",""
"memory-trial","121","322199","0.0-15.0-1.39","1736","2","""event"",""trial"",""time""
""fullscreenenter"",""1"",""5087""
","
","
","""event"",""trial"",""time""
""fullscreenenter"",""1"",""5087""
","
","","","","","","684.8000000715256","images/rabbit2.png","","","memory_trial","1","definitely_old","","","","","","",""
"html-keyboard-response","122","322714","0.0-15.0-0.40","1736","2","""event"",""trial"",""time""
""fullscreenenter"",""1"",""5087""
","
","
","""event"",""trial"",""time""
""fullscreenenter"",""1"",""5087""
","
","","","","","","null","<div style=""font-size:60px;"">+</div>","null","","fixation","","","","","","","","",""
"memory-trial","123","324470","0.0-15.0-1.40","1736","2","""event"",""trial"",""time""
""fullscreenenter"",""1"",""5087""
","
","
","""event"",""trial"",""time""
""fullscreenenter"",""1"",""5087""
","
","","","","","","753.7999999523163","images/tree1.png","","","memory_trial","4","definitely_new","","","","","","",""
"html-keyboard-response","124","324972","0.0-15.0-0.41","1736","2","""event"",""trial"",""time""
""fullscreenenter"",""1"",""5087""
","
","
","""event"",""trial"",""time""
""fullscreenenter"",""1"",""5087""
","
","","","","","","null","<div style=""font-size:60px;"">+</div>","null","","fixation","","","","","","","","",""
"memory-trial","125","327036","0.0-15.0-1.41","1736","2","""event"",""trial"",""time""
""fullscreenenter"",""1"",""5087""
","
","
","""event"",""trial"",""time""
""fullscreenenter"",""1"",""5087""
","
","","","","","","1052.7999999523163","images/sheep3.png","","","memory_trial","4","definitely_new","","","","","","",""
"html-keyboard-response","126","327538","0.0-15.0-0.42","1736","2","""event"",""trial"",""time""
""fullscreenenter"",""1"",""5087""
","
","
","""event"",""trial"",""time""
""fullscreenenter"",""1"",""5087""
","
","","","","","","null","<div style=""font-size:60px;"">+</div>","null","","fixation","","","","","","","","",""
"memory-trial","127","329768","0.0-15.0-1.42","1736","2","""event"",""trial"",""time""
""fullscreenenter"",""1"",""5087""
","
","
","""event"",""trial"",""time""
""fullscreenenter"",""1"",""5087""
","
","","","","","","1227.5","images/horse1.png","","","memory_trial","1","definitely_old","","","","","","",""
"html-keyboard-response","128","330270","0.0-15.0-0.43","1736","2","""event"",""trial"",""time""
""fullscreenenter"",""1"",""5087""
","
","
","""event"",""trial"",""time""
""fullscreenenter"",""1"",""5087""
","
","","","","","","null","<div style=""font-size:60px;"">+</div>","null","","fixation","","","","","","","","",""
"memory-trial","129","332652","0.0-15.0-1.43","1736","2","""event"",""trial"",""time""
""fullscreenenter"",""1"",""5087""
","
","
","""event"",""trial"",""time""
""fullscreenenter"",""1"",""5087""
","
","","","","","","1380.1000000238419","images/table3.png","","","memory_trial","4","definitely_new","","","","","","",""
"html-keyboard-response","130","333156","0.0-15.0-0.44","1736","2","""event"",""trial"",""time""
""fullscreenenter"",""1"",""5087""
","
","
","""event"",""trial"",""time""
""fullscreenenter"",""1"",""5087""
","
","","","","","","null","<div style=""font-size:60px;"">+</div>","null","","fixation","","","","","","","","",""
"memory-trial","131","336726","0.0-15.0-1.44","1736","2","""event"",""trial"",""time""
""fullscreenenter"",""1"",""5087""
","
","
","""event"",""trial"",""time""
""fullscreenenter"",""1"",""5087""
","
","","","","","","2566.9000000953674","images/apple4.png","","","memory_trial","4","definitely_new","","","","","","",""
"html-keyboard-response","132","337228","0.0-15.0-0.45","1736","2","""event"",""trial"",""time""
""fullscreenenter"",""1"",""5087""
","
","
","""event"",""trial"",""time""
""fullscreenenter"",""1"",""5087""
","
","","","","","","null","<div style=""font-size:60px;"">+</div>","null","","fixation","","","","","","","","",""
"memory-trial","133","339833","0.0-15.0-1.45","1736","2","""event"",""trial"",""time""
""fullscreenenter"",""1"",""5087""
","
","
","""event"",""trial"",""time""
""fullscreenenter"",""1"",""5087""
","
","","","","","","1602.6000000238419","images/train1.png","","","memory_trial","4","definitely_new","","","","","","",""
"html-keyboard-response","134","340336","0.0-15.0-0.46","1736","2","""event"",""trial"",""time""
""fullscreenenter"",""1"",""5087""
","
","
","""event"",""trial"",""time""
""fullscreenenter"",""1"",""5087""
","
","","","","","","null","<div style=""font-size:60px;"">+</div>","null","","fixation","","","","","","","","",""
"memory-trial","135","342142","0.0-15.0-1.46","1736","2","""event"",""trial"",""time""
""fullscreenenter"",""1"",""5087""
","
","
","""event"",""trial"",""time""
""fullscreenenter"",""1"",""5087""
","
","","","","","","802.6000000238419","images/sheep2.png","","","memory_trial","1","definitely_old","","","","","","",""
"html-button-response","136","344934","0.0-15.0-2.46-0.46","1736","2","""event"",""trial"",""time""
""fullscreenenter"",""1"",""5087""
","
","
","""event"",""trial"",""time""
""fullscreenenter"",""1"",""5087""
","
","","","","","","2790.3000000715256","<p> Take a break! </p><p> Click the button to continue. </p>","0","","break","","","","","","","","",""
"html-keyboard-response","137","345436","0.0-15.0-0.47","1736","2","""event"",""trial"",""time""
""fullscreenenter"",""1"",""5087""
","
","
","""event"",""trial"",""time""
""fullscreenenter"",""1"",""5087""
","
","","","","","","null","<div style=""font-size:60px;"">+</div>","null","","fixation","","","","","","","","",""
"memory-trial","138","348222","0.0-15.0-1.47","1736","2","""event"",""trial"",""time""
""fullscreenenter"",""1"",""5087""
","
","
","""event"",""trial"",""time""
""fullscreenenter"",""1"",""5087""
","
","","","","","","1782.7000000476837","images/cow3.png","","","memory_trial","1","definitely_old","","","","","","",""
"html-keyboard-response","139","348723","0.0-15.0-0.48","1736","2","""event"",""trial"",""time""
""fullscreenenter"",""1"",""5087""
","
","
","""event"",""trial"",""time""
""fullscreenenter"",""1"",""5087""
","
","","","","","","null","<div style=""font-size:60px;"">+</div>","null","","fixation","","","","","","","","",""
"memory-trial","140","350646","0.0-15.0-1.48","1736","2","""event"",""trial"",""time""
""fullscreenenter"",""1"",""5087""
","
","
","""event"",""trial"",""time""
""fullscreenenter"",""1"",""5087""
","
","","","","","","919.7000000476837","images/dog2.png","","","memory_trial","1","definitely_old","","","","","","",""
"html-keyboard-response","141","351147","0.0-15.0-0.49","1736","2","""event"",""trial"",""time""
""fullscreenenter"",""1"",""5087""
","
","
","""event"",""trial"",""time""
""fullscreenenter"",""1"",""5087""
","
","","","","","","null","<div style=""font-size:60px;"">+</div>","null","","fixation","","","","","","","","",""
"memory-trial","142","355693","0.0-15.0-1.49","1736","2","""event"",""trial"",""time""
""fullscreenenter"",""1"",""5087""
","
","
","""event"",""trial"",""time""
""fullscreenenter"",""1"",""5087""
","
","","","","","","3544.2000000476837","images/flower2.png","","","memory_trial","3","maybe_new","","","","","","",""
"html-keyboard-response","143","356199","0.0-15.0-0.50","1736","2","""event"",""trial"",""time""
""fullscreenenter"",""1"",""5087""
","
","
","""event"",""trial"",""time""
""fullscreenenter"",""1"",""5087""
","
","","","","","","null","<div style=""font-size:60px;"">+</div>","null","","fixation","","","","","","","","",""
"memory-trial","144","358406","0.0-15.0-1.50","1736","2","""event"",""trial"",""time""
""fullscreenenter"",""1"",""5087""
","
","
","""event"",""trial"",""time""
""fullscreenenter"",""1"",""5087""
","
","","","","","","1202.2000000476837","images/truck2.png","","","memory_trial","1","definitely_old","","","","","","",""
"html-keyboard-response","145","358909","0.0-15.0-0.51","1736","2","""event"",""trial"",""time""
""fullscreenenter"",""1"",""5087""
","
","
","""event"",""trial"",""time""
""fullscreenenter"",""1"",""5087""
","
","","","","","","null","<div style=""font-size:60px;"">+</div>","null","","fixation","","","","","","","","",""
"memory-trial","146","360868","0.0-15.0-1.51","1736","2","""event"",""trial"",""time""
""fullscreenenter"",""1"",""5087""
","
","
","""event"",""trial"",""time""
""fullscreenenter"",""1"",""5087""
","
","","","","","","957.5999999046326","images/boat4.png","","","memory_trial","1","definitely_old","","","","","","",""
"html-keyboard-response","147","361369","0.0-15.0-0.52","1736","2","""event"",""trial"",""time""
""fullscreenenter"",""1"",""5087""
","
","
","""event"",""trial"",""time""
""fullscreenenter"",""1"",""5087""
","
","","","","","","null","<div style=""font-size:60px;"">+</div>","null","","fixation","","","","","","","","",""
"memory-trial","148","363196","0.0-15.0-1.52","1736","2","""event"",""trial"",""time""
""fullscreenenter"",""1"",""5087""
","
","
","""event"",""trial"",""time""
""fullscreenenter"",""1"",""5087""
","
","","","","","","823.2999999523163","images/banana4.png","","","memory_trial","4","definitely_new","","","","","","",""
"html-keyboard-response","149","363698","0.0-15.0-0.53","1736","2","""event"",""trial"",""time""
""fullscreenenter"",""1"",""5087""
","
","
","""event"",""trial"",""time""
""fullscreenenter"",""1"",""5087""
","
","","","","","","null","<div style=""font-size:60px;"">+</div>","null","","fixation","","","","","","","","",""
"memory-trial","150","370012","0.0-15.0-1.53","1736","2","""event"",""trial"",""time""
""fullscreenenter"",""1"",""5087""
","
","
","""event"",""trial"",""time""
""fullscreenenter"",""1"",""5087""
","
","","","","","","5312.299999952316","images/rabbit1.png","","","memory_trial","4","definitely_new","","","","","","",""
"html-keyboard-response","151","370527","0.0-15.0-0.54","1736","2","""event"",""trial"",""time""
""fullscreenenter"",""1"",""5087""
","
","
","""event"",""trial"",""time""
""fullscreenenter"",""1"",""5087""
","
","","","","","","null","<div style=""font-size:60px;"">+</div>","null","","fixation","","","","","","","","",""
"memory-trial","152","372497","0.0-15.0-1.54","1736","2","""event"",""trial"",""time""
""fullscreenenter"",""1"",""5087""
","
","
","""event"",""trial"",""time""
""fullscreenenter"",""1"",""5087""
","
","","","","","","964.1000000238419","images/goat3.png","","","memory_trial","1","definitely_old","","","","","","",""
"html-keyboard-response","153","372999","0.0-15.0-0.55","1736","2","""event"",""trial"",""time""
""fullscreenenter"",""1"",""5087""
","
","
","""event"",""trial"",""time""
""fullscreenenter"",""1"",""5087""
","
","","","","","","null","<div style=""font-size:60px;"">+</div>","null","","fixation","","","","","","","","",""
"memory-trial","154","375744","0.0-15.0-1.55","1736","2","""event"",""trial"",""time""
""fullscreenenter"",""1"",""5087""
","
","
","""event"",""trial"",""time""
""fullscreenenter"",""1"",""5087""
","
","","","","","","1742.1000000238419","images/rabbit3.png","","","memory_trial","3","maybe_new","","","","","","",""
"html-keyboard-response","155","376245","0.0-15.0-0.56","1736","2","""event"",""trial"",""time""
""fullscreenenter"",""1"",""5087""
","
","
","""event"",""trial"",""time""
""fullscreenenter"",""1"",""5087""
","
","","","","","","null","<div style=""font-size:60px;"">+</div>","null","","fixation","","","","","","","","",""
"memory-trial","156","378594","0.0-15.0-1.56","1736","2","""event"",""trial"",""time""
""fullscreenenter"",""1"",""5087""
","
","
","""event"",""trial"",""time""
""fullscreenenter"",""1"",""5087""
","
","","","","","","1346.5999999046326","images/sheep5.png","","","memory_trial","1","definitely_old","","","","","","",""
"html-keyboard-response","157","379095","0.0-15.0-0.57","1736","2","""event"",""trial"",""time""
""fullscreenenter"",""1"",""5087""
","
","
","""event"",""trial"",""time""
""fullscreenenter"",""1"",""5087""
","
","","","","","","null","<div style=""font-size:60px;"">+</div>","null","","fixation","","","","","","","","",""
"memory-trial","158","381282","0.0-15.0-1.57","1736","2","""event"",""trial"",""time""
""fullscreenenter"",""1"",""5087""
","
","
","""event"",""trial"",""time""
""fullscreenenter"",""1"",""5087""
","
","","","","","","1183.5999999046326","images/plane1.png","","","memory_trial","1","definitely_old","","","","","","",""
"html-keyboard-response","159","381784","0.0-15.0-0.58","1736","2","""event"",""trial"",""time""
""fullscreenenter"",""1"",""5087""
","
","
","""event"",""trial"",""time""
""fullscreenenter"",""1"",""5087""
","
","","","","","","null","<div style=""font-size:60px;"">+</div>","null","","fixation","","","","","","","","",""
"memory-trial","160","384452","0.0-15.0-1.58","1736","2","""event"",""trial"",""time""
""fullscreenenter"",""1"",""5087""
","
","
","""event"",""trial"",""time""
""fullscreenenter"",""1"",""5087""
","
","","","","","","1657.3999999761581","images/horse4.png","","","memory_trial","4","definitely_new","","","","","","",""
"html-keyboard-response","161","384955","0.0-15.0-0.59","1736","2","""event"",""trial"",""time""
""fullscreenenter"",""1"",""5087""
","
","
","""event"",""trial"",""time""
""fullscreenenter"",""1"",""5087""
","
","","","","","","null","<div style=""font-size:60px;"">+</div>","null","","fixation","","","","","","","","",""
"memory-trial","162","392680","0.0-15.0-1.59","1736","2","""event"",""trial"",""time""
""fullscreenenter"",""1"",""5087""
","
","
","""event"",""trial"",""time""
""fullscreenenter"",""1"",""5087""
","
","","","","","","6721.300000071526","images/table1.png","","","memory_trial","1","definitely_old","","","","","","",""
"html-keyboard-response","163","393182","0.0-15.0-0.60","1736","2","""event"",""trial"",""time""
""fullscreenenter"",""1"",""5087""
","
","
","""event"",""trial"",""time""
""fullscreenenter"",""1"",""5087""
","
","","","","","","null","<div style=""font-size:60px;"">+</div>","null","","fixation","","","","","","","","",""
"memory-trial","164","395711","0.0-15.0-1.60","1736","2","""event"",""trial"",""time""
""fullscreenenter"",""1"",""5087""
","
","
","""event"",""trial"",""time""
""fullscreenenter"",""1"",""5087""
","
","","","","","","1526.8999999761581","images/orange2.png","","","memory_trial","2","maybe_old","","","","","","",""
"html-keyboard-response","165","396212","0.0-15.0-0.61","1736","2","""event"",""trial"",""time""
""fullscreenenter"",""1"",""5087""
","
","
","""event"",""trial"",""time""
""fullscreenenter"",""1"",""5087""
","
","","","","","","null","<div style=""font-size:60px;"">+</div>","null","","fixation","","","","","","","","",""
"memory-trial","166","398233","0.0-15.0-1.61","1736","2","""event"",""trial"",""time""
""fullscreenenter"",""1"",""5087""
","
","
","""event"",""trial"",""time""
""fullscreenenter"",""1"",""5087""
","
","","","","","","1018.7000000476837","images/train2.png","","","memory_trial","4","definitely_new","","","","","","",""
"html-keyboard-response","167","398735","0.0-15.0-0.62","1736","2","""event"",""trial"",""time""
""fullscreenenter"",""1"",""5087""
","
","
","""event"",""trial"",""time""
""fullscreenenter"",""1"",""5087""
","
","","","","","","null","<div style=""font-size:60px;"">+</div>","null","","fixation","","","","","","","","",""
"memory-trial","168","401174","0.0-15.0-1.62","1736","2","""event"",""trial"",""time""
""fullscreenenter"",""1"",""5087""
","
","
","""event"",""trial"",""time""
""fullscreenenter"",""1"",""5087""
","
","","","","","","1436","images/straw4.png","","","memory_trial","1","definitely_old","","","","","","",""
"html-keyboard-response","169","401675","0.0-15.0-0.63","1736","2","""event"",""trial"",""time""
""fullscreenenter"",""1"",""5087""
","
","
","""event"",""trial"",""time""
""fullscreenenter"",""1"",""5087""
","
","","","","","","null","<div style=""font-size:60px;"">+</div>","null","","fixation","","","","","","","","",""
"memory-trial","170","403968","0.0-15.0-1.63","1736","2","""event"",""trial"",""time""
""fullscreenenter"",""1"",""5087""
","
","
","""event"",""trial"",""time""
""fullscreenenter"",""1"",""5087""
","
","","","","","","1288.5","images/plane4.png","","","memory_trial","4","definitely_new","","","","","","",""
"html-keyboard-response","171","404470","0.0-15.0-0.64","1736","2","""event"",""trial"",""time""
""fullscreenenter"",""1"",""5087""
","
","
","""event"",""trial"",""time""
""fullscreenenter"",""1"",""5087""
","
","","","","","","null","<div style=""font-size:60px;"">+</div>","null","","fixation","","","","","","","","",""
"memory-trial","172","406477","0.0-15.0-1.64","1736","2","""event"",""trial"",""time""
""fullscreenenter"",""1"",""5087""
","
","
","""event"",""trial"",""time""
""fullscreenenter"",""1"",""5087""
","
","","","","","","1005","images/cow2.png","","","memory_trial","4","definitely_new","","","","","","",""
"html-keyboard-response","173","406979","0.0-15.0-0.65","1736","2","""event"",""trial"",""time""
""fullscreenenter"",""1"",""5087""
","
","
","""event"",""trial"",""time""
""fullscreenenter"",""1"",""5087""
","
","","","","","","null","<div style=""font-size:60px;"">+</div>","null","","fixation","","","","","","","","",""
"memory-trial","174","408717","0.0-15.0-1.65","1736","2","""event"",""trial"",""time""
""fullscreenenter"",""1"",""5087""
","
","
","""event"",""trial"",""time""
""fullscreenenter"",""1"",""5087""
","
","","","","","","735.8999999761581","images/tree5.png","","","memory_trial","4","definitely_new","","","","","","",""
"html-keyboard-response","175","409219","0.0-15.0-0.66","1736","2","""event"",""trial"",""time""
""fullscreenenter"",""1"",""5087""
","
","
","""event"",""trial"",""time""
""fullscreenenter"",""1"",""5087""
","
","","","","","","null","<div style=""font-size:60px;"">+</div>","null","","fixation","","","","","","","","",""
"memory-trial","176","411354","0.0-15.0-1.66","1736","2","""event"",""trial"",""time""
""fullscreenenter"",""1"",""5087""
","
","
","""event"",""trial"",""time""
""fullscreenenter"",""1"",""5087""
","
","","","","","","1132.3999999761581","images/tree3.png","","","memory_trial","4","definitely_new","","","","","","",""
"html-keyboard-response","177","411870","0.0-15.0-0.67","1736","2","""event"",""trial"",""time""
""fullscreenenter"",""1"",""5087""
","
","
","""event"",""trial"",""time""
""fullscreenenter"",""1"",""5087""
","
","","","","","","null","<div style=""font-size:60px;"">+</div>","null","","fixation","","","","","","","","",""
"memory-trial","178","413777","0.0-15.0-1.67","1736","2","""event"",""trial"",""time""
""fullscreenenter"",""1"",""5087""
","
","
","""event"",""trial"",""time""
""fullscreenenter"",""1"",""5087""
","
","","","","","","904.1000000238419","images/banana1.png","","","memory_trial","4","definitely_new","","","","","","",""
"html-keyboard-response","179","414279","0.0-15.0-0.68","1736","2","""event"",""trial"",""time""
""fullscreenenter"",""1"",""5087""
","
","
","""event"",""trial"",""time""
""fullscreenenter"",""1"",""5087""
","
","","","","","","null","<div style=""font-size:60px;"">+</div>","null","","fixation","","","","","","","","",""
"memory-trial","180","417217","0.0-15.0-1.68","1736","2","""event"",""trial"",""time""
""fullscreenenter"",""1"",""5087""
","
","
","""event"",""trial"",""time""
""fullscreenenter"",""1"",""5087""
","
","","","","","","1935.3999999761581","images/boat2.png","","","memory_trial","1","definitely_old","","","","","","",""
"html-keyboard-response","181","417719","0.0-15.0-0.69","1736","2","""event"",""trial"",""time""
""fullscreenenter"",""1"",""5087""
","
","
","""event"",""trial"",""time""
""fullscreenenter"",""1"",""5087""
","
","","","","","","null","<div style=""font-size:60px;"">+</div>","null","","fixation","","","","","","","","",""
"memory-trial","182","419579","0.0-15.0-1.69","1736","2","""event"",""trial"",""time""
""fullscreenenter"",""1"",""5087""
","
","
","""event"",""trial"",""time""
""fullscreenenter"",""1"",""5087""
","
","","","","","","857.8999999761581","images/horse3.png","","","memory_trial","4","definitely_new","","","","","","",""
"html-keyboard-response","183","420082","0.0-15.0-0.70","1736","2","""event"",""trial"",""time""
""fullscreenenter"",""1"",""5087""
","
","
","""event"",""trial"",""time""
""fullscreenenter"",""1"",""5087""
","
","","","","","","null","<div style=""font-size:60px;"">+</div>","null","","fixation","","","","","","","","",""
"memory-trial","184","422101","0.0-15.0-1.70","1736","2","""event"",""trial"",""time""
""fullscreenenter"",""1"",""5087""
","
","
","""event"",""trial"",""time""
""fullscreenenter"",""1"",""5087""
","
","","","","","","1017.3999999761581","images/truck4.png","","","memory_trial","1","definitely_old","","","","","","",""
"html-keyboard-response","185","422603","0.0-15.0-0.71","1736","2","""event"",""trial"",""time""
""fullscreenenter"",""1"",""5087""
","
","
","""event"",""trial"",""time""
""fullscreenenter"",""1"",""5087""
","
","","","","","","null","<div style=""font-size:60px;"">+</div>","null","","fixation","","","","","","","","",""
"memory-trial","186","424881","0.0-15.0-1.71","1736","2","""event"",""trial"",""time""
""fullscreenenter"",""1"",""5087""
","
","
","""event"",""trial"",""time""
""fullscreenenter"",""1"",""5087""
","
","","","","","","1276.6000000238419","images/straw2.png","","","memory_trial","1","definitely_old","","","","","","",""
"html-keyboard-response","187","425390","0.0-15.0-0.72","1736","2","""event"",""trial"",""time""
""fullscreenenter"",""1"",""5087""
","
","
","""event"",""trial"",""time""
""fullscreenenter"",""1"",""5087""
","
","","","","","","null","<div style=""font-size:60px;"">+</div>","null","","fixation","","","","","","","","",""
"memory-trial","188","428773","0.0-15.0-1.72","1736","2","""event"",""trial"",""time""
""fullscreenenter"",""1"",""5087""
","
","
","""event"",""trial"",""time""
""fullscreenenter"",""1"",""5087""
","
","","","","","","2380.2000000476837","images/rabbit4.png","","","memory_trial","2","maybe_old","","","","","","",""
"html-keyboard-response","189","429275","0.0-15.0-0.73","1736","2","""event"",""trial"",""time""
""fullscreenenter"",""1"",""5087""
","
","
","""event"",""trial"",""time""
""fullscreenenter"",""1"",""5087""
","
","","","","","","null","<div style=""font-size:60px;"">+</div>","null","","fixation","","","","","","","","",""
"memory-trial","190","431409","0.0-15.0-1.73","1736","2","""event"",""trial"",""time""
""fullscreenenter"",""1"",""5087""
","
","
","""event"",""trial"",""time""
""fullscreenenter"",""1"",""5087""
","
","","","","","","1131.1000000238419","images/feline3.png","","","memory_trial","4","definitely_new","","","","","","",""
"html-keyboard-response","191","431917","0.0-15.0-0.74","1736","2","""event"",""trial"",""time""
""fullscreenenter"",""1"",""5087""
","
","
","""event"",""trial"",""time""
""fullscreenenter"",""1"",""5087""
","
","","","","","","null","<div style=""font-size:60px;"">+</div>","null","","fixation","","","","","","","","",""
"memory-trial","192","434191","0.0-15.0-1.74","1736","2","""event"",""trial"",""time""
""fullscreenenter"",""1"",""5087""
","
","
","""event"",""trial"",""time""
""fullscreenenter"",""1"",""5087""
","
","","","","","","1270.7999999523163","images/orange3.png","","","memory_trial","1","definitely_old","","","","","","",""
"html-keyboard-response","193","434706","0.0-15.0-0.75","1736","2","""event"",""trial"",""time""
""fullscreenenter"",""1"",""5087""
","
","
","""event"",""trial"",""time""
""fullscreenenter"",""1"",""5087""
","
","","","","","","null","<div style=""font-size:60px;"">+</div>","null","","fixation","","","","","","","","",""
"memory-trial","194","436642","0.0-15.0-1.75","1736","2","""event"",""trial"",""time""
""fullscreenenter"",""1"",""5087""
","
","
","""event"",""trial"",""time""
""fullscreenenter"",""1"",""5087""
","
","","","","","","933.7000000476837","images/train4.png","","","memory_trial","4","definitely_new","","","","","","",""
"html-keyboard-response","195","437144","0.0-15.0-0.76","1736","2","""event"",""trial"",""time""
""fullscreenenter"",""1"",""5087""
","
","
","""event"",""trial"",""time""
""fullscreenenter"",""1"",""5087""
","
","","","","","","null","<div style=""font-size:60px;"">+</div>","null","","fixation","","","","","","","","",""
"memory-trial","196","440111","0.0-15.0-1.76","1736","2","""event"",""trial"",""time""
""fullscreenenter"",""1"",""5087""
","
","
","""event"",""trial"",""time""
""fullscreenenter"",""1"",""5087""
","
","","","","","","1964.2000000476837","images/sheep1.png","","","memory_trial","4","definitely_new","","","","","","",""
"html-keyboard-response","197","440614","0.0-15.0-0.77","1736","2","""event"",""trial"",""time""
""fullscreenenter"",""1"",""5087""
","
","
","""event"",""trial"",""time""
""fullscreenenter"",""1"",""5087""
","
","","","","","","null","<div style=""font-size:60px;"">+</div>","null","","fixation","","","","","","","","",""
"memory-trial","198","442423","0.0-15.0-1.77","1736","2","""event"",""trial"",""time""
""fullscreenenter"",""1"",""5087""
","
","
","""event"",""trial"",""time""
""fullscreenenter"",""1"",""5087""
","
","","","","","","805.8000000715256","images/cactus2.png","","","memory_trial","1","definitely_old","","","","","","",""
"html-keyboard-response","199","442925","0.0-15.0-0.78","1736","2","""event"",""trial"",""time""
""fullscreenenter"",""1"",""5087""
","
","
","""event"",""trial"",""time""
""fullscreenenter"",""1"",""5087""
","
","","","","","","null","<div style=""font-size:60px;"">+</div>","null","","fixation","","","","","","","","",""
"memory-trial","200","444801","0.0-15.0-1.78","1736","2","""event"",""trial"",""time""
""fullscreenenter"",""1"",""5087""
","
","
","""event"",""trial"",""time""
""fullscreenenter"",""1"",""5087""
","
","","","","","","872.7999999523163","images/rodent4.png","","","memory_trial","4","definitely_new","","","","","","",""
"html-keyboard-response","201","445304","0.0-15.0-0.79","1736","2","""event"",""trial"",""time""
""fullscreenenter"",""1"",""5087""
","
","
","""event"",""trial"",""time""
""fullscreenenter"",""1"",""5087""
","
","","","","","","null","<div style=""font-size:60px;"">+</div>","null","","fixation","","","","","","","","",""
"memory-trial","202","447461","0.0-15.0-1.79","1736","2","""event"",""trial"",""time""
""fullscreenenter"",""1"",""5087""
","
","
","""event"",""trial"",""time""
""fullscreenenter"",""1"",""5087""
","
","","","","","","1154.2000000476837","images/flower3.png","","","memory_trial","1","definitely_old","","","","","","",""
"html-keyboard-response","203","447962","0.0-15.0-0.80","1736","2","""event"",""trial"",""time""
""fullscreenenter"",""1"",""5087""
","
","
","""event"",""trial"",""time""
""fullscreenenter"",""1"",""5087""
","
","","","","","","null","<div style=""font-size:60px;"">+</div>","null","","fixation","","","","","","","","",""
"memory-trial","204","451780","0.0-15.0-1.80","1736","2","""event"",""trial"",""time""
""fullscreenenter"",""1"",""5087""
","
","
","""event"",""trial"",""time""
""fullscreenenter"",""1"",""5087""
","
","","","","","","2815.899999976158","images/dog1.png","","","memory_trial","1","definitely_old","","","","","","",""
"html-keyboard-response","205","452281","0.0-15.0-0.81","1736","2","""event"",""trial"",""time""
""fullscreenenter"",""1"",""5087""
","
","
","""event"",""trial"",""time""
""fullscreenenter"",""1"",""5087""
","
","","","","","","null","<div style=""font-size:60px;"">+</div>","null","","fixation","","","","","","","","",""
"memory-trial","206","454082","0.0-15.0-1.81","1736","2","""event"",""trial"",""time""
""fullscreenenter"",""1"",""5087""
","
","
","""event"",""trial"",""time""
""fullscreenenter"",""1"",""5087""
","
","","","","","","798.3999999761581","images/feline4.png","","","memory_trial","1","definitely_old","","","","","","",""
"html-keyboard-response","207","454583","0.0-15.0-0.82","1736","2","""event"",""trial"",""time""
""fullscreenenter"",""1"",""5087""
","
","
","""event"",""trial"",""time""
""fullscreenenter"",""1"",""5087""
","
","","","","","","null","<div style=""font-size:60px;"">+</div>","null","","fixation","","","","","","","","",""
"memory-trial","208","457031","0.0-15.0-1.82","1736","2","""event"",""trial"",""time""
""fullscreenenter"",""1"",""5087""
","
","
","""event"",""trial"",""time""
""fullscreenenter"",""1"",""5087""
","
","","","","","","1444","images/rabbit5.png","","","memory_trial","1","definitely_old","","","","","","",""
"html-keyboard-response","209","457533","0.0-15.0-0.83","1736","2","""event"",""trial"",""time""
""fullscreenenter"",""1"",""5087""
","
","
","""event"",""trial"",""time""
""fullscreenenter"",""1"",""5087""
","
","","","","","","null","<div style=""font-size:60px;"">+</div>","null","","fixation","","","","","","","","",""
"memory-trial","210","459625","0.0-15.0-1.83","1736","2","""event"",""trial"",""time""
""fullscreenenter"",""1"",""5087""
","
","
","""event"",""trial"",""time""
""fullscreenenter"",""1"",""5087""
","
","","","","","","1089.7000000476837","images/chair3.png","","","memory_trial","1","definitely_old","","","","","","",""
"html-keyboard-response","211","460126","0.0-15.0-0.84","1736","2","""event"",""trial"",""time""
""fullscreenenter"",""1"",""5087""
","
","
","""event"",""trial"",""time""
""fullscreenenter"",""1"",""5087""
","
","","","","","","null","<div style=""font-size:60px;"">+</div>","null","","fixation","","","","","","","","",""
"memory-trial","212","465116","0.0-15.0-1.84","1736","2","""event"",""trial"",""time""
""fullscreenenter"",""1"",""5087""
","
","
","""event"",""trial"",""time""
""fullscreenenter"",""1"",""5087""
","
","","","","","","3988.600000023842","images/rodent2.png","","","memory_trial","4","definitely_new","","","","","","",""
"html-keyboard-response","213","465618","0.0-15.0-0.85","1736","2","""event"",""trial"",""time""
""fullscreenenter"",""1"",""5087""
","
","
","""event"",""trial"",""time""
""fullscreenenter"",""1"",""5087""
","
","","","","","","null","<div style=""font-size:60px;"">+</div>","null","","fixation","","","","","","","","",""
"memory-trial","214","467546","0.0-15.0-1.85","1736","2","""event"",""trial"",""time""
""fullscreenenter"",""1"",""5087""
","
","
","""event"",""trial"",""time""
""fullscreenenter"",""1"",""5087""
","
","","","","","","924.6000000238419","images/chair4.png","","","memory_trial","1","definitely_old","","","","","","",""
"html-keyboard-response","215","468047","0.0-15.0-0.86","1736","2","""event"",""trial"",""time""
""fullscreenenter"",""1"",""5087""
","
","
","""event"",""trial"",""time""
""fullscreenenter"",""1"",""5087""
","
","","","","","","null","<div style=""font-size:60px;"">+</div>","null","","fixation","","","","","","","","",""
"memory-trial","216","470552","0.0-15.0-1.86","1736","2","""event"",""trial"",""time""
""fullscreenenter"",""1"",""5087""
","
","
","""event"",""trial"",""time""
""fullscreenenter"",""1"",""5087""
","
","","","","","","1500","images/cow5.png","","","memory_trial","4","definitely_new","","","","","","",""
"html-keyboard-response","217","471054","0.0-15.0-0.87","1736","2","""event"",""trial"",""time""
""fullscreenenter"",""1"",""5087""
","
","
","""event"",""trial"",""time""
""fullscreenenter"",""1"",""5087""
","
","","","","","","null","<div style=""font-size:60px;"">+</div>","null","","fixation","","","","","","","","",""
"memory-trial","218","472730","0.0-15.0-1.87","1736","2","""event"",""trial"",""time""
""fullscreenenter"",""1"",""5087""
","
","
","""event"",""trial"",""time""
""fullscreenenter"",""1"",""5087""
","
","","","","","","673.2000000476837","images/banana5.png","","","memory_trial","4","definitely_new","","","","","","",""
"html-keyboard-response","219","473231","0.0-15.0-0.88","1736","2","""event"",""trial"",""time""
""fullscreenenter"",""1"",""5087""
","
","
","""event"",""trial"",""time""
""fullscreenenter"",""1"",""5087""
","
","","","","","","null","<div style=""font-size:60px;"">+</div>","null","","fixation","","","","","","","","",""
"memory-trial","220","474866","0.0-15.0-1.88","1736","2","""event"",""trial"",""time""
""fullscreenenter"",""1"",""5087""
","
","
","""event"",""trial"",""time""
""fullscreenenter"",""1"",""5087""
","
","","","","","","631.3999999761581","images/tree2.png","","","memory_trial","4","definitely_new","","","","","","",""
"html-keyboard-response","221","475368","0.0-15.0-0.89","1736","2","""event"",""trial"",""time""
""fullscreenenter"",""1"",""5087""
","
","
","""event"",""trial"",""time""
""fullscreenenter"",""1"",""5087""
","
","","","","","","null","<div style=""font-size:60px;"">+</div>","null","","fixation","","","","","","","","",""
"memory-trial","222","477397","0.0-15.0-1.89","1736","2","""event"",""trial"",""time""
""fullscreenenter"",""1"",""5087""
","
","
","""event"",""trial"",""time""
""fullscreenenter"",""1"",""5087""
","
","","","","","","1026.5","images/sofa1.png","","","memory_trial","1","definitely_old","","","","","","",""
"html-keyboard-response","223","477899","0.0-15.0-0.90","1736","2","""event"",""trial"",""time""
""fullscreenenter"",""1"",""5087""
","
","
","""event"",""trial"",""time""
""fullscreenenter"",""1"",""5087""
","
","","","","","","null","<div style=""font-size:60px;"">+</div>","null","","fixation","","","","","","","","",""
"memory-trial","224","479855","0.0-15.0-1.90","1736","2","""event"",""trial"",""time""
""fullscreenenter"",""1"",""5087""
","
","
","""event"",""trial"",""time""
""fullscreenenter"",""1"",""5087""
","
","","","","","","954","images/dog4.png","","","memory_trial","4","definitely_new","","","","","","",""
"html-keyboard-response","225","480355","0.0-15.0-0.91","1736","2","""event"",""trial"",""time""
""fullscreenenter"",""1"",""5087""
","
","
","""event"",""trial"",""time""
""fullscreenenter"",""1"",""5087""
","
","","","","","","null","<div style=""font-size:60px;"">+</div>","null","","fixation","","","","","","","","",""
"memory-trial","226","482373","0.0-15.0-1.91","1736","2","""event"",""trial"",""time""
""fullscreenenter"",""1"",""5087""
","
","
","""event"",""trial"",""time""
""fullscreenenter"",""1"",""5087""
","
","","","","","","1015.8999999761581","images/cactus1.png","","","memory_trial","4","definitely_new","","","","","","",""
"html-keyboard-response","227","482876","0.0-15.0-0.92","1736","2","""event"",""trial"",""time""
""fullscreenenter"",""1"",""5087""
","
","
","""event"",""trial"",""time""
""fullscreenenter"",""1"",""5087""
","
","","","","","","null","<div style=""font-size:60px;"">+</div>","null","","fixation","","","","","","","","",""
"memory-trial","228","484775","0.0-15.0-1.92","1736","2","""event"",""trial"",""time""
""fullscreenenter"",""1"",""5087""
","
","
","""event"",""trial"",""time""
""fullscreenenter"",""1"",""5087""
","
","","","","","","895.7999999523163","images/straw5.png","","","memory_trial","4","definitely_new","","","","","","",""
"html-keyboard-response","229","485277","0.0-15.0-0.93","1736","2","""event"",""trial"",""time""
""fullscreenenter"",""1"",""5087""
","
","
","""event"",""trial"",""time""
""fullscreenenter"",""1"",""5087""
","
","","","","","","null","<div style=""font-size:60px;"">+</div>","null","","fixation","","","","","","","","",""
"memory-trial","230","487494","0.0-15.0-1.93","1736","2","""event"",""trial"",""time""
""fullscreenenter"",""1"",""5087""
","
","
","""event"",""trial"",""time""
""fullscreenenter"",""1"",""5087""
","
","","","","","","1214.0999999046326","images/goat2.png","","","memory_trial","1","definitely_old","","","","","","",""
"html-keyboard-response","231","488003","0.0-15.0-0.94","1736","2","""event"",""trial"",""time""
""fullscreenenter"",""1"",""5087""
","
","
","""event"",""trial"",""time""
""fullscreenenter"",""1"",""5087""
","
","","","","","","null","<div style=""font-size:60px;"">+</div>","null","","fixation","","","","","","","","",""
"memory-trial","232","490546","0.0-15.0-1.94","1736","2","""event"",""trial"",""time""
""fullscreenenter"",""1"",""5087""
","
","
","""event"",""trial"",""time""
""fullscreenenter"",""1"",""5087""
","
","","","","","","1541.1000000238419","images/orange4.png","","","memory_trial","4","definitely_new","","","","","","",""
"html-keyboard-response","233","491047","0.0-15.0-0.95","1736","2","""event"",""trial"",""time""
""fullscreenenter"",""1"",""5087""
","
","
","""event"",""trial"",""time""
""fullscreenenter"",""1"",""5087""
","
","","","","","","null","<div style=""font-size:60px;"">+</div>","null","","fixation","","","","","","","","",""
"memory-trial","234","493166","0.0-15.0-1.95","1736","2","""event"",""trial"",""time""
""fullscreenenter"",""1"",""5087""
","
","
","""event"",""trial"",""time""
""fullscreenenter"",""1"",""5087""
","
","","","","","","1116.1999999284744","images/bush2.png","","","memory_trial","4","definitely_new","","","","","","",""
"html-keyboard-response","235","493668","0.0-15.0-0.96","1736","2","""event"",""trial"",""time""
""fullscreenenter"",""1"",""5087""
","
","
","""event"",""trial"",""time""
""fullscreenenter"",""1"",""5087""
","
","","","","","","null","<div style=""font-size:60px;"">+</div>","null","","fixation","","","","","","","","",""
"memory-trial","236","496141","0.0-15.0-1.96","1736","2","""event"",""trial"",""time""
""fullscreenenter"",""1"",""5087""
","
","
","""event"",""trial"",""time""
""fullscreenenter"",""1"",""5087""
","
","","","","","","1469.7000000476837","images/straw3.png","","","memory_trial","1","definitely_old","","","","","","",""
"html-keyboard-response","237","496643","0.0-15.0-0.97","1736","2","""event"",""trial"",""time""
""fullscreenenter"",""1"",""5087""
","
","
","""event"",""trial"",""time""
""fullscreenenter"",""1"",""5087""
","
","","","","","","null","<div style=""font-size:60px;"">+</div>","null","","fixation","","","","","","","","",""
"memory-trial","238","499321","0.0-15.0-1.97","1736","2","""event"",""trial"",""time""
""fullscreenenter"",""1"",""5087""
","
","
","""event"",""trial"",""time""
""fullscreenenter"",""1"",""5087""
","
","","","","","","1675.5","images/straw1.png","","","memory_trial","4","definitely_new","","","","","","",""
"html-keyboard-response","239","499823","0.0-15.0-0.98","1736","2","""event"",""trial"",""time""
""fullscreenenter"",""1"",""5087""
","
","
","""event"",""trial"",""time""
""fullscreenenter"",""1"",""5087""
","
","","","","","","null","<div style=""font-size:60px;"">+</div>","null","","fixation","","","","","","","","",""
"memory-trial","240","503518","0.0-15.0-1.98","1736","2","""event"",""trial"",""time""
""fullscreenenter"",""1"",""5087""
","
","
","""event"",""trial"",""time""
""fullscreenenter"",""1"",""5087""
","
","","","","","","2693.100000023842","images/truck1.png","","","memory_trial","1","definitely_old","","","","","","",""
"html-keyboard-response","241","504020","0.0-15.0-0.99","1736","2","""event"",""trial"",""time""
""fullscreenenter"",""1"",""5087""
","
","
","""event"",""trial"",""time""
""fullscreenenter"",""1"",""5087""
","
","","","","","","null","<div style=""font-size:60px;"">+</div>","null","","fixation","","","","","","","","",""
"memory-trial","242","506238","0.0-15.0-1.99","1736","2","""event"",""trial"",""time""
""fullscreenenter"",""1"",""5087""
","
","
","""event"",""trial"",""time""
""fullscreenenter"",""1"",""5087""
","
","","","","","","1215.6000000238419","images/sheep4.png","","","memory_trial","1","definitely_old","","","","","","",""
"html-keyboard-response","243","506740","0.0-15.0-0.100","1736","2","""event"",""trial"",""time""
""fullscreenenter"",""1"",""5087""
","
","
","""event"",""trial"",""time""
""fullscreenenter"",""1"",""5087""
","
","","","","","","null","<div style=""font-size:60px;"">+</div>","null","","fixation","","","","","","","","",""
"memory-trial","244","508986","0.0-15.0-1.100","1736","2","""event"",""trial"",""time""
""fullscreenenter"",""1"",""5087""
","
","
","""event"",""trial"",""time""
""fullscreenenter"",""1"",""5087""
","
","","","","","","1241.8999999761581","images/orange5.png","","","memory_trial","1","definitely_old","","","","","","",""
"html-keyboard-response","245","509489","0.0-15.0-0.101","1736","2","""event"",""trial"",""time""
""fullscreenenter"",""1"",""5087""
","
","
","""event"",""trial"",""time""
""fullscreenenter"",""1"",""5087""
","
","","","","","","null","<div style=""font-size:60px;"">+</div>","null","","fixation","","","","","","","","",""
"memory-trial","246","512241","0.0-15.0-1.101","1736","2","""event"",""trial"",""time""
""fullscreenenter"",""1"",""5087""
","
","
","""event"",""trial"",""time""
""fullscreenenter"",""1"",""5087""
","
","","","","","","1749.7999999523163","images/bed4.png","","","memory_trial","4","definitely_new","","","","","","",""
"html-button-response","247","514397","0.0-15.0-2.101-0.101","1736","2","""event"",""trial"",""time""
""fullscreenenter"",""1"",""5087""
","
","
","""event"",""trial"",""time""
""fullscreenenter"",""1"",""5087""
","
","","","","","","2155.6999999284744","<p> Take a break! </p><p> Click the button to continue. </p>","0","","break","","","","","","","","",""
"html-keyboard-response","248","514898","0.0-15.0-0.102","1736","2","""event"",""trial"",""time""
""fullscreenenter"",""1"",""5087""
","
","
","""event"",""trial"",""time""
""fullscreenenter"",""1"",""5087""
","
","","","","","","null","<div style=""font-size:60px;"">+</div>","null","","fixation","","","","","","","","",""
"memory-trial","249","518684","0.0-15.0-1.102","1736","2","""event"",""trial"",""time""
""fullscreenenter"",""1"",""5087""
","
","
","""event"",""trial"",""time""
""fullscreenenter"",""1"",""5087""
","
","","","","","","2783.600000023842","images/rodent3.png","","","memory_trial","4","definitely_new","","","","","","",""
"html-keyboard-response","250","519186","0.0-15.0-0.103","1736","2","""event"",""trial"",""time""
""fullscreenenter"",""1"",""5087""
","
","
","""event"",""trial"",""time""
""fullscreenenter"",""1"",""5087""
","
","","","","","","null","<div style=""font-size:60px;"">+</div>","null","","fixation","","","","","","","","",""
"memory-trial","251","521577","0.0-15.0-1.103","1736","2","""event"",""trial"",""time""
""fullscreenenter"",""1"",""5087""
","
","
","""event"",""trial"",""time""
""fullscreenenter"",""1"",""5087""
","
","","","","","","1388.0999999046326","images/cactus4.png","","","memory_trial","4","definitely_new","","","","","","",""
"html-keyboard-response","252","522078","0.0-15.0-0.104","1736","2","""event"",""trial"",""time""
""fullscreenenter"",""1"",""5087""
","
","
","""event"",""trial"",""time""
""fullscreenenter"",""1"",""5087""
","
","","","","","","null","<div style=""font-size:60px;"">+</div>","null","","fixation","","","","","","","","",""
"memory-trial","253","523948","0.0-15.0-1.104","1736","2","""event"",""trial"",""time""
""fullscreenenter"",""1"",""5087""
","
","
","""event"",""trial"",""time""
""fullscreenenter"",""1"",""5087""
","
","","","","","","866.8999999761581","images/chair5.png","","","memory_trial","4","definitely_new","","","","","","",""
"html-keyboard-response","254","524450","0.0-15.0-0.105","1736","2","""event"",""trial"",""time""
""fullscreenenter"",""1"",""5087""
","
","
","""event"",""trial"",""time""
""fullscreenenter"",""1"",""5087""
","
","","","","","","null","<div style=""font-size:60px;"">+</div>","null","","fixation","","","","","","","","",""
"memory-trial","255","526226","0.0-15.0-1.105","1736","2","""event"",""trial"",""time""
""fullscreenenter"",""1"",""5087""
","
","
","""event"",""trial"",""time""
""fullscreenenter"",""1"",""5087""
","
","","","","","","773.2000000476837","images/tree4.png","","","memory_trial","4","definitely_new","","","","","","",""
"html-keyboard-response","256","526732","0.0-15.0-0.106","1736","2","""event"",""trial"",""time""
""fullscreenenter"",""1"",""5087""
","
","
","""event"",""trial"",""time""
""fullscreenenter"",""1"",""5087""
","
","","","","","","null","<div style=""font-size:60px;"">+</div>","null","","fixation","","","","","","","","",""
"memory-trial","257","528671","0.0-15.0-1.106","1736","2","""event"",""trial"",""time""
""fullscreenenter"",""1"",""5087""
","
","
","""event"",""trial"",""time""
""fullscreenenter"",""1"",""5087""
","
","","","","","","933.8999999761581","images/feline2.png","","","memory_trial","1","definitely_old","","","","","","",""
"html-keyboard-response","258","529173","0.0-15.0-0.107","1736","2","""event"",""trial"",""time""
""fullscreenenter"",""1"",""5087""
","
","
","""event"",""trial"",""time""
""fullscreenenter"",""1"",""5087""
","
","","","","","","null","<div style=""font-size:60px;"">+</div>","null","","fixation","","","","","","","","",""
"memory-trial","259","531128","0.0-15.0-1.107","1736","2","""event"",""trial"",""time""
""fullscreenenter"",""1"",""5087""
","
","
","""event"",""trial"",""time""
""fullscreenenter"",""1"",""5087""
","
","","","","","","952.6000000238419","images/bed2.png","","","memory_trial","4","definitely_new","","","","","","",""
"html-keyboard-response","260","531628","0.0-15.0-0.108","1736","2","""event"",""trial"",""time""
""fullscreenenter"",""1"",""5087""
","
","
","""event"",""trial"",""time""
""fullscreenenter"",""1"",""5087""
","
","","","","","","null","<div style=""font-size:60px;"">+</div>","null","","fixation","","","","","","","","",""
"memory-trial","261","533659","0.0-15.0-1.108","1736","2","""event"",""trial"",""time""
""fullscreenenter"",""1"",""5087""
","
","
","""event"",""trial"",""time""
""fullscreenenter"",""1"",""5087""
","
","","","","","","1027.7999999523163","images/rodent1.png","","","memory_trial","4","definitely_new","","","","","","",""
"html-keyboard-response","262","534160","0.0-15.0-0.109","1736","2","""event"",""trial"",""time""
""fullscreenenter"",""1"",""5087""
","
","
","""event"",""trial"",""time""
""fullscreenenter"",""1"",""5087""
","
","","","","","","null","<div style=""font-size:60px;"">+</div>","null","","fixation","","","","","","","","",""
"memory-trial","263","536018","0.0-15.0-1.109","1736","2","""event"",""trial"",""time""
""fullscreenenter"",""1"",""5087""
","
","
","""event"",""trial"",""time""
""fullscreenenter"",""1"",""5087""
","
","","","","","","843.7000000476837","images/apple1.png","","","memory_trial","4","definitely_new","","","","","","",""
"html-keyboard-response","264","536520","0.0-15.0-0.110","1736","2","""event"",""trial"",""time""
""fullscreenenter"",""1"",""5087""
","
","
","""event"",""trial"",""time""
""fullscreenenter"",""1"",""5087""
","
","","","","","","null","<div style=""font-size:60px;"">+</div>","null","","fixation","","","","","","","","",""
"memory-trial","265","538654","0.0-15.0-1.110","1736","2","""event"",""trial"",""time""
""fullscreenenter"",""1"",""5087""
","
","
","""event"",""trial"",""time""
""fullscreenenter"",""1"",""5087""
","
","","","","","","1130.1999999284744","images/boat5.png","","","memory_trial","4","definitely_new","","","","","","",""
"html-keyboard-response","266","539168","0.0-15.0-0.111","1736","2","""event"",""trial"",""time""
""fullscreenenter"",""1"",""5087""
","
","
","""event"",""trial"",""time""
""fullscreenenter"",""1"",""5087""
","
","","","","","","null","<div style=""font-size:60px;"">+</div>","null","","fixation","","","","","","","","",""
"memory-trial","267","541269","0.0-15.0-1.111","1736","2","""event"",""trial"",""time""
""fullscreenenter"",""1"",""5087""
","
","
","""event"",""trial"",""time""
""fullscreenenter"",""1"",""5087""
","
","","","","","","1097.6000000238419","images/truck5.png","","","memory_trial","4","definitely_new","","","","","","",""
"html-keyboard-response","268","541771","0.0-15.0-0.112","1736","2","""event"",""trial"",""time""
""fullscreenenter"",""1"",""5087""
","
","
","""event"",""trial"",""time""
""fullscreenenter"",""1"",""5087""
","
","","","","","","null","<div style=""font-size:60px;"">+</div>","null","","fixation","","","","","","","","",""
"memory-trial","269","543653","0.0-15.0-1.112","1736","2","""event"",""trial"",""time""
""fullscreenenter"",""1"",""5087""
","
","
","""event"",""trial"",""time""
""fullscreenenter"",""1"",""5087""
","
","","","","","","879.0999999046326","images/plane5.png","","","memory_trial","4","definitely_new","","","","","","",""
"html-keyboard-response","270","544156","0.0-15.0-0.113","1736","2","""event"",""trial"",""time""
""fullscreenenter"",""1"",""5087""
","
","
","""event"",""trial"",""time""
""fullscreenenter"",""1"",""5087""
","
","","","","","","null","<div style=""font-size:60px;"">+</div>","null","","fixation","","","","","","","","",""
"memory-trial","271","546013","0.0-15.0-1.113","1736","2","""event"",""trial"",""time""
""fullscreenenter"",""1"",""5087""
","
","
","""event"",""trial"",""time""
""fullscreenenter"",""1"",""5087""
","
","","","","","","843.1000000238419","images/orange1.png","","","memory_trial","1","definitely_old","","","","","","",""
"html-keyboard-response","272","546516","0.0-15.0-0.114","1736","2","""event"",""trial"",""time""
""fullscreenenter"",""1"",""5087""
","
","
","""event"",""trial"",""time""
""fullscreenenter"",""1"",""5087""
","
","","","","","","null","<div style=""font-size:60px;"">+</div>","null","","fixation","","","","","","","","",""
"memory-trial","273","548392","0.0-15.0-1.114","1736","2","""event"",""trial"",""time""
""fullscreenenter"",""1"",""5087""
","
","
","""event"",""trial"",""time""
""fullscreenenter"",""1"",""5087""
","
","","","","","","873.3999999761581","images/bush3.png","","","memory_trial","4","definitely_new","","","","","","",""
"html-keyboard-response","274","548893","0.0-15.0-0.115","1736","2","""event"",""trial"",""time""
""fullscreenenter"",""1"",""5087""
","
","
","""event"",""trial"",""time""
""fullscreenenter"",""1"",""5087""
","
","","","","","","null","<div style=""font-size:60px;"">+</div>","null","","fixation","","","","","","","","",""
"memory-trial","275","552198","0.0-15.0-1.115","1736","2","""event"",""trial"",""time""
""fullscreenenter"",""1"",""5087""
","
","
","""event"",""trial"",""time""
""fullscreenenter"",""1"",""5087""
","
","","","","","","2302.3000000715256","images/goat4.png","","","memory_trial","3","maybe_new","","","","","","",""
"html-keyboard-response","276","552700","0.0-15.0-0.116","1736","2","""event"",""trial"",""time""
""fullscreenenter"",""1"",""5087""
","
","
","""event"",""trial"",""time""
""fullscreenenter"",""1"",""5087""
","
","","","","","","null","<div style=""font-size:60px;"">+</div>","null","","fixation","","","","","","","","",""
"memory-trial","277","555725","0.0-15.0-1.116","1736","2","""event"",""trial"",""time""
""fullscreenenter"",""1"",""5087""
","
","
","""event"",""trial"",""time""
""fullscreenenter"",""1"",""5087""
","
","","","","","","2023.3000000715256","images/bush5.png","","","memory_trial","4","definitely_new","","","","","","",""
"html-keyboard-response","278","556228","0.0-15.0-0.117","1736","2","""event"",""trial"",""time""
""fullscreenenter"",""1"",""5087""
","
","
","""event"",""trial"",""time""
""fullscreenenter"",""1"",""5087""
","
","","","","","","null","<div style=""font-size:60px;"">+</div>","null","","fixation","","","","","","","","",""
"memory-trial","279","558618","0.0-15.0-1.117","1736","2","""event"",""trial"",""time""
""fullscreenenter"",""1"",""5087""
","
","
","""event"",""trial"",""time""
""fullscreenenter"",""1"",""5087""
","
","","","","","","1387.6000000238419","images/sofa4.png","","","memory_trial","4","definitely_new","","","","","","",""
"html-keyboard-response","280","559119","0.0-15.0-0.118","1736","2","""event"",""trial"",""time""
""fullscreenenter"",""1"",""5087""
","
","
","""event"",""trial"",""time""
""fullscreenenter"",""1"",""5087""
","
","","","","","","null","<div style=""font-size:60px;"">+</div>","null","","fixation","","","","","","","","",""
"memory-trial","281","561174","0.0-15.0-1.118","1736","2","""event"",""trial"",""time""
""fullscreenenter"",""1"",""5087""
","
","
","""event"",""trial"",""time""
""fullscreenenter"",""1"",""5087""
","
","","","","","","1044.7999999523163","images/sofa5.png","","","memory_trial","4","definitely_new","","","","","","",""
"html-keyboard-response","282","561677","0.0-15.0-0.119","1736","2","""event"",""trial"",""time""
""fullscreenenter"",""1"",""5087""
","
","
","""event"",""trial"",""time""
""fullscreenenter"",""1"",""5087""
","
","","","","","","null","<div style=""font-size:60px;"">+</div>","null","","fixation","","","","","","","","",""
"memory-trial","283","563543","0.0-15.0-1.119","1736","2","""event"",""trial"",""time""
""fullscreenenter"",""1"",""5087""
","
","
","""event"",""trial"",""time""
""fullscreenenter"",""1"",""5087""
","
","","","","","","863.6000000238419","images/horse2.png","","","memory_trial","4","definitely_new","","","","","","",""
"preload","284","568477","0.0-16.0","1736","2","""event"",""trial"",""time""
""fullscreenenter"",""1"",""5087""
","
","
","""event"",""trial"",""time""
""fullscreenenter"",""1"",""5087""
","
","true","false","[]","[]","[]","","","","","","","","","","","","","",""
"learning-instructions","285","576645","0.0-17.0-0.0-0.0-0.0","1736","2","""event"",""trial"",""time""
""fullscreenenter"",""1"",""5087""
","
","
","""event"",""trial"",""time""
""fullscreenenter"",""1"",""5087""
","
","","","","","","4424.100000023842","<p> We're now going to ask you to put fuel in your vehicles again. </p>","","0","instructions","","","","","","","","",""
"learning-instructions","286","583091","0.0-17.0-0.0-0.0-0.1","1736","2","""event"",""trial"",""time""
""fullscreenenter"",""1"",""5087""
","
","
","""event"",""trial"",""time""
""fullscreenenter"",""1"",""5087""
","
","","","","","","400.7000000476837","<p> On each trial, you will see a vehicle. Select the fuel that you think will make the vehicle start. </p>","","0","instructions","","","","","","","","",""
"learning-instructions","287","590422","0.0-17.0-0.0-0.0-0.2","1736","2","""event"",""trial"",""time""
""fullscreenenter"",""1"",""5087""
","
","
","""event"",""trial"",""time""
""fullscreenenter"",""1"",""5087""
","
","","","","","","271.5","<p> To make your selection, think about what you learned last week. You will NOT receive any feedback about your choice. </p>","","0","instructions","","","","","","","","",""
"learning-instructions","288","598020","0.0-17.0-0.0-0.0-0.3","1736","2","""event"",""trial"",""time""
""fullscreenenter"",""1"",""5087""
","
","
","""event"",""trial"",""time""
""fullscreenenter"",""1"",""5087""
","
","","","","","","148","<p> You should use the 1 key to select the fuel on the left, the 2 key to select the fuel in the middle, and the 3 key to select the fuel on the right. </p><br><div class=""choice-mem-instructions-grid""> <div class=""choice-mem-option""><img src=""images/vehicles_choice1.png"" class=""choice-mem-option-img"" stage=""instructions"" position=""0"" ><div class=""choice-mem-option-text""> Press ""1."" </div></div><div class=""choice-mem-option""><img src=""images/vehicles_choice2.png"" class=""choice-mem-option-img"" stage=""instructions"" position=""1"" ><div class=""choice-mem-option-text""> Press ""2."" </div></div><div class=""choice-mem-option""><img src=""images/vehicles_choice3.png"" class=""choice-mem-option-img"" stage=""instructions"" position=""2"" ><div class=""choice-mem-option-text""> Press ""3."" </div></div></div>","","0","instructions","","","","","","","","",""
"learning-instructions","289","605047","0.0-17.0-0.0-0.0-0.4","1736","2","""event"",""trial"",""time""
""fullscreenenter"",""1"",""5087""
","
","
","""event"",""trial"",""time""
""fullscreenenter"",""1"",""5087""
","
","","","","","","755.5","<p> You will have 10 seconds to make each selection. Try to respond before time runs out! </p>","","0","instructions","","","","","","","","",""
"learning-instructions","290","607963","0.0-17.0-0.0-1.0","1736","2","""event"",""trial"",""time""
""fullscreenenter"",""1"",""5087""
","
","
","""event"",""trial"",""time""
""fullscreenenter"",""1"",""5087""
","
","","","","","","861.7000000476837","<p> You are now ready to begin the game. </p>","","0","instructions","","","","","","","","",""
"html-keyboard-response","291","608573","0.0-17.0-0.0-2.0-0.0","1736","2","""event"",""trial"",""time""
""fullscreenenter"",""1"",""5087""
","
","
","""event"",""trial"",""time""
""fullscreenenter"",""1"",""5087""
","
","","","","","","null","<div style=""font-size:60px;"">+</div>","null","","fixation","","","","","","","","",""
