"trial_type","trial_index","time_elapsed","internal_node_id","subject_id","task_version","interactions","blur_events","focus_events","fullscreenenter_events","fullscreenexit_events","success","timeout","failed_images","failed_audio","failed_video","rt","stimulus","response","button_pressed","task_part","key_press","answer","correct","left_choice","middle_choice","right_choice","choice_positions","option_selected","block"
"pavlovia","0","10","0.0-0.0","2001","2","""event"",""trial"",""time""
""fullscreenenter"",""1"",""1660""
","
","
","""event"",""trial"",""time""
""fullscreenenter"",""1"",""1660""
","
","","","","","","","","","","","","","","","","","","",""
"fullscreen","1","2634","0.0-1.0","2001","2","""event"",""trial"",""time""
""fullscreenenter"",""1"",""1660""
","
","
","""event"",""trial"",""time""
""fullscreenenter"",""1"",""1660""
","
","true","","","","","","","","","","","","","","","","","",""
"preload","2","3457","0.0-2.0","2001","2","""event"",""trial"",""time""
""fullscreenenter"",""1"",""1660""
","
","
","""event"",""trial"",""time""
""fullscreenenter"",""1"",""1660""
","
","true","false","[]","[]","[]","","","","","","","","","","","","","",""
"audio-keyboard-response","3","5409","0.0-3.0","2001","2","""event"",""trial"",""time""
""fullscreenenter"",""1"",""1660""
","
","
","""event"",""trial"",""time""
""fullscreenenter"",""1"",""1660""
","
","","","","","","1950.4761904761906","audio/beep_loop.wav"," ","","","","","","","","","","",""
"audio-button-response","4","7806","0.0-4.0","2001","2","""event"",""trial"",""time""
""fullscreenenter"",""1"",""1660""
","
","
","""event"",""trial"",""time""
""fullscreenenter"",""1"",""1660""
","
","","","","","","2392","audio/turtle.wav","3","","","","","","","","","","",""
"audio-button-response","5","10013","0.0-5.0","2001","2","""event"",""trial"",""time""
""fullscreenenter"",""1"",""1660""
","
","
","""event"",""trial"",""time""
""fullscreenenter"",""1"",""1660""
","
","","","","","","1207","audio/shark.wav","2","","","","","","","","","","",""
"preload","6","17433","0.0-6.0","2001","2","""event"",""trial"",""time""
""fullscreenenter"",""1"",""1660""
","
","
","""event"",""trial"",""time""
""fullscreenenter"",""1"",""1660""
","
","true","false","[]","[]","[]","","","","","","","","","","","","","",""
"learning-instructions","7","25133","0.0-7.0-0.0","2001","2","""event"",""trial"",""time""
""fullscreenenter"",""1"",""1660""
","
","
","""event"",""trial"",""time""
""fullscreenenter"",""1"",""1660""
","
","","","","","","2888.6999999999534","<p> Welcome back! </p><p> Last week, you had to make choices about lots of different items.  </p>","","0","instructions","","","","","","","","",""
"learning-instructions","8","30084","0.0-7.0-0.1","2001","2","""event"",""trial"",""time""
""fullscreenenter"",""1"",""1660""
","
","
","""event"",""trial"",""time""
""fullscreenenter"",""1"",""1660""
","
","","","","","","653.0999999998603","<p> Today, we are going to ask you to try to remember all the items. </p>","","0","instructions","","","","","","","","",""
"learning-instructions","9","40834","0.0-7.0-0.2","2001","2","""event"",""trial"",""time""
""fullscreenenter"",""1"",""1660""
","
","
","""event"",""trial"",""time""
""fullscreenenter"",""1"",""1660""
","
","","","","","","618.5","<p> On every trial, you will see an image. </p><p> The image may be an OLD image you saw during the games last week or it may be a NEW image that was not presented. </p>","","0","instructions","","","","","","","","",""
"learning-instructions","10","49763","0.0-7.0-0.3","2001","2","""event"",""trial"",""time""
""fullscreenenter"",""1"",""1660""
","
","
","""event"",""trial"",""time""
""fullscreenenter"",""1"",""1660""
","
","","","","","","431.9000000001397","<p> You need to select whether the image is:  </p><p>  'Definitely old', 'Maybe old', 'Maybe new', or 'Definitely new.'  </p><div class=""mem-choice-instructions-grid""><div class=""choice-option"" id=""choice-option-1"" ><img src=""images/definitely_old_1.png"" id=""choice-option-img-1"" class=""choice-option-img"" stage=""1""></div><div class=""choice-option"" id=""choice-option-2"" ><img src=""images/maybe_old_1.png"" id=""choice-option-img-2"" class=""choice-option-img"" stage=""1""></div><div class=""choice-option"" id=""choice-option-3"" ><img src=""images/maybe_new_1.png"" id=""choice-option-img-3"" class=""choice-option-img"" stage=""1""></div><div class=""choice-option"" id=""choice-option-4"" > <img src=""images/definitely_new_1.png"" id=""choice-option-img-4"" class=""choice-option-img"" stage=""1""></div></div>","","0","instructions","","","","","","","","",""
"learning-instructions","11","57775","0.0-7.0-0.4","2001","2","""event"",""trial"",""time""
""fullscreenenter"",""1"",""1660""
","
","
","""event"",""trial"",""time""
""fullscreenenter"",""1"",""1660""
","
","","","","","","1316.3999999999069","<p> You should use the 1, 2, 3, and 4 keys to make your responses.  </p><div class=""mem-choice-instructions-grid""><div class=""choice-option"" id=""choice-option-1"" ><img src=""images/definitely_old.png"" id=""choice-option-img-1"" class=""choice-option-img"" stage=""1""></div><div class=""choice-option"" id=""choice-option-2"" ><img src=""images/maybe_old.png"" id=""choice-option-img-2"" class=""choice-option-img"" stage=""1""></div><div class=""choice-option"" id=""choice-option-3"" ><img src=""images/maybe_new.png"" id=""choice-option-img-3"" class=""choice-option-img"" stage=""1""></div><div class=""choice-option"" id=""choice-option-4"" > <img src=""images/definitely_new.png"" id=""choice-option-img-4"" class=""choice-option-img"" stage=""1""></div></div>","","0","instructions","","","","","","","","",""
"learning-instructions","12","65384","0.0-7.0-0.5","2001","2","""event"",""trial"",""time""
""fullscreenenter"",""1"",""1660""
","
","
","""event"",""trial"",""time""
""fullscreenenter"",""1"",""1660""
","
","","","","","","845.2999999998137","<p> You will have 10 seconds to make each response.  </p><p>  Make sure to respond before time runs out! </p>","","0","instructions","","","","","","","","",""
"learning-instructions","13","73461","0.0-7.0-0.6","2001","2","""event"",""trial"",""time""
""fullscreenenter"",""1"",""1660""
","
","
","""event"",""trial"",""time""
""fullscreenenter"",""1"",""1660""
","
","","","","","","499.5","<p> Today, you will see each image ONCE only.  </p><p>  That means none of the images will repeat. </p>","","0","instructions","","","","","","","","",""
"learning-instructions","14","86703","0.0-7.0-0.7","2001","2","""event"",""trial"",""time""
""fullscreenenter"",""1"",""1660""
","
","
","""event"",""trial"",""time""
""fullscreenenter"",""1"",""1660""
","
","","","","","","576.3000000000466","<p> Before you play the real game, it is time to practice. </p><p>  Just like in the real game, some of the images in the practice will be ones you have seen before. </p><p>  Others will be entirely new. </p>","","0","instructions","","","","","","","","",""
"html-button-response","15","88819","0.0-8.0","2001","2","""event"",""trial"",""time""
""fullscreenenter"",""1"",""1660""
","
","
","""event"",""trial"",""time""
""fullscreenenter"",""1"",""1660""
","
","","","","","","2012.2000000001863","<p> Ready to practice? </p><p> Remember, use the 1, 2, 3, and 4 keys to make your responses. </p>","0","","instructions","","","","","","","","",""
"html-keyboard-response","16","89426","0.0-9.0-0.0","2001","2","""event"",""trial"",""time""
""fullscreenenter"",""1"",""1660""
","
","
","""event"",""trial"",""time""
""fullscreenenter"",""1"",""1660""
","
","","","","","","null","<div style=""font-size:60px;"">+</div>","null","","fixation","","","","","","","","",""
"memory-trial","17","94090","0.0-9.0-1.0","2001","2","""event"",""trial"",""time""
""fullscreenenter"",""1"",""1660""
","
","
","""event"",""trial"",""time""
""fullscreenenter"",""1"",""1660""
","
","","","","","","3655.899999999907","images/racket2.png","","","practice","1","definitely_old","","","","","","",""
"html-keyboard-response","18","94595","0.0-9.0-0.1","2001","2","""event"",""trial"",""time""
""fullscreenenter"",""1"",""1660""
","
","
","""event"",""trial"",""time""
""fullscreenenter"",""1"",""1660""
","
","","","","","","null","<div style=""font-size:60px;"">+</div>","null","","fixation","","","","","","","","",""
"memory-trial","19","97898","0.0-9.0-1.1","2001","2","""event"",""trial"",""time""
""fullscreenenter"",""1"",""1660""
","
","
","""event"",""trial"",""time""
""fullscreenenter"",""1"",""1660""
","
","","","","","","2296.7000000001863","images/racket3.png","","","practice","2","maybe_old","","","","","","",""
"html-keyboard-response","20","98403","0.0-9.0-0.2","2001","2","""event"",""trial"",""time""
""fullscreenenter"",""1"",""1660""
","
","
","""event"",""trial"",""time""
""fullscreenenter"",""1"",""1660""
","
","","","","","","null","<div style=""font-size:60px;"">+</div>","null","","fixation","","","","","","","","",""
"memory-trial","21","102089","0.0-9.0-1.2","2001","2","""event"",""trial"",""time""
""fullscreenenter"",""1"",""1660""
","
","
","""event"",""trial"",""time""
""fullscreenenter"",""1"",""1660""
","
","","","","","","2677.8000000000466","images/racket1.png","","","practice","4","definitely_new","","","","","","",""
"html-keyboard-response","22","102594","0.0-9.0-0.3","2001","2","""event"",""trial"",""time""
""fullscreenenter"",""1"",""1660""
","
","
","""event"",""trial"",""time""
""fullscreenenter"",""1"",""1660""
","
","","","","","","null","<div style=""font-size:60px;"">+</div>","null","","fixation","","","","","","","","",""
"memory-trial","23","105421","0.0-9.0-1.3","2001","2","""event"",""trial"",""time""
""fullscreenenter"",""1"",""1660""
","
","
","""event"",""trial"",""time""
""fullscreenenter"",""1"",""1660""
","
","","","","","","1823.1000000000931","images/racket4.png","","","practice","3","maybe_new","","","","","","",""
"html-keyboard-response","24","105926","0.0-9.0-0.4","2001","2","""event"",""trial"",""time""
""fullscreenenter"",""1"",""1660""
","
","
","""event"",""trial"",""time""
""fullscreenenter"",""1"",""1660""
","
","","","","","","null","<div style=""font-size:60px;"">+</div>","null","","fixation","","","","","","","","",""
"memory-trial","25","109455","0.0-9.0-1.4","2001","2","""event"",""trial"",""time""
""fullscreenenter"",""1"",""1660""
","
","
","""event"",""trial"",""time""
""fullscreenenter"",""1"",""1660""
","
","","","","","","2524.5","images/ball1.png","","","practice","1","definitely_old","","","","","","",""
"html-keyboard-response","26","109961","0.0-9.0-0.5","2001","2","""event"",""trial"",""time""
""fullscreenenter"",""1"",""1660""
","
","
","""event"",""trial"",""time""
""fullscreenenter"",""1"",""1660""
","
","","","","","","null","<div style=""font-size:60px;"">+</div>","null","","fixation","","","","","","","","",""
"memory-trial","27","113757","0.0-9.0-1.5","2001","2","""event"",""trial"",""time""
""fullscreenenter"",""1"",""1660""
","
","
","""event"",""trial"",""time""
""fullscreenenter"",""1"",""1660""
","
","","","","","","2792","images/ball3.png","","","practice","4","definitely_new","","","","","","",""
"html-keyboard-response","28","114262","0.0-9.0-0.6","2001","2","""event"",""trial"",""time""
""fullscreenenter"",""1"",""1660""
","
","
","""event"",""trial"",""time""
""fullscreenenter"",""1"",""1660""
","
","","","","","","null","<div style=""font-size:60px;"">+</div>","null","","fixation","","","","","","","","",""
"memory-trial","29","117108","0.0-9.0-1.6","2001","2","""event"",""trial"",""time""
""fullscreenenter"",""1"",""1660""
","
","
","""event"",""trial"",""time""
""fullscreenenter"",""1"",""1660""
","
","","","","","","1841.3000000000466","images/ball4.png","","","practice","3","maybe_new","","","","","","",""
"html-keyboard-response","30","117612","0.0-9.0-0.7","2001","2","""event"",""trial"",""time""
""fullscreenenter"",""1"",""1660""
","
","
","""event"",""trial"",""time""
""fullscreenenter"",""1"",""1660""
","
","","","","","","null","<div style=""font-size:60px;"">+</div>","null","","fixation","","","","","","","","",""
"memory-trial","31","121119","0.0-9.0-1.7","2001","2","""event"",""trial"",""time""
""fullscreenenter"",""1"",""1660""
","
","
","""event"",""trial"",""time""
""fullscreenenter"",""1"",""1660""
","
","","","","","","2499.399999999907","images/ball2.png","","","practice","3","maybe_new","","","","","","",""
"learning-instructions","32","129727","0.0-10.0-0.0","2001","2","""event"",""trial"",""time""
""fullscreenenter"",""1"",""1660""
","
","
","""event"",""trial"",""time""
""fullscreenenter"",""1"",""1660""
","
","","","","","","648.2000000001863","<p> Great! You have completed the practice. </p><p> Before you start, we're going to ask you a few questions about how the game works.  </p>","","0","instructions","","","","","","","","",""
"preload","33","133503","0.0-11.0","2001","2","""event"",""trial"",""time""
""fullscreenenter"",""1"",""1660""
","
","
","""event"",""trial"",""time""
""fullscreenenter"",""1"",""1660""
","
","true","false","[]","[]","[]","","","","","","","","","","","","","",""
"comp-q","34","140242","0.0-12.0-0.0","2001","2","""event"",""trial"",""time""
""fullscreenenter"",""1"",""1660""
","
","
","""event"",""trial"",""time""
""fullscreenenter"",""1"",""1660""
","
","","","","","","911","<p> <b> True or False? </b> </p><p> In this game, you will only see each image once. </p>","","0","comp_question","","","true","","","","","",""
"comp-q","35","147396","0.0-12.0-1.0","2001","2","""event"",""trial"",""time""
""fullscreenenter"",""1"",""1660""
","
","
","""event"",""trial"",""time""
""fullscreenenter"",""1"",""1660""
","
","","","","","","815","<p> <b> That's right! </b> You will see many different images <i> one time each </i> in this game. </p>","","0","comp_answer","","","","","","","","",""
"comp-q","36","153750","0.0-12.0-0.1","2001","2","""event"",""trial"",""time""
""fullscreenenter"",""1"",""1660""
","
","
","""event"",""trial"",""time""
""fullscreenenter"",""1"",""1660""
","
","","","","","","556.5999999998603","<p> <b> True or False? </b> </p><p> You should use the mouse and click to make your response. </p>","","1","comp_question","","","true","","","","","",""
"comp-q","37","161952","0.0-12.0-1.1","2001","2","""event"",""trial"",""time""
""fullscreenenter"",""1"",""1660""
","
","
","""event"",""trial"",""time""
""fullscreenenter"",""1"",""1660""
","
","","","","","","853.4000000001397","<p><b> That's right! </b> You should use the '1', '2', '3', and '4' keys to make your response. </p>","","0","comp_answer","","","","","","","","",""
"comp-q","38","168569","0.0-12.0-0.2","2001","2","""event"",""trial"",""time""
""fullscreenenter"",""1"",""1660""
","
","
","""event"",""trial"",""time""
""fullscreenenter"",""1"",""1660""
","
","","","","","","620.3999999999069","<p> <b> True or False? </b> </p><p> You will have as much time as you want to make each choice. </p>","","1","comp_question","","","true","","","","","",""
"comp-q","39","174758","0.0-12.0-1.2","2001","2","""event"",""trial"",""time""
""fullscreenenter"",""1"",""1660""
","
","
","""event"",""trial"",""time""
""fullscreenenter"",""1"",""1660""
","
","","","","","","795.3999999999069","<p> <b> That's right! </b> You will only have 10 seconds to make each choice. </p>","","0","comp_answer","","","","","","","","",""
"learning-instructions","40","184684","0.0-13.0","2001","2","""event"",""trial"",""time""
""fullscreenenter"",""1"",""1660""
","
","
","""event"",""trial"",""time""
""fullscreenenter"",""1"",""1660""
","
","","","","","","1253.8000000000466","<p> Great! You are now ready to begin the game. </p><p> Remember, use the 1, 2, 3, and 4 keys to make your responses. </p>","","0","instructions","","","","","","","","",""
"preload","41","202853","0.0-14.0","2001","2","""event"",""trial"",""time""
""fullscreenenter"",""1"",""1660""
","
","
","""event"",""trial"",""time""
""fullscreenenter"",""1"",""1660""
","
","true","false","[]","[]","[]","","","","","","","","","","","","","",""
"html-keyboard-response","42","203355","0.0-15.0-0.0","2001","2","""event"",""trial"",""time""
""fullscreenenter"",""1"",""1660""
","
","
","""event"",""trial"",""time""
""fullscreenenter"",""1"",""1660""
","
","","","","","","null","<div style=""font-size:60px;"">+</div>","null","","fixation","","","","","","","","",""
"memory-trial","43","206776","0.0-15.0-1.0","2001","2","""event"",""trial"",""time""
""fullscreenenter"",""1"",""1660""
","
","
","""event"",""trial"",""time""
""fullscreenenter"",""1"",""1660""
","
","","","","","","2412.4000000001397","images/banana5.png","","","memory_trial","1","definitely_old","","","","","","",""
"html-keyboard-response","44","207281","0.0-15.0-0.1","2001","2","""event"",""trial"",""time""
""fullscreenenter"",""1"",""1660""
","
","
","""event"",""trial"",""time""
""fullscreenenter"",""1"",""1660""
","
","","","","","","null","<div style=""font-size:60px;"">+</div>","null","","fixation","","","","","","","","",""
"memory-trial","45","209771","0.0-15.0-1.1","2001","2","""event"",""trial"",""time""
""fullscreenenter"",""1"",""1660""
","
","
","""event"",""trial"",""time""
""fullscreenenter"",""1"",""1660""
","
","","","","","","1486.5999999998603","images/horse1.png","","","memory_trial","4","definitely_new","","","","","","",""
"html-keyboard-response","46","210276","0.0-15.0-0.2","2001","2","""event"",""trial"",""time""
""fullscreenenter"",""1"",""1660""
","
","
","""event"",""trial"",""time""
""fullscreenenter"",""1"",""1660""
","
","","","","","","null","<div style=""font-size:60px;"">+</div>","null","","fixation","","","","","","","","",""
"memory-trial","47","213732","0.0-15.0-1.2","2001","2","""event"",""trial"",""time""
""fullscreenenter"",""1"",""1660""
","
","
","""event"",""trial"",""time""
""fullscreenenter"",""1"",""1660""
","
","","","","","","2447.1999999999534","images/banana3.png","","","memory_trial","3","maybe_new","","","","","","",""
"html-keyboard-response","48","214236","0.0-15.0-0.3","2001","2","""event"",""trial"",""time""
""fullscreenenter"",""1"",""1660""
","
","
","""event"",""trial"",""time""
""fullscreenenter"",""1"",""1660""
","
","","","","","","null","<div style=""font-size:60px;"">+</div>","null","","fixation","","","","","","","","",""
"memory-trial","49","216264","0.0-15.0-1.3","2001","2","""event"",""trial"",""time""
""fullscreenenter"",""1"",""1660""
","
","
","""event"",""trial"",""time""
""fullscreenenter"",""1"",""1660""
","
","","","","","","1022.8999999999069","images/goat5.png","","","memory_trial","1","definitely_old","","","","","","",""
"html-keyboard-response","50","216770","0.0-15.0-0.4","2001","2","""event"",""trial"",""time""
""fullscreenenter"",""1"",""1660""
","
","
","""event"",""trial"",""time""
""fullscreenenter"",""1"",""1660""
","
","","","","","","null","<div style=""font-size:60px;"">+</div>","null","","fixation","","","","","","","","",""
"memory-trial","51","218956","0.0-15.0-1.4","2001","2","""event"",""trial"",""time""
""fullscreenenter"",""1"",""1660""
","
","
","""event"",""trial"",""time""
""fullscreenenter"",""1"",""1660""
","
","","","","","","1179.6999999999534","images/truck4.png","","","memory_trial","1","definitely_old","","","","","","",""
"html-keyboard-response","52","219461","0.0-15.0-0.5","2001","2","""event"",""trial"",""time""
""fullscreenenter"",""1"",""1660""
","
","
","""event"",""trial"",""time""
""fullscreenenter"",""1"",""1660""
","
","","","","","","null","<div style=""font-size:60px;"">+</div>","null","","fixation","","","","","","","","",""
"memory-trial","53","221090","0.0-15.0-1.5","2001","2","""event"",""trial"",""time""
""fullscreenenter"",""1"",""1660""
","
","
","""event"",""trial"",""time""
""fullscreenenter"",""1"",""1660""
","
","","","","","","621.8999999999069","images/truck1.png","","","memory_trial","1","definitely_old","","","","","","",""
"html-keyboard-response","54","221594","0.0-15.0-0.6","2001","2","""event"",""trial"",""time""
""fullscreenenter"",""1"",""1660""
","
","
","""event"",""trial"",""time""
""fullscreenenter"",""1"",""1660""
","
","","","","","","null","<div style=""font-size:60px;"">+</div>","null","","fixation","","","","","","","","",""
"memory-trial","55","224615","0.0-15.0-1.6","2001","2","""event"",""trial"",""time""
""fullscreenenter"",""1"",""1660""
","
","
","""event"",""trial"",""time""
""fullscreenenter"",""1"",""1660""
","
","","","","","","2017.6999999999534","images/sofa4.png","","","memory_trial","2","maybe_old","","","","","","",""
"html-keyboard-response","56","225121","0.0-15.0-0.7","2001","2","""event"",""trial"",""time""
""fullscreenenter"",""1"",""1660""
","
","
","""event"",""trial"",""time""
""fullscreenenter"",""1"",""1660""
","
","","","","","","null","<div style=""font-size:60px;"">+</div>","null","","fixation","","","","","","","","",""
"memory-trial","57","228482","0.0-15.0-1.7","2001","2","""event"",""trial"",""time""
""fullscreenenter"",""1"",""1660""
","
","
","""event"",""trial"",""time""
""fullscreenenter"",""1"",""1660""
","
","","","","","","2355.0999999998603","images/straw4.png","","","memory_trial","4","definitely_new","","","","","","",""
"html-keyboard-response","58","228985","0.0-15.0-0.8","2001","2","""event"",""trial"",""time""
""fullscreenenter"",""1"",""1660""
","
","
","""event"",""trial"",""time""
""fullscreenenter"",""1"",""1660""
","
","","","","","","null","<div style=""font-size:60px;"">+</div>","null","","fixation","","","","","","","","",""
"memory-trial","59","231704","0.0-15.0-1.8","2001","2","""event"",""trial"",""time""
""fullscreenenter"",""1"",""1660""
","
","
","""event"",""trial"",""time""
""fullscreenenter"",""1"",""1660""
","
","","","","","","1714.8000000000466","images/tree5.png","","","memory_trial","1","definitely_old","","","","","","",""
"html-keyboard-response","60","232208","0.0-15.0-0.9","2001","2","""event"",""trial"",""time""
""fullscreenenter"",""1"",""1660""
","
","
","""event"",""trial"",""time""
""fullscreenenter"",""1"",""1660""
","
","","","","","","null","<div style=""font-size:60px;"">+</div>","null","","fixation","","","","","","","","",""
"memory-trial","61","234345","0.0-15.0-1.9","2001","2","""event"",""trial"",""time""
""fullscreenenter"",""1"",""1660""
","
","
","""event"",""trial"",""time""
""fullscreenenter"",""1"",""1660""
","
","","","","","","1130.8000000000466","images/apple5.png","","","memory_trial","4","definitely_new","","","","","","",""
"html-keyboard-response","62","234850","0.0-15.0-0.10","2001","2","""event"",""trial"",""time""
""fullscreenenter"",""1"",""1660""
","
","
","""event"",""trial"",""time""
""fullscreenenter"",""1"",""1660""
","
","","","","","","null","<div style=""font-size:60px;"">+</div>","null","","fixation","","","","","","","","",""
"memory-trial","63","237081","0.0-15.0-1.10","2001","2","""event"",""trial"",""time""
""fullscreenenter"",""1"",""1660""
","
","
","""event"",""trial"",""time""
""fullscreenenter"",""1"",""1660""
","
","","","","","","1225.6999999999534","images/sheep5.png","","","memory_trial","2","maybe_old","","","","","","",""
"html-keyboard-response","64","237584","0.0-15.0-0.11","2001","2","""event"",""trial"",""time""
""fullscreenenter"",""1"",""1660""
","
","
","""event"",""trial"",""time""
""fullscreenenter"",""1"",""1660""
","
","","","","","","null","<div style=""font-size:60px;"">+</div>","null","","fixation","","","","","","","","",""
"memory-trial","65","239499","0.0-15.0-1.11","2001","2","""event"",""trial"",""time""
""fullscreenenter"",""1"",""1660""
","
","
","""event"",""trial"",""time""
""fullscreenenter"",""1"",""1660""
","
","","","","","","907","images/rodent3.png","","","memory_trial","1","definitely_old","","","","","","",""
"html-keyboard-response","66","240004","0.0-15.0-0.12","2001","2","""event"",""trial"",""time""
""fullscreenenter"",""1"",""1660""
","
","
","""event"",""trial"",""time""
""fullscreenenter"",""1"",""1660""
","
","","","","","","null","<div style=""font-size:60px;"">+</div>","null","","fixation","","","","","","","","",""
"memory-trial","67","241914","0.0-15.0-1.12","2001","2","""event"",""trial"",""time""
""fullscreenenter"",""1"",""1660""
","
","
","""event"",""trial"",""time""
""fullscreenenter"",""1"",""1660""
","
","","","","","","903.9000000001397","images/truck3.png","","","memory_trial","1","definitely_old","","","","","","",""
"html-keyboard-response","68","242415","0.0-15.0-0.13","2001","2","""event"",""trial"",""time""
""fullscreenenter"",""1"",""1660""
","
","
","""event"",""trial"",""time""
""fullscreenenter"",""1"",""1660""
","
","","","","","","null","<div style=""font-size:60px;"">+</div>","null","","fixation","","","","","","","","",""
"memory-trial","69","244730","0.0-15.0-1.13","2001","2","""event"",""trial"",""time""
""fullscreenenter"",""1"",""1660""
","
","
","""event"",""trial"",""time""
""fullscreenenter"",""1"",""1660""
","
","","","","","","1308","images/sofa2.png","","","memory_trial","3","maybe_new","","","","","","",""
"html-keyboard-response","70","245235","0.0-15.0-0.14","2001","2","""event"",""trial"",""time""
""fullscreenenter"",""1"",""1660""
","
","
","""event"",""trial"",""time""
""fullscreenenter"",""1"",""1660""
","
","","","","","","null","<div style=""font-size:60px;"">+</div>","null","","fixation","","","","","","","","",""
"memory-trial","71","249635","0.0-15.0-1.14","2001","2","""event"",""trial"",""time""
""fullscreenenter"",""1"",""1660""
","
","
","""event"",""trial"",""time""
""fullscreenenter"",""1"",""1660""
","
","","","","","","3392.7000000001863","images/sheep4.png","","","memory_trial","3","maybe_new","","","","","","",""
"html-keyboard-response","72","250140","0.0-15.0-0.15","2001","2","""event"",""trial"",""time""
""fullscreenenter"",""1"",""1660""
","
","
","""event"",""trial"",""time""
""fullscreenenter"",""1"",""1660""
","
","","","","","","null","<div style=""font-size:60px;"">+</div>","null","","fixation","","","","","","","","",""
"memory-trial","73","252456","0.0-15.0-1.15","2001","2","""event"",""trial"",""time""
""fullscreenenter"",""1"",""1660""
","
","
","""event"",""trial"",""time""
""fullscreenenter"",""1"",""1660""
","
","","","","","","1311.6000000000931","images/sofa1.png","","","memory_trial","3","maybe_new","","","","","","",""
"html-keyboard-response","74","252961","0.0-15.0-0.16","2001","2","""event"",""trial"",""time""
""fullscreenenter"",""1"",""1660""
","
","
","""event"",""trial"",""time""
""fullscreenenter"",""1"",""1660""
","
","","","","","","null","<div style=""font-size:60px;"">+</div>","null","","fixation","","","","","","","","",""
"memory-trial","75","255945","0.0-15.0-1.16","2001","2","""event"",""trial"",""time""
""fullscreenenter"",""1"",""1660""
","
","
","""event"",""trial"",""time""
""fullscreenenter"",""1"",""1660""
","
","","","","","","1978.4000000003725","images/sofa5.png","","","memory_trial","3","maybe_new","","","","","","",""
"html-keyboard-response","76","256450","0.0-15.0-0.17","2001","2","""event"",""trial"",""time""
""fullscreenenter"",""1"",""1660""
","
","
","""event"",""trial"",""time""
""fullscreenenter"",""1"",""1660""
","
","","","","","","null","<div style=""font-size:60px;"">+</div>","null","","fixation","","","","","","","","",""
"memory-trial","77","259247","0.0-15.0-1.17","2001","2","""event"",""trial"",""time""
""fullscreenenter"",""1"",""1660""
","
","
","""event"",""trial"",""time""
""fullscreenenter"",""1"",""1660""
","
","","","","","","1792.8999999999069","images/orange1.png","","","memory_trial","2","maybe_old","","","","","","",""
"html-keyboard-response","78","259753","0.0-15.0-0.18","2001","2","""event"",""trial"",""time""
""fullscreenenter"",""1"",""1660""
","
","
","""event"",""trial"",""time""
""fullscreenenter"",""1"",""1660""
","
","","","","","","null","<div style=""font-size:60px;"">+</div>","null","","fixation","","","","","","","","",""
"memory-trial","79","262081","0.0-15.0-1.18","2001","2","""event"",""trial"",""time""
""fullscreenenter"",""1"",""1660""
","
","
","""event"",""trial"",""time""
""fullscreenenter"",""1"",""1660""
","
","","","","","","1321.8999999999069","images/table4.png","","","memory_trial","3","maybe_new","","","","","","",""
"html-keyboard-response","80","262585","0.0-15.0-0.19","2001","2","""event"",""trial"",""time""
""fullscreenenter"",""1"",""1660""
","
","
","""event"",""trial"",""time""
""fullscreenenter"",""1"",""1660""
","
","","","","","","null","<div style=""font-size:60px;"">+</div>","null","","fixation","","","","","","","","",""
"memory-trial","81","266056","0.0-15.0-1.19","2001","2","""event"",""trial"",""time""
""fullscreenenter"",""1"",""1660""
","
","
","""event"",""trial"",""time""
""fullscreenenter"",""1"",""1660""
","
","","","","","","2466.2999999998137","images/truck2.png","","","memory_trial","4","definitely_new","","","","","","",""
"html-keyboard-response","82","266562","0.0-15.0-0.20","2001","2","""event"",""trial"",""time""
""fullscreenenter"",""1"",""1660""
","
","
","""event"",""trial"",""time""
""fullscreenenter"",""1"",""1660""
","
","","","","","","null","<div style=""font-size:60px;"">+</div>","null","","fixation","","","","","","","","",""
"memory-trial","83","268617","0.0-15.0-1.20","2001","2","""event"",""trial"",""time""
""fullscreenenter"",""1"",""1660""
","
","
","""event"",""trial"",""time""
""fullscreenenter"",""1"",""1660""
","
","","","","","","1048.4000000003725","images/dog4.png","","","memory_trial","1","definitely_old","","","","","","",""
"html-keyboard-response","84","269122","0.0-15.0-0.21","2001","2","""event"",""trial"",""time""
""fullscreenenter"",""1"",""1660""
","
","
","""event"",""trial"",""time""
""fullscreenenter"",""1"",""1660""
","
","","","","","","null","<div style=""font-size:60px;"">+</div>","null","","fixation","","","","","","","","",""
"memory-trial","85","271171","0.0-15.0-1.21","2001","2","""event"",""trial"",""time""
""fullscreenenter"",""1"",""1660""
","
","
","""event"",""trial"",""time""
""fullscreenenter"",""1"",""1660""
","
","","","","","","1041.1000000000931","images/chair2.png","","","memory_trial","3","maybe_new","","","","","","",""
"html-keyboard-response","86","271676","0.0-15.0-0.22","2001","2","""event"",""trial"",""time""
""fullscreenenter"",""1"",""1660""
","
","
","""event"",""trial"",""time""
""fullscreenenter"",""1"",""1660""
","
","","","","","","null","<div style=""font-size:60px;"">+</div>","null","","fixation","","","","","","","","",""
"memory-trial","87","275646","0.0-15.0-1.22","2001","2","""event"",""trial"",""time""
""fullscreenenter"",""1"",""1660""
","
","
","""event"",""trial"",""time""
""fullscreenenter"",""1"",""1660""
","
","","","","","","2966.5","images/goat1.png","","","memory_trial","2","maybe_old","","","","","","",""
"html-keyboard-response","88","276151","0.0-15.0-0.23","2001","2","""event"",""trial"",""time""
""fullscreenenter"",""1"",""1660""
","
","
","""event"",""trial"",""time""
""fullscreenenter"",""1"",""1660""
","
","","","","","","null","<div style=""font-size:60px;"">+</div>","null","","fixation","","","","","","","","",""
"memory-trial","89","278271","0.0-15.0-1.23","2001","2","""event"",""trial"",""time""
""fullscreenenter"",""1"",""1660""
","
","
","""event"",""trial"",""time""
""fullscreenenter"",""1"",""1660""
","
","","","","","","1115.6999999997206","images/bush3.png","","","memory_trial","4","definitely_new","","","","","","",""
"html-keyboard-response","90","278775","0.0-15.0-0.24","2001","2","""event"",""trial"",""time""
""fullscreenenter"",""1"",""1660""
","
","
","""event"",""trial"",""time""
""fullscreenenter"",""1"",""1660""
","
","","","","","","null","<div style=""font-size:60px;"">+</div>","null","","fixation","","","","","","","","",""
"memory-trial","91","280783","0.0-15.0-1.24","2001","2","""event"",""trial"",""time""
""fullscreenenter"",""1"",""1660""
","
","
","""event"",""trial"",""time""
""fullscreenenter"",""1"",""1660""
","
","","","","","","1003.7999999998137","images/rabbit3.png","","","memory_trial","1","definitely_old","","","","","","",""
"html-keyboard-response","92","281289","0.0-15.0-0.25","2001","2","""event"",""trial"",""time""
""fullscreenenter"",""1"",""1660""
","
","
","""event"",""trial"",""time""
""fullscreenenter"",""1"",""1660""
","
","","","","","","null","<div style=""font-size:60px;"">+</div>","null","","fixation","","","","","","","","",""
"memory-trial","93","285504","0.0-15.0-1.25","2001","2","""event"",""trial"",""time""
""fullscreenenter"",""1"",""1660""
","
","
","""event"",""trial"",""time""
""fullscreenenter"",""1"",""1660""
","
","","","","","","3209.5","images/rodent1.png","","","memory_trial","3","maybe_new","","","","","","",""
"html-keyboard-response","94","286009","0.0-15.0-0.26","2001","2","""event"",""trial"",""time""
""fullscreenenter"",""1"",""1660""
","
","
","""event"",""trial"",""time""
""fullscreenenter"",""1"",""1660""
","
","","","","","","null","<div style=""font-size:60px;"">+</div>","null","","fixation","","","","","","","","",""
"memory-trial","95","288313","0.0-15.0-1.26","2001","2","""event"",""trial"",""time""
""fullscreenenter"",""1"",""1660""
","
","
","""event"",""trial"",""time""
""fullscreenenter"",""1"",""1660""
","
","","","","","","1299.2000000001863","images/bed3.png","","","memory_trial","3","maybe_new","","","","","","",""
"html-keyboard-response","96","288819","0.0-15.0-0.27","2001","2","""event"",""trial"",""time""
""fullscreenenter"",""1"",""1660""
","
","
","""event"",""trial"",""time""
""fullscreenenter"",""1"",""1660""
","
","","","","","","null","<div style=""font-size:60px;"">+</div>","null","","fixation","","","","","","","","",""
"memory-trial","97","291391","0.0-15.0-1.27","2001","2","""event"",""trial"",""time""
""fullscreenenter"",""1"",""1660""
","
","
","""event"",""trial"",""time""
""fullscreenenter"",""1"",""1660""
","
","","","","","","1569.2000000001863","images/bed2.png","","","memory_trial","2","maybe_old","","","","","","",""
"html-keyboard-response","98","291896","0.0-15.0-0.28","2001","2","""event"",""trial"",""time""
""fullscreenenter"",""1"",""1660""
","
","
","""event"",""trial"",""time""
""fullscreenenter"",""1"",""1660""
","
","","","","","","null","<div style=""font-size:60px;"">+</div>","null","","fixation","","","","","","","","",""
"memory-trial","99","293876","0.0-15.0-1.28","2001","2","""event"",""trial"",""time""
""fullscreenenter"",""1"",""1660""
","
","
","""event"",""trial"",""time""
""fullscreenenter"",""1"",""1660""
","
","","","","","","971.6000000000931","images/bush4.png","","","memory_trial","4","definitely_new","","","","","","",""
"html-keyboard-response","100","294381","0.0-15.0-0.29","2001","2","""event"",""trial"",""time""
""fullscreenenter"",""1"",""1660""
","
","
","""event"",""trial"",""time""
""fullscreenenter"",""1"",""1660""
","
","","","","","","null","<div style=""font-size:60px;"">+</div>","null","","fixation","","","","","","","","",""
"memory-trial","101","296778","0.0-15.0-1.29","2001","2","""event"",""trial"",""time""
""fullscreenenter"",""1"",""1660""
","
","
","""event"",""trial"",""time""
""fullscreenenter"",""1"",""1660""
","
","","","","","","1391.6999999997206","images/cow5.png","","","memory_trial","3","maybe_new","","","","","","",""
"html-keyboard-response","102","297283","0.0-15.0-0.30","2001","2","""event"",""trial"",""time""
""fullscreenenter"",""1"",""1660""
","
","
","""event"",""trial"",""time""
""fullscreenenter"",""1"",""1660""
","
","","","","","","null","<div style=""font-size:60px;"">+</div>","null","","fixation","","","","","","","","",""
"memory-trial","103","300244","0.0-15.0-1.30","2001","2","""event"",""trial"",""time""
""fullscreenenter"",""1"",""1660""
","
","
","""event"",""trial"",""time""
""fullscreenenter"",""1"",""1660""
","
","","","","","","1953.1000000000931","images/sheep1.png","","","memory_trial","2","maybe_old","","","","","","",""
"html-keyboard-response","104","300749","0.0-15.0-0.31","2001","2","""event"",""trial"",""time""
""fullscreenenter"",""1"",""1660""
","
","
","""event"",""trial"",""time""
""fullscreenenter"",""1"",""1660""
","
","","","","","","null","<div style=""font-size:60px;"">+</div>","null","","fixation","","","","","","","","",""
"memory-trial","105","302949","0.0-15.0-1.31","2001","2","""event"",""trial"",""time""
""fullscreenenter"",""1"",""1660""
","
","
","""event"",""trial"",""time""
""fullscreenenter"",""1"",""1660""
","
","","","","","","1191.1999999997206","images/boat3.png","","","memory_trial","4","definitely_new","","","","","","",""
"html-keyboard-response","106","303454","0.0-15.0-0.32","2001","2","""event"",""trial"",""time""
""fullscreenenter"",""1"",""1660""
","
","
","""event"",""trial"",""time""
""fullscreenenter"",""1"",""1660""
","
","","","","","","null","<div style=""font-size:60px;"">+</div>","null","","fixation","","","","","","","","",""
"memory-trial","107","305863","0.0-15.0-1.32","2001","2","""event"",""trial"",""time""
""fullscreenenter"",""1"",""1660""
","
","
","""event"",""trial"",""time""
""fullscreenenter"",""1"",""1660""
","
","","","","","","1406.3999999999069","images/dog3.png","","","memory_trial","2","maybe_old","","","","","","",""
"html-keyboard-response","108","306368","0.0-15.0-0.33","2001","2","""event"",""trial"",""time""
""fullscreenenter"",""1"",""1660""
","
","
","""event"",""trial"",""time""
""fullscreenenter"",""1"",""1660""
","
","","","","","","null","<div style=""font-size:60px;"">+</div>","null","","fixation","","","","","","","","",""
"memory-trial","109","308731","0.0-15.0-1.33","2001","2","""event"",""trial"",""time""
""fullscreenenter"",""1"",""1660""
","
","
","""event"",""trial"",""time""
""fullscreenenter"",""1"",""1660""
","
","","","","","","1355.5","images/banana4.png","","","memory_trial","3","maybe_new","","","","","","",""
"html-keyboard-response","110","309236","0.0-15.0-0.34","2001","2","""event"",""trial"",""time""
""fullscreenenter"",""1"",""1660""
","
","
","""event"",""trial"",""time""
""fullscreenenter"",""1"",""1660""
","
","","","","","","null","<div style=""font-size:60px;"">+</div>","null","","fixation","","","","","","","","",""
"memory-trial","111","311349","0.0-15.0-1.34","2001","2","""event"",""trial"",""time""
""fullscreenenter"",""1"",""1660""
","
","
","""event"",""trial"",""time""
""fullscreenenter"",""1"",""1660""
","
","","","","","","1105.2000000001863","images/chair5.png","","","memory_trial","3","maybe_new","","","","","","",""
"html-keyboard-response","112","311854","0.0-15.0-0.35","2001","2","""event"",""trial"",""time""
""fullscreenenter"",""1"",""1660""
","
","
","""event"",""trial"",""time""
""fullscreenenter"",""1"",""1660""
","
","","","","","","null","<div style=""font-size:60px;"">+</div>","null","","fixation","","","","","","","","",""
"memory-trial","113","314461","0.0-15.0-1.35","2001","2","""event"",""trial"",""time""
""fullscreenenter"",""1"",""1660""
","
","
","""event"",""trial"",""time""
""fullscreenenter"",""1"",""1660""
","
","","","","","","1596.3999999999069","images/flower5.png","","","memory_trial","1","definitely_old","","","","","","",""
"html-keyboard-response","114","314965","0.0-15.0-0.36","2001","2","""event"",""trial"",""time""
""fullscreenenter"",""1"",""1660""
","
","
","""event"",""trial"",""time""
""fullscreenenter"",""1"",""1660""
","
","","","","","","null","<div style=""font-size:60px;"">+</div>","null","","fixation","","","","","","","","",""
"memory-trial","115","317514","0.0-15.0-1.36","2001","2","""event"",""trial"",""time""
""fullscreenenter"",""1"",""1660""
","
","
","""event"",""trial"",""time""
""fullscreenenter"",""1"",""1660""
","
","","","","","","1544.1000000000931","images/apple2.png","","","memory_trial","4","definitely_new","","","","","","",""
"html-keyboard-response","116","318019","0.0-15.0-0.37","2001","2","""event"",""trial"",""time""
""fullscreenenter"",""1"",""1660""
","
","
","""event"",""trial"",""time""
""fullscreenenter"",""1"",""1660""
","
","","","","","","null","<div style=""font-size:60px;"">+</div>","null","","fixation","","","","","","","","",""
"memory-trial","117","321067","0.0-15.0-1.37","2001","2","""event"",""trial"",""time""
""fullscreenenter"",""1"",""1660""
","
","
","""event"",""trial"",""time""
""fullscreenenter"",""1"",""1660""
","
","","","","","","2041.6000000000931","images/flower2.png","","","memory_trial","3","maybe_new","","","","","","",""
"html-keyboard-response","118","321572","0.0-15.0-0.38","2001","2","""event"",""trial"",""time""
""fullscreenenter"",""1"",""1660""
","
","
","""event"",""trial"",""time""
""fullscreenenter"",""1"",""1660""
","
","","","","","","null","<div style=""font-size:60px;"">+</div>","null","","fixation","","","","","","","","",""
"memory-trial","119","323649","0.0-15.0-1.38","2001","2","""event"",""trial"",""time""
""fullscreenenter"",""1"",""1660""
","
","
","""event"",""trial"",""time""
""fullscreenenter"",""1"",""1660""
","
","","","","","","1072.8999999999069","images/feline2.png","","","memory_trial","4","definitely_new","","","","","","",""
"html-keyboard-response","120","324154","0.0-15.0-0.39","2001","2","""event"",""trial"",""time""
""fullscreenenter"",""1"",""1660""
","
","
","""event"",""trial"",""time""
""fullscreenenter"",""1"",""1660""
","
","","","","","","null","<div style=""font-size:60px;"">+</div>","null","","fixation","","","","","","","","",""
"memory-trial","121","326599","0.0-15.0-1.39","2001","2","""event"",""trial"",""time""
""fullscreenenter"",""1"",""1660""
","
","
","""event"",""trial"",""time""
""fullscreenenter"",""1"",""1660""
","
","","","","","","1441.8999999999069","images/rodent4.png","","","memory_trial","2","maybe_old","","","","","","",""
"html-keyboard-response","122","327103","0.0-15.0-0.40","2001","2","""event"",""trial"",""time""
""fullscreenenter"",""1"",""1660""
","
","
","""event"",""trial"",""time""
""fullscreenenter"",""1"",""1660""
","
","","","","","","null","<div style=""font-size:60px;"">+</div>","null","","fixation","","","","","","","","",""
"memory-trial","123","329908","0.0-15.0-1.40","2001","2","""event"",""trial"",""time""
""fullscreenenter"",""1"",""1660""
","
","
","""event"",""trial"",""time""
""fullscreenenter"",""1"",""1660""
","
","","","","","","1798.5","images/truck5.png","","","memory_trial","3","maybe_new","","","","","","",""
"html-keyboard-response","124","330412","0.0-15.0-0.41","2001","2","""event"",""trial"",""time""
""fullscreenenter"",""1"",""1660""
","
","
","""event"",""trial"",""time""
""fullscreenenter"",""1"",""1660""
","
","","","","","","null","<div style=""font-size:60px;"">+</div>","null","","fixation","","","","","","","","",""
"memory-trial","125","332305","0.0-15.0-1.41","2001","2","""event"",""trial"",""time""
""fullscreenenter"",""1"",""1660""
","
","
","""event"",""trial"",""time""
""fullscreenenter"",""1"",""1660""
","
","","","","","","888.8000000002794","images/cactus2.png","","","memory_trial","1","definitely_old","","","","","","",""
"html-keyboard-response","126","332810","0.0-15.0-0.42","2001","2","""event"",""trial"",""time""
""fullscreenenter"",""1"",""1660""
","
","
","""event"",""trial"",""time""
""fullscreenenter"",""1"",""1660""
","
","","","","","","null","<div style=""font-size:60px;"">+</div>","null","","fixation","","","","","","","","",""
"memory-trial","127","335613","0.0-15.0-1.42","2001","2","""event"",""trial"",""time""
""fullscreenenter"",""1"",""1660""
","
","
","""event"",""trial"",""time""
""fullscreenenter"",""1"",""1660""
","
","","","","","","1795.6000000000931","images/plane1.png","","","memory_trial","1","definitely_old","","","","","","",""
"html-keyboard-response","128","336119","0.0-15.0-0.43","2001","2","""event"",""trial"",""time""
""fullscreenenter"",""1"",""1660""
","
","
","""event"",""trial"",""time""
""fullscreenenter"",""1"",""1660""
","
","","","","","","null","<div style=""font-size:60px;"">+</div>","null","","fixation","","","","","","","","",""
"memory-trial","129","337906","0.0-15.0-1.43","2001","2","""event"",""trial"",""time""
""fullscreenenter"",""1"",""1660""
","
","
","""event"",""trial"",""time""
""fullscreenenter"",""1"",""1660""
","
","","","","","","781.4000000003725","images/train3.png","","","memory_trial","1","definitely_old","","","","","","",""
"html-keyboard-response","130","338412","0.0-15.0-0.44","2001","2","""event"",""trial"",""time""
""fullscreenenter"",""1"",""1660""
","
","
","""event"",""trial"",""time""
""fullscreenenter"",""1"",""1660""
","
","","","","","","null","<div style=""font-size:60px;"">+</div>","null","","fixation","","","","","","","","",""
"memory-trial","131","341384","0.0-15.0-1.44","2001","2","""event"",""trial"",""time""
""fullscreenenter"",""1"",""1660""
","
","
","""event"",""trial"",""time""
""fullscreenenter"",""1"",""1660""
","
","","","","","","1968.3000000002794","images/orange3.png","","","memory_trial","3","maybe_new","","","","","","",""
"html-keyboard-response","132","341889","0.0-15.0-0.45","2001","2","""event"",""trial"",""time""
""fullscreenenter"",""1"",""1660""
","
","
","""event"",""trial"",""time""
""fullscreenenter"",""1"",""1660""
","
","","","","","","null","<div style=""font-size:60px;"">+</div>","null","","fixation","","","","","","","","",""
"memory-trial","133","343857","0.0-15.0-1.45","2001","2","""event"",""trial"",""time""
""fullscreenenter"",""1"",""1660""
","
","
","""event"",""trial"",""time""
""fullscreenenter"",""1"",""1660""
","
","","","","","","963.3999999999069","images/apple1.png","","","memory_trial","4","definitely_new","","","","","","",""
"html-keyboard-response","134","344362","0.0-15.0-0.46","2001","2","""event"",""trial"",""time""
""fullscreenenter"",""1"",""1660""
","
","
","""event"",""trial"",""time""
""fullscreenenter"",""1"",""1660""
","
","","","","","","null","<div style=""font-size:60px;"">+</div>","null","","fixation","","","","","","","","",""
"memory-trial","135","347775","0.0-15.0-1.46","2001","2","""event"",""trial"",""time""
""fullscreenenter"",""1"",""1660""
","
","
","""event"",""trial"",""time""
""fullscreenenter"",""1"",""1660""
","
","","","","","","2410.899999999907","images/flower1.png","","","memory_trial","2","maybe_old","","","","","","",""
"html-button-response","136","351697","0.0-15.0-2.46-0.46","2001","2","""event"",""trial"",""time""
""fullscreenenter"",""1"",""1660""
","
","
","""event"",""trial"",""time""
""fullscreenenter"",""1"",""1660""
","
","","","","","","3919.2999999998137","<p> Take a break! </p><p> Click the button to continue. </p>","0","","break","","","","","","","","",""
"html-keyboard-response","137","352199","0.0-15.0-0.47","2001","2","""event"",""trial"",""time""
""fullscreenenter"",""1"",""1660""
","
","
","""event"",""trial"",""time""
""fullscreenenter"",""1"",""1660""
","
","","","","","","null","<div style=""font-size:60px;"">+</div>","null","","fixation","","","","","","","","",""
"memory-trial","138","354520","0.0-15.0-1.47","2001","2","""event"",""trial"",""time""
""fullscreenenter"",""1"",""1660""
","
","
","""event"",""trial"",""time""
""fullscreenenter"",""1"",""1660""
","
","","","","","","1317.5","images/horse5.png","","","memory_trial","4","definitely_new","","","","","","",""
"html-keyboard-response","139","355025","0.0-15.0-0.48","2001","2","""event"",""trial"",""time""
""fullscreenenter"",""1"",""1660""
","
","
","""event"",""trial"",""time""
""fullscreenenter"",""1"",""1660""
","
","","","","","","null","<div style=""font-size:60px;"">+</div>","null","","fixation","","","","","","","","",""
"memory-trial","140","357632","0.0-15.0-1.48","2001","2","""event"",""trial"",""time""
""fullscreenenter"",""1"",""1660""
","
","
","""event"",""trial"",""time""
""fullscreenenter"",""1"",""1660""
","
","","","","","","1603.2999999998137","images/chair1.png","","","memory_trial","3","maybe_new","","","","","","",""
"html-keyboard-response","141","358137","0.0-15.0-0.49","2001","2","""event"",""trial"",""time""
""fullscreenenter"",""1"",""1660""
","
","
","""event"",""trial"",""time""
""fullscreenenter"",""1"",""1660""
","
","","","","","","null","<div style=""font-size:60px;"">+</div>","null","","fixation","","","","","","","","",""
"memory-trial","142","360267","0.0-15.0-1.49","2001","2","""event"",""trial"",""time""
""fullscreenenter"",""1"",""1660""
","
","
","""event"",""trial"",""time""
""fullscreenenter"",""1"",""1660""
","
","","","","","","1123.8999999999069","images/flower4.png","","","memory_trial","4","definitely_new","","","","","","",""
"html-keyboard-response","143","360772","0.0-15.0-0.50","2001","2","""event"",""trial"",""time""
""fullscreenenter"",""1"",""1660""
","
","
","""event"",""trial"",""time""
""fullscreenenter"",""1"",""1660""
","
","","","","","","null","<div style=""font-size:60px;"">+</div>","null","","fixation","","","","","","","","",""
"memory-trial","144","362868","0.0-15.0-1.50","2001","2","""event"",""trial"",""time""
""fullscreenenter"",""1"",""1660""
","
","
","""event"",""trial"",""time""
""fullscreenenter"",""1"",""1660""
","
","","","","","","1088.3999999999069","images/dog1.png","","","memory_trial","1","definitely_old","","","","","","",""
"html-keyboard-response","145","363373","0.0-15.0-0.51","2001","2","""event"",""trial"",""time""
""fullscreenenter"",""1"",""1660""
","
","
","""event"",""trial"",""time""
""fullscreenenter"",""1"",""1660""
","
","","","","","","null","<div style=""font-size:60px;"">+</div>","null","","fixation","","","","","","","","",""
"memory-trial","146","365834","0.0-15.0-1.51","2001","2","""event"",""trial"",""time""
""fullscreenenter"",""1"",""1660""
","
","
","""event"",""trial"",""time""
""fullscreenenter"",""1"",""1660""
","
","","","","","","1455.6000000000931","images/boat2.png","","","memory_trial","3","maybe_new","","","","","","",""
"html-keyboard-response","147","366339","0.0-15.0-0.52","2001","2","""event"",""trial"",""time""
""fullscreenenter"",""1"",""1660""
","
","
","""event"",""trial"",""time""
""fullscreenenter"",""1"",""1660""
","
","","","","","","null","<div style=""font-size:60px;"">+</div>","null","","fixation","","","","","","","","",""
"memory-trial","148","368215","0.0-15.0-1.52","2001","2","""event"",""trial"",""time""
""fullscreenenter"",""1"",""1660""
","
","
","""event"",""trial"",""time""
""fullscreenenter"",""1"",""1660""
","
","","","","","","871.5","images/train5.png","","","memory_trial","1","definitely_old","","","","","","",""
"html-keyboard-response","149","368719","0.0-15.0-0.53","2001","2","""event"",""trial"",""time""
""fullscreenenter"",""1"",""1660""
","
","
","""event"",""trial"",""time""
""fullscreenenter"",""1"",""1660""
","
","","","","","","null","<div style=""font-size:60px;"">+</div>","null","","fixation","","","","","","","","",""
"memory-trial","150","370716","0.0-15.0-1.53","2001","2","""event"",""trial"",""time""
""fullscreenenter"",""1"",""1660""
","
","
","""event"",""trial"",""time""
""fullscreenenter"",""1"",""1660""
","
","","","","","","989.4000000003725","images/flower3.png","","","memory_trial","1","definitely_old","","","","","","",""
"html-keyboard-response","151","371221","0.0-15.0-0.54","2001","2","""event"",""trial"",""time""
""fullscreenenter"",""1"",""1660""
","
","
","""event"",""trial"",""time""
""fullscreenenter"",""1"",""1660""
","
","","","","","","null","<div style=""font-size:60px;"">+</div>","null","","fixation","","","","","","","","",""
"memory-trial","152","373479","0.0-15.0-1.54","2001","2","""event"",""trial"",""time""
""fullscreenenter"",""1"",""1660""
","
","
","""event"",""trial"",""time""
""fullscreenenter"",""1"",""1660""
","
","","","","","","1254.6999999997206","images/goat3.png","","","memory_trial","1","definitely_old","","","","","","",""
"html-keyboard-response","153","373984","0.0-15.0-0.55","2001","2","""event"",""trial"",""time""
""fullscreenenter"",""1"",""1660""
","
","
","""event"",""trial"",""time""
""fullscreenenter"",""1"",""1660""
","
","","","","","","null","<div style=""font-size:60px;"">+</div>","null","","fixation","","","","","","","","",""
"memory-trial","154","378651","0.0-15.0-1.55","2001","2","""event"",""trial"",""time""
""fullscreenenter"",""1"",""1660""
","
","
","""event"",""trial"",""time""
""fullscreenenter"",""1"",""1660""
","
","","","","","","3659.2999999998137","images/straw1.png","","","memory_trial","2","maybe_old","","","","","","",""
"html-keyboard-response","155","379156","0.0-15.0-0.56","2001","2","""event"",""trial"",""time""
""fullscreenenter"",""1"",""1660""
","
","
","""event"",""trial"",""time""
""fullscreenenter"",""1"",""1660""
","
","","","","","","null","<div style=""font-size:60px;"">+</div>","null","","fixation","","","","","","","","",""
"memory-trial","156","382111","0.0-15.0-1.56","2001","2","""event"",""trial"",""time""
""fullscreenenter"",""1"",""1660""
","
","
","""event"",""trial"",""time""
""fullscreenenter"",""1"",""1660""
","
","","","","","","1951.5","images/horse3.png","","","memory_trial","4","definitely_new","","","","","","",""
"html-keyboard-response","157","382616","0.0-15.0-0.57","2001","2","""event"",""trial"",""time""
""fullscreenenter"",""1"",""1660""
","
","
","""event"",""trial"",""time""
""fullscreenenter"",""1"",""1660""
","
","","","","","","null","<div style=""font-size:60px;"">+</div>","null","","fixation","","","","","","","","",""
"memory-trial","158","384392","0.0-15.0-1.57","2001","2","""event"",""trial"",""time""
""fullscreenenter"",""1"",""1660""
","
","
","""event"",""trial"",""time""
""fullscreenenter"",""1"",""1660""
","
","","","","","","771.1000000000931","images/cow2.png","","","memory_trial","1","definitely_old","","","","","","",""
"html-keyboard-response","159","384897","0.0-15.0-0.58","2001","2","""event"",""trial"",""time""
""fullscreenenter"",""1"",""1660""
","
","
","""event"",""trial"",""time""
""fullscreenenter"",""1"",""1660""
","
","","","","","","null","<div style=""font-size:60px;"">+</div>","null","","fixation","","","","","","","","",""
"memory-trial","160","387603","0.0-15.0-1.58","2001","2","""event"",""trial"",""time""
""fullscreenenter"",""1"",""1660""
","
","
","""event"",""trial"",""time""
""fullscreenenter"",""1"",""1660""
","
","","","","","","1698.7999999998137","images/table5.png","","","memory_trial","3","maybe_new","","","","","","",""
"html-keyboard-response","161","388107","0.0-15.0-0.59","2001","2","""event"",""trial"",""time""
""fullscreenenter"",""1"",""1660""
","
","
","""event"",""trial"",""time""
""fullscreenenter"",""1"",""1660""
","
","","","","","","null","<div style=""font-size:60px;"">+</div>","null","","fixation","","","","","","","","",""
"memory-trial","162","389919","0.0-15.0-1.59","2001","2","""event"",""trial"",""time""
""fullscreenenter"",""1"",""1660""
","
","
","""event"",""trial"",""time""
""fullscreenenter"",""1"",""1660""
","
","","","","","","807.1000000000931","images/apple4.png","","","memory_trial","4","definitely_new","","","","","","",""
"html-keyboard-response","163","390424","0.0-15.0-0.60","2001","2","""event"",""trial"",""time""
""fullscreenenter"",""1"",""1660""
","
","
","""event"",""trial"",""time""
""fullscreenenter"",""1"",""1660""
","
","","","","","","null","<div style=""font-size:60px;"">+</div>","null","","fixation","","","","","","","","",""
"memory-trial","164","392154","0.0-15.0-1.60","2001","2","""event"",""trial"",""time""
""fullscreenenter"",""1"",""1660""
","
","
","""event"",""trial"",""time""
""fullscreenenter"",""1"",""1660""
","
","","","","","","724.6000000000931","images/horse2.png","","","memory_trial","4","definitely_new","","","","","","",""
"html-keyboard-response","165","392659","0.0-15.0-0.61","2001","2","""event"",""trial"",""time""
""fullscreenenter"",""1"",""1660""
","
","
","""event"",""trial"",""time""
""fullscreenenter"",""1"",""1660""
","
","","","","","","null","<div style=""font-size:60px;"">+</div>","null","","fixation","","","","","","","","",""
"memory-trial","166","394487","0.0-15.0-1.61","2001","2","""event"",""trial"",""time""
""fullscreenenter"",""1"",""1660""
","
","
","""event"",""trial"",""time""
""fullscreenenter"",""1"",""1660""
","
","","","","","","823.2999999998137","images/bush2.png","","","memory_trial","4","definitely_new","","","","","","",""
"html-keyboard-response","167","394989","0.0-15.0-0.62","2001","2","""event"",""trial"",""time""
""fullscreenenter"",""1"",""1660""
","
","
","""event"",""trial"",""time""
""fullscreenenter"",""1"",""1660""
","
","","","","","","null","<div style=""font-size:60px;"">+</div>","null","","fixation","","","","","","","","",""
"memory-trial","168","398452","0.0-15.0-1.62","2001","2","""event"",""trial"",""time""
""fullscreenenter"",""1"",""1660""
","
","
","""event"",""trial"",""time""
""fullscreenenter"",""1"",""1660""
","
","","","","","","2454.5","images/goat2.png","","","memory_trial","3","maybe_new","","","","","","",""
"html-keyboard-response","169","398957","0.0-15.0-0.63","2001","2","""event"",""trial"",""time""
""fullscreenenter"",""1"",""1660""
","
","
","""event"",""trial"",""time""
""fullscreenenter"",""1"",""1660""
","
","","","","","","null","<div style=""font-size:60px;"">+</div>","null","","fixation","","","","","","","","",""
"memory-trial","170","402219","0.0-15.0-1.63","2001","2","""event"",""trial"",""time""
""fullscreenenter"",""1"",""1660""
","
","
","""event"",""trial"",""time""
""fullscreenenter"",""1"",""1660""
","
","","","","","","2255.399999999907","images/boat1.png","","","memory_trial","3","maybe_new","","","","","","",""
"html-keyboard-response","171","402724","0.0-15.0-0.64","2001","2","""event"",""trial"",""time""
""fullscreenenter"",""1"",""1660""
","
","
","""event"",""trial"",""time""
""fullscreenenter"",""1"",""1660""
","
","","","","","","null","<div style=""font-size:60px;"">+</div>","null","","fixation","","","","","","","","",""
"memory-trial","172","404530","0.0-15.0-1.64","2001","2","""event"",""trial"",""time""
""fullscreenenter"",""1"",""1660""
","
","
","""event"",""trial"",""time""
""fullscreenenter"",""1"",""1660""
","
","","","","","","798.5999999996275","images/apple3.png","","","memory_trial","4","definitely_new","","","","","","",""
"html-keyboard-response","173","405035","0.0-15.0-0.65","2001","2","""event"",""trial"",""time""
""fullscreenenter"",""1"",""1660""
","
","
","""event"",""trial"",""time""
""fullscreenenter"",""1"",""1660""
","
","","","","","","null","<div style=""font-size:60px;"">+</div>","null","","fixation","","","","","","","","",""
"memory-trial","174","406888","0.0-15.0-1.65","2001","2","""event"",""trial"",""time""
""fullscreenenter"",""1"",""1660""
","
","
","""event"",""trial"",""time""
""fullscreenenter"",""1"",""1660""
","
","","","","","","848.8000000002794","images/straw5.png","","","memory_trial","1","definitely_old","","","","","","",""
"html-keyboard-response","175","407391","0.0-15.0-0.66","2001","2","""event"",""trial"",""time""
""fullscreenenter"",""1"",""1660""
","
","
","""event"",""trial"",""time""
""fullscreenenter"",""1"",""1660""
","
","","","","","","null","<div style=""font-size:60px;"">+</div>","null","","fixation","","","","","","","","",""
"memory-trial","176","410359","0.0-15.0-1.66","2001","2","""event"",""trial"",""time""
""fullscreenenter"",""1"",""1660""
","
","
","""event"",""trial"",""time""
""fullscreenenter"",""1"",""1660""
","
","","","","","","1964","images/tree3.png","","","memory_trial","3","maybe_new","","","","","","",""
"html-keyboard-response","177","410863","0.0-15.0-0.67","2001","2","""event"",""trial"",""time""
""fullscreenenter"",""1"",""1660""
","
","
","""event"",""trial"",""time""
""fullscreenenter"",""1"",""1660""
","
","","","","","","null","<div style=""font-size:60px;"">+</div>","null","","fixation","","","","","","","","",""
"memory-trial","178","414108","0.0-15.0-1.67","2001","2","""event"",""trial"",""time""
""fullscreenenter"",""1"",""1660""
","
","
","""event"",""trial"",""time""
""fullscreenenter"",""1"",""1660""
","
","","","","","","2236.2999999998137","images/plane3.png","","","memory_trial","2","maybe_old","","","","","","",""
"html-keyboard-response","179","414613","0.0-15.0-0.68","2001","2","""event"",""trial"",""time""
""fullscreenenter"",""1"",""1660""
","
","
","""event"",""trial"",""time""
""fullscreenenter"",""1"",""1660""
","
","","","","","","null","<div style=""font-size:60px;"">+</div>","null","","fixation","","","","","","","","",""
"memory-trial","180","416464","0.0-15.0-1.68","2001","2","""event"",""trial"",""time""
""fullscreenenter"",""1"",""1660""
","
","
","""event"",""trial"",""time""
""fullscreenenter"",""1"",""1660""
","
","","","","","","846.3999999999069","images/feline1.png","","","memory_trial","4","definitely_new","","","","","","",""
"html-keyboard-response","181","416969","0.0-15.0-0.69","2001","2","""event"",""trial"",""time""
""fullscreenenter"",""1"",""1660""
","
","
","""event"",""trial"",""time""
""fullscreenenter"",""1"",""1660""
","
","","","","","","null","<div style=""font-size:60px;"">+</div>","null","","fixation","","","","","","","","",""
"memory-trial","182","418856","0.0-15.0-1.69","2001","2","""event"",""trial"",""time""
""fullscreenenter"",""1"",""1660""
","
","
","""event"",""trial"",""time""
""fullscreenenter"",""1"",""1660""
","
","","","","","","881.7999999998137","images/orange5.png","","","memory_trial","1","definitely_old","","","","","","",""
"html-keyboard-response","183","419361","0.0-15.0-0.70","2001","2","""event"",""trial"",""time""
""fullscreenenter"",""1"",""1660""
","
","
","""event"",""trial"",""time""
""fullscreenenter"",""1"",""1660""
","
","","","","","","null","<div style=""font-size:60px;"">+</div>","null","","fixation","","","","","","","","",""
"memory-trial","184","422664","0.0-15.0-1.70","2001","2","""event"",""trial"",""time""
""fullscreenenter"",""1"",""1660""
","
","
","""event"",""trial"",""time""
""fullscreenenter"",""1"",""1660""
","
","","","","","","2299.100000000093","images/cactus5.png","","","memory_trial","3","maybe_new","","","","","","",""
"html-keyboard-response","185","423169","0.0-15.0-0.71","2001","2","""event"",""trial"",""time""
""fullscreenenter"",""1"",""1660""
","
","
","""event"",""trial"",""time""
""fullscreenenter"",""1"",""1660""
","
","","","","","","null","<div style=""font-size:60px;"">+</div>","null","","fixation","","","","","","","","",""
"memory-trial","186","427227","0.0-15.0-1.71","2001","2","""event"",""trial"",""time""
""fullscreenenter"",""1"",""1660""
","
","
","""event"",""trial"",""time""
""fullscreenenter"",""1"",""1660""
","
","","","","","","3050.600000000093","images/orange2.png","","","memory_trial","4","definitely_new","","","","","","",""
"html-keyboard-response","187","427732","0.0-15.0-0.72","2001","2","""event"",""trial"",""time""
""fullscreenenter"",""1"",""1660""
","
","
","""event"",""trial"",""time""
""fullscreenenter"",""1"",""1660""
","
","","","","","","null","<div style=""font-size:60px;"">+</div>","null","","fixation","","","","","","","","",""
"memory-trial","188","430158","0.0-15.0-1.72","2001","2","""event"",""trial"",""time""
""fullscreenenter"",""1"",""1660""
","
","
","""event"",""trial"",""time""
""fullscreenenter"",""1"",""1660""
","
","","","","","","1422.1000000000931","images/table1.png","","","memory_trial","3","maybe_new","","","","","","",""
"html-keyboard-response","189","430663","0.0-15.0-0.73","2001","2","""event"",""trial"",""time""
""fullscreenenter"",""1"",""1660""
","
","
","""event"",""trial"",""time""
""fullscreenenter"",""1"",""1660""
","
","","","","","","null","<div style=""font-size:60px;"">+</div>","null","","fixation","","","","","","","","",""
"memory-trial","190","433450","0.0-15.0-1.73","2001","2","""event"",""trial"",""time""
""fullscreenenter"",""1"",""1660""
","
","
","""event"",""trial"",""time""
""fullscreenenter"",""1"",""1660""
","
","","","","","","1779.2000000001863","images/bed5.png","","","memory_trial","2","maybe_old","","","","","","",""
"html-keyboard-response","191","433955","0.0-15.0-0.74","2001","2","""event"",""trial"",""time""
""fullscreenenter"",""1"",""1660""
","
","
","""event"",""trial"",""time""
""fullscreenenter"",""1"",""1660""
","
","","","","","","null","<div style=""font-size:60px;"">+</div>","null","","fixation","","","","","","","","",""
"memory-trial","192","436248","0.0-15.0-1.74","2001","2","""event"",""trial"",""time""
""fullscreenenter"",""1"",""1660""
","
","
","""event"",""trial"",""time""
""fullscreenenter"",""1"",""1660""
","
","","","","","","1288.1000000000931","images/sheep2.png","","","memory_trial","3","maybe_new","","","","","","",""
"html-keyboard-response","193","436752","0.0-15.0-0.75","2001","2","""event"",""trial"",""time""
""fullscreenenter"",""1"",""1660""
","
","
","""event"",""trial"",""time""
""fullscreenenter"",""1"",""1660""
","
","","","","","","null","<div style=""font-size:60px;"">+</div>","null","","fixation","","","","","","","","",""
"memory-trial","194","441135","0.0-15.0-1.75","2001","2","""event"",""trial"",""time""
""fullscreenenter"",""1"",""1660""
","
","
","""event"",""trial"",""time""
""fullscreenenter"",""1"",""1660""
","
","","","","","","3379.1999999997206","images/train1.png","","","memory_trial","3","maybe_new","","","","","","",""
"html-keyboard-response","195","441640","0.0-15.0-0.76","2001","2","""event"",""trial"",""time""
""fullscreenenter"",""1"",""1660""
","
","
","""event"",""trial"",""time""
""fullscreenenter"",""1"",""1660""
","
","","","","","","null","<div style=""font-size:60px;"">+</div>","null","","fixation","","","","","","","","",""
"memory-trial","196","443742","0.0-15.0-1.76","2001","2","""event"",""trial"",""time""
""fullscreenenter"",""1"",""1660""
","
","
","""event"",""trial"",""time""
""fullscreenenter"",""1"",""1660""
","
","","","","","","1097.6000000000931","images/dog2.png","","","memory_trial","1","definitely_old","","","","","","",""
"html-keyboard-response","197","444246","0.0-15.0-0.77","2001","2","""event"",""trial"",""time""
""fullscreenenter"",""1"",""1660""
","
","
","""event"",""trial"",""time""
""fullscreenenter"",""1"",""1660""
","
","","","","","","null","<div style=""font-size:60px;"">+</div>","null","","fixation","","","","","","","","",""
"memory-trial","198","446598","0.0-15.0-1.77","2001","2","""event"",""trial"",""time""
""fullscreenenter"",""1"",""1660""
","
","
","""event"",""trial"",""time""
""fullscreenenter"",""1"",""1660""
","
","","","","","","1347.2999999998137","images/table2.png","","","memory_trial","3","maybe_new","","","","","","",""
"html-keyboard-response","199","447102","0.0-15.0-0.78","2001","2","""event"",""trial"",""time""
""fullscreenenter"",""1"",""1660""
","
","
","""event"",""trial"",""time""
""fullscreenenter"",""1"",""1660""
","
","","","","","","null","<div style=""font-size:60px;"">+</div>","null","","fixation","","","","","","","","",""
"memory-trial","200","449575","0.0-15.0-1.78","2001","2","""event"",""trial"",""time""
""fullscreenenter"",""1"",""1660""
","
","
","""event"",""trial"",""time""
""fullscreenenter"",""1"",""1660""
","
","","","","","","1468.7000000001863","images/bed1.png","","","memory_trial","3","maybe_new","","","","","","",""
"html-keyboard-response","201","450081","0.0-15.0-0.79","2001","2","""event"",""trial"",""time""
""fullscreenenter"",""1"",""1660""
","
","
","""event"",""trial"",""time""
""fullscreenenter"",""1"",""1660""
","
","","","","","","null","<div style=""font-size:60px;"">+</div>","null","","fixation","","","","","","","","",""
"memory-trial","202","451776","0.0-15.0-1.79","2001","2","""event"",""trial"",""time""
""fullscreenenter"",""1"",""1660""
","
","
","""event"",""trial"",""time""
""fullscreenenter"",""1"",""1660""
","
","","","","","","690.3999999999069","images/cow1.png","","","memory_trial","1","definitely_old","","","","","","",""
"html-keyboard-response","203","452280","0.0-15.0-0.80","2001","2","""event"",""trial"",""time""
""fullscreenenter"",""1"",""1660""
","
","
","""event"",""trial"",""time""
""fullscreenenter"",""1"",""1660""
","
","","","","","","null","<div style=""font-size:60px;"">+</div>","null","","fixation","","","","","","","","",""
"memory-trial","204","454303","0.0-15.0-1.80","2001","2","""event"",""trial"",""time""
""fullscreenenter"",""1"",""1660""
","
","
","""event"",""trial"",""time""
""fullscreenenter"",""1"",""1660""
","
","","","","","","1018.4000000003725","images/rabbit5.png","","","memory_trial","1","definitely_old","","","","","","",""
"html-keyboard-response","205","454806","0.0-15.0-0.81","2001","2","""event"",""trial"",""time""
""fullscreenenter"",""1"",""1660""
","
","
","""event"",""trial"",""time""
""fullscreenenter"",""1"",""1660""
","
","","","","","","null","<div style=""font-size:60px;"">+</div>","null","","fixation","","","","","","","","",""
"memory-trial","206","457865","0.0-15.0-1.81","2001","2","""event"",""trial"",""time""
""fullscreenenter"",""1"",""1660""
","
","
","""event"",""trial"",""time""
""fullscreenenter"",""1"",""1660""
","
","","","","","","2053.600000000093","images/straw3.png","","","memory_trial","3","maybe_new","","","","","","",""
"html-keyboard-response","207","458369","0.0-15.0-0.82","2001","2","""event"",""trial"",""time""
""fullscreenenter"",""1"",""1660""
","
","
","""event"",""trial"",""time""
""fullscreenenter"",""1"",""1660""
","
","","","","","","null","<div style=""font-size:60px;"">+</div>","null","","fixation","","","","","","","","",""
"memory-trial","208","460286","0.0-15.0-1.82","2001","2","""event"",""trial"",""time""
""fullscreenenter"",""1"",""1660""
","
","
","""event"",""trial"",""time""
""fullscreenenter"",""1"",""1660""
","
","","","","","","912.0999999996275","images/feline4.png","","","memory_trial","4","definitely_new","","","","","","",""
"html-keyboard-response","209","460791","0.0-15.0-0.83","2001","2","""event"",""trial"",""time""
""fullscreenenter"",""1"",""1660""
","
","
","""event"",""trial"",""time""
""fullscreenenter"",""1"",""1660""
","
","","","","","","null","<div style=""font-size:60px;"">+</div>","null","","fixation","","","","","","","","",""
"memory-trial","210","463144","0.0-15.0-1.83","2001","2","""event"",""trial"",""time""
""fullscreenenter"",""1"",""1660""
","
","
","""event"",""trial"",""time""
""fullscreenenter"",""1"",""1660""
","
","","","","","","1347.8000000002794","images/bush1.png","","","memory_trial","4","definitely_new","","","","","","",""
"html-keyboard-response","211","463646","0.0-15.0-0.84","2001","2","""event"",""trial"",""time""
""fullscreenenter"",""1"",""1660""
","
","
","""event"",""trial"",""time""
""fullscreenenter"",""1"",""1660""
","
","","","","","","null","<div style=""font-size:60px;"">+</div>","null","","fixation","","","","","","","","",""
"memory-trial","212","466607","0.0-15.0-1.84","2001","2","""event"",""trial"",""time""
""fullscreenenter"",""1"",""1660""
","
","
","""event"",""trial"",""time""
""fullscreenenter"",""1"",""1660""
","
","","","","","","1956.7000000001863","images/boat4.png","","","memory_trial","3","maybe_new","","","","","","",""
"html-keyboard-response","213","467112","0.0-15.0-0.85","2001","2","""event"",""trial"",""time""
""fullscreenenter"",""1"",""1660""
","
","
","""event"",""trial"",""time""
""fullscreenenter"",""1"",""1660""
","
","","","","","","null","<div style=""font-size:60px;"">+</div>","null","","fixation","","","","","","","","",""
"memory-trial","214","469231","0.0-15.0-1.85","2001","2","""event"",""trial"",""time""
""fullscreenenter"",""1"",""1660""
","
","
","""event"",""trial"",""time""
""fullscreenenter"",""1"",""1660""
","
","","","","","","1113.6999999997206","images/tree4.png","","","memory_trial","4","definitely_new","","","","","","",""
"html-keyboard-response","215","469736","0.0-15.0-0.86","2001","2","""event"",""trial"",""time""
""fullscreenenter"",""1"",""1660""
","
","
","""event"",""trial"",""time""
""fullscreenenter"",""1"",""1660""
","
","","","","","","null","<div style=""font-size:60px;"">+</div>","null","","fixation","","","","","","","","",""
"memory-trial","216","472290","0.0-15.0-1.86","2001","2","""event"",""trial"",""time""
""fullscreenenter"",""1"",""1660""
","
","
","""event"",""trial"",""time""
""fullscreenenter"",""1"",""1660""
","
","","","","","","1546.3999999999069","images/rabbit1.png","","","memory_trial","3","maybe_new","","","","","","",""
"html-keyboard-response","217","472795","0.0-15.0-0.87","2001","2","""event"",""trial"",""time""
""fullscreenenter"",""1"",""1660""
","
","
","""event"",""trial"",""time""
""fullscreenenter"",""1"",""1660""
","
","","","","","","null","<div style=""font-size:60px;"">+</div>","null","","fixation","","","","","","","","",""
"memory-trial","218","474734","0.0-15.0-1.87","2001","2","""event"",""trial"",""time""
""fullscreenenter"",""1"",""1660""
","
","
","""event"",""trial"",""time""
""fullscreenenter"",""1"",""1660""
","
","","","","","","935.9000000003725","images/horse4.png","","","memory_trial","4","definitely_new","","","","","","",""
"html-keyboard-response","219","475239","0.0-15.0-0.88","2001","2","""event"",""trial"",""time""
""fullscreenenter"",""1"",""1660""
","
","
","""event"",""trial"",""time""
""fullscreenenter"",""1"",""1660""
","
","","","","","","null","<div style=""font-size:60px;"">+</div>","null","","fixation","","","","","","","","",""
"memory-trial","220","477678","0.0-15.0-1.88","2001","2","""event"",""trial"",""time""
""fullscreenenter"",""1"",""1660""
","
","
","""event"",""trial"",""time""
""fullscreenenter"",""1"",""1660""
","
","","","","","","1435.6000000000931","images/cow3.png","","","memory_trial","3","maybe_new","","","","","","",""
"html-keyboard-response","221","478181","0.0-15.0-0.89","2001","2","""event"",""trial"",""time""
""fullscreenenter"",""1"",""1660""
","
","
","""event"",""trial"",""time""
""fullscreenenter"",""1"",""1660""
","
","","","","","","null","<div style=""font-size:60px;"">+</div>","null","","fixation","","","","","","","","",""
"memory-trial","222","480841","0.0-15.0-1.89","2001","2","""event"",""trial"",""time""
""fullscreenenter"",""1"",""1660""
","
","
","""event"",""trial"",""time""
""fullscreenenter"",""1"",""1660""
","
","","","","","","1652","images/tree1.png","","","memory_trial","3","maybe_new","","","","","","",""
"html-keyboard-response","223","481346","0.0-15.0-0.90","2001","2","""event"",""trial"",""time""
""fullscreenenter"",""1"",""1660""
","
","
","""event"",""trial"",""time""
""fullscreenenter"",""1"",""1660""
","
","","","","","","null","<div style=""font-size:60px;"">+</div>","null","","fixation","","","","","","","","",""
"memory-trial","224","483534","0.0-15.0-1.90","2001","2","""event"",""trial"",""time""
""fullscreenenter"",""1"",""1660""
","
","
","""event"",""trial"",""time""
""fullscreenenter"",""1"",""1660""
","
","","","","","","1184.9000000003725","images/orange4.png","","","memory_trial","3","maybe_new","","","","","","",""
"html-keyboard-response","225","484039","0.0-15.0-0.91","2001","2","""event"",""trial"",""time""
""fullscreenenter"",""1"",""1660""
","
","
","""event"",""trial"",""time""
""fullscreenenter"",""1"",""1660""
","
","","","","","","null","<div style=""font-size:60px;"">+</div>","null","","fixation","","","","","","","","",""
"memory-trial","226","485759","0.0-15.0-1.91","2001","2","""event"",""trial"",""time""
""fullscreenenter"",""1"",""1660""
","
","
","""event"",""trial"",""time""
""fullscreenenter"",""1"",""1660""
","
","","","","","","715.0999999996275","images/feline5.png","","","memory_trial","3","maybe_new","","","","","","",""
"html-keyboard-response","227","486262","0.0-15.0-0.92","2001","2","""event"",""trial"",""time""
""fullscreenenter"",""1"",""1660""
","
","
","""event"",""trial"",""time""
""fullscreenenter"",""1"",""1660""
","
","","","","","","null","<div style=""font-size:60px;"">+</div>","null","","fixation","","","","","","","","",""
"memory-trial","228","490274","0.0-15.0-1.92","2001","2","""event"",""trial"",""time""
""fullscreenenter"",""1"",""1660""
","
","
","""event"",""trial"",""time""
""fullscreenenter"",""1"",""1660""
","
","","","","","","3003.899999999907","images/boat5.png","","","memory_trial","3","maybe_new","","","","","","",""
"html-keyboard-response","229","490780","0.0-15.0-0.93","2001","2","""event"",""trial"",""time""
""fullscreenenter"",""1"",""1660""
","
","
","""event"",""trial"",""time""
""fullscreenenter"",""1"",""1660""
","
","","","","","","null","<div style=""font-size:60px;"">+</div>","null","","fixation","","","","","","","","",""
"memory-trial","230","493965","0.0-15.0-1.93","2001","2","""event"",""trial"",""time""
""fullscreenenter"",""1"",""1660""
","
","
","""event"",""trial"",""time""
""fullscreenenter"",""1"",""1660""
","
","","","","","","2180.9000000003725","images/cow4.png","","","memory_trial","2","maybe_old","","","","","","",""
"html-keyboard-response","231","494470","0.0-15.0-0.94","2001","2","""event"",""trial"",""time""
""fullscreenenter"",""1"",""1660""
","
","
","""event"",""trial"",""time""
""fullscreenenter"",""1"",""1660""
","
","","","","","","null","<div style=""font-size:60px;"">+</div>","null","","fixation","","","","","","","","",""
"memory-trial","232","496920","0.0-15.0-1.94","2001","2","""event"",""trial"",""time""
""fullscreenenter"",""1"",""1660""
","
","
","""event"",""trial"",""time""
""fullscreenenter"",""1"",""1660""
","
","","","","","","1443.6999999997206","images/goat4.png","","","memory_trial","3","maybe_new","","","","","","",""
"html-keyboard-response","233","497425","0.0-15.0-0.95","2001","2","""event"",""trial"",""time""
""fullscreenenter"",""1"",""1660""
","
","
","""event"",""trial"",""time""
""fullscreenenter"",""1"",""1660""
","
","","","","","","null","<div style=""font-size:60px;"">+</div>","null","","fixation","","","","","","","","",""
"memory-trial","234","499335","0.0-15.0-1.95","2001","2","""event"",""trial"",""time""
""fullscreenenter"",""1"",""1660""
","
","
","""event"",""trial"",""time""
""fullscreenenter"",""1"",""1660""
","
","","","","","","904.2999999998137","images/plane4.png","","","memory_trial","1","definitely_old","","","","","","",""
"html-keyboard-response","235","499840","0.0-15.0-0.96","2001","2","""event"",""trial"",""time""
""fullscreenenter"",""1"",""1660""
","
","
","""event"",""trial"",""time""
""fullscreenenter"",""1"",""1660""
","
","","","","","","null","<div style=""font-size:60px;"">+</div>","null","","fixation","","","","","","","","",""
"memory-trial","236","502156","0.0-15.0-1.96","2001","2","""event"",""trial"",""time""
""fullscreenenter"",""1"",""1660""
","
","
","""event"",""trial"",""time""
""fullscreenenter"",""1"",""1660""
","
","","","","","","1312.7000000001863","images/cactus3.png","","","memory_trial","4","definitely_new","","","","","","",""
"html-keyboard-response","237","502661","0.0-15.0-0.97","2001","2","""event"",""trial"",""time""
""fullscreenenter"",""1"",""1660""
","
","
","""event"",""trial"",""time""
""fullscreenenter"",""1"",""1660""
","
","","","","","","null","<div style=""font-size:60px;"">+</div>","null","","fixation","","","","","","","","",""
"memory-trial","238","505261","0.0-15.0-1.97","2001","2","""event"",""trial"",""time""
""fullscreenenter"",""1"",""1660""
","
","
","""event"",""trial"",""time""
""fullscreenenter"",""1"",""1660""
","
","","","","","","1595.8999999999069","images/plane2.png","","","memory_trial","4","definitely_new","","","","","","",""
"html-keyboard-response","239","505767","0.0-15.0-0.98","2001","2","""event"",""trial"",""time""
""fullscreenenter"",""1"",""1660""
","
","
","""event"",""trial"",""time""
""fullscreenenter"",""1"",""1660""
","
","","","","","","null","<div style=""font-size:60px;"">+</div>","null","","fixation","","","","","","","","",""
"memory-trial","240","509917","0.0-15.0-1.98","2001","2","""event"",""trial"",""time""
""fullscreenenter"",""1"",""1660""
","
","
","""event"",""trial"",""time""
""fullscreenenter"",""1"",""1660""
","
","","","","","","3146","images/cactus1.png","","","memory_trial","2","maybe_old","","","","","","",""
"html-keyboard-response","241","510422","0.0-15.0-0.99","2001","2","""event"",""trial"",""time""
""fullscreenenter"",""1"",""1660""
","
","
","""event"",""trial"",""time""
""fullscreenenter"",""1"",""1660""
","
","","","","","","null","<div style=""font-size:60px;"">+</div>","null","","fixation","","","","","","","","",""
"memory-trial","242","513592","0.0-15.0-1.99","2001","2","""event"",""trial"",""time""
""fullscreenenter"",""1"",""1660""
","
","
","""event"",""trial"",""time""
""fullscreenenter"",""1"",""1660""
","
","","","","","","2162.4000000003725","images/plane5.png","","","memory_trial","3","maybe_new","","","","","","",""
"html-keyboard-response","243","514097","0.0-15.0-0.100","2001","2","""event"",""trial"",""time""
""fullscreenenter"",""1"",""1660""
","
","
","""event"",""trial"",""time""
""fullscreenenter"",""1"",""1660""
","
","","","","","","null","<div style=""font-size:60px;"">+</div>","null","","fixation","","","","","","","","",""
"memory-trial","244","516999","0.0-15.0-1.100","2001","2","""event"",""trial"",""time""
""fullscreenenter"",""1"",""1660""
","
","
","""event"",""trial"",""time""
""fullscreenenter"",""1"",""1660""
","
","","","","","","1896","images/banana1.png","","","memory_trial","3","maybe_new","","","","","","",""
"html-keyboard-response","245","517504","0.0-15.0-0.101","2001","2","""event"",""trial"",""time""
""fullscreenenter"",""1"",""1660""
","
","
","""event"",""trial"",""time""
""fullscreenenter"",""1"",""1660""
","
","","","","","","null","<div style=""font-size:60px;"">+</div>","null","","fixation","","","","","","","","",""
"memory-trial","246","521422","0.0-15.0-1.101","2001","2","""event"",""trial"",""time""
""fullscreenenter"",""1"",""1660""
","
","
","""event"",""trial"",""time""
""fullscreenenter"",""1"",""1660""
","
","","","","","","2913.8000000002794","images/cactus4.png","","","memory_trial","2","maybe_old","","","","","","",""
"html-button-response","247","529720","0.0-15.0-2.101-0.101","2001","2","""event"",""trial"",""time""
""fullscreenenter"",""1"",""1660""
","
","
","""event"",""trial"",""time""
""fullscreenenter"",""1"",""1660""
","
","","","","","","8295.5","<p> Take a break! </p><p> Click the button to continue. </p>","0","","break","","","","","","","","",""
"html-keyboard-response","248","530223","0.0-15.0-0.102","2001","2","""event"",""trial"",""time""
""fullscreenenter"",""1"",""1660""
","
","
","""event"",""trial"",""time""
""fullscreenenter"",""1"",""1660""
","
","","","","","","null","<div style=""font-size:60px;"">+</div>","null","","fixation","","","","","","","","",""
"memory-trial","249","532568","0.0-15.0-1.102","2001","2","""event"",""trial"",""time""
""fullscreenenter"",""1"",""1660""
","
","
","""event"",""trial"",""time""
""fullscreenenter"",""1"",""1660""
","
","","","","","","1337.8999999999069","images/sofa3.png","","","memory_trial","3","maybe_new","","","","","","",""
"html-keyboard-response","250","533073","0.0-15.0-0.103","2001","2","""event"",""trial"",""time""
""fullscreenenter"",""1"",""1660""
","
","
","""event"",""trial"",""time""
""fullscreenenter"",""1"",""1660""
","
","","","","","","null","<div style=""font-size:60px;"">+</div>","null","","fixation","","","","","","","","",""
"memory-trial","251","537415","0.0-15.0-1.103","2001","2","""event"",""trial"",""time""
""fullscreenenter"",""1"",""1660""
","
","
","""event"",""trial"",""time""
""fullscreenenter"",""1"",""1660""
","
","","","","","","3335.2000000001863","images/feline3.png","","","memory_trial","3","maybe_new","","","","","","",""
"html-keyboard-response","252","537920","0.0-15.0-0.104","2001","2","""event"",""trial"",""time""
""fullscreenenter"",""1"",""1660""
","
","
","""event"",""trial"",""time""
""fullscreenenter"",""1"",""1660""
","
","","","","","","null","<div style=""font-size:60px;"">+</div>","null","","fixation","","","","","","","","",""
"memory-trial","253","539894","0.0-15.0-1.104","2001","2","""event"",""trial"",""time""
""fullscreenenter"",""1"",""1660""
","
","
","""event"",""trial"",""time""
""fullscreenenter"",""1"",""1660""
","
","","","","","","968.7999999998137","images/bush5.png","","","memory_trial","4","definitely_new","","","","","","",""
"html-keyboard-response","254","540398","0.0-15.0-0.105","2001","2","""event"",""trial"",""time""
""fullscreenenter"",""1"",""1660""
","
","
","""event"",""trial"",""time""
""fullscreenenter"",""1"",""1660""
","
","","","","","","null","<div style=""font-size:60px;"">+</div>","null","","fixation","","","","","","","","",""
"memory-trial","255","542889","0.0-15.0-1.105","2001","2","""event"",""trial"",""time""
""fullscreenenter"",""1"",""1660""
","
","
","""event"",""trial"",""time""
""fullscreenenter"",""1"",""1660""
","
","","","","","","1482.5999999996275","images/rabbit2.png","","","memory_trial","2","maybe_old","","","","","","",""
"html-keyboard-response","256","543394","0.0-15.0-0.106","2001","2","""event"",""trial"",""time""
""fullscreenenter"",""1"",""1660""
","
","
","""event"",""trial"",""time""
""fullscreenenter"",""1"",""1660""
","
","","","","","","null","<div style=""font-size:60px;"">+</div>","null","","fixation","","","","","","","","",""
"memory-trial","257","545664","0.0-15.0-1.106","2001","2","""event"",""trial"",""time""
""fullscreenenter"",""1"",""1660""
","
","
","""event"",""trial"",""time""
""fullscreenenter"",""1"",""1660""
","
","","","","","","1263.1999999997206","images/straw2.png","","","memory_trial","1","definitely_old","","","","","","",""
"html-keyboard-response","258","546169","0.0-15.0-0.107","2001","2","""event"",""trial"",""time""
""fullscreenenter"",""1"",""1660""
","
","
","""event"",""trial"",""time""
""fullscreenenter"",""1"",""1660""
","
","","","","","","null","<div style=""font-size:60px;"">+</div>","null","","fixation","","","","","","","","",""
"memory-trial","259","548189","0.0-15.0-1.107","2001","2","""event"",""trial"",""time""
""fullscreenenter"",""1"",""1660""
","
","
","""event"",""trial"",""time""
""fullscreenenter"",""1"",""1660""
","
","","","","","","1016.7000000001863","images/sheep3.png","","","memory_trial","1","definitely_old","","","","","","",""
"html-keyboard-response","260","548694","0.0-15.0-0.108","2001","2","""event"",""trial"",""time""
""fullscreenenter"",""1"",""1660""
","
","
","""event"",""trial"",""time""
""fullscreenenter"",""1"",""1660""
","
","","","","","","null","<div style=""font-size:60px;"">+</div>","null","","fixation","","","","","","","","",""
"memory-trial","261","552333","0.0-15.0-1.108","2001","2","""event"",""trial"",""time""
""fullscreenenter"",""1"",""1660""
","
","
","""event"",""trial"",""time""
""fullscreenenter"",""1"",""1660""
","
","","","","","","2634.5","images/bed4.png","","","memory_trial","2","maybe_old","","","","","","",""
"html-keyboard-response","262","552838","0.0-15.0-0.109","2001","2","""event"",""trial"",""time""
""fullscreenenter"",""1"",""1660""
","
","
","""event"",""trial"",""time""
""fullscreenenter"",""1"",""1660""
","
","","","","","","null","<div style=""font-size:60px;"">+</div>","null","","fixation","","","","","","","","",""
"memory-trial","263","555833","0.0-15.0-1.109","2001","2","""event"",""trial"",""time""
""fullscreenenter"",""1"",""1660""
","
","
","""event"",""trial"",""time""
""fullscreenenter"",""1"",""1660""
","
","","","","","","1986.2000000001863","images/banana2.png","","","memory_trial","2","maybe_old","","","","","","",""
"html-keyboard-response","264","556339","0.0-15.0-0.110","2001","2","""event"",""trial"",""time""
""fullscreenenter"",""1"",""1660""
","
","
","""event"",""trial"",""time""
""fullscreenenter"",""1"",""1660""
","
","","","","","","null","<div style=""font-size:60px;"">+</div>","null","","fixation","","","","","","","","",""
"memory-trial","265","558336","0.0-15.0-1.110","2001","2","""event"",""trial"",""time""
""fullscreenenter"",""1"",""1660""
","
","
","""event"",""trial"",""time""
""fullscreenenter"",""1"",""1660""
","
","","","","","","989.2000000001863","images/rodent2.png","","","memory_trial","1","definitely_old","","","","","","",""
"html-keyboard-response","266","558841","0.0-15.0-0.111","2001","2","""event"",""trial"",""time""
""fullscreenenter"",""1"",""1660""
","
","
","""event"",""trial"",""time""
""fullscreenenter"",""1"",""1660""
","
","","","","","","null","<div style=""font-size:60px;"">+</div>","null","","fixation","","","","","","","","",""
"memory-trial","267","561639","0.0-15.0-1.111","2001","2","""event"",""trial"",""time""
""fullscreenenter"",""1"",""1660""
","
","
","""event"",""trial"",""time""
""fullscreenenter"",""1"",""1660""
","
","","","","","","1792","images/train4.png","","","memory_trial","3","maybe_new","","","","","","",""
"html-keyboard-response","268","562144","0.0-15.0-0.112","2001","2","""event"",""trial"",""time""
""fullscreenenter"",""1"",""1660""
","
","
","""event"",""trial"",""time""
""fullscreenenter"",""1"",""1660""
","
","","","","","","null","<div style=""font-size:60px;"">+</div>","null","","fixation","","","","","","","","",""
"memory-trial","269","564454","0.0-15.0-1.112","2001","2","""event"",""trial"",""time""
""fullscreenenter"",""1"",""1660""
","
","
","""event"",""trial"",""time""
""fullscreenenter"",""1"",""1660""
","
","","","","","","1305.6000000000931","images/train2.png","","","memory_trial","1","definitely_old","","","","","","",""
"html-keyboard-response","270","564959","0.0-15.0-0.113","2001","2","""event"",""trial"",""time""
""fullscreenenter"",""1"",""1660""
","
","
","""event"",""trial"",""time""
""fullscreenenter"",""1"",""1660""
","
","","","","","","null","<div style=""font-size:60px;"">+</div>","null","","fixation","","","","","","","","",""
"memory-trial","271","567287","0.0-15.0-1.113","2001","2","""event"",""trial"",""time""
""fullscreenenter"",""1"",""1660""
","
","
","""event"",""trial"",""time""
""fullscreenenter"",""1"",""1660""
","
","","","","","","1321.7999999998137","images/tree2.png","","","memory_trial","1","definitely_old","","","","","","",""
"html-keyboard-response","272","567792","0.0-15.0-0.114","2001","2","""event"",""trial"",""time""
""fullscreenenter"",""1"",""1660""
","
","
","""event"",""trial"",""time""
""fullscreenenter"",""1"",""1660""
","
","","","","","","null","<div style=""font-size:60px;"">+</div>","null","","fixation","","","","","","","","",""
"memory-trial","273","570432","0.0-15.0-1.114","2001","2","""event"",""trial"",""time""
""fullscreenenter"",""1"",""1660""
","
","
","""event"",""trial"",""time""
""fullscreenenter"",""1"",""1660""
","
","","","","","","1632.7000000001863","images/rabbit4.png","","","memory_trial","3","maybe_new","","","","","","",""
"html-keyboard-response","274","570938","0.0-15.0-0.115","2001","2","""event"",""trial"",""time""
""fullscreenenter"",""1"",""1660""
","
","
","""event"",""trial"",""time""
""fullscreenenter"",""1"",""1660""
","
","","","","","","null","<div style=""font-size:60px;"">+</div>","null","","fixation","","","","","","","","",""
"memory-trial","275","573260","0.0-15.0-1.115","2001","2","""event"",""trial"",""time""
""fullscreenenter"",""1"",""1660""
","
","
","""event"",""trial"",""time""
""fullscreenenter"",""1"",""1660""
","
","","","","","","1318","images/chair4.png","","","memory_trial","4","definitely_new","","","","","","",""
"html-keyboard-response","276","573765","0.0-15.0-0.116","2001","2","""event"",""trial"",""time""
""fullscreenenter"",""1"",""1660""
","
","
","""event"",""trial"",""time""
""fullscreenenter"",""1"",""1660""
","
","","","","","","null","<div style=""font-size:60px;"">+</div>","null","","fixation","","","","","","","","",""
"memory-trial","277","576134","0.0-15.0-1.116","2001","2","""event"",""trial"",""time""
""fullscreenenter"",""1"",""1660""
","
","
","""event"",""trial"",""time""
""fullscreenenter"",""1"",""1660""
","
","","","","","","1363.6999999997206","images/chair3.png","","","memory_trial","3","maybe_new","","","","","","",""
"html-keyboard-response","278","576639","0.0-15.0-0.117","2001","2","""event"",""trial"",""time""
""fullscreenenter"",""1"",""1660""
","
","
","""event"",""trial"",""time""
""fullscreenenter"",""1"",""1660""
","
","","","","","","null","<div style=""font-size:60px;"">+</div>","null","","fixation","","","","","","","","",""
"memory-trial","279","578649","0.0-15.0-1.117","2001","2","""event"",""trial"",""time""
""fullscreenenter"",""1"",""1660""
","
","
","""event"",""trial"",""time""
""fullscreenenter"",""1"",""1660""
","
","","","","","","1001.6000000000931","images/dog5.png","","","memory_trial","4","definitely_new","","","","","","",""
"html-keyboard-response","280","579152","0.0-15.0-0.118","2001","2","""event"",""trial"",""time""
""fullscreenenter"",""1"",""1660""
","
","
","""event"",""trial"",""time""
""fullscreenenter"",""1"",""1660""
","
","","","","","","null","<div style=""font-size:60px;"">+</div>","null","","fixation","","","","","","","","",""
"memory-trial","281","580963","0.0-15.0-1.118","2001","2","""event"",""trial"",""time""
""fullscreenenter"",""1"",""1660""
","
","
","""event"",""trial"",""time""
""fullscreenenter"",""1"",""1660""
","
","","","","","","808.5","images/rodent5.png","","","memory_trial","1","definitely_old","","","","","","",""
"html-keyboard-response","282","581468","0.0-15.0-0.119","2001","2","""event"",""trial"",""time""
""fullscreenenter"",""1"",""1660""
","
","
","""event"",""trial"",""time""
""fullscreenenter"",""1"",""1660""
","
","","","","","","null","<div style=""font-size:60px;"">+</div>","null","","fixation","","","","","","","","",""
"memory-trial","283","583976","0.0-15.0-1.119","2001","2","""event"",""trial"",""time""
""fullscreenenter"",""1"",""1660""
","
","
","""event"",""trial"",""time""
""fullscreenenter"",""1"",""1660""
","
","","","","","","1500.6999999997206","images/table3.png","","","memory_trial","2","maybe_old","","","","","","",""
"preload","284","595293","0.0-16.0","2001","2","""event"",""trial"",""time""
""fullscreenenter"",""1"",""1660""
","
","
","""event"",""trial"",""time""
""fullscreenenter"",""1"",""1660""
","
","true","false","[]","[]","[]","","","","","","","","","","","","","",""
"learning-instructions","285","599783","0.0-17.0-0.0-0.0-0.0","2001","2","""event"",""trial"",""time""
""fullscreenenter"",""1"",""1660""
","
","
","""event"",""trial"",""time""
""fullscreenenter"",""1"",""1660""
","
","","","","","","1272.5","<p> We're now going to ask you to water your plants again. </p>","","0","instructions","","","","","","","","",""
"learning-instructions","286","606238","0.0-17.0-0.0-0.0-0.1","2001","2","""event"",""trial"",""time""
""fullscreenenter"",""1"",""1660""
","
","
","""event"",""trial"",""time""
""fullscreenenter"",""1"",""1660""
","
","","","","","","582.1999999997206","<p> On each trial, you will see a plant. Select the watering can that you think will make the plant grow. </p>","","0","instructions","","","","","","","","",""
"learning-instructions","287","613855","0.0-17.0-0.0-0.0-0.2","2001","2","""event"",""trial"",""time""
""fullscreenenter"",""1"",""1660""
","
","
","""event"",""trial"",""time""
""fullscreenenter"",""1"",""1660""
","
","","","","","","548.6000000000931","<p> To make your selection, think about what you learned last week. You will NOT receive any feedback about your choice. </p>","","0","instructions","","","","","","","","",""
"learning-instructions","288","623432","0.0-17.0-0.0-0.0-0.3","2001","2","""event"",""trial"",""time""
""fullscreenenter"",""1"",""1660""
","
","
","""event"",""trial"",""time""
""fullscreenenter"",""1"",""1660""
","
","","","","","","459.20000000018626","<p> You should use the 1 key to select the watering can on the left, the 2 key to select the watering can in the middle, and the 3 key to select the watering can on the right. </p><br><div class=""choice-mem-instructions-grid""> <div class=""choice-mem-option""><img src=""images/plants_choice1.png"" class=""choice-mem-option-img"" stage=""instructions"" position=""0"" ><div class=""choice-mem-option-text""> Press ""1."" </div></div><div class=""choice-mem-option""><img src=""images/plants_choice2.png"" class=""choice-mem-option-img"" stage=""instructions"" position=""1"" ><div class=""choice-mem-option-text""> Press ""2."" </div></div><div class=""choice-mem-option""><img src=""images/plants_choice3.png"" class=""choice-mem-option-img"" stage=""instructions"" position=""2"" ><div class=""choice-mem-option-text""> Press ""3."" </div></div></div>","","0","instructions","","","","","","","","",""
"learning-instructions","289","630572","0.0-17.0-0.0-0.0-0.4","2001","2","""event"",""trial"",""time""
""fullscreenenter"",""1"",""1660""
","
","
","""event"",""trial"",""time""
""fullscreenenter"",""1"",""1660""
","
","","","","","","872","<p> You will have 10 seconds to make each selection. Try to respond before time runs out! </p>","","0","instructions","","","","","","","","",""
"learning-instructions","290","633947","0.0-17.0-0.0-1.0","2001","2","""event"",""trial"",""time""
""fullscreenenter"",""1"",""1660""
","
","
","""event"",""trial"",""time""
""fullscreenenter"",""1"",""1660""
","
","","","","","","1316.3000000002794","<p> You are now ready to begin the game. </p>","","0","instructions","","","","","","","","",""
"html-keyboard-response","291","634552","0.0-17.0-0.0-2.0-0.0","2001","2","""event"",""trial"",""time""
""fullscreenenter"",""1"",""1660""
","
","
","""event"",""trial"",""time""
""fullscreenenter"",""1"",""1660""
","
","","","","","","null","<div style=""font-size:60px;"">+</div>","null","","fixation","","","","","","","","",""
"choice-memory-trial","292","638947","0.0-17.0-0.0-2.0-1.0","2001","2","""event"",""trial"",""time""
""fullscreenenter"",""1"",""1660""
","
","
","""event"",""trial"",""time""
""fullscreenenter"",""1"",""1660""
","
