"trial_type","trial_index","time_elapsed","internal_node_id","subject_id","task_version","interactions","blur_events","focus_events","fullscreenenter_events","fullscreenexit_events","success","timeout","failed_images","failed_audio","failed_video","rt","stimulus","response","button_pressed","task_part","key_press","answer","correct","left_choice","middle_choice","right_choice","choice_positions","option_selected","block"
"pavlovia","0","4","0.0-0.0","1486","2","""event"",""trial"",""time""
""blur"",""1"",""2551""
""focus"",""1"",""4046""
""fullscreenenter"",""1"",""4147""
","""event"",""trial"",""time""
""blur"",""1"",""2551""
","""event"",""trial"",""time""
""focus"",""1"",""4046""
","""event"",""trial"",""time""
""fullscreenenter"",""1"",""4147""
","
","","","","","","","","","","","","","","","","","","",""
"fullscreen","1","5150","0.0-1.0","1486","2","""event"",""trial"",""time""
""blur"",""1"",""2551""
""focus"",""1"",""4046""
""fullscreenenter"",""1"",""4147""
","""event"",""trial"",""time""
""blur"",""1"",""2551""
","""event"",""trial"",""time""
""focus"",""1"",""4046""
","""event"",""trial"",""time""
""fullscreenenter"",""1"",""4147""
","
","true","","","","","","","","","","","","","","","","","",""
"preload","2","6033","0.0-2.0","1486","2","""event"",""trial"",""time""
""blur"",""1"",""2551""
""focus"",""1"",""4046""
""fullscreenenter"",""1"",""4147""
","""event"",""trial"",""time""
""blur"",""1"",""2551""
","""event"",""trial"",""time""
""focus"",""1"",""4046""
","""event"",""trial"",""time""
""fullscreenenter"",""1"",""4147""
","
","true","false","[]","[]","[]","","","","","","","","","","","","","",""
"audio-keyboard-response","3","7695","0.0-3.0","1486","2","""event"",""trial"",""time""
""blur"",""1"",""2551""
""focus"",""1"",""4046""
""fullscreenenter"",""1"",""4147""
","""event"",""trial"",""time""
""blur"",""1"",""2551""
","""event"",""trial"",""time""
""focus"",""1"",""4046""
","""event"",""trial"",""time""
""fullscreenenter"",""1"",""4147""
","
","","","","","","1658.6666666666665","audio/beep_loop.wav"," ","","","","","","","","","","",""
"audio-button-response","4","9093","0.0-4.0","1486","2","""event"",""trial"",""time""
""blur"",""1"",""2551""
""focus"",""1"",""4046""
""fullscreenenter"",""1"",""4147""
","""event"",""trial"",""time""
""blur"",""1"",""2551""
","""event"",""trial"",""time""
""focus"",""1"",""4046""
","""event"",""trial"",""time""
""fullscreenenter"",""1"",""4147""
","
","","","","","","1389","audio/turtle.wav","3","","","","","","","","","","",""
"audio-button-response","5","11817","0.0-5.0","1486","2","""event"",""trial"",""time""
""blur"",""1"",""2551""
""focus"",""1"",""4046""
""fullscreenenter"",""1"",""4147""
","""event"",""trial"",""time""
""blur"",""1"",""2551""
","""event"",""trial"",""time""
""focus"",""1"",""4046""
","""event"",""trial"",""time""
""fullscreenenter"",""1"",""4147""
","
","","","","","","1709","audio/shark.wav","2","","","","","","","","","","",""
"preload","6","14945","0.0-6.0","1486","2","""event"",""trial"",""time""
""blur"",""1"",""2551""
""focus"",""1"",""4046""
""fullscreenenter"",""1"",""4147""
","""event"",""trial"",""time""
""blur"",""1"",""2551""
","""event"",""trial"",""time""
""focus"",""1"",""4046""
","""event"",""trial"",""time""
""fullscreenenter"",""1"",""4147""
","
","true","false","[]","[]","[]","","","","","","","","","","","","","",""
"learning-instructions","7","24538","0.0-7.0-0.0","1486","2","""event"",""trial"",""time""
""blur"",""1"",""2551""
""focus"",""1"",""4046""
""fullscreenenter"",""1"",""4147""
","""event"",""trial"",""time""
""blur"",""1"",""2551""
","""event"",""trial"",""time""
""focus"",""1"",""4046""
","""event"",""trial"",""time""
""fullscreenenter"",""1"",""4147""
","
","","","","","","4789.19999999553","<p> Welcome back! </p><p> Last week, you had to make choices about lots of different items.  </p>","","0","instructions","","","","","","","","",""
"learning-instructions","8","31434","0.0-7.0-0.1","1486","2","""event"",""trial"",""time""
""blur"",""1"",""2551""
""focus"",""1"",""4046""
""fullscreenenter"",""1"",""4147""
","""event"",""trial"",""time""
""blur"",""1"",""2551""
","""event"",""trial"",""time""
""focus"",""1"",""4046""
","""event"",""trial"",""time""
""fullscreenenter"",""1"",""4147""
","
","","","","","","2585.10000000149","<p> Today, we are going to ask you to try to remember all the items. </p>","","0","instructions","","","","","","","","",""
"learning-instructions","9","41972","0.0-7.0-0.2","1486","2","""event"",""trial"",""time""
""blur"",""1"",""2551""
""focus"",""1"",""4046""
""fullscreenenter"",""1"",""4147""
","""event"",""trial"",""time""
""blur"",""1"",""2551""
","""event"",""trial"",""time""
""focus"",""1"",""4046""
","""event"",""trial"",""time""
""fullscreenenter"",""1"",""4147""
","
","","","","","","393.5","<p> On every trial, you will see an image. </p><p> The image may be an OLD image you saw during the games last week or it may be a NEW image that was not presented. </p>","","0","instructions","","","","","","","","",""
"learning-instructions","10","50590","0.0-7.0-0.3","1486","2","""event"",""trial"",""time""
""blur"",""1"",""2551""
""focus"",""1"",""4046""
""fullscreenenter"",""1"",""4147""
","""event"",""trial"",""time""
""blur"",""1"",""2551""
","""event"",""trial"",""time""
""focus"",""1"",""4046""
","""event"",""trial"",""time""
""fullscreenenter"",""1"",""4147""
","
","","","","","","120.79999999701977","<p> You need to select whether the image is:  </p><p>  'Definitely old', 'Maybe old', 'Maybe new', or 'Definitely new.'  </p><div class=""mem-choice-instructions-grid""><div class=""choice-option"" id=""choice-option-1"" ><img src=""images/definitely_old_1.png"" id=""choice-option-img-1"" class=""choice-option-img"" stage=""1""></div><div class=""choice-option"" id=""choice-option-2"" ><img src=""images/maybe_old_1.png"" id=""choice-option-img-2"" class=""choice-option-img"" stage=""1""></div><div class=""choice-option"" id=""choice-option-3"" ><img src=""images/maybe_new_1.png"" id=""choice-option-img-3"" class=""choice-option-img"" stage=""1""></div><div class=""choice-option"" id=""choice-option-4"" > <img src=""images/definitely_new_1.png"" id=""choice-option-img-4"" class=""choice-option-img"" stage=""1""></div></div>","","0","instructions","","","","","","","","",""
"learning-instructions","11","57799","0.0-7.0-0.4","1486","2","""event"",""trial"",""time""
""blur"",""1"",""2551""
""focus"",""1"",""4046""
""fullscreenenter"",""1"",""4147""
","""event"",""trial"",""time""
""blur"",""1"",""2551""
","""event"",""trial"",""time""
""focus"",""1"",""4046""
","""event"",""trial"",""time""
""fullscreenenter"",""1"",""4147""
","
","","","","","","519","<p> You should use the 1, 2, 3, and 4 keys to make your responses.  </p><div class=""mem-choice-instructions-grid""><div class=""choice-option"" id=""choice-option-1"" ><img src=""images/definitely_old.png"" id=""choice-option-img-1"" class=""choice-option-img"" stage=""1""></div><div class=""choice-option"" id=""choice-option-2"" ><img src=""images/maybe_old.png"" id=""choice-option-img-2"" class=""choice-option-img"" stage=""1""></div><div class=""choice-option"" id=""choice-option-3"" ><img src=""images/maybe_new.png"" id=""choice-option-img-3"" class=""choice-option-img"" stage=""1""></div><div class=""choice-option"" id=""choice-option-4"" > <img src=""images/definitely_new.png"" id=""choice-option-img-4"" class=""choice-option-img"" stage=""1""></div></div>","","0","instructions","","","","","","","","",""
"learning-instructions","12","66963","0.0-7.0-0.5","1486","2","""event"",""trial"",""time""
""blur"",""1"",""2551""
""focus"",""1"",""4046""
""fullscreenenter"",""1"",""4147""
","""event"",""trial"",""time""
""blur"",""1"",""2551""
","""event"",""trial"",""time""
""focus"",""1"",""4046""
","""event"",""trial"",""time""
""fullscreenenter"",""1"",""4147""
","
","","","","","","2404.2000000029802","<p> You will have 10 seconds to make each response.  </p><p>  Make sure to respond before time runs out! </p>","","0","instructions","","","","","","","","",""
"learning-instructions","13","74713","0.0-7.0-0.6","1486","2","""event"",""trial"",""time""
""blur"",""1"",""2551""
""focus"",""1"",""4046""
""fullscreenenter"",""1"",""4147""
","""event"",""trial"",""time""
""blur"",""1"",""2551""
","""event"",""trial"",""time""
""focus"",""1"",""4046""
","""event"",""trial"",""time""
""fullscreenenter"",""1"",""4147""
","
","","","","","","174.20000000298023","<p> Today, you will see each image ONCE only.  </p><p>  That means none of the images will repeat. </p>","","0","instructions","","","","","","","","",""
"learning-instructions","14","87907","0.0-7.0-0.7","1486","2","""event"",""trial"",""time""
""blur"",""1"",""2551""
""focus"",""1"",""4046""
""fullscreenenter"",""1"",""4147""
","""event"",""trial"",""time""
""blur"",""1"",""2551""
","""event"",""trial"",""time""
""focus"",""1"",""4046""
","""event"",""trial"",""time""
""fullscreenenter"",""1"",""4147""
","
","","","","","","528.2000000029802","<p> Before you play the real game, it is time to practice. </p><p>  Just like in the real game, some of the images in the practice will be ones you have seen before. </p><p>  Others will be entirely new. </p>","","0","instructions","","","","","","","","",""
"html-button-response","15","89209","0.0-8.0","1486","2","""event"",""trial"",""time""
""blur"",""1"",""2551""
""focus"",""1"",""4046""
""fullscreenenter"",""1"",""4147""
","""event"",""trial"",""time""
""blur"",""1"",""2551""
","""event"",""trial"",""time""
""focus"",""1"",""4046""
","""event"",""trial"",""time""
""fullscreenenter"",""1"",""4147""
","
","","","","","","1189.6000000014901","<p> Ready to practice? </p><p> Remember, use the 1, 2, 3, and 4 keys to make your responses. </p>","0","","instructions","","","","","","","","",""
"html-keyboard-response","16","89825","0.0-9.0-0.0","1486","2","""event"",""trial"",""time""
""blur"",""1"",""2551""
""focus"",""1"",""4046""
""fullscreenenter"",""1"",""4147""
","""event"",""trial"",""time""
""blur"",""1"",""2551""
","""event"",""trial"",""time""
""focus"",""1"",""4046""
","""event"",""trial"",""time""
""fullscreenenter"",""1"",""4147""
","
","","","","","","null","<div style=""font-size:60px;"">+</div>","null","","fixation","","","","","","","","",""
"memory-trial","17","93661","0.0-9.0-1.0","1486","2","""event"",""trial"",""time""
""blur"",""1"",""2551""
""focus"",""1"",""4046""
""fullscreenenter"",""1"",""4147""
","""event"",""trial"",""time""
""blur"",""1"",""2551""
","""event"",""trial"",""time""
""focus"",""1"",""4046""
","""event"",""trial"",""time""
""fullscreenenter"",""1"",""4147""
","
","","","","","","2821.7000000029802","images/racket2.png","","","practice","4","definitely_new","","","","","","",""
"html-keyboard-response","18","94176","0.0-9.0-0.1","1486","2","""event"",""trial"",""time""
""blur"",""1"",""2551""
""focus"",""1"",""4046""
""fullscreenenter"",""1"",""4147""
","""event"",""trial"",""time""
""blur"",""1"",""2551""
","""event"",""trial"",""time""
""focus"",""1"",""4046""
","""event"",""trial"",""time""
""fullscreenenter"",""1"",""4147""
","
","","","","","","null","<div style=""font-size:60px;"">+</div>","null","","fixation","","","","","","","","",""
"memory-trial","19","96812","0.0-9.0-1.1","1486","2","""event"",""trial"",""time""
""blur"",""1"",""2551""
""focus"",""1"",""4046""
""fullscreenenter"",""1"",""4147""
","""event"",""trial"",""time""
""blur"",""1"",""2551""
","""event"",""trial"",""time""
""focus"",""1"",""4046""
","""event"",""trial"",""time""
""fullscreenenter"",""1"",""4147""
","
","","","","","","1616.1999999955297","images/ball4.png","","","practice","1","definitely_old","","","","","","",""
"html-keyboard-response","20","97328","0.0-9.0-0.2","1486","2","""event"",""trial"",""time""
""blur"",""1"",""2551""
""focus"",""1"",""4046""
""fullscreenenter"",""1"",""4147""
","""event"",""trial"",""time""
""blur"",""1"",""2551""
","""event"",""trial"",""time""
""focus"",""1"",""4046""
","""event"",""trial"",""time""
""fullscreenenter"",""1"",""4147""
","
","","","","","","null","<div style=""font-size:60px;"">+</div>","null","","fixation","","","","","","","","",""
"memory-trial","21","99886","0.0-9.0-1.2","1486","2","""event"",""trial"",""time""
""blur"",""1"",""2551""
""focus"",""1"",""4046""
""fullscreenenter"",""1"",""4147""
","""event"",""trial"",""time""
""blur"",""1"",""2551""
","""event"",""trial"",""time""
""focus"",""1"",""4046""
","""event"",""trial"",""time""
""fullscreenenter"",""1"",""4147""
","
","","","","","","1549.7999999970198","images/racket1.png","","","practice","1","definitely_old","","","","","","",""
"html-keyboard-response","22","100399","0.0-9.0-0.3","1486","2","""event"",""trial"",""time""
""blur"",""1"",""2551""
""focus"",""1"",""4046""
""fullscreenenter"",""1"",""4147""
","""event"",""trial"",""time""
""blur"",""1"",""2551""
","""event"",""trial"",""time""
""focus"",""1"",""4046""
","""event"",""trial"",""time""
""fullscreenenter"",""1"",""4147""
","
","","","","","","null","<div style=""font-size:60px;"">+</div>","null","","fixation","","","","","","","","",""
"memory-trial","23","102786","0.0-9.0-1.3","1486","2","""event"",""trial"",""time""
""blur"",""1"",""2551""
""focus"",""1"",""4046""
""fullscreenenter"",""1"",""4147""
","""event"",""trial"",""time""
""blur"",""1"",""2551""
","""event"",""trial"",""time""
""focus"",""1"",""4046""
","""event"",""trial"",""time""
""fullscreenenter"",""1"",""4147""
","
","","","","","","1367.5999999940395","images/ball1.png","","","practice","1","definitely_old","","","","","","",""
"html-keyboard-response","24","103301","0.0-9.0-0.4","1486","2","""event"",""trial"",""time""
""blur"",""1"",""2551""
""focus"",""1"",""4046""
""fullscreenenter"",""1"",""4147""
","""event"",""trial"",""time""
""blur"",""1"",""2551""
","""event"",""trial"",""time""
""focus"",""1"",""4046""
","""event"",""trial"",""time""
""fullscreenenter"",""1"",""4147""
","
","","","","","","null","<div style=""font-size:60px;"">+</div>","null","","fixation","","","","","","","","",""
"memory-trial","25","106250","0.0-9.0-1.4","1486","2","""event"",""trial"",""time""
""blur"",""1"",""2551""
""focus"",""1"",""4046""
""fullscreenenter"",""1"",""4147""
","""event"",""trial"",""time""
""blur"",""1"",""2551""
","""event"",""trial"",""time""
""focus"",""1"",""4046""
","""event"",""trial"",""time""
""fullscreenenter"",""1"",""4147""
","
","","","","","","1944.6000000014901","images/racket3.png","","","practice","4","definitely_new","","","","","","",""
"html-keyboard-response","26","106764","0.0-9.0-0.5","1486","2","""event"",""trial"",""time""
""blur"",""1"",""2551""
""focus"",""1"",""4046""
""fullscreenenter"",""1"",""4147""
","""event"",""trial"",""time""
""blur"",""1"",""2551""
","""event"",""trial"",""time""
""focus"",""1"",""4046""
","""event"",""trial"",""time""
""fullscreenenter"",""1"",""4147""
","
","","","","","","null","<div style=""font-size:60px;"">+</div>","null","","fixation","","","","","","","","",""
"memory-trial","27","108781","0.0-9.0-1.5","1486","2","""event"",""trial"",""time""
""blur"",""1"",""2551""
""focus"",""1"",""4046""
""fullscreenenter"",""1"",""4147""
","""event"",""trial"",""time""
""blur"",""1"",""2551""
","""event"",""trial"",""time""
""focus"",""1"",""4046""
","""event"",""trial"",""time""
""fullscreenenter"",""1"",""4147""
","
","","","","","","1009.5","images/ball2.png","","","practice","1","definitely_old","","","","","","",""
"html-keyboard-response","28","109295","0.0-9.0-0.6","1486","2","""event"",""trial"",""time""
""blur"",""1"",""2551""
""focus"",""1"",""4046""
""fullscreenenter"",""1"",""4147""
","""event"",""trial"",""time""
""blur"",""1"",""2551""
","""event"",""trial"",""time""
""focus"",""1"",""4046""
","""event"",""trial"",""time""
""fullscreenenter"",""1"",""4147""
","
","","","","","","null","<div style=""font-size:60px;"">+</div>","null","","fixation","","","","","","","","",""
"memory-trial","29","112274","0.0-9.0-1.6","1486","2","""event"",""trial"",""time""
""blur"",""1"",""2551""
""focus"",""1"",""4046""
""fullscreenenter"",""1"",""4147""
","""event"",""trial"",""time""
""blur"",""1"",""2551""
","""event"",""trial"",""time""
""focus"",""1"",""4046""
","""event"",""trial"",""time""
""fullscreenenter"",""1"",""4147""
","
","","","","","","1972","images/ball3.png","","","practice","4","definitely_new","","","","","","",""
"html-keyboard-response","30","112790","0.0-9.0-0.7","1486","2","""event"",""trial"",""time""
""blur"",""1"",""2551""
""focus"",""1"",""4046""
""fullscreenenter"",""1"",""4147""
","""event"",""trial"",""time""
""blur"",""1"",""2551""
","""event"",""trial"",""time""
""focus"",""1"",""4046""
","""event"",""trial"",""time""
""fullscreenenter"",""1"",""4147""
","
","","","","","","null","<div style=""font-size:60px;"">+</div>","null","","fixation","","","","","","","","",""
"memory-trial","31","116973","0.0-9.0-1.7","1486","2","""event"",""trial"",""time""
""blur"",""1"",""2551""
""focus"",""1"",""4046""
""fullscreenenter"",""1"",""4147""
","""event"",""trial"",""time""
""blur"",""1"",""2551""
","""event"",""trial"",""time""
""focus"",""1"",""4046""
","""event"",""trial"",""time""
""fullscreenenter"",""1"",""4147""
","
","","","","","","3168.60000000149","images/racket4.png","","","practice","3","maybe_new","","","","","","",""
"learning-instructions","32","127166","0.0-10.0-0.0","1486","2","""event"",""trial"",""time""
""blur"",""1"",""2551""
""focus"",""1"",""4046""
""fullscreenenter"",""1"",""4147""
","""event"",""trial"",""time""
""blur"",""1"",""2551""
","""event"",""trial"",""time""
""focus"",""1"",""4046""
","""event"",""trial"",""time""
""fullscreenenter"",""1"",""4147""
","
","","","","","","2246.7000000029802","<p> Great! You have completed the practice. </p><p> Before you start, we're going to ask you a few questions about how the game works.  </p>","","0","instructions","","","","","","","","",""
"preload","33","128755","0.0-11.0","1486","2","""event"",""trial"",""time""
""blur"",""1"",""2551""
""focus"",""1"",""4046""
""fullscreenenter"",""1"",""4147""
","""event"",""trial"",""time""
""blur"",""1"",""2551""
","""event"",""trial"",""time""
""focus"",""1"",""4046""
","""event"",""trial"",""time""
""fullscreenenter"",""1"",""4147""
","
","true","false","[]","[]","[]","","","","","","","","","","","","","",""
"comp-q","34","135842","0.0-12.0-0.0","1486","2","""event"",""trial"",""time""
""blur"",""1"",""2551""
""focus"",""1"",""4046""
""fullscreenenter"",""1"",""4147""
","""event"",""trial"",""time""
""blur"",""1"",""2551""
","""event"",""trial"",""time""
""focus"",""1"",""4046""
","""event"",""trial"",""time""
""fullscreenenter"",""1"",""4147""
","
","","","","","","1263","<p> <b> True or False? </b> </p><p> In this game, you will only see each image once. </p>","","0","comp_question","","","true","","","","","",""
"comp-q","35","142863","0.0-12.0-1.0","1486","2","""event"",""trial"",""time""
""blur"",""1"",""2551""
""focus"",""1"",""4046""
""fullscreenenter"",""1"",""4147""
","""event"",""trial"",""time""
""blur"",""1"",""2551""
","""event"",""trial"",""time""
""focus"",""1"",""4046""
","""event"",""trial"",""time""
""fullscreenenter"",""1"",""4147""
","
","","","","","","674.2999999970198","<p> <b> That's right! </b> You will see many different images <i> one time each </i> in this game. </p>","","0","comp_answer","","","","","","","","",""
"comp-q","36","148937","0.0-12.0-0.1","1486","2","""event"",""trial"",""time""
""blur"",""1"",""2551""
""focus"",""1"",""4046""
""fullscreenenter"",""1"",""4147""
","""event"",""trial"",""time""
""blur"",""1"",""2551""
","""event"",""trial"",""time""
""focus"",""1"",""4046""
","""event"",""trial"",""time""
""fullscreenenter"",""1"",""4147""
","
","","","","","","258.5","<p> <b> True or False? </b> </p><p> You should use the mouse and click to make your response. </p>","","1","comp_question","","","true","","","","","",""
"comp-q","37","156880","0.0-12.0-1.1","1486","2","""event"",""trial"",""time""
""blur"",""1"",""2551""
""focus"",""1"",""4046""
""fullscreenenter"",""1"",""4147""
","""event"",""trial"",""time""
""blur"",""1"",""2551""
","""event"",""trial"",""time""
""focus"",""1"",""4046""
","""event"",""trial"",""time""
""fullscreenenter"",""1"",""4147""
","
","","","","","","591.5","<p><b> That's right! </b> You should use the '1', '2', '3', and '4' keys to make your response. </p>","","0","comp_answer","","","","","","","","",""
"comp-q","38","163081","0.0-12.0-0.2","1486","2","""event"",""trial"",""time""
""blur"",""1"",""2551""
""focus"",""1"",""4046""
""fullscreenenter"",""1"",""4147""
","""event"",""trial"",""time""
""blur"",""1"",""2551""
","""event"",""trial"",""time""
""focus"",""1"",""4046""
","""event"",""trial"",""time""
""fullscreenenter"",""1"",""4147""
","
","","","","","","192.60000000149012","<p> <b> True or False? </b> </p><p> You will have as much time as you want to make each choice. </p>","","1","comp_question","","","true","","","","","",""
"comp-q","39","169216","0.0-12.0-1.2","1486","2","""event"",""trial"",""time""
""blur"",""1"",""2551""
""focus"",""1"",""4046""
""fullscreenenter"",""1"",""4147""
","""event"",""trial"",""time""
""blur"",""1"",""2551""
","""event"",""trial"",""time""
""focus"",""1"",""4046""
","""event"",""trial"",""time""
""fullscreenenter"",""1"",""4147""
","
","","","","","","747.7000000029802","<p> <b> That's right! </b> You will only have 10 seconds to make each choice. </p>","","0","comp_answer","","","","","","","","",""
"learning-instructions","40","178960","0.0-13.0","1486","2","""event"",""trial"",""time""
""blur"",""1"",""2551""
""focus"",""1"",""4046""
""fullscreenenter"",""1"",""4147""
","""event"",""trial"",""time""
""blur"",""1"",""2551""
","""event"",""trial"",""time""
""focus"",""1"",""4046""
","""event"",""trial"",""time""
""fullscreenenter"",""1"",""4147""
","
","","","","","","1070.7000000029802","<p> Great! You are now ready to begin the game. </p><p> Remember, use the 1, 2, 3, and 4 keys to make your responses. </p>","","0","instructions","","","","","","","","",""
"preload","41","181939","0.0-14.0","1486","2","""event"",""trial"",""time""
""blur"",""1"",""2551""
""focus"",""1"",""4046""
""fullscreenenter"",""1"",""4147""
","""event"",""trial"",""time""
""blur"",""1"",""2551""
","""event"",""trial"",""time""
""focus"",""1"",""4046""
","""event"",""trial"",""time""
""fullscreenenter"",""1"",""4147""
","
","true","false","[]","[]","[]","","","","","","","","","","","","","",""
"html-keyboard-response","42","182450","0.0-15.0-0.0","1486","2","""event"",""trial"",""time""
""blur"",""1"",""2551""
""focus"",""1"",""4046""
""fullscreenenter"",""1"",""4147""
","""event"",""trial"",""time""
""blur"",""1"",""2551""
","""event"",""trial"",""time""
""focus"",""1"",""4046""
","""event"",""trial"",""time""
""fullscreenenter"",""1"",""4147""
","
","","","","","","null","<div style=""font-size:60px;"">+</div>","null","","fixation","","","","","","","","",""
"memory-trial","43","185741","0.0-15.0-1.0","1486","2","""event"",""trial"",""time""
""blur"",""1"",""2551""
""focus"",""1"",""4046""
""fullscreenenter"",""1"",""4147""
","""event"",""trial"",""time""
""blur"",""1"",""2551""
","""event"",""trial"",""time""
""focus"",""1"",""4046""
","""event"",""trial"",""time""
""fullscreenenter"",""1"",""4147""
","
","","","","","","2284.39999999851","images/boat4.png","","","memory_trial","1","definitely_old","","","","","","",""
"html-keyboard-response","44","186255","0.0-15.0-0.1","1486","2","""event"",""trial"",""time""
""blur"",""1"",""2551""
""focus"",""1"",""4046""
""fullscreenenter"",""1"",""4147""
","""event"",""trial"",""time""
""blur"",""1"",""2551""
","""event"",""trial"",""time""
""focus"",""1"",""4046""
","""event"",""trial"",""time""
""fullscreenenter"",""1"",""4147""
","
","","","","","","null","<div style=""font-size:60px;"">+</div>","null","","fixation","","","","","","","","",""
"memory-trial","45","189170","0.0-15.0-1.1","1486","2","""event"",""trial"",""time""
""blur"",""1"",""2551""
""focus"",""1"",""4046""
""fullscreenenter"",""1"",""4147""
","""event"",""trial"",""time""
""blur"",""1"",""2551""
","""event"",""trial"",""time""
""focus"",""1"",""4046""
","""event"",""trial"",""time""
""fullscreenenter"",""1"",""4147""
","
","","","","","","1905.4000000059605","images/dog4.png","","","memory_trial","1","definitely_old","","","","","","",""
"html-keyboard-response","46","189685","0.0-15.0-0.2","1486","2","""event"",""trial"",""time""
""blur"",""1"",""2551""
""focus"",""1"",""4046""
""fullscreenenter"",""1"",""4147""
","""event"",""trial"",""time""
""blur"",""1"",""2551""
","""event"",""trial"",""time""
""focus"",""1"",""4046""
","""event"",""trial"",""time""
""fullscreenenter"",""1"",""4147""
","
","","","","","","null","<div style=""font-size:60px;"">+</div>","null","","fixation","","","","","","","","",""
"memory-trial","47","192432","0.0-15.0-1.2","1486","2","""event"",""trial"",""time""
""blur"",""1"",""2551""
""focus"",""1"",""4046""
""fullscreenenter"",""1"",""4147""
","""event"",""trial"",""time""
""blur"",""1"",""2551""
","""event"",""trial"",""time""
""focus"",""1"",""4046""
","""event"",""trial"",""time""
""fullscreenenter"",""1"",""4147""
","
","","","","","","1736.8999999985099","images/sofa5.png","","","memory_trial","4","definitely_new","","","","","","",""
"html-keyboard-response","48","192946","0.0-15.0-0.3","1486","2","""event"",""trial"",""time""
""blur"",""1"",""2551""
""focus"",""1"",""4046""
""fullscreenenter"",""1"",""4147""
","""event"",""trial"",""time""
""blur"",""1"",""2551""
","""event"",""trial"",""time""
""focus"",""1"",""4046""
","""event"",""trial"",""time""
""fullscreenenter"",""1"",""4147""
","
","","","","","","null","<div style=""font-size:60px;"">+</div>","null","","fixation","","","","","","","","",""
"memory-trial","49","196440","0.0-15.0-1.3","1486","2","""event"",""trial"",""time""
""blur"",""1"",""2551""
""focus"",""1"",""4046""
""fullscreenenter"",""1"",""4147""
","""event"",""trial"",""time""
""blur"",""1"",""2551""
","""event"",""trial"",""time""
""focus"",""1"",""4046""
","""event"",""trial"",""time""
""fullscreenenter"",""1"",""4147""
","
","","","","","","2480.39999999851","images/feline3.png","","","memory_trial","3","maybe_new","","","","","","",""
"html-keyboard-response","50","196952","0.0-15.0-0.4","1486","2","""event"",""trial"",""time""
""blur"",""1"",""2551""
""focus"",""1"",""4046""
""fullscreenenter"",""1"",""4147""
","""event"",""trial"",""time""
""blur"",""1"",""2551""
","""event"",""trial"",""time""
""focus"",""1"",""4046""
","""event"",""trial"",""time""
""fullscreenenter"",""1"",""4147""
","
","","","","","","null","<div style=""font-size:60px;"">+</div>","null","","fixation","","","","","","","","",""
"memory-trial","51","199484","0.0-15.0-1.4","1486","2","""event"",""trial"",""time""
""blur"",""1"",""2551""
""focus"",""1"",""4046""
""fullscreenenter"",""1"",""4147""
","""event"",""trial"",""time""
""blur"",""1"",""2551""
","""event"",""trial"",""time""
""focus"",""1"",""4046""
","""event"",""trial"",""time""
""fullscreenenter"",""1"",""4147""
","
","","","","","","1525.6000000014901","images/bed5.png","","","memory_trial","1","definitely_old","","","","","","",""
"html-keyboard-response","52","199998","0.0-15.0-0.5","1486","2","""event"",""trial"",""time""
""blur"",""1"",""2551""
""focus"",""1"",""4046""
""fullscreenenter"",""1"",""4147""
","""event"",""trial"",""time""
""blur"",""1"",""2551""
","""event"",""trial"",""time""
""focus"",""1"",""4046""
","""event"",""trial"",""time""
""fullscreenenter"",""1"",""4147""
","
","","","","","","null","<div style=""font-size:60px;"">+</div>","null","","fixation","","","","","","","","",""
"memory-trial","53","202170","0.0-15.0-1.5","1486","2","""event"",""trial"",""time""
""blur"",""1"",""2551""
""focus"",""1"",""4046""
""fullscreenenter"",""1"",""4147""
","""event"",""trial"",""time""
""blur"",""1"",""2551""
","""event"",""trial"",""time""
""focus"",""1"",""4046""
","""event"",""trial"",""time""
""fullscreenenter"",""1"",""4147""
","
","","","","","","1166.5","images/goat4.png","","","memory_trial","1","definitely_old","","","","","","",""
"html-keyboard-response","54","202684","0.0-15.0-0.6","1486","2","""event"",""trial"",""time""
""blur"",""1"",""2551""
""focus"",""1"",""4046""
""fullscreenenter"",""1"",""4147""
","""event"",""trial"",""time""
""blur"",""1"",""2551""
","""event"",""trial"",""time""
""focus"",""1"",""4046""
","""event"",""trial"",""time""
""fullscreenenter"",""1"",""4147""
","
","","","","","","null","<div style=""font-size:60px;"">+</div>","null","","fixation","","","","","","","","",""
"memory-trial","55","205214","0.0-15.0-1.6","1486","2","""event"",""trial"",""time""
""blur"",""1"",""2551""
""focus"",""1"",""4046""
""fullscreenenter"",""1"",""4147""
","""event"",""trial"",""time""
""blur"",""1"",""2551""
","""event"",""trial"",""time""
""focus"",""1"",""4046""
","""event"",""trial"",""time""
""fullscreenenter"",""1"",""4147""
","
","","","","","","1522.5999999940395","images/banana3.png","","","memory_trial","4","definitely_new","","","","","","",""
"html-keyboard-response","56","205729","0.0-15.0-0.7","1486","2","""event"",""trial"",""time""
""blur"",""1"",""2551""
""focus"",""1"",""4046""
""fullscreenenter"",""1"",""4147""
","""event"",""trial"",""time""
""blur"",""1"",""2551""
","""event"",""trial"",""time""
""focus"",""1"",""4046""
","""event"",""trial"",""time""
""fullscreenenter"",""1"",""4147""
","
","","","","","","null","<div style=""font-size:60px;"">+</div>","null","","fixation","","","","","","","","",""
"memory-trial","57","207805","0.0-15.0-1.7","1486","2","""event"",""trial"",""time""
""blur"",""1"",""2551""
""focus"",""1"",""4046""
""fullscreenenter"",""1"",""4147""
","""event"",""trial"",""time""
""blur"",""1"",""2551""
","""event"",""trial"",""time""
""focus"",""1"",""4046""
","""event"",""trial"",""time""
""fullscreenenter"",""1"",""4147""
","
","","","","","","1058.8000000044703","images/boat5.png","","","memory_trial","1","definitely_old","","","","","","",""
"html-keyboard-response","58","208307","0.0-15.0-0.8","1486","2","""event"",""trial"",""time""
""blur"",""1"",""2551""
""focus"",""1"",""4046""
""fullscreenenter"",""1"",""4147""
","""event"",""trial"",""time""
""blur"",""1"",""2551""
","""event"",""trial"",""time""
""focus"",""1"",""4046""
","""event"",""trial"",""time""
""fullscreenenter"",""1"",""4147""
","
","","","","","","null","<div style=""font-size:60px;"">+</div>","null","","fixation","","","","","","","","",""
"memory-trial","59","210154","0.0-15.0-1.8","1486","2","""event"",""trial"",""time""
""blur"",""1"",""2551""
""focus"",""1"",""4046""
""fullscreenenter"",""1"",""4147""
","""event"",""trial"",""time""
""blur"",""1"",""2551""
","""event"",""trial"",""time""
""focus"",""1"",""4046""
","""event"",""trial"",""time""
""fullscreenenter"",""1"",""4147""
","
","","","","","","830.3000000044703","images/truck4.png","","","memory_trial","1","definitely_old","","","","","","",""
"html-keyboard-response","60","210656","0.0-15.0-0.9","1486","2","""event"",""trial"",""time""
""blur"",""1"",""2551""
""focus"",""1"",""4046""
""fullscreenenter"",""1"",""4147""
","""event"",""trial"",""time""
""blur"",""1"",""2551""
","""event"",""trial"",""time""
""focus"",""1"",""4046""
","""event"",""trial"",""time""
""fullscreenenter"",""1"",""4147""
","
","","","","","","null","<div style=""font-size:60px;"">+</div>","null","","fixation","","","","","","","","",""
"memory-trial","61","212697","0.0-15.0-1.9","1486","2","""event"",""trial"",""time""
""blur"",""1"",""2551""
""focus"",""1"",""4046""
""fullscreenenter"",""1"",""4147""
","""event"",""trial"",""time""
""blur"",""1"",""2551""
","""event"",""trial"",""time""
""focus"",""1"",""4046""
","""event"",""trial"",""time""
""fullscreenenter"",""1"",""4147""
","
","","","","","","1035.5","images/sofa4.png","","","memory_trial","4","definitely_new","","","","","","",""
"html-keyboard-response","62","213212","0.0-15.0-0.10","1486","2","""event"",""trial"",""time""
""blur"",""1"",""2551""
""focus"",""1"",""4046""
""fullscreenenter"",""1"",""4147""
","""event"",""trial"",""time""
""blur"",""1"",""2551""
","""event"",""trial"",""time""
""focus"",""1"",""4046""
","""event"",""trial"",""time""
""fullscreenenter"",""1"",""4147""
","
","","","","","","null","<div style=""font-size:60px;"">+</div>","null","","fixation","","","","","","","","",""
"memory-trial","63","215136","0.0-15.0-1.10","1486","2","""event"",""trial"",""time""
""blur"",""1"",""2551""
""focus"",""1"",""4046""
""fullscreenenter"",""1"",""4147""
","""event"",""trial"",""time""
""blur"",""1"",""2551""
","""event"",""trial"",""time""
""focus"",""1"",""4046""
","""event"",""trial"",""time""
""fullscreenenter"",""1"",""4147""
","
","","","","","","919.9000000059605","images/sofa1.png","","","memory_trial","1","definitely_old","","","","","","",""
"html-keyboard-response","64","215652","0.0-15.0-0.11","1486","2","""event"",""trial"",""time""
""blur"",""1"",""2551""
""focus"",""1"",""4046""
""fullscreenenter"",""1"",""4147""
","""event"",""trial"",""time""
""blur"",""1"",""2551""
","""event"",""trial"",""time""
""focus"",""1"",""4046""
","""event"",""trial"",""time""
""fullscreenenter"",""1"",""4147""
","
","","","","","","null","<div style=""font-size:60px;"">+</div>","null","","fixation","","","","","","","","",""
"memory-trial","65","218257","0.0-15.0-1.11","1486","2","""event"",""trial"",""time""
""blur"",""1"",""2551""
""focus"",""1"",""4046""
""fullscreenenter"",""1"",""4147""
","""event"",""trial"",""time""
""blur"",""1"",""2551""
","""event"",""trial"",""time""
""focus"",""1"",""4046""
","""event"",""trial"",""time""
""fullscreenenter"",""1"",""4147""
","
","","","","","","1601.6999999955297","images/tree1.png","","","memory_trial","1","definitely_old","","","","","","",""
"html-keyboard-response","66","218759","0.0-15.0-0.12","1486","2","""event"",""trial"",""time""
""blur"",""1"",""2551""
""focus"",""1"",""4046""
""fullscreenenter"",""1"",""4147""
","""event"",""trial"",""time""
""blur"",""1"",""2551""
","""event"",""trial"",""time""
""focus"",""1"",""4046""
","""event"",""trial"",""time""
""fullscreenenter"",""1"",""4147""
","
","","","","","","null","<div style=""font-size:60px;"">+</div>","null","","fixation","","","","","","","","",""
"memory-trial","67","220455","0.0-15.0-1.12","1486","2","""event"",""trial"",""time""
""blur"",""1"",""2551""
""focus"",""1"",""4046""
""fullscreenenter"",""1"",""4147""
","""event"",""trial"",""time""
""blur"",""1"",""2551""
","""event"",""trial"",""time""
""focus"",""1"",""4046""
","""event"",""trial"",""time""
""fullscreenenter"",""1"",""4147""
","
","","","","","","691.5","images/train2.png","","","memory_trial","1","definitely_old","","","","","","",""
"html-keyboard-response","68","220957","0.0-15.0-0.13","1486","2","""event"",""trial"",""time""
""blur"",""1"",""2551""
""focus"",""1"",""4046""
""fullscreenenter"",""1"",""4147""
","""event"",""trial"",""time""
""blur"",""1"",""2551""
","""event"",""trial"",""time""
""focus"",""1"",""4046""
","""event"",""trial"",""time""
""fullscreenenter"",""1"",""4147""
","
","","","","","","null","<div style=""font-size:60px;"">+</div>","null","","fixation","","","","","","","","",""
"memory-trial","69","222649","0.0-15.0-1.13","1486","2","""event"",""trial"",""time""
""blur"",""1"",""2551""
""focus"",""1"",""4046""
""fullscreenenter"",""1"",""4147""
","""event"",""trial"",""time""
""blur"",""1"",""2551""
","""event"",""trial"",""time""
""focus"",""1"",""4046""
","""event"",""trial"",""time""
""fullscreenenter"",""1"",""4147""
","
","","","","","","687.5999999940395","images/tree4.png","","","memory_trial","1","definitely_old","","","","","","",""
"html-keyboard-response","70","223151","0.0-15.0-0.14","1486","2","""event"",""trial"",""time""
""blur"",""1"",""2551""
""focus"",""1"",""4046""
""fullscreenenter"",""1"",""4147""
","""event"",""trial"",""time""
""blur"",""1"",""2551""
","""event"",""trial"",""time""
""focus"",""1"",""4046""
","""event"",""trial"",""time""
""fullscreenenter"",""1"",""4147""
","
","","","","","","null","<div style=""font-size:60px;"">+</div>","null","","fixation","","","","","","","","",""
"memory-trial","71","226432","0.0-15.0-1.14","1486","2","""event"",""trial"",""time""
""blur"",""1"",""2551""
""focus"",""1"",""4046""
""fullscreenenter"",""1"",""4147""
","""event"",""trial"",""time""
""blur"",""1"",""2551""
","""event"",""trial"",""time""
""focus"",""1"",""4046""
","""event"",""trial"",""time""
""fullscreenenter"",""1"",""4147""
","
","","","","","","2278.6999999955297","images/flower1.png","","","memory_trial","2","maybe_old","","","","","","",""
"html-keyboard-response","72","226934","0.0-15.0-0.15","1486","2","""event"",""trial"",""time""
""blur"",""1"",""2551""
""focus"",""1"",""4046""
""fullscreenenter"",""1"",""4147""
","""event"",""trial"",""time""
""blur"",""1"",""2551""
","""event"",""trial"",""time""
""focus"",""1"",""4046""
","""event"",""trial"",""time""
""fullscreenenter"",""1"",""4147""
","
","","","","","","null","<div style=""font-size:60px;"">+</div>","null","","fixation","","","","","","","","",""
"memory-trial","73","229003","0.0-15.0-1.15","1486","2","""event"",""trial"",""time""
""blur"",""1"",""2551""
""focus"",""1"",""4046""
""fullscreenenter"",""1"",""4147""
","""event"",""trial"",""time""
""blur"",""1"",""2551""
","""event"",""trial"",""time""
""focus"",""1"",""4046""
","""event"",""trial"",""time""
""fullscreenenter"",""1"",""4147""
","
","","","","","","1066.6000000014901","images/dog5.png","","","memory_trial","1","definitely_old","","","","","","",""
"html-keyboard-response","74","229505","0.0-15.0-0.16","1486","2","""event"",""trial"",""time""
""blur"",""1"",""2551""
""focus"",""1"",""4046""
""fullscreenenter"",""1"",""4147""
","""event"",""trial"",""time""
""blur"",""1"",""2551""
","""event"",""trial"",""time""
""focus"",""1"",""4046""
","""event"",""trial"",""time""
""fullscreenenter"",""1"",""4147""
","
","","","","","","null","<div style=""font-size:60px;"">+</div>","null","","fixation","","","","","","","","",""
"memory-trial","75","232793","0.0-15.0-1.16","1486","2","""event"",""trial"",""time""
""blur"",""1"",""2551""
""focus"",""1"",""4046""
""fullscreenenter"",""1"",""4147""
","""event"",""trial"",""time""
""blur"",""1"",""2551""
","""event"",""trial"",""time""
""focus"",""1"",""4046""
","""event"",""trial"",""time""
""fullscreenenter"",""1"",""4147""
","
","","","","","","2285","images/cactus3.png","","","memory_trial","3","maybe_new","","","","","","",""
"html-keyboard-response","76","233296","0.0-15.0-0.17","1486","2","""event"",""trial"",""time""
""blur"",""1"",""2551""
""focus"",""1"",""4046""
""fullscreenenter"",""1"",""4147""
","""event"",""trial"",""time""
""blur"",""1"",""2551""
","""event"",""trial"",""time""
""focus"",""1"",""4046""
","""event"",""trial"",""time""
""fullscreenenter"",""1"",""4147""
","
","","","","","","null","<div style=""font-size:60px;"">+</div>","null","","fixation","","","","","","","","",""
"memory-trial","77","236257","0.0-15.0-1.17","1486","2","""event"",""trial"",""time""
""blur"",""1"",""2551""
""focus"",""1"",""4046""
""fullscreenenter"",""1"",""4147""
","""event"",""trial"",""time""
""blur"",""1"",""2551""
","""event"",""trial"",""time""
""focus"",""1"",""4046""
","""event"",""trial"",""time""
""fullscreenenter"",""1"",""4147""
","
","","","","","","1956.3999999985099","images/bed1.png","","","memory_trial","1","definitely_old","","","","","","",""
"html-keyboard-response","78","236759","0.0-15.0-0.18","1486","2","""event"",""trial"",""time""
""blur"",""1"",""2551""
""focus"",""1"",""4046""
""fullscreenenter"",""1"",""4147""
","""event"",""trial"",""time""
""blur"",""1"",""2551""
","""event"",""trial"",""time""
""focus"",""1"",""4046""
","""event"",""trial"",""time""
""fullscreenenter"",""1"",""4147""
","
","","","","","","null","<div style=""font-size:60px;"">+</div>","null","","fixation","","","","","","","","",""
"memory-trial","79","239103","0.0-15.0-1.18","1486","2","""event"",""trial"",""time""
""blur"",""1"",""2551""
""focus"",""1"",""4046""
""fullscreenenter"",""1"",""4147""
","""event"",""trial"",""time""
""blur"",""1"",""2551""
","""event"",""trial"",""time""
""focus"",""1"",""4046""
","""event"",""trial"",""time""
""fullscreenenter"",""1"",""4147""
","
","","","","","","1340.3999999985099","images/truck3.png","","","memory_trial","4","definitely_new","","","","","","",""
"html-keyboard-response","80","239606","0.0-15.0-0.19","1486","2","""event"",""trial"",""time""
""blur"",""1"",""2551""
""focus"",""1"",""4046""
""fullscreenenter"",""1"",""4147""
","""event"",""trial"",""time""
""blur"",""1"",""2551""
","""event"",""trial"",""time""
""focus"",""1"",""4046""
","""event"",""trial"",""time""
""fullscreenenter"",""1"",""4147""
","
","","","","","","null","<div style=""font-size:60px;"">+</div>","null","","fixation","","","","","","","","",""
"memory-trial","81","241761","0.0-15.0-1.19","1486","2","""event"",""trial"",""time""
""blur"",""1"",""2551""
""focus"",""1"",""4046""
""fullscreenenter"",""1"",""4147""
","""event"",""trial"",""time""
""blur"",""1"",""2551""
","""event"",""trial"",""time""
""focus"",""1"",""4046""
","""event"",""trial"",""time""
""fullscreenenter"",""1"",""4147""
","
","","","","","","1148.1000000014901","images/straw4.png","","","memory_trial","1","definitely_old","","","","","","",""
"html-keyboard-response","82","242265","0.0-15.0-0.20","1486","2","""event"",""trial"",""time""
""blur"",""1"",""2551""
""focus"",""1"",""4046""
""fullscreenenter"",""1"",""4147""
","""event"",""trial"",""time""
""blur"",""1"",""2551""
","""event"",""trial"",""time""
""focus"",""1"",""4046""
","""event"",""trial"",""time""
""fullscreenenter"",""1"",""4147""
","
","","","","","","null","<div style=""font-size:60px;"">+</div>","null","","fixation","","","","","","","","",""
"memory-trial","83","244728","0.0-15.0-1.20","1486","2","""event"",""trial"",""time""
""blur"",""1"",""2551""
""focus"",""1"",""4046""
""fullscreenenter"",""1"",""4147""
","""event"",""trial"",""time""
""blur"",""1"",""2551""
","""event"",""trial"",""time""
""focus"",""1"",""4046""
","""event"",""trial"",""time""
""fullscreenenter"",""1"",""4147""
","
","","","","","","1458.3999999985099","images/banana1.png","","","memory_trial","1","definitely_old","","","","","","",""
"html-keyboard-response","84","245230","0.0-15.0-0.21","1486","2","""event"",""trial"",""time""
""blur"",""1"",""2551""
""focus"",""1"",""4046""
""fullscreenenter"",""1"",""4147""
","""event"",""trial"",""time""
""blur"",""1"",""2551""
","""event"",""trial"",""time""
""focus"",""1"",""4046""
","""event"",""trial"",""time""
""fullscreenenter"",""1"",""4147""
","
","","","","","","null","<div style=""font-size:60px;"">+</div>","null","","fixation","","","","","","","","",""
"memory-trial","85","247274","0.0-15.0-1.21","1486","2","""event"",""trial"",""time""
""blur"",""1"",""2551""
""focus"",""1"",""4046""
""fullscreenenter"",""1"",""4147""
","""event"",""trial"",""time""
""blur"",""1"",""2551""
","""event"",""trial"",""time""
""focus"",""1"",""4046""
","""event"",""trial"",""time""
""fullscreenenter"",""1"",""4147""
","
","","","","","","1038.6000000014901","images/cow3.png","","","memory_trial","1","definitely_old","","","","","","",""
"html-keyboard-response","86","247776","0.0-15.0-0.22","1486","2","""event"",""trial"",""time""
""blur"",""1"",""2551""
""focus"",""1"",""4046""
""fullscreenenter"",""1"",""4147""
","""event"",""trial"",""time""
""blur"",""1"",""2551""
","""event"",""trial"",""time""
""focus"",""1"",""4046""
","""event"",""trial"",""time""
""fullscreenenter"",""1"",""4147""
","
","","","","","","null","<div style=""font-size:60px;"">+</div>","null","","fixation","","","","","","","","",""
"memory-trial","87","249481","0.0-15.0-1.22","1486","2","""event"",""trial"",""time""
""blur"",""1"",""2551""
""focus"",""1"",""4046""
""fullscreenenter"",""1"",""4147""
","""event"",""trial"",""time""
""blur"",""1"",""2551""
","""event"",""trial"",""time""
""focus"",""1"",""4046""
","""event"",""trial"",""time""
""fullscreenenter"",""1"",""4147""
","
","","","","","","701.7000000029802","images/feline5.png","","","memory_trial","1","definitely_old","","","","","","",""
"html-keyboard-response","88","249983","0.0-15.0-0.23","1486","2","""event"",""trial"",""time""
""blur"",""1"",""2551""
""focus"",""1"",""4046""
""fullscreenenter"",""1"",""4147""
","""event"",""trial"",""time""
""blur"",""1"",""2551""
","""event"",""trial"",""time""
""focus"",""1"",""4046""
","""event"",""trial"",""time""
""fullscreenenter"",""1"",""4147""
","
","","","","","","null","<div style=""font-size:60px;"">+</div>","null","","fixation","","","","","","","","",""
"memory-trial","89","251864","0.0-15.0-1.23","1486","2","""event"",""trial"",""time""
""blur"",""1"",""2551""
""focus"",""1"",""4046""
""fullscreenenter"",""1"",""4147""
","""event"",""trial"",""time""
""blur"",""1"",""2551""
","""event"",""trial"",""time""
""focus"",""1"",""4046""
","""event"",""trial"",""time""
""fullscreenenter"",""1"",""4147""
","
","","","","","","877.3000000044703","images/rabbit4.png","","","memory_trial","1","definitely_old","","","","","","",""
"html-keyboard-response","90","252367","0.0-15.0-0.24","1486","2","""event"",""trial"",""time""
""blur"",""1"",""2551""
""focus"",""1"",""4046""
""fullscreenenter"",""1"",""4147""
","""event"",""trial"",""time""
""blur"",""1"",""2551""
","""event"",""trial"",""time""
""focus"",""1"",""4046""
","""event"",""trial"",""time""
""fullscreenenter"",""1"",""4147""
","
","","","","","","null","<div style=""font-size:60px;"">+</div>","null","","fixation","","","","","","","","",""
"memory-trial","91","255039","0.0-15.0-1.24","1486","2","""event"",""trial"",""time""
""blur"",""1"",""2551""
""focus"",""1"",""4046""
""fullscreenenter"",""1"",""4147""
","""event"",""trial"",""time""
""blur"",""1"",""2551""
","""event"",""trial"",""time""
""focus"",""1"",""4046""
","""event"",""trial"",""time""
""fullscreenenter"",""1"",""4147""
","
","","","","","","1667.5","images/flower4.png","","","memory_trial","4","definitely_new","","","","","","",""
"html-keyboard-response","92","255540","0.0-15.0-0.25","1486","2","""event"",""trial"",""time""
""blur"",""1"",""2551""
""focus"",""1"",""4046""
""fullscreenenter"",""1"",""4147""
","""event"",""trial"",""time""
""blur"",""1"",""2551""
","""event"",""trial"",""time""
""focus"",""1"",""4046""
","""event"",""trial"",""time""
""fullscreenenter"",""1"",""4147""
","
","","","","","","null","<div style=""font-size:60px;"">+</div>","null","","fixation","","","","","","","","",""
"memory-trial","93","258000","0.0-15.0-1.25","1486","2","""event"",""trial"",""time""
""blur"",""1"",""2551""
""focus"",""1"",""4046""
""fullscreenenter"",""1"",""4147""
","""event"",""trial"",""time""
""blur"",""1"",""2551""
","""event"",""trial"",""time""
""focus"",""1"",""4046""
","""event"",""trial"",""time""
""fullscreenenter"",""1"",""4147""
","
","","","","","","1455.5","images/bed4.png","","","memory_trial","3","maybe_new","","","","","","",""
"html-keyboard-response","94","258502","0.0-15.0-0.26","1486","2","""event"",""trial"",""time""
""blur"",""1"",""2551""
""focus"",""1"",""4046""
""fullscreenenter"",""1"",""4147""
","""event"",""trial"",""time""
""blur"",""1"",""2551""
","""event"",""trial"",""time""
""focus"",""1"",""4046""
","""event"",""trial"",""time""
""fullscreenenter"",""1"",""4147""
","
","","","","","","null","<div style=""font-size:60px;"">+</div>","null","","fixation","","","","","","","","",""
"memory-trial","95","260638","0.0-15.0-1.26","1486","2","""event"",""trial"",""time""
""blur"",""1"",""2551""
""focus"",""1"",""4046""
""fullscreenenter"",""1"",""4147""
","""event"",""trial"",""time""
""blur"",""1"",""2551""
","""event"",""trial"",""time""
""focus"",""1"",""4046""
","""event"",""trial"",""time""
""fullscreenenter"",""1"",""4147""
","
","","","","","","1133","images/goat5.png","","","memory_trial","3","maybe_new","","","","","","",""
"html-keyboard-response","96","261155","0.0-15.0-0.27","1486","2","""event"",""trial"",""time""
""blur"",""1"",""2551""
""focus"",""1"",""4046""
""fullscreenenter"",""1"",""4147""
","""event"",""trial"",""time""
""blur"",""1"",""2551""
","""event"",""trial"",""time""
""focus"",""1"",""4046""
","""event"",""trial"",""time""
""fullscreenenter"",""1"",""4147""
","
","","","","","","null","<div style=""font-size:60px;"">+</div>","null","","fixation","","","","","","","","",""
"memory-trial","97","263165","0.0-15.0-1.27","1486","2","""event"",""trial"",""time""
""blur"",""1"",""2551""
""focus"",""1"",""4046""
""fullscreenenter"",""1"",""4147""
","""event"",""trial"",""time""
""blur"",""1"",""2551""
","""event"",""trial"",""time""
""focus"",""1"",""4046""
","""event"",""trial"",""time""
""fullscreenenter"",""1"",""4147""
","
","","","","","","1006.2999999970198","images/tree5.png","","","memory_trial","4","definitely_new","","","","","","",""
"html-keyboard-response","98","263666","0.0-15.0-0.28","1486","2","""event"",""trial"",""time""
""blur"",""1"",""2551""
""focus"",""1"",""4046""
""fullscreenenter"",""1"",""4147""
","""event"",""trial"",""time""
""blur"",""1"",""2551""
","""event"",""trial"",""time""
""focus"",""1"",""4046""
","""event"",""trial"",""time""
""fullscreenenter"",""1"",""4147""
","
","","","","","","null","<div style=""font-size:60px;"">+</div>","null","","fixation","","","","","","","","",""
"memory-trial","99","265769","0.0-15.0-1.28","1486","2","""event"",""trial"",""time""
""blur"",""1"",""2551""
""focus"",""1"",""4046""
""fullscreenenter"",""1"",""4147""
","""event"",""trial"",""time""
""blur"",""1"",""2551""
","""event"",""trial"",""time""
""focus"",""1"",""4046""
","""event"",""trial"",""time""
""fullscreenenter"",""1"",""4147""
","
","","","","","","1101","images/feline1.png","","","memory_trial","1","definitely_old","","","","","","",""
"html-keyboard-response","100","266271","0.0-15.0-0.29","1486","2","""event"",""trial"",""time""
""blur"",""1"",""2551""
""focus"",""1"",""4046""
""fullscreenenter"",""1"",""4147""
","""event"",""trial"",""time""
""blur"",""1"",""2551""
","""event"",""trial"",""time""
""focus"",""1"",""4046""
","""event"",""trial"",""time""
""fullscreenenter"",""1"",""4147""
","
","","","","","","null","<div style=""font-size:60px;"">+</div>","null","","fixation","","","","","","","","",""
"memory-trial","101","268570","0.0-15.0-1.29","1486","2","""event"",""trial"",""time""
""blur"",""1"",""2551""
""focus"",""1"",""4046""
""fullscreenenter"",""1"",""4147""
","""event"",""trial"",""time""
""blur"",""1"",""2551""
","""event"",""trial"",""time""
""focus"",""1"",""4046""
","""event"",""trial"",""time""
""fullscreenenter"",""1"",""4147""
","
","","","","","","1294.2000000029802","images/table2.png","","","memory_trial","4","definitely_new","","","","","","",""
"html-keyboard-response","102","269072","0.0-15.0-0.30","1486","2","""event"",""trial"",""time""
""blur"",""1"",""2551""
""focus"",""1"",""4046""
""fullscreenenter"",""1"",""4147""
","""event"",""trial"",""time""
""blur"",""1"",""2551""
","""event"",""trial"",""time""
""focus"",""1"",""4046""
","""event"",""trial"",""time""
""fullscreenenter"",""1"",""4147""
","
","","","","","","null","<div style=""font-size:60px;"">+</div>","null","","fixation","","","","","","","","",""
"memory-trial","103","271115","0.0-15.0-1.30","1486","2","""event"",""trial"",""time""
""blur"",""1"",""2551""
""focus"",""1"",""4046""
""fullscreenenter"",""1"",""4147""
","""event"",""trial"",""time""
""blur"",""1"",""2551""
","""event"",""trial"",""time""
""focus"",""1"",""4046""
","""event"",""trial"",""time""
""fullscreenenter"",""1"",""4147""
","
","","","","","","1038.3000000044703","images/dog3.png","","","memory_trial","1","definitely_old","","","","","","",""
"html-keyboard-response","104","271617","0.0-15.0-0.31","1486","2","""event"",""trial"",""time""
""blur"",""1"",""2551""
""focus"",""1"",""4046""
""fullscreenenter"",""1"",""4147""
","""event"",""trial"",""time""
""blur"",""1"",""2551""
","""event"",""trial"",""time""
""focus"",""1"",""4046""
","""event"",""trial"",""time""
""fullscreenenter"",""1"",""4147""
","
","","","","","","null","<div style=""font-size:60px;"">+</div>","null","","fixation","","","","","","","","",""
"memory-trial","105","275012","0.0-15.0-1.31","1486","2","""event"",""trial"",""time""
""blur"",""1"",""2551""
""focus"",""1"",""4046""
""fullscreenenter"",""1"",""4147""
","""event"",""trial"",""time""
""blur"",""1"",""2551""
","""event"",""trial"",""time""
""focus"",""1"",""4046""
","""event"",""trial"",""time""
""fullscreenenter"",""1"",""4147""
","
","","","","","","2391.2000000029802","images/cow4.png","","","memory_trial","3","maybe_new","","","","","","",""
"html-keyboard-response","106","275514","0.0-15.0-0.32","1486","2","""event"",""trial"",""time""
""blur"",""1"",""2551""
""focus"",""1"",""4046""
""fullscreenenter"",""1"",""4147""
","""event"",""trial"",""time""
""blur"",""1"",""2551""
","""event"",""trial"",""time""
""focus"",""1"",""4046""
","""event"",""trial"",""time""
""fullscreenenter"",""1"",""4147""
","
","","","","","","null","<div style=""font-size:60px;"">+</div>","null","","fixation","","","","","","","","",""
"memory-trial","107","277996","0.0-15.0-1.32","1486","2","""event"",""trial"",""time""
""blur"",""1"",""2551""
""focus"",""1"",""4046""
""fullscreenenter"",""1"",""4147""
","""event"",""trial"",""time""
""blur"",""1"",""2551""
","""event"",""trial"",""time""
""focus"",""1"",""4046""
","""event"",""trial"",""time""
""fullscreenenter"",""1"",""4147""
","
","","","","","","1477","images/boat2.png","","","memory_trial","3","maybe_new","","","","","","",""
"html-keyboard-response","108","278498","0.0-15.0-0.33","1486","2","""event"",""trial"",""time""
""blur"",""1"",""2551""
""focus"",""1"",""4046""
""fullscreenenter"",""1"",""4147""
","""event"",""trial"",""time""
""blur"",""1"",""2551""
","""event"",""trial"",""time""
""focus"",""1"",""4046""
","""event"",""trial"",""time""
""fullscreenenter"",""1"",""4147""
","
","","","","","","null","<div style=""font-size:60px;"">+</div>","null","","fixation","","","","","","","","",""
"memory-trial","109","280456","0.0-15.0-1.33","1486","2","""event"",""trial"",""time""
""blur"",""1"",""2551""
""focus"",""1"",""4046""
""fullscreenenter"",""1"",""4147""
","""event"",""trial"",""time""
""blur"",""1"",""2551""
","""event"",""trial"",""time""
""focus"",""1"",""4046""
","""event"",""trial"",""time""
""fullscreenenter"",""1"",""4147""
","
","","","","","","954.7999999970198","images/tree2.png","","","memory_trial","3","maybe_new","","","","","","",""
"html-keyboard-response","110","280961","0.0-15.0-0.34","1486","2","""event"",""trial"",""time""
""blur"",""1"",""2551""
""focus"",""1"",""4046""
""fullscreenenter"",""1"",""4147""
","""event"",""trial"",""time""
""blur"",""1"",""2551""
","""event"",""trial"",""time""
""focus"",""1"",""4046""
","""event"",""trial"",""time""
""fullscreenenter"",""1"",""4147""
","
","","","","","","null","<div style=""font-size:60px;"">+</div>","null","","fixation","","","","","","","","",""
"memory-trial","111","283392","0.0-15.0-1.34","1486","2","""event"",""trial"",""time""
""blur"",""1"",""2551""
""focus"",""1"",""4046""
""fullscreenenter"",""1"",""4147""
","""event"",""trial"",""time""
""blur"",""1"",""2551""
","""event"",""trial"",""time""
""focus"",""1"",""4046""
","""event"",""trial"",""time""
""fullscreenenter"",""1"",""4147""
","
","","","","","","1426.2000000029802","images/apple5.png","","","memory_trial","1","definitely_old","","","","","","",""
"html-keyboard-response","112","283895","0.0-15.0-0.35","1486","2","""event"",""trial"",""time""
""blur"",""1"",""2551""
""focus"",""1"",""4046""
""fullscreenenter"",""1"",""4147""
","""event"",""trial"",""time""
""blur"",""1"",""2551""
","""event"",""trial"",""time""
""focus"",""1"",""4046""
","""event"",""trial"",""time""
""fullscreenenter"",""1"",""4147""
","
","","","","","","null","<div style=""font-size:60px;"">+</div>","null","","fixation","","","","","","","","",""
"memory-trial","113","285495","0.0-15.0-1.35","1486","2","""event"",""trial"",""time""
""blur"",""1"",""2551""
""focus"",""1"",""4046""
""fullscreenenter"",""1"",""4147""
","""event"",""trial"",""time""
""blur"",""1"",""2551""
","""event"",""trial"",""time""
""focus"",""1"",""4046""
","""event"",""trial"",""time""
""fullscreenenter"",""1"",""4147""
","
","","","","","","596.9000000059605","images/train4.png","","","memory_trial","1","definitely_old","","","","","","",""
"html-keyboard-response","114","285997","0.0-15.0-0.36","1486","2","""event"",""trial"",""time""
""blur"",""1"",""2551""
""focus"",""1"",""4046""
""fullscreenenter"",""1"",""4147""
","""event"",""trial"",""time""
""blur"",""1"",""2551""
","""event"",""trial"",""time""
""focus"",""1"",""4046""
","""event"",""trial"",""time""
""fullscreenenter"",""1"",""4147""
","
","","","","","","null","<div style=""font-size:60px;"">+</div>","null","","fixation","","","","","","","","",""
"memory-trial","115","288362","0.0-15.0-1.36","1486","2","""event"",""trial"",""time""
""blur"",""1"",""2551""
""focus"",""1"",""4046""
""fullscreenenter"",""1"",""4147""
","""event"",""trial"",""time""
""blur"",""1"",""2551""
","""event"",""trial"",""time""
""focus"",""1"",""4046""
","""event"",""trial"",""time""
""fullscreenenter"",""1"",""4147""
","
","","","","","","1361.6999999955297","images/rodent5.png","","","memory_trial","4","definitely_new","","","","","","",""
"html-keyboard-response","116","288864","0.0-15.0-0.37","1486","2","""event"",""trial"",""time""
""blur"",""1"",""2551""
""focus"",""1"",""4046""
""fullscreenenter"",""1"",""4147""
","""event"",""trial"",""time""
""blur"",""1"",""2551""
","""event"",""trial"",""time""
""focus"",""1"",""4046""
","""event"",""trial"",""time""
""fullscreenenter"",""1"",""4147""
","
","","","","","","null","<div style=""font-size:60px;"">+</div>","null","","fixation","","","","","","","","",""
"memory-trial","117","291178","0.0-15.0-1.37","1486","2","""event"",""trial"",""time""
""blur"",""1"",""2551""
""focus"",""1"",""4046""
""fullscreenenter"",""1"",""4147""
","""event"",""trial"",""time""
""blur"",""1"",""2551""
","""event"",""trial"",""time""
""focus"",""1"",""4046""
","""event"",""trial"",""time""
""fullscreenenter"",""1"",""4147""
","
","","","","","","1307.8999999985099","images/straw3.png","","","memory_trial","1","definitely_old","","","","","","",""
"html-keyboard-response","118","291680","0.0-15.0-0.38","1486","2","""event"",""trial"",""time""
""blur"",""1"",""2551""
""focus"",""1"",""4046""
""fullscreenenter"",""1"",""4147""
","""event"",""trial"",""time""
""blur"",""1"",""2551""
","""event"",""trial"",""time""
""focus"",""1"",""4046""
","""event"",""trial"",""time""
""fullscreenenter"",""1"",""4147""
","
","","","","","","null","<div style=""font-size:60px;"">+</div>","null","","fixation","","","","","","","","",""
"memory-trial","119","294392","0.0-15.0-1.38","1486","2","""event"",""trial"",""time""
""blur"",""1"",""2551""
""focus"",""1"",""4046""
""fullscreenenter"",""1"",""4147""
","""event"",""trial"",""time""
""blur"",""1"",""2551""
","""event"",""trial"",""time""
""focus"",""1"",""4046""
","""event"",""trial"",""time""
""fullscreenenter"",""1"",""4147""
","
","","","","","","1708.5","images/goat2.png","","","memory_trial","1","definitely_old","","","","","","",""
"html-keyboard-response","120","294894","0.0-15.0-0.39","1486","2","""event"",""trial"",""time""
""blur"",""1"",""2551""
""focus"",""1"",""4046""
""fullscreenenter"",""1"",""4147""
","""event"",""trial"",""time""
""blur"",""1"",""2551""
","""event"",""trial"",""time""
""focus"",""1"",""4046""
","""event"",""trial"",""time""
""fullscreenenter"",""1"",""4147""
","
","","","","","","null","<div style=""font-size:60px;"">+</div>","null","","fixation","","","","","","","","",""
"memory-trial","121","297190","0.0-15.0-1.39","1486","2","""event"",""trial"",""time""
""blur"",""1"",""2551""
""focus"",""1"",""4046""
""fullscreenenter"",""1"",""4147""
","""event"",""trial"",""time""
""blur"",""1"",""2551""
","""event"",""trial"",""time""
""focus"",""1"",""4046""
","""event"",""trial"",""time""
""fullscreenenter"",""1"",""4147""
","
","","","","","","1291.6999999955297","images/bush3.png","","","memory_trial","4","definitely_new","","","","","","",""
"html-keyboard-response","122","297692","0.0-15.0-0.40","1486","2","""event"",""trial"",""time""
""blur"",""1"",""2551""
""focus"",""1"",""4046""
""fullscreenenter"",""1"",""4147""
","""event"",""trial"",""time""
""blur"",""1"",""2551""
","""event"",""trial"",""time""
""focus"",""1"",""4046""
","""event"",""trial"",""time""
""fullscreenenter"",""1"",""4147""
","
","","","","","","null","<div style=""font-size:60px;"">+</div>","null","","fixation","","","","","","","","",""
"memory-trial","123","300299","0.0-15.0-1.40","1486","2","""event"",""trial"",""time""
""blur"",""1"",""2551""
""focus"",""1"",""4046""
""fullscreenenter"",""1"",""4147""
","""event"",""trial"",""time""
""blur"",""1"",""2551""
","""event"",""trial"",""time""
""focus"",""1"",""4046""
","""event"",""trial"",""time""
""fullscreenenter"",""1"",""4147""
","
","","","","","","1602.2000000029802","images/sheep4.png","","","memory_trial","3","maybe_new","","","","","","",""
"html-keyboard-response","124","300801","0.0-15.0-0.41","1486","2","""event"",""trial"",""time""
""blur"",""1"",""2551""
""focus"",""1"",""4046""
""fullscreenenter"",""1"",""4147""
","""event"",""trial"",""time""
""blur"",""1"",""2551""
","""event"",""trial"",""time""
""focus"",""1"",""4046""
","""event"",""trial"",""time""
""fullscreenenter"",""1"",""4147""
","
","","","","","","null","<div style=""font-size:60px;"">+</div>","null","","fixation","","","","","","","","",""
"memory-trial","125","302591","0.0-15.0-1.41","1486","2","""event"",""trial"",""time""
""blur"",""1"",""2551""
""focus"",""1"",""4046""
""fullscreenenter"",""1"",""4147""
","""event"",""trial"",""time""
""blur"",""1"",""2551""
","""event"",""trial"",""time""
""focus"",""1"",""4046""
","""event"",""trial"",""time""
""fullscreenenter"",""1"",""4147""
","
","","","","","","784.8999999985099","images/bush4.png","","","memory_trial","3","maybe_new","","","","","","",""
"html-keyboard-response","126","303092","0.0-15.0-0.42","1486","2","""event"",""trial"",""time""
""blur"",""1"",""2551""
""focus"",""1"",""4046""
""fullscreenenter"",""1"",""4147""
","""event"",""trial"",""time""
""blur"",""1"",""2551""
","""event"",""trial"",""time""
""focus"",""1"",""4046""
","""event"",""trial"",""time""
""fullscreenenter"",""1"",""4147""
","
","","","","","","null","<div style=""font-size:60px;"">+</div>","null","","fixation","","","","","","","","",""
"memory-trial","127","305142","0.0-15.0-1.42","1486","2","""event"",""trial"",""time""
""blur"",""1"",""2551""
""focus"",""1"",""4046""
""fullscreenenter"",""1"",""4147""
","""event"",""trial"",""time""
""blur"",""1"",""2551""
","""event"",""trial"",""time""
""focus"",""1"",""4046""
","""event"",""trial"",""time""
""fullscreenenter"",""1"",""4147""
","
","","","","","","1045.7999999970198","images/truck1.png","","","memory_trial","1","definitely_old","","","","","","",""
"html-keyboard-response","128","305644","0.0-15.0-0.43","1486","2","""event"",""trial"",""time""
""blur"",""1"",""2551""
""focus"",""1"",""4046""
""fullscreenenter"",""1"",""4147""
","""event"",""trial"",""time""
""blur"",""1"",""2551""
","""event"",""trial"",""time""
""focus"",""1"",""4046""
","""event"",""trial"",""time""
""fullscreenenter"",""1"",""4147""
","
","","","","","","null","<div style=""font-size:60px;"">+</div>","null","","fixation","","","","","","","","",""
"memory-trial","129","307383","0.0-15.0-1.43","1486","2","""event"",""trial"",""time""
""blur"",""1"",""2551""
""focus"",""1"",""4046""
""fullscreenenter"",""1"",""4147""
","""event"",""trial"",""time""
""blur"",""1"",""2551""
","""event"",""trial"",""time""
""focus"",""1"",""4046""
","""event"",""trial"",""time""
""fullscreenenter"",""1"",""4147""
","
","","","","","","735.7999999970198","images/truck2.png","","","memory_trial","1","definitely_old","","","","","","",""
"html-keyboard-response","130","307885","0.0-15.0-0.44","1486","2","""event"",""trial"",""time""
""blur"",""1"",""2551""
""focus"",""1"",""4046""
""fullscreenenter"",""1"",""4147""
","""event"",""trial"",""time""
""blur"",""1"",""2551""
","""event"",""trial"",""time""
""focus"",""1"",""4046""
","""event"",""trial"",""time""
""fullscreenenter"",""1"",""4147""
","
","","","","","","null","<div style=""font-size:60px;"">+</div>","null","","fixation","","","","","","","","",""
"memory-trial","131","310192","0.0-15.0-1.44","1486","2","""event"",""trial"",""time""
""blur"",""1"",""2551""
""focus"",""1"",""4046""
""fullscreenenter"",""1"",""4147""
","""event"",""trial"",""time""
""blur"",""1"",""2551""
","""event"",""trial"",""time""
""focus"",""1"",""4046""
","""event"",""trial"",""time""
""fullscreenenter"",""1"",""4147""
","
","","","","","","1303.1000000014901","images/chair2.png","","","memory_trial","4","definitely_new","","","","","","",""
"html-keyboard-response","132","310695","0.0-15.0-0.45","1486","2","""event"",""trial"",""time""
""blur"",""1"",""2551""
""focus"",""1"",""4046""
""fullscreenenter"",""1"",""4147""
","""event"",""trial"",""time""
""blur"",""1"",""2551""
","""event"",""trial"",""time""
""focus"",""1"",""4046""
","""event"",""trial"",""time""
""fullscreenenter"",""1"",""4147""
","
","","","","","","null","<div style=""font-size:60px;"">+</div>","null","","fixation","","","","","","","","",""
"memory-trial","133","313434","0.0-15.0-1.45","1486","2","""event"",""trial"",""time""
""blur"",""1"",""2551""
""focus"",""1"",""4046""
""fullscreenenter"",""1"",""4147""
","""event"",""trial"",""time""
""blur"",""1"",""2551""
","""event"",""trial"",""time""
""focus"",""1"",""4046""
","""event"",""trial"",""time""
""fullscreenenter"",""1"",""4147""
","
","","","","","","1734.4000000059605","images/tree3.png","","","memory_trial","2","maybe_old","","","","","","",""
"html-keyboard-response","134","313936","0.0-15.0-0.46","1486","2","""event"",""trial"",""time""
""blur"",""1"",""2551""
""focus"",""1"",""4046""
""fullscreenenter"",""1"",""4147""
","""event"",""trial"",""time""
""blur"",""1"",""2551""
","""event"",""trial"",""time""
""focus"",""1"",""4046""
","""event"",""trial"",""time""
""fullscreenenter"",""1"",""4147""
","
","","","","","","null","<div style=""font-size:60px;"">+</div>","null","","fixation","","","","","","","","",""
"memory-trial","135","316961","0.0-15.0-1.46","1486","2","""event"",""trial"",""time""
""blur"",""1"",""2551""
""focus"",""1"",""4046""
""fullscreenenter"",""1"",""4147""
","""event"",""trial"",""time""
""blur"",""1"",""2551""
","""event"",""trial"",""time""
""focus"",""1"",""4046""
","""event"",""trial"",""time""
""fullscreenenter"",""1"",""4147""
","
","","","","","","2021","images/banana2.png","","","memory_trial","2","maybe_old","","","","","","",""
"html-button-response","136","318723","0.0-15.0-2.46-0.46","1486","2","""event"",""trial"",""time""
""blur"",""1"",""2551""
""focus"",""1"",""4046""
""fullscreenenter"",""1"",""4147""
","""event"",""trial"",""time""
""blur"",""1"",""2551""
","""event"",""trial"",""time""
""focus"",""1"",""4046""
","""event"",""trial"",""time""
""fullscreenenter"",""1"",""4147""
","
","","","","","","1759.7999999970198","<p> Take a break! </p><p> Click the button to continue. </p>","0","","break","","","","","","","","",""
"html-keyboard-response","137","319225","0.0-15.0-0.47","1486","2","""event"",""trial"",""time""
""blur"",""1"",""2551""
""focus"",""1"",""4046""
""fullscreenenter"",""1"",""4147""
","""event"",""trial"",""time""
""blur"",""1"",""2551""
","""event"",""trial"",""time""
""focus"",""1"",""4046""
","""event"",""trial"",""time""
""fullscreenenter"",""1"",""4147""
","
","","","","","","null","<div style=""font-size:60px;"">+</div>","null","","fixation","","","","","","","","",""
"memory-trial","138","322302","0.0-15.0-1.47","1486","2","""event"",""trial"",""time""
""blur"",""1"",""2551""
""focus"",""1"",""4046""
""fullscreenenter"",""1"",""4147""
","""event"",""trial"",""time""
""blur"",""1"",""2551""
","""event"",""trial"",""time""
""focus"",""1"",""4046""
","""event"",""trial"",""time""
""fullscreenenter"",""1"",""4147""
","
","","","","","","2071","images/horse2.png","","","memory_trial","3","maybe_new","","","","","","",""
"html-keyboard-response","139","322804","0.0-15.0-0.48","1486","2","""event"",""trial"",""time""
""blur"",""1"",""2551""
""focus"",""1"",""4046""
""fullscreenenter"",""1"",""4147""
","""event"",""trial"",""time""
""blur"",""1"",""2551""
","""event"",""trial"",""time""
""focus"",""1"",""4046""
","""event"",""trial"",""time""
""fullscreenenter"",""1"",""4147""
","
","","","","","","null","<div style=""font-size:60px;"">+</div>","null","","fixation","","","","","","","","",""
"memory-trial","140","324982","0.0-15.0-1.48","1486","2","""event"",""trial"",""time""
""blur"",""1"",""2551""
""focus"",""1"",""4046""
""fullscreenenter"",""1"",""4147""
","""event"",""trial"",""time""
""blur"",""1"",""2551""
","""event"",""trial"",""time""
""focus"",""1"",""4046""
","""event"",""trial"",""time""
""fullscreenenter"",""1"",""4147""
","
","","","","","","1173.3000000044703","images/flower5.png","","","memory_trial","1","definitely_old","","","","","","",""
"html-keyboard-response","141","325483","0.0-15.0-0.49","1486","2","""event"",""trial"",""time""
""blur"",""1"",""2551""
""focus"",""1"",""4046""
""fullscreenenter"",""1"",""4147""
","""event"",""trial"",""time""
""blur"",""1"",""2551""
","""event"",""trial"",""time""
""focus"",""1"",""4046""
","""event"",""trial"",""time""
""fullscreenenter"",""1"",""4147""
","
","","","","","","null","<div style=""font-size:60px;"">+</div>","null","","fixation","","","","","","","","",""
"memory-trial","142","327511","0.0-15.0-1.49","1486","2","""event"",""trial"",""time""
""blur"",""1"",""2551""
""focus"",""1"",""4046""
""fullscreenenter"",""1"",""4147""
","""event"",""trial"",""time""
""blur"",""1"",""2551""
","""event"",""trial"",""time""
""focus"",""1"",""4046""
","""event"",""trial"",""time""
""fullscreenenter"",""1"",""4147""
","
","","","","","","1015.3000000044703","images/orange4.png","","","memory_trial","1","definitely_old","","","","","","",""
"html-keyboard-response","143","328013","0.0-15.0-0.50","1486","2","""event"",""trial"",""time""
""blur"",""1"",""2551""
""focus"",""1"",""4046""
""fullscreenenter"",""1"",""4147""
","""event"",""trial"",""time""
""blur"",""1"",""2551""
","""event"",""trial"",""time""
""focus"",""1"",""4046""
","""event"",""trial"",""time""
""fullscreenenter"",""1"",""4147""
","
","","","","","","null","<div style=""font-size:60px;"">+</div>","null","","fixation","","","","","","","","",""
"memory-trial","144","330259","0.0-15.0-1.50","1486","2","""event"",""trial"",""time""
""blur"",""1"",""2551""
""focus"",""1"",""4046""
""fullscreenenter"",""1"",""4147""
","""event"",""trial"",""time""
""blur"",""1"",""2551""
","""event"",""trial"",""time""
""focus"",""1"",""4046""
","""event"",""trial"",""time""
""fullscreenenter"",""1"",""4147""
","
","","","","","","1227.7999999970198","images/table4.png","","","memory_trial","4","definitely_new","","","","","","",""
"html-keyboard-response","145","330762","0.0-15.0-0.51","1486","2","""event"",""trial"",""time""
""blur"",""1"",""2551""
""focus"",""1"",""4046""
""fullscreenenter"",""1"",""4147""
","""event"",""trial"",""time""
""blur"",""1"",""2551""
","""event"",""trial"",""time""
""focus"",""1"",""4046""
","""event"",""trial"",""time""
""fullscreenenter"",""1"",""4147""
","
","","","","","","null","<div style=""font-size:60px;"">+</div>","null","","fixation","","","","","","","","",""
"memory-trial","146","333088","0.0-15.0-1.51","1486","2","""event"",""trial"",""time""
""blur"",""1"",""2551""
""focus"",""1"",""4046""
""fullscreenenter"",""1"",""4147""
","""event"",""trial"",""time""
""blur"",""1"",""2551""
","""event"",""trial"",""time""
""focus"",""1"",""4046""
","""event"",""trial"",""time""
""fullscreenenter"",""1"",""4147""
","
","","","","","","1321.7999999970198","images/apple3.png","","","memory_trial","1","definitely_old","","","","","","",""
"html-keyboard-response","147","333591","0.0-15.0-0.52","1486","2","""event"",""trial"",""time""
""blur"",""1"",""2551""
""focus"",""1"",""4046""
""fullscreenenter"",""1"",""4147""
","""event"",""trial"",""time""
""blur"",""1"",""2551""
","""event"",""trial"",""time""
""focus"",""1"",""4046""
","""event"",""trial"",""time""
""fullscreenenter"",""1"",""4147""
","
","","","","","","null","<div style=""font-size:60px;"">+</div>","null","","fixation","","","","","","","","",""
"memory-trial","148","336178","0.0-15.0-1.52","1486","2","""event"",""trial"",""time""
""blur"",""1"",""2551""
""focus"",""1"",""4046""
""fullscreenenter"",""1"",""4147""
","""event"",""trial"",""time""
""blur"",""1"",""2551""
","""event"",""trial"",""time""
""focus"",""1"",""4046""
","""event"",""trial"",""time""
""fullscreenenter"",""1"",""4147""
","
","","","","","","1584.1999999955297","images/banana4.png","","","memory_trial","4","definitely_new","","","","","","",""
"html-keyboard-response","149","336681","0.0-15.0-0.53","1486","2","""event"",""trial"",""time""
""blur"",""1"",""2551""
""focus"",""1"",""4046""
""fullscreenenter"",""1"",""4147""
","""event"",""trial"",""time""
""blur"",""1"",""2551""
","""event"",""trial"",""time""
""focus"",""1"",""4046""
","""event"",""trial"",""time""
""fullscreenenter"",""1"",""4147""
","
","","","","","","null","<div style=""font-size:60px;"">+</div>","null","","fixation","","","","","","","","",""
"memory-trial","150","339189","0.0-15.0-1.53","1486","2","""event"",""trial"",""time""
""blur"",""1"",""2551""
""focus"",""1"",""4046""
""fullscreenenter"",""1"",""4147""
","""event"",""trial"",""time""
""blur"",""1"",""2551""
","""event"",""trial"",""time""
""focus"",""1"",""4046""
","""event"",""trial"",""time""
""fullscreenenter"",""1"",""4147""
","
","","","","","","1503.6000000014901","images/rodent2.png","","","memory_trial","3","maybe_new","","","","","","",""
"html-keyboard-response","151","339691","0.0-15.0-0.54","1486","2","""event"",""trial"",""time""
""blur"",""1"",""2551""
""focus"",""1"",""4046""
""fullscreenenter"",""1"",""4147""
","""event"",""trial"",""time""
""blur"",""1"",""2551""
","""event"",""trial"",""time""
""focus"",""1"",""4046""
","""event"",""trial"",""time""
""fullscreenenter"",""1"",""4147""
","
","","","","","","null","<div style=""font-size:60px;"">+</div>","null","","fixation","","","","","","","","",""
"memory-trial","152","341891","0.0-15.0-1.54","1486","2","""event"",""trial"",""time""
""blur"",""1"",""2551""
""focus"",""1"",""4046""
""fullscreenenter"",""1"",""4147""
","""event"",""trial"",""time""
""blur"",""1"",""2551""
","""event"",""trial"",""time""
""focus"",""1"",""4046""
","""event"",""trial"",""time""
""fullscreenenter"",""1"",""4147""
","
","","","","","","1196","images/table5.png","","","memory_trial","3","maybe_new","","","","","","",""
"html-keyboard-response","153","342393","0.0-15.0-0.55","1486","2","""event"",""trial"",""time""
""blur"",""1"",""2551""
""focus"",""1"",""4046""
""fullscreenenter"",""1"",""4147""
","""event"",""trial"",""time""
""blur"",""1"",""2551""
","""event"",""trial"",""time""
""focus"",""1"",""4046""
","""event"",""trial"",""time""
""fullscreenenter"",""1"",""4147""
","
","","","","","","null","<div style=""font-size:60px;"">+</div>","null","","fixation","","","","","","","","",""
"memory-trial","154","344403","0.0-15.0-1.55","1486","2","""event"",""trial"",""time""
""blur"",""1"",""2551""
""focus"",""1"",""4046""
""fullscreenenter"",""1"",""4147""
","""event"",""trial"",""time""
""blur"",""1"",""2551""
","""event"",""trial"",""time""
""focus"",""1"",""4046""
","""event"",""trial"",""time""
""fullscreenenter"",""1"",""4147""
","
","","","","","","1005.8999999985099","images/bed2.png","","","memory_trial","3","maybe_new","","","","","","",""
"html-keyboard-response","155","344906","0.0-15.0-0.56","1486","2","""event"",""trial"",""time""
""blur"",""1"",""2551""
""focus"",""1"",""4046""
""fullscreenenter"",""1"",""4147""
","""event"",""trial"",""time""
""blur"",""1"",""2551""
","""event"",""trial"",""time""
""focus"",""1"",""4046""
","""event"",""trial"",""time""
""fullscreenenter"",""1"",""4147""
","
","","","","","","null","<div style=""font-size:60px;"">+</div>","null","","fixation","","","","","","","","",""
"memory-trial","156","346965","0.0-15.0-1.56","1486","2","""event"",""trial"",""time""
""blur"",""1"",""2551""
""focus"",""1"",""4046""
""fullscreenenter"",""1"",""4147""
","""event"",""trial"",""time""
""blur"",""1"",""2551""
","""event"",""trial"",""time""
""focus"",""1"",""4046""
","""event"",""trial"",""time""
""fullscreenenter"",""1"",""4147""
","
","","","","","","1054.6000000014901","images/plane5.png","","","memory_trial","1","definitely_old","","","","","","",""
"html-keyboard-response","157","347467","0.0-15.0-0.57","1486","2","""event"",""trial"",""time""
""blur"",""1"",""2551""
""focus"",""1"",""4046""
""fullscreenenter"",""1"",""4147""
","""event"",""trial"",""time""
""blur"",""1"",""2551""
","""event"",""trial"",""time""
""focus"",""1"",""4046""
","""event"",""trial"",""time""
""fullscreenenter"",""1"",""4147""
","
","","","","","","null","<div style=""font-size:60px;"">+</div>","null","","fixation","","","","","","","","",""
"memory-trial","158","349227","0.0-15.0-1.57","1486","2","""event"",""trial"",""time""
""blur"",""1"",""2551""
""focus"",""1"",""4046""
""fullscreenenter"",""1"",""4147""
","""event"",""trial"",""time""
""blur"",""1"",""2551""
","""event"",""trial"",""time""
""focus"",""1"",""4046""
","""event"",""trial"",""time""
""fullscreenenter"",""1"",""4147""
","
","","","","","","755.8999999985099","images/horse1.png","","","memory_trial","1","definitely_old","","","","","","",""
"html-keyboard-response","159","349730","0.0-15.0-0.58","1486","2","""event"",""trial"",""time""
""blur"",""1"",""2551""
""focus"",""1"",""4046""
""fullscreenenter"",""1"",""4147""
","""event"",""trial"",""time""
""blur"",""1"",""2551""
","""event"",""trial"",""time""
""focus"",""1"",""4046""
","""event"",""trial"",""time""
""fullscreenenter"",""1"",""4147""
","
","","","","","","null","<div style=""font-size:60px;"">+</div>","null","","fixation","","","","","","","","",""
"memory-trial","160","351625","0.0-15.0-1.58","1486","2","""event"",""trial"",""time""
""blur"",""1"",""2551""
""focus"",""1"",""4046""
""fullscreenenter"",""1"",""4147""
","""event"",""trial"",""time""
""blur"",""1"",""2551""
","""event"",""trial"",""time""
""focus"",""1"",""4046""
","""event"",""trial"",""time""
""fullscreenenter"",""1"",""4147""
","
","","","","","","891.3000000044703","images/cactus2.png","","","memory_trial","1","definitely_old","","","","","","",""
"html-keyboard-response","161","352128","0.0-15.0-0.59","1486","2","""event"",""trial"",""time""
""blur"",""1"",""2551""
""focus"",""1"",""4046""
""fullscreenenter"",""1"",""4147""
","""event"",""trial"",""time""
""blur"",""1"",""2551""
","""event"",""trial"",""time""
""focus"",""1"",""4046""
","""event"",""trial"",""time""
""fullscreenenter"",""1"",""4147""
","
","","","","","","null","<div style=""font-size:60px;"">+</div>","null","","fixation","","","","","","","","",""
"memory-trial","162","353755","0.0-15.0-1.59","1486","2","""event"",""trial"",""time""
""blur"",""1"",""2551""
""focus"",""1"",""4046""
""fullscreenenter"",""1"",""4147""
","""event"",""trial"",""time""
""blur"",""1"",""2551""
","""event"",""trial"",""time""
""focus"",""1"",""4046""
","""event"",""trial"",""time""
""fullscreenenter"",""1"",""4147""
","
","","","","","","622.6000000014901","images/straw2.png","","","memory_trial","1","definitely_old","","","","","","",""
"html-keyboard-response","163","354257","0.0-15.0-0.60","1486","2","""event"",""trial"",""time""
""blur"",""1"",""2551""
""focus"",""1"",""4046""
""fullscreenenter"",""1"",""4147""
","""event"",""trial"",""time""
""blur"",""1"",""2551""
","""event"",""trial"",""time""
""focus"",""1"",""4046""
","""event"",""trial"",""time""
""fullscreenenter"",""1"",""4147""
","
","","","","","","null","<div style=""font-size:60px;"">+</div>","null","","fixation","","","","","","","","",""
"memory-trial","164","356620","0.0-15.0-1.60","1486","2","""event"",""trial"",""time""
""blur"",""1"",""2551""
""focus"",""1"",""4046""
""fullscreenenter"",""1"",""4147""
","""event"",""trial"",""time""
""blur"",""1"",""2551""
","""event"",""trial"",""time""
""focus"",""1"",""4046""
","""event"",""trial"",""time""
""fullscreenenter"",""1"",""4147""
","
","","","","","","1356.1000000014901","images/bed3.png","","","memory_trial","4","definitely_new","","","","","","",""
"html-keyboard-response","165","357122","0.0-15.0-0.61","1486","2","""event"",""trial"",""time""
""blur"",""1"",""2551""
""focus"",""1"",""4046""
""fullscreenenter"",""1"",""4147""
","""event"",""trial"",""time""
""blur"",""1"",""2551""
","""event"",""trial"",""time""
""focus"",""1"",""4046""
","""event"",""trial"",""time""
""fullscreenenter"",""1"",""4147""
","
","","","","","","null","<div style=""font-size:60px;"">+</div>","null","","fixation","","","","","","","","",""
"memory-trial","166","358808","0.0-15.0-1.61","1486","2","""event"",""trial"",""time""
""blur"",""1"",""2551""
""focus"",""1"",""4046""
""fullscreenenter"",""1"",""4147""
","""event"",""trial"",""time""
""blur"",""1"",""2551""
","""event"",""trial"",""time""
""focus"",""1"",""4046""
","""event"",""trial"",""time""
""fullscreenenter"",""1"",""4147""
","
","","","","","","683.1000000014901","images/truck5.png","","","memory_trial","1","definitely_old","","","","","","",""
"html-keyboard-response","167","359309","0.0-15.0-0.62","1486","2","""event"",""trial"",""time""
""blur"",""1"",""2551""
""focus"",""1"",""4046""
""fullscreenenter"",""1"",""4147""
","""event"",""trial"",""time""
""blur"",""1"",""2551""
","""event"",""trial"",""time""
""focus"",""1"",""4046""
","""event"",""trial"",""time""
""fullscreenenter"",""1"",""4147""
","
","","","","","","null","<div style=""font-size:60px;"">+</div>","null","","fixation","","","","","","","","",""
"memory-trial","168","362184","0.0-15.0-1.62","1486","2","""event"",""trial"",""time""
""blur"",""1"",""2551""
""focus"",""1"",""4046""
""fullscreenenter"",""1"",""4147""
","""event"",""trial"",""time""
""blur"",""1"",""2551""
","""event"",""trial"",""time""
""focus"",""1"",""4046""
","""event"",""trial"",""time""
""fullscreenenter"",""1"",""4147""
","
","","","","","","1870","images/apple4.png","","","memory_trial","2","maybe_old","","","","","","",""
"html-keyboard-response","169","362687","0.0-15.0-0.63","1486","2","""event"",""trial"",""time""
""blur"",""1"",""2551""
""focus"",""1"",""4046""
""fullscreenenter"",""1"",""4147""
","""event"",""trial"",""time""
""blur"",""1"",""2551""
","""event"",""trial"",""time""
""focus"",""1"",""4046""
","""event"",""trial"",""time""
""fullscreenenter"",""1"",""4147""
","
","","","","","","null","<div style=""font-size:60px;"">+</div>","null","","fixation","","","","","","","","",""
"memory-trial","170","364791","0.0-15.0-1.63","1486","2","""event"",""trial"",""time""
""blur"",""1"",""2551""
""focus"",""1"",""4046""
""fullscreenenter"",""1"",""4147""
","""event"",""trial"",""time""
""blur"",""1"",""2551""
","""event"",""trial"",""time""
""focus"",""1"",""4046""
","""event"",""trial"",""time""
""fullscreenenter"",""1"",""4147""
","
","","","","","","1101.1000000014901","images/cow2.png","","","memory_trial","1","definitely_old","","","","","","",""
"html-keyboard-response","171","365294","0.0-15.0-0.64","1486","2","""event"",""trial"",""time""
""blur"",""1"",""2551""
""focus"",""1"",""4046""
""fullscreenenter"",""1"",""4147""
","""event"",""trial"",""time""
""blur"",""1"",""2551""
","""event"",""trial"",""time""
""focus"",""1"",""4046""
","""event"",""trial"",""time""
""fullscreenenter"",""1"",""4147""
","
","","","","","","null","<div style=""font-size:60px;"">+</div>","null","","fixation","","","","","","","","",""
"memory-trial","172","367786","0.0-15.0-1.64","1486","2","""event"",""trial"",""time""
""blur"",""1"",""2551""
""focus"",""1"",""4046""
""fullscreenenter"",""1"",""4147""
","""event"",""trial"",""time""
""blur"",""1"",""2551""
","""event"",""trial"",""time""
""focus"",""1"",""4046""
","""event"",""trial"",""time""
""fullscreenenter"",""1"",""4147""
","
","","","","","","1487.1999999955297","images/apple2.png","","","memory_trial","1","definitely_old","","","","","","",""
"html-keyboard-response","173","368288","0.0-15.0-0.65","1486","2","""event"",""trial"",""time""
""blur"",""1"",""2551""
""focus"",""1"",""4046""
""fullscreenenter"",""1"",""4147""
","""event"",""trial"",""time""
""blur"",""1"",""2551""
","""event"",""trial"",""time""
""focus"",""1"",""4046""
","""event"",""trial"",""time""
""fullscreenenter"",""1"",""4147""
","
","","","","","","null","<div style=""font-size:60px;"">+</div>","null","","fixation","","","","","","","","",""
"memory-trial","174","370917","0.0-15.0-1.65","1486","2","""event"",""trial"",""time""
""blur"",""1"",""2551""
""focus"",""1"",""4046""
""fullscreenenter"",""1"",""4147""
","""event"",""trial"",""time""
""blur"",""1"",""2551""
","""event"",""trial"",""time""
""focus"",""1"",""4046""
","""event"",""trial"",""time""
""fullscreenenter"",""1"",""4147""
","
","","","","","","1625.3999999985099","images/bush2.png","","","memory_trial","4","definitely_new","","","","","","",""
"html-keyboard-response","175","371419","0.0-15.0-0.66","1486","2","""event"",""trial"",""time""
""blur"",""1"",""2551""
""focus"",""1"",""4046""
""fullscreenenter"",""1"",""4147""
","""event"",""trial"",""time""
""blur"",""1"",""2551""
","""event"",""trial"",""time""
""focus"",""1"",""4046""
","""event"",""trial"",""time""
""fullscreenenter"",""1"",""4147""
","
","","","","","","null","<div style=""font-size:60px;"">+</div>","null","","fixation","","","","","","","","",""
"memory-trial","176","374177","0.0-15.0-1.66","1486","2","""event"",""trial"",""time""
""blur"",""1"",""2551""
""focus"",""1"",""4046""
""fullscreenenter"",""1"",""4147""
","""event"",""trial"",""time""
""blur"",""1"",""2551""
","""event"",""trial"",""time""
""focus"",""1"",""4046""
","""event"",""trial"",""time""
""fullscreenenter"",""1"",""4147""
","
","","","","","","1753.0999999940395","images/goat1.png","","","memory_trial","3","maybe_new","","","","","","",""
"html-keyboard-response","177","374680","0.0-15.0-0.67","1486","2","""event"",""trial"",""time""
""blur"",""1"",""2551""
""focus"",""1"",""4046""
""fullscreenenter"",""1"",""4147""
","""event"",""trial"",""time""
""blur"",""1"",""2551""
","""event"",""trial"",""time""
""focus"",""1"",""4046""
","""event"",""trial"",""time""
""fullscreenenter"",""1"",""4147""
","
","","","","","","null","<div style=""font-size:60px;"">+</div>","null","","fixation","","","","","","","","",""
"memory-trial","178","376484","0.0-15.0-1.67","1486","2","""event"",""trial"",""time""
""blur"",""1"",""2551""
""focus"",""1"",""4046""
""fullscreenenter"",""1"",""4147""
","""event"",""trial"",""time""
""blur"",""1"",""2551""
","""event"",""trial"",""time""
""focus"",""1"",""4046""
","""event"",""trial"",""time""
""fullscreenenter"",""1"",""4147""
","
","","","","","","798.5","images/dog1.png","","","memory_trial","1","definitely_old","","","","","","",""
"html-keyboard-response","179","376985","0.0-15.0-0.68","1486","2","""event"",""trial"",""time""
""blur"",""1"",""2551""
""focus"",""1"",""4046""
""fullscreenenter"",""1"",""4147""
","""event"",""trial"",""time""
""blur"",""1"",""2551""
","""event"",""trial"",""time""
""focus"",""1"",""4046""
","""event"",""trial"",""time""
""fullscreenenter"",""1"",""4147""
","
","","","","","","null","<div style=""font-size:60px;"">+</div>","null","","fixation","","","","","","","","",""
"memory-trial","180","379494","0.0-15.0-1.68","1486","2","""event"",""trial"",""time""
""blur"",""1"",""2551""
""focus"",""1"",""4046""
""fullscreenenter"",""1"",""4147""
","""event"",""trial"",""time""
""blur"",""1"",""2551""
","""event"",""trial"",""time""
""focus"",""1"",""4046""
","""event"",""trial"",""time""
""fullscreenenter"",""1"",""4147""
","
","","","","","","1505.3000000044703","images/orange3.png","","","memory_trial","2","maybe_old","","","","","","",""
"html-keyboard-response","181","379996","0.0-15.0-0.69","1486","2","""event"",""trial"",""time""
""blur"",""1"",""2551""
""focus"",""1"",""4046""
""fullscreenenter"",""1"",""4147""
","""event"",""trial"",""time""
""blur"",""1"",""2551""
","""event"",""trial"",""time""
""focus"",""1"",""4046""
","""event"",""trial"",""time""
""fullscreenenter"",""1"",""4147""
","
","","","","","","null","<div style=""font-size:60px;"">+</div>","null","","fixation","","","","","","","","",""
"memory-trial","182","382724","0.0-15.0-1.69","1486","2","""event"",""trial"",""time""
""blur"",""1"",""2551""
""focus"",""1"",""4046""
""fullscreenenter"",""1"",""4147""
","""event"",""trial"",""time""
""blur"",""1"",""2551""
","""event"",""trial"",""time""
""focus"",""1"",""4046""
","""event"",""trial"",""time""
""fullscreenenter"",""1"",""4147""
","
","","","","","","1724.6000000014901","images/rabbit2.png","","","memory_trial","2","maybe_old","","","","","","",""
"html-keyboard-response","183","383227","0.0-15.0-0.70","1486","2","""event"",""trial"",""time""
""blur"",""1"",""2551""
""focus"",""1"",""4046""
""fullscreenenter"",""1"",""4147""
","""event"",""trial"",""time""
""blur"",""1"",""2551""
","""event"",""trial"",""time""
""focus"",""1"",""4046""
","""event"",""trial"",""time""
""fullscreenenter"",""1"",""4147""
","
","","","","","","null","<div style=""font-size:60px;"">+</div>","null","","fixation","","","","","","","","",""
"memory-trial","184","385751","0.0-15.0-1.70","1486","2","""event"",""trial"",""time""
""blur"",""1"",""2551""
""focus"",""1"",""4046""
""fullscreenenter"",""1"",""4147""
","""event"",""trial"",""time""
""blur"",""1"",""2551""
","""event"",""trial"",""time""
""focus"",""1"",""4046""
","""event"",""trial"",""time""
""fullscreenenter"",""1"",""4147""
","
","","","","","","1519","images/boat3.png","","","memory_trial","3","maybe_new","","","","","","",""
"html-keyboard-response","185","386253","0.0-15.0-0.71","1486","2","""event"",""trial"",""time""
""blur"",""1"",""2551""
""focus"",""1"",""4046""
""fullscreenenter"",""1"",""4147""
","""event"",""trial"",""time""
""blur"",""1"",""2551""
","""event"",""trial"",""time""
""focus"",""1"",""4046""
","""event"",""trial"",""time""
""fullscreenenter"",""1"",""4147""
","
","","","","","","null","<div style=""font-size:60px;"">+</div>","null","","fixation","","","","","","","","",""
"memory-trial","186","389452","0.0-15.0-1.71","1486","2","""event"",""trial"",""time""
""blur"",""1"",""2551""
""focus"",""1"",""4046""
""fullscreenenter"",""1"",""4147""
","""event"",""trial"",""time""
""blur"",""1"",""2551""
","""event"",""trial"",""time""
""focus"",""1"",""4046""
","""event"",""trial"",""time""
""fullscreenenter"",""1"",""4147""
","
","","","","","","2195.8000000044703","images/chair4.png","","","memory_trial","2","maybe_old","","","","","","",""
"html-keyboard-response","187","389954","0.0-15.0-0.72","1486","2","""event"",""trial"",""time""
""blur"",""1"",""2551""
""focus"",""1"",""4046""
""fullscreenenter"",""1"",""4147""
","""event"",""trial"",""time""
""blur"",""1"",""2551""
","""event"",""trial"",""time""
""focus"",""1"",""4046""
","""event"",""trial"",""time""
""fullscreenenter"",""1"",""4147""
","
","","","","","","null","<div style=""font-size:60px;"">+</div>","null","","fixation","","","","","","","","",""
"memory-trial","188","392720","0.0-15.0-1.72","1486","2","""event"",""trial"",""time""
""blur"",""1"",""2551""
""focus"",""1"",""4046""
""fullscreenenter"",""1"",""4147""
","""event"",""trial"",""time""
""blur"",""1"",""2551""
","""event"",""trial"",""time""
""focus"",""1"",""4046""
","""event"",""trial"",""time""
""fullscreenenter"",""1"",""4147""
","
","","","","","","1760.9000000059605","images/plane3.png","","","memory_trial","3","maybe_new","","","","","","",""
"html-keyboard-response","189","393222","0.0-15.0-0.73","1486","2","""event"",""trial"",""time""
""blur"",""1"",""2551""
""focus"",""1"",""4046""
""fullscreenenter"",""1"",""4147""
","""event"",""trial"",""time""
""blur"",""1"",""2551""
","""event"",""trial"",""time""
""focus"",""1"",""4046""
","""event"",""trial"",""time""
""fullscreenenter"",""1"",""4147""
","
","","","","","","null","<div style=""font-size:60px;"">+</div>","null","","fixation","","","","","","","","",""
"memory-trial","190","395042","0.0-15.0-1.73","1486","2","""event"",""trial"",""time""
""blur"",""1"",""2551""
""focus"",""1"",""4046""
""fullscreenenter"",""1"",""4147""
","""event"",""trial"",""time""
""blur"",""1"",""2551""
","""event"",""trial"",""time""
""focus"",""1"",""4046""
","""event"",""trial"",""time""
""fullscreenenter"",""1"",""4147""
","
","","","","","","814.2000000029802","images/dog2.png","","","memory_trial","1","definitely_old","","","","","","",""
"html-keyboard-response","191","395544","0.0-15.0-0.74","1486","2","""event"",""trial"",""time""
""blur"",""1"",""2551""
""focus"",""1"",""4046""
""fullscreenenter"",""1"",""4147""
","""event"",""trial"",""time""
""blur"",""1"",""2551""
","""event"",""trial"",""time""
""focus"",""1"",""4046""
","""event"",""trial"",""time""
""fullscreenenter"",""1"",""4147""
","
","","","","","","null","<div style=""font-size:60px;"">+</div>","null","","fixation","","","","","","","","",""
"memory-trial","192","397598","0.0-15.0-1.74","1486","2","""event"",""trial"",""time""
""blur"",""1"",""2551""
""focus"",""1"",""4046""
""fullscreenenter"",""1"",""4147""
","""event"",""trial"",""time""
""blur"",""1"",""2551""
","""event"",""trial"",""time""
""focus"",""1"",""4046""
","""event"",""trial"",""time""
""fullscreenenter"",""1"",""4147""
","
","","","","","","1049.8999999985099","images/table1.png","","","memory_trial","3","maybe_new","","","","","","",""
"html-keyboard-response","193","398100","0.0-15.0-0.75","1486","2","""event"",""trial"",""time""
""blur"",""1"",""2551""
""focus"",""1"",""4046""
""fullscreenenter"",""1"",""4147""
","""event"",""trial"",""time""
""blur"",""1"",""2551""
","""event"",""trial"",""time""
""focus"",""1"",""4046""
","""event"",""trial"",""time""
""fullscreenenter"",""1"",""4147""
","
","","","","","","null","<div style=""font-size:60px;"">+</div>","null","","fixation","","","","","","","","",""
"memory-trial","194","400952","0.0-15.0-1.75","1486","2","""event"",""trial"",""time""
""blur"",""1"",""2551""
""focus"",""1"",""4046""
""fullscreenenter"",""1"",""4147""
","""event"",""trial"",""time""
""blur"",""1"",""2551""
","""event"",""trial"",""time""
""focus"",""1"",""4046""
","""event"",""trial"",""time""
""fullscreenenter"",""1"",""4147""
","
","","","","","","1848.5","images/goat3.png","","","memory_trial","1","definitely_old","","","","","","",""
"html-keyboard-response","195","401455","0.0-15.0-0.76","1486","2","""event"",""trial"",""time""
""blur"",""1"",""2551""
""focus"",""1"",""4046""
""fullscreenenter"",""1"",""4147""
","""event"",""trial"",""time""
""blur"",""1"",""2551""
","""event"",""trial"",""time""
""focus"",""1"",""4046""
","""event"",""trial"",""time""
""fullscreenenter"",""1"",""4147""
","
","","","","","","null","<div style=""font-size:60px;"">+</div>","null","","fixation","","","","","","","","",""
"memory-trial","196","403068","0.0-15.0-1.76","1486","2","""event"",""trial"",""time""
""blur"",""1"",""2551""
""focus"",""1"",""4046""
""fullscreenenter"",""1"",""4147""
","""event"",""trial"",""time""
""blur"",""1"",""2551""
","""event"",""trial"",""time""
""focus"",""1"",""4046""
","""event"",""trial"",""time""
""fullscreenenter"",""1"",""4147""
","
","","","","","","607.8999999985099","images/feline2.png","","","memory_trial","1","definitely_old","","","","","","",""
"html-keyboard-response","197","403571","0.0-15.0-0.77","1486","2","""event"",""trial"",""time""
""blur"",""1"",""2551""
""focus"",""1"",""4046""
""fullscreenenter"",""1"",""4147""
","""event"",""trial"",""time""
""blur"",""1"",""2551""
","""event"",""trial"",""time""
""focus"",""1"",""4046""
","""event"",""trial"",""time""
""fullscreenenter"",""1"",""4147""
","
","","","","","","null","<div style=""font-size:60px;"">+</div>","null","","fixation","","","","","","","","",""
"memory-trial","198","405167","0.0-15.0-1.77","1486","2","""event"",""trial"",""time""
""blur"",""1"",""2551""
""focus"",""1"",""4046""
""fullscreenenter"",""1"",""4147""
","""event"",""trial"",""time""
""blur"",""1"",""2551""
","""event"",""trial"",""time""
""focus"",""1"",""4046""
","""event"",""trial"",""time""
""fullscreenenter"",""1"",""4147""
","
","","","","","","593.1000000014901","images/cow5.png","","","memory_trial","1","definitely_old","","","","","","",""
"html-keyboard-response","199","405669","0.0-15.0-0.78","1486","2","""event"",""trial"",""time""
""blur"",""1"",""2551""
""focus"",""1"",""4046""
""fullscreenenter"",""1"",""4147""
","""event"",""trial"",""time""
""blur"",""1"",""2551""
","""event"",""trial"",""time""
""focus"",""1"",""4046""
","""event"",""trial"",""time""
""fullscreenenter"",""1"",""4147""
","
","","","","","","null","<div style=""font-size:60px;"">+</div>","null","","fixation","","","","","","","","",""
"memory-trial","200","408224","0.0-15.0-1.78","1486","2","""event"",""trial"",""time""
""blur"",""1"",""2551""
""focus"",""1"",""4046""
