"trial_type","trial_index","time_elapsed","internal_node_id","subject_id","task_version","interactions","blur_events","focus_events","fullscreenenter_events","fullscreenexit_events","success","timeout","failed_images","failed_audio","failed_video","rt","stimulus","response","button_pressed","task_part","key_press","answer","correct","left_choice","middle_choice","right_choice","choice_positions","option_selected","block"
"pavlovia","0","4","0.0-0.0","1974","2","""event"",""trial"",""time""
""fullscreenenter"",""1"",""1287""
","
","
","""event"",""trial"",""time""
""fullscreenenter"",""1"",""1287""
","
","","","","","","","","","","","","","","","","","","",""
"fullscreen","1","2276","0.0-1.0","1974","2","""event"",""trial"",""time""
""fullscreenenter"",""1"",""1287""
","
","
","""event"",""trial"",""time""
""fullscreenenter"",""1"",""1287""
","
","true","","","","","","","","","","","","","","","","","",""
"preload","2","3729","0.0-2.0","1974","2","""event"",""trial"",""time""
""fullscreenenter"",""1"",""1287""
","
","
","""event"",""trial"",""time""
""fullscreenenter"",""1"",""1287""
","
","true","false","[]","[]","[]","","","","","","","","","","","","","",""
"audio-keyboard-response","3","6328","0.0-3.0","1974","2","""event"",""trial"",""time""
""fullscreenenter"",""1"",""1287""
","
","
","""event"",""trial"",""time""
""fullscreenenter"",""1"",""1287""
","
","","","","","","2600","audio/beep_loop.wav"," ","","","","","","","","","","",""
"audio-button-response","4","7853","0.0-4.0","1974","2","""event"",""trial"",""time""
""fullscreenenter"",""1"",""1287""
","
","
","""event"",""trial"",""time""
""fullscreenenter"",""1"",""1287""
","
","","","","","","1520","audio/turtle.wav","3","","","","","","","","","","",""
"audio-button-response","5","9751","0.0-5.0","1974","2","""event"",""trial"",""time""
""fullscreenenter"",""1"",""1287""
","
","
","""event"",""trial"",""time""
""fullscreenenter"",""1"",""1287""
","
","","","","","","901","audio/shark.wav","2","","","","","","","","","","",""
"preload","6","13735","0.0-6.0","1974","2","""event"",""trial"",""time""
""fullscreenenter"",""1"",""1287""
""blur"",""7"",""21209""
""focus"",""7"",""22821""
","""event"",""trial"",""time""
""blur"",""7"",""21209""
","""event"",""trial"",""time""
""focus"",""7"",""22821""
","""event"",""trial"",""time""
""fullscreenenter"",""1"",""1287""
","
","true","false","[]","[]","[]","","","","","","","","","","","","","",""
"learning-instructions","7","22887","0.0-7.0-0.0","1974","2","""event"",""trial"",""time""
""fullscreenenter"",""1"",""1287""
""blur"",""7"",""21209""
""focus"",""7"",""22821""
","""event"",""trial"",""time""
""blur"",""7"",""21209""
","""event"",""trial"",""time""
""focus"",""7"",""22821""
","""event"",""trial"",""time""
""fullscreenenter"",""1"",""1287""
","
","","","","","","4340.5","<p> Welcome back! </p><p> Last week, you had to make choices about lots of different items.  </p>","","0","instructions","","","","","","","","",""
"learning-instructions","8","27958","0.0-7.0-0.1","1974","2","""event"",""trial"",""time""
""fullscreenenter"",""1"",""1287""
""blur"",""7"",""21209""
""focus"",""7"",""22821""
","""event"",""trial"",""time""
""blur"",""7"",""21209""
","""event"",""trial"",""time""
""focus"",""7"",""22821""
","""event"",""trial"",""time""
""fullscreenenter"",""1"",""1287""
","
","","","","","","761.7000000476837","<p> Today, we are going to ask you to try to remember all the items. </p>","","0","instructions","","","","","","","","",""
"learning-instructions","9","39718","0.0-7.0-0.2","1974","2","""event"",""trial"",""time""
""fullscreenenter"",""1"",""1287""
""blur"",""7"",""21209""
""focus"",""7"",""22821""
","""event"",""trial"",""time""
""blur"",""7"",""21209""
","""event"",""trial"",""time""
""focus"",""7"",""22821""
","""event"",""trial"",""time""
""fullscreenenter"",""1"",""1287""
","
","","","","","","1621.6000000238419","<p> On every trial, you will see an image. </p><p> The image may be an OLD image you saw during the games last week or it may be a NEW image that was not presented. </p>","","0","instructions","","","","","","","","",""
"learning-instructions","10","49949","0.0-7.0-0.3","1974","2","""event"",""trial"",""time""
""fullscreenenter"",""1"",""1287""
""blur"",""7"",""21209""
""focus"",""7"",""22821""
","""event"",""trial"",""time""
""blur"",""7"",""21209""
","""event"",""trial"",""time""
""focus"",""7"",""22821""
","""event"",""trial"",""time""
""fullscreenenter"",""1"",""1287""
","
","","","","","","1721.7000000476837","<p> You need to select whether the image is:  </p><p>  'Definitely old', 'Maybe old', 'Maybe new', or 'Definitely new.'  </p><div class=""mem-choice-instructions-grid""><div class=""choice-option"" id=""choice-option-1"" ><img src=""images/definitely_old_1.png"" id=""choice-option-img-1"" class=""choice-option-img"" stage=""1""></div><div class=""choice-option"" id=""choice-option-2"" ><img src=""images/maybe_old_1.png"" id=""choice-option-img-2"" class=""choice-option-img"" stage=""1""></div><div class=""choice-option"" id=""choice-option-3"" ><img src=""images/maybe_new_1.png"" id=""choice-option-img-3"" class=""choice-option-img"" stage=""1""></div><div class=""choice-option"" id=""choice-option-4"" > <img src=""images/definitely_new_1.png"" id=""choice-option-img-4"" class=""choice-option-img"" stage=""1""></div></div>","","0","instructions","","","","","","","","",""
"learning-instructions","11","57299","0.0-7.0-0.4","1974","2","""event"",""trial"",""time""
""fullscreenenter"",""1"",""1287""
""blur"",""7"",""21209""
""focus"",""7"",""22821""
","""event"",""trial"",""time""
""blur"",""7"",""21209""
","""event"",""trial"",""time""
""focus"",""7"",""22821""
","""event"",""trial"",""time""
""fullscreenenter"",""1"",""1287""
","
","","","","","","653","<p> You should use the 1, 2, 3, and 4 keys to make your responses.  </p><div class=""mem-choice-instructions-grid""><div class=""choice-option"" id=""choice-option-1"" ><img src=""images/definitely_old.png"" id=""choice-option-img-1"" class=""choice-option-img"" stage=""1""></div><div class=""choice-option"" id=""choice-option-2"" ><img src=""images/maybe_old.png"" id=""choice-option-img-2"" class=""choice-option-img"" stage=""1""></div><div class=""choice-option"" id=""choice-option-3"" ><img src=""images/maybe_new.png"" id=""choice-option-img-3"" class=""choice-option-img"" stage=""1""></div><div class=""choice-option"" id=""choice-option-4"" > <img src=""images/definitely_new.png"" id=""choice-option-img-4"" class=""choice-option-img"" stage=""1""></div></div>","","0","instructions","","","","","","","","",""
"learning-instructions","12","67519","0.0-7.0-0.5","1974","2","""event"",""trial"",""time""
""fullscreenenter"",""1"",""1287""
""blur"",""7"",""21209""
""focus"",""7"",""22821""
","""event"",""trial"",""time""
""blur"",""7"",""21209""
","""event"",""trial"",""time""
""focus"",""7"",""22821""
","""event"",""trial"",""time""
""fullscreenenter"",""1"",""1287""
","
","","","","","","3452.2999999523163","<p> You will have 10 seconds to make each response.  </p><p>  Make sure to respond before time runs out! </p>","","0","instructions","","","","","","","","",""
"learning-instructions","13","76705","0.0-7.0-0.6","1974","2","""event"",""trial"",""time""
""fullscreenenter"",""1"",""1287""
""blur"",""7"",""21209""
""focus"",""7"",""22821""
","""event"",""trial"",""time""
""blur"",""7"",""21209""
","""event"",""trial"",""time""
""focus"",""7"",""22821""
","""event"",""trial"",""time""
""fullscreenenter"",""1"",""1287""
","
","","","","","","1598.6999999284744","<p> Today, you will see each image ONCE only.  </p><p>  That means none of the images will repeat. </p>","","0","instructions","","","","","","","","",""
"learning-instructions","14","91617","0.0-7.0-0.7","1974","2","""event"",""trial"",""time""
""fullscreenenter"",""1"",""1287""
""blur"",""7"",""21209""
""focus"",""7"",""22821""
","""event"",""trial"",""time""
""blur"",""7"",""21209""
","""event"",""trial"",""time""
""focus"",""7"",""22821""
","""event"",""trial"",""time""
""fullscreenenter"",""1"",""1287""
","
","","","","","","2240.5","<p> Before you play the real game, it is time to practice. </p><p>  Just like in the real game, some of the images in the practice will be ones you have seen before. </p><p>  Others will be entirely new. </p>","","0","instructions","","","","","","","","",""
"html-button-response","15","95917","0.0-8.0","1974","2","""event"",""trial"",""time""
""fullscreenenter"",""1"",""1287""
""blur"",""7"",""21209""
""focus"",""7"",""22821""
","""event"",""trial"",""time""
""blur"",""7"",""21209""
","""event"",""trial"",""time""
""focus"",""7"",""22821""
","""event"",""trial"",""time""
""fullscreenenter"",""1"",""1287""
","
","","","","","","4198.299999952316","<p> Ready to practice? </p><p> Remember, use the 1, 2, 3, and 4 keys to make your responses. </p>","0","","instructions","","","","","","","","",""
"html-keyboard-response","16","96534","0.0-9.0-0.0","1974","2","""event"",""trial"",""time""
""fullscreenenter"",""1"",""1287""
""blur"",""7"",""21209""
""focus"",""7"",""22821""
","""event"",""trial"",""time""
""blur"",""7"",""21209""
","""event"",""trial"",""time""
""focus"",""7"",""22821""
","""event"",""trial"",""time""
""fullscreenenter"",""1"",""1287""
","
","","","","","","null","<div style=""font-size:60px;"">+</div>","null","","fixation","","","","","","","","",""
"memory-trial","17","100648","0.0-9.0-1.0","1974","2","""event"",""trial"",""time""
""fullscreenenter"",""1"",""1287""
""blur"",""7"",""21209""
""focus"",""7"",""22821""
","""event"",""trial"",""time""
""blur"",""7"",""21209""
","""event"",""trial"",""time""
""focus"",""7"",""22821""
","""event"",""trial"",""time""
""fullscreenenter"",""1"",""1287""
","
","","","","","","3095.2999999523163","images/ball1.png","","","practice","1","definitely_old","","","","","","",""
"html-keyboard-response","18","101150","0.0-9.0-0.1","1974","2","""event"",""trial"",""time""
""fullscreenenter"",""1"",""1287""
""blur"",""7"",""21209""
""focus"",""7"",""22821""
","""event"",""trial"",""time""
""blur"",""7"",""21209""
","""event"",""trial"",""time""
""focus"",""7"",""22821""
","""event"",""trial"",""time""
""fullscreenenter"",""1"",""1287""
","
","","","","","","null","<div style=""font-size:60px;"">+</div>","null","","fixation","","","","","","","","",""
"memory-trial","19","103175","0.0-9.0-1.1","1974","2","""event"",""trial"",""time""
""fullscreenenter"",""1"",""1287""
""blur"",""7"",""21209""
""focus"",""7"",""22821""
","""event"",""trial"",""time""
""blur"",""7"",""21209""
","""event"",""trial"",""time""
""focus"",""7"",""22821""
","""event"",""trial"",""time""
""fullscreenenter"",""1"",""1287""
","
","","","","","","1016.1999999284744","images/ball4.png","","","practice","1","definitely_old","","","","","","",""
"html-keyboard-response","20","103691","0.0-9.0-0.2","1974","2","""event"",""trial"",""time""
""fullscreenenter"",""1"",""1287""
""blur"",""7"",""21209""
""focus"",""7"",""22821""
","""event"",""trial"",""time""
""blur"",""7"",""21209""
","""event"",""trial"",""time""
""focus"",""7"",""22821""
","""event"",""trial"",""time""
""fullscreenenter"",""1"",""1287""
","
","","","","","","null","<div style=""font-size:60px;"">+</div>","null","","fixation","","","","","","","","",""
"memory-trial","21","106633","0.0-9.0-1.2","1974","2","""event"",""trial"",""time""
""fullscreenenter"",""1"",""1287""
""blur"",""7"",""21209""
""focus"",""7"",""22821""
","""event"",""trial"",""time""
""blur"",""7"",""21209""
","""event"",""trial"",""time""
""focus"",""7"",""22821""
","""event"",""trial"",""time""
""fullscreenenter"",""1"",""1287""
","
","","","","","","1939.3999999761581","images/ball2.png","","","practice","1","definitely_old","","","","","","",""
"html-keyboard-response","22","107146","0.0-9.0-0.3","1974","2","""event"",""trial"",""time""
""fullscreenenter"",""1"",""1287""
""blur"",""7"",""21209""
""focus"",""7"",""22821""
","""event"",""trial"",""time""
""blur"",""7"",""21209""
","""event"",""trial"",""time""
""focus"",""7"",""22821""
","""event"",""trial"",""time""
""fullscreenenter"",""1"",""1287""
","
","","","","","","null","<div style=""font-size:60px;"">+</div>","null","","fixation","","","","","","","","",""
"memory-trial","23","111961","0.0-9.0-1.3","1974","2","""event"",""trial"",""time""
""fullscreenenter"",""1"",""1287""
""blur"",""7"",""21209""
""focus"",""7"",""22821""
","""event"",""trial"",""time""
""blur"",""7"",""21209""
","""event"",""trial"",""time""
""focus"",""7"",""22821""
","""event"",""trial"",""time""
""fullscreenenter"",""1"",""1287""
","
","","","","","","3810.7000000476837","images/ball3.png","","","practice","3","maybe_new","","","","","","",""
"html-keyboard-response","24","112462","0.0-9.0-0.4","1974","2","""event"",""trial"",""time""
""fullscreenenter"",""1"",""1287""
""blur"",""7"",""21209""
""focus"",""7"",""22821""
","""event"",""trial"",""time""
""blur"",""7"",""21209""
","""event"",""trial"",""time""
""focus"",""7"",""22821""
","""event"",""trial"",""time""
""fullscreenenter"",""1"",""1287""
","
","","","","","","null","<div style=""font-size:60px;"">+</div>","null","","fixation","","","","","","","","",""
"memory-trial","25","114668","0.0-9.0-1.4","1974","2","""event"",""trial"",""time""
""fullscreenenter"",""1"",""1287""
""blur"",""7"",""21209""
""focus"",""7"",""22821""
","""event"",""trial"",""time""
""blur"",""7"",""21209""
","""event"",""trial"",""time""
""focus"",""7"",""22821""
","""event"",""trial"",""time""
""fullscreenenter"",""1"",""1287""
","
","","","","","","1192","images/racket2.png","","","practice","3","maybe_new","","","","","","",""
"html-keyboard-response","26","115182","0.0-9.0-0.5","1974","2","""event"",""trial"",""time""
""fullscreenenter"",""1"",""1287""
""blur"",""7"",""21209""
""focus"",""7"",""22821""
","""event"",""trial"",""time""
""blur"",""7"",""21209""
","""event"",""trial"",""time""
""focus"",""7"",""22821""
","""event"",""trial"",""time""
""fullscreenenter"",""1"",""1287""
","
","","","","","","null","<div style=""font-size:60px;"">+</div>","null","","fixation","","","","","","","","",""
"memory-trial","27","120424","0.0-9.0-1.5","1974","2","""event"",""trial"",""time""
""fullscreenenter"",""1"",""1287""
""blur"",""7"",""21209""
""focus"",""7"",""22821""
","""event"",""trial"",""time""
""blur"",""7"",""21209""
","""event"",""trial"",""time""
""focus"",""7"",""22821""
","""event"",""trial"",""time""
""fullscreenenter"",""1"",""1287""
","
","","","","","","4238.899999976158","images/racket4.png","","","practice","4","definitely_new","","","","","","",""
"html-keyboard-response","28","120926","0.0-9.0-0.6","1974","2","""event"",""trial"",""time""
""fullscreenenter"",""1"",""1287""
""blur"",""7"",""21209""
""focus"",""7"",""22821""
","""event"",""trial"",""time""
""blur"",""7"",""21209""
","""event"",""trial"",""time""
""focus"",""7"",""22821""
","""event"",""trial"",""time""
""fullscreenenter"",""1"",""1287""
","
","","","","","","null","<div style=""font-size:60px;"">+</div>","null","","fixation","","","","","","","","",""
"memory-trial","29","123168","0.0-9.0-1.6","1974","2","""event"",""trial"",""time""
""fullscreenenter"",""1"",""1287""
""blur"",""7"",""21209""
""focus"",""7"",""22821""
","""event"",""trial"",""time""
""blur"",""7"",""21209""
","""event"",""trial"",""time""
""focus"",""7"",""22821""
","""event"",""trial"",""time""
""fullscreenenter"",""1"",""1287""
","
","","","","","","1239.1000000238419","images/racket3.png","","","practice","4","definitely_new","","","","","","",""
"html-keyboard-response","30","123669","0.0-9.0-0.7","1974","2","""event"",""trial"",""time""
""fullscreenenter"",""1"",""1287""
""blur"",""7"",""21209""
""focus"",""7"",""22821""
","""event"",""trial"",""time""
""blur"",""7"",""21209""
","""event"",""trial"",""time""
""focus"",""7"",""22821""
","""event"",""trial"",""time""
""fullscreenenter"",""1"",""1287""
","
","","","","","","null","<div style=""font-size:60px;"">+</div>","null","","fixation","","","","","","","","",""
"memory-trial","31","125369","0.0-9.0-1.7","1974","2","""event"",""trial"",""time""
""fullscreenenter"",""1"",""1287""
""blur"",""7"",""21209""
""focus"",""7"",""22821""
","""event"",""trial"",""time""
""blur"",""7"",""21209""
","""event"",""trial"",""time""
""focus"",""7"",""22821""
","""event"",""trial"",""time""
""fullscreenenter"",""1"",""1287""
","
","","","","","","697.8000000715256","images/racket1.png","","","practice","4","definitely_new","","","","","","",""
"learning-instructions","32","134740","0.0-10.0-0.0","1974","2","""event"",""trial"",""time""
""fullscreenenter"",""1"",""1287""
""blur"",""7"",""21209""
""focus"",""7"",""22821""
","""event"",""trial"",""time""
""blur"",""7"",""21209""
","""event"",""trial"",""time""
""focus"",""7"",""22821""
","""event"",""trial"",""time""
""fullscreenenter"",""1"",""1287""
","
","","","","","","1116.6000000238419","<p> Great! You have completed the practice. </p><p> Before you start, we're going to ask you a few questions about how the game works.  </p>","","0","instructions","","","","","","","","",""
"preload","33","137178","0.0-11.0","1974","2","""event"",""trial"",""time""
""fullscreenenter"",""1"",""1287""
""blur"",""7"",""21209""
""focus"",""7"",""22821""
","""event"",""trial"",""time""
""blur"",""7"",""21209""
","""event"",""trial"",""time""
""focus"",""7"",""22821""
","""event"",""trial"",""time""
""fullscreenenter"",""1"",""1287""
","
","true","false","[]","[]","[]","","","","","","","","","","","","","",""
"comp-q","34","143722","0.0-12.0-0.0","1974","2","""event"",""trial"",""time""
""fullscreenenter"",""1"",""1287""
""blur"",""7"",""21209""
""focus"",""7"",""22821""
""blur"",""35"",""147414""
""focus"",""35"",""147527""
","""event"",""trial"",""time""
""blur"",""7"",""21209""
""blur"",""35"",""147414""
","""event"",""trial"",""time""
""focus"",""7"",""22821""
""focus"",""35"",""147527""
","""event"",""trial"",""time""
""fullscreenenter"",""1"",""1287""
","
","","","","","","718.6999999284744","<p> <b> True or False? </b> </p><p> In this game, you will only see each image once. </p>","","0","comp_question","","","true","","","","","",""
"comp-q","35","151674","0.0-12.0-1.0","1974","2","""event"",""trial"",""time""
""fullscreenenter"",""1"",""1287""
""blur"",""7"",""21209""
""focus"",""7"",""22821""
""blur"",""35"",""147414""
""focus"",""35"",""147527""
","""event"",""trial"",""time""
""blur"",""7"",""21209""
""blur"",""35"",""147414""
","""event"",""trial"",""time""
""focus"",""7"",""22821""
""focus"",""35"",""147527""
","""event"",""trial"",""time""
""fullscreenenter"",""1"",""1287""
","
","","","","","","1601","<p> <b> That's right! </b> You will see many different images <i> one time each </i> in this game. </p>","","0","comp_answer","","","","","","","","",""
"comp-q","36","158103","0.0-12.0-0.1","1974","2","""event"",""trial"",""time""
""fullscreenenter"",""1"",""1287""
""blur"",""7"",""21209""
""focus"",""7"",""22821""
""blur"",""35"",""147414""
""focus"",""35"",""147527""
","""event"",""trial"",""time""
""blur"",""7"",""21209""
""blur"",""35"",""147414""
","""event"",""trial"",""time""
""focus"",""7"",""22821""
""focus"",""35"",""147527""
","""event"",""trial"",""time""
""fullscreenenter"",""1"",""1287""
","
","","","","","","619.2000000476837","<p> <b> True or False? </b> </p><p> You should use the mouse and click to make your response. </p>","","1","comp_question","","","true","","","","","",""
"comp-q","37","170915","0.0-12.0-1.1","1974","2","""event"",""trial"",""time""
""fullscreenenter"",""1"",""1287""
""blur"",""7"",""21209""
""focus"",""7"",""22821""
""blur"",""35"",""147414""
""focus"",""35"",""147527""
","""event"",""trial"",""time""
""blur"",""7"",""21209""
""blur"",""35"",""147414""
","""event"",""trial"",""time""
""focus"",""7"",""22821""
""focus"",""35"",""147527""
","""event"",""trial"",""time""
""fullscreenenter"",""1"",""1287""
","
","","","","","","5450.899999976158","<p><b> That's right! </b> You should use the '1', '2', '3', and '4' keys to make your response. </p>","","0","comp_answer","","","","","","","","",""
"comp-q","38","177816","0.0-12.0-0.2","1974","2","""event"",""trial"",""time""
""fullscreenenter"",""1"",""1287""
""blur"",""7"",""21209""
""focus"",""7"",""22821""
""blur"",""35"",""147414""
""focus"",""35"",""147527""
","""event"",""trial"",""time""
""blur"",""7"",""21209""
""blur"",""35"",""147414""
","""event"",""trial"",""time""
""focus"",""7"",""22821""
""focus"",""35"",""147527""
","""event"",""trial"",""time""
""fullscreenenter"",""1"",""1287""
","
","","","","","","912.4000000953674","<p> <b> True or False? </b> </p><p> You will have as much time as you want to make each choice. </p>","","0","comp_question","","","false","","","","","",""
"comp-q","39","184104","0.0-12.0-1.2","1974","2","""event"",""trial"",""time""
""fullscreenenter"",""1"",""1287""
""blur"",""7"",""21209""
""focus"",""7"",""22821""
""blur"",""35"",""147414""
""focus"",""35"",""147527""
","""event"",""trial"",""time""
""blur"",""7"",""21209""
""blur"",""35"",""147414""
","""event"",""trial"",""time""
""focus"",""7"",""22821""
""focus"",""35"",""147527""
","""event"",""trial"",""time""
""fullscreenenter"",""1"",""1287""
","
","","","","","","970.6999999284744","<p> <b>Incorrect.</b> You will only have 10 seconds to make each choice.</p>","","0","comp_answer","","","","","","","","",""
"learning-instructions","40","195856","0.0-13.0","1974","2","""event"",""trial"",""time""
""fullscreenenter"",""1"",""1287""
""blur"",""7"",""21209""
""focus"",""7"",""22821""
""blur"",""35"",""147414""
""focus"",""35"",""147527""
","""event"",""trial"",""time""
""blur"",""7"",""21209""
""blur"",""35"",""147414""
","""event"",""trial"",""time""
""focus"",""7"",""22821""
""focus"",""35"",""147527""
","""event"",""trial"",""time""
""fullscreenenter"",""1"",""1287""
","
","","","","","","3082","<p> Great! You are now ready to begin the game. </p><p> Remember, use the 1, 2, 3, and 4 keys to make your responses. </p>","","0","instructions","","","","","","","","",""
"preload","41","199599","0.0-14.0","1974","2","""event"",""trial"",""time""
""fullscreenenter"",""1"",""1287""
""blur"",""7"",""21209""
""focus"",""7"",""22821""
""blur"",""35"",""147414""
""focus"",""35"",""147527""
","""event"",""trial"",""time""
""blur"",""7"",""21209""
""blur"",""35"",""147414""
","""event"",""trial"",""time""
""focus"",""7"",""22821""
""focus"",""35"",""147527""
","""event"",""trial"",""time""
""fullscreenenter"",""1"",""1287""
","
","true","false","[]","[]","[]","","","","","","","","","","","","","",""
"html-keyboard-response","42","200100","0.0-15.0-0.0","1974","2","""event"",""trial"",""time""
""fullscreenenter"",""1"",""1287""
""blur"",""7"",""21209""
""focus"",""7"",""22821""
""blur"",""35"",""147414""
""focus"",""35"",""147527""
","""event"",""trial"",""time""
""blur"",""7"",""21209""
""blur"",""35"",""147414""
","""event"",""trial"",""time""
""focus"",""7"",""22821""
""focus"",""35"",""147527""
","""event"",""trial"",""time""
""fullscreenenter"",""1"",""1287""
","
","","","","","","null","<div style=""font-size:60px;"">+</div>","null","","fixation","","","","","","","","",""
"memory-trial","43","203416","0.0-15.0-1.0","1974","2","""event"",""trial"",""time""
""fullscreenenter"",""1"",""1287""
""blur"",""7"",""21209""
""focus"",""7"",""22821""
""blur"",""35"",""147414""
""focus"",""35"",""147527""
","""event"",""trial"",""time""
""blur"",""7"",""21209""
""blur"",""35"",""147414""
","""event"",""trial"",""time""
""focus"",""7"",""22821""
""focus"",""35"",""147527""
","""event"",""trial"",""time""
""fullscreenenter"",""1"",""1287""
","
","","","","","","2314.2000000476837","images/train5.png","","","memory_trial","1","definitely_old","","","","","","",""
"html-keyboard-response","44","203927","0.0-15.0-0.1","1974","2","""event"",""trial"",""time""
""fullscreenenter"",""1"",""1287""
""blur"",""7"",""21209""
""focus"",""7"",""22821""
""blur"",""35"",""147414""
""focus"",""35"",""147527""
","""event"",""trial"",""time""
""blur"",""7"",""21209""
""blur"",""35"",""147414""
","""event"",""trial"",""time""
""focus"",""7"",""22821""
""focus"",""35"",""147527""
","""event"",""trial"",""time""
""fullscreenenter"",""1"",""1287""
","
","","","","","","null","<div style=""font-size:60px;"">+</div>","null","","fixation","","","","","","","","",""
"memory-trial","45","205974","0.0-15.0-1.1","1974","2","""event"",""trial"",""time""
""fullscreenenter"",""1"",""1287""
""blur"",""7"",""21209""
""focus"",""7"",""22821""
""blur"",""35"",""147414""
""focus"",""35"",""147527""
","""event"",""trial"",""time""
""blur"",""7"",""21209""
""blur"",""35"",""147414""
","""event"",""trial"",""time""
""focus"",""7"",""22821""
""focus"",""35"",""147527""
","""event"",""trial"",""time""
""fullscreenenter"",""1"",""1287""
","
","","","","","","1038.2000000476837","images/boat3.png","","","memory_trial","1","definitely_old","","","","","","",""
"html-keyboard-response","46","206475","0.0-15.0-0.2","1974","2","""event"",""trial"",""time""
""fullscreenenter"",""1"",""1287""
""blur"",""7"",""21209""
""focus"",""7"",""22821""
""blur"",""35"",""147414""
""focus"",""35"",""147527""
","""event"",""trial"",""time""
""blur"",""7"",""21209""
""blur"",""35"",""147414""
","""event"",""trial"",""time""
""focus"",""7"",""22821""
""focus"",""35"",""147527""
","""event"",""trial"",""time""
""fullscreenenter"",""1"",""1287""
","
","","","","","","null","<div style=""font-size:60px;"">+</div>","null","","fixation","","","","","","","","",""
"memory-trial","47","209120","0.0-15.0-1.2","1974","2","""event"",""trial"",""time""
""fullscreenenter"",""1"",""1287""
""blur"",""7"",""21209""
""focus"",""7"",""22821""
""blur"",""35"",""147414""
""focus"",""35"",""147527""
","""event"",""trial"",""time""
""blur"",""7"",""21209""
""blur"",""35"",""147414""
","""event"",""trial"",""time""
""focus"",""7"",""22821""
""focus"",""35"",""147527""
","""event"",""trial"",""time""
""fullscreenenter"",""1"",""1287""
","
","","","","","","1644.3999999761581","images/plane2.png","","","memory_trial","3","maybe_new","","","","","","",""
"html-keyboard-response","48","209622","0.0-15.0-0.3","1974","2","""event"",""trial"",""time""
""fullscreenenter"",""1"",""1287""
""blur"",""7"",""21209""
""focus"",""7"",""22821""
""blur"",""35"",""147414""
""focus"",""35"",""147527""
","""event"",""trial"",""time""
""blur"",""7"",""21209""
""blur"",""35"",""147414""
","""event"",""trial"",""time""
""focus"",""7"",""22821""
""focus"",""35"",""147527""
","""event"",""trial"",""time""
""fullscreenenter"",""1"",""1287""
","
","","","","","","null","<div style=""font-size:60px;"">+</div>","null","","fixation","","","","","","","","",""
"memory-trial","49","212160","0.0-15.0-1.3","1974","2","""event"",""trial"",""time""
""fullscreenenter"",""1"",""1287""
""blur"",""7"",""21209""
""focus"",""7"",""22821""
""blur"",""35"",""147414""
""focus"",""35"",""147527""
","""event"",""trial"",""time""
""blur"",""7"",""21209""
""blur"",""35"",""147414""
","""event"",""trial"",""time""
""focus"",""7"",""22821""
""focus"",""35"",""147527""
","""event"",""trial"",""time""
""fullscreenenter"",""1"",""1287""
","
","","","","","","1521","images/goat4.png","","","memory_trial","4","definitely_new","","","","","","",""
"html-keyboard-response","50","212673","0.0-15.0-0.4","1974","2","""event"",""trial"",""time""
""fullscreenenter"",""1"",""1287""
""blur"",""7"",""21209""
""focus"",""7"",""22821""
""blur"",""35"",""147414""
""focus"",""35"",""147527""
","""event"",""trial"",""time""
""blur"",""7"",""21209""
""blur"",""35"",""147414""
","""event"",""trial"",""time""
""focus"",""7"",""22821""
""focus"",""35"",""147527""
","""event"",""trial"",""time""
""fullscreenenter"",""1"",""1287""
","
","","","","","","null","<div style=""font-size:60px;"">+</div>","null","","fixation","","","","","","","","",""
"memory-trial","51","214896","0.0-15.0-1.4","1974","2","""event"",""trial"",""time""
""fullscreenenter"",""1"",""1287""
""blur"",""7"",""21209""
""focus"",""7"",""22821""
""blur"",""35"",""147414""
""focus"",""35"",""147527""
","""event"",""trial"",""time""
""blur"",""7"",""21209""
""blur"",""35"",""147414""
","""event"",""trial"",""time""
""focus"",""7"",""22821""
""focus"",""35"",""147527""
","""event"",""trial"",""time""
""fullscreenenter"",""1"",""1287""
","
","","","","","","1220.9000000953674","images/orange3.png","","","memory_trial","1","definitely_old","","","","","","",""
"html-keyboard-response","52","215398","0.0-15.0-0.5","1974","2","""event"",""trial"",""time""
""fullscreenenter"",""1"",""1287""
""blur"",""7"",""21209""
""focus"",""7"",""22821""
""blur"",""35"",""147414""
""focus"",""35"",""147527""
","""event"",""trial"",""time""
""blur"",""7"",""21209""
""blur"",""35"",""147414""
","""event"",""trial"",""time""
""focus"",""7"",""22821""
""focus"",""35"",""147527""
","""event"",""trial"",""time""
""fullscreenenter"",""1"",""1287""
","
","","","","","","null","<div style=""font-size:60px;"">+</div>","null","","fixation","","","","","","","","",""
"memory-trial","53","218097","0.0-15.0-1.5","1974","2","""event"",""trial"",""time""
""fullscreenenter"",""1"",""1287""
""blur"",""7"",""21209""
""focus"",""7"",""22821""
""blur"",""35"",""147414""
""focus"",""35"",""147527""
","""event"",""trial"",""time""
""blur"",""7"",""21209""
""blur"",""35"",""147414""
","""event"",""trial"",""time""
""focus"",""7"",""22821""
""focus"",""35"",""147527""
","""event"",""trial"",""time""
""fullscreenenter"",""1"",""1287""
","
","","","","","","1689.6999999284744","images/cactus1.png","","","memory_trial","3","maybe_new","","","","","","",""
"html-keyboard-response","54","218612","0.0-15.0-0.6","1974","2","""event"",""trial"",""time""
""fullscreenenter"",""1"",""1287""
""blur"",""7"",""21209""
""focus"",""7"",""22821""
""blur"",""35"",""147414""
""focus"",""35"",""147527""
","""event"",""trial"",""time""
""blur"",""7"",""21209""
""blur"",""35"",""147414""
","""event"",""trial"",""time""
""focus"",""7"",""22821""
""focus"",""35"",""147527""
","""event"",""trial"",""time""
""fullscreenenter"",""1"",""1287""
","
","","","","","","null","<div style=""font-size:60px;"">+</div>","null","","fixation","","","","","","","","",""
"memory-trial","55","220685","0.0-15.0-1.6","1974","2","""event"",""trial"",""time""
""fullscreenenter"",""1"",""1287""
""blur"",""7"",""21209""
""focus"",""7"",""22821""
""blur"",""35"",""147414""
""focus"",""35"",""147527""
","""event"",""trial"",""time""
""blur"",""7"",""21209""
""blur"",""35"",""147414""
","""event"",""trial"",""time""
""focus"",""7"",""22821""
""focus"",""35"",""147527""
","""event"",""trial"",""time""
""fullscreenenter"",""1"",""1287""
","
","","","","","","1057.2999999523163","images/sofa1.png","","","memory_trial","1","definitely_old","","","","","","",""
"html-keyboard-response","56","221198","0.0-15.0-0.7","1974","2","""event"",""trial"",""time""
""fullscreenenter"",""1"",""1287""
""blur"",""7"",""21209""
""focus"",""7"",""22821""
""blur"",""35"",""147414""
""focus"",""35"",""147527""
","""event"",""trial"",""time""
""blur"",""7"",""21209""
""blur"",""35"",""147414""
","""event"",""trial"",""time""
""focus"",""7"",""22821""
""focus"",""35"",""147527""
","""event"",""trial"",""time""
""fullscreenenter"",""1"",""1287""
","
","","","","","","null","<div style=""font-size:60px;"">+</div>","null","","fixation","","","","","","","","",""
"memory-trial","57","223368","0.0-15.0-1.7","1974","2","""event"",""trial"",""time""
""fullscreenenter"",""1"",""1287""
""blur"",""7"",""21209""
""focus"",""7"",""22821""
""blur"",""35"",""147414""
""focus"",""35"",""147527""
","""event"",""trial"",""time""
""blur"",""7"",""21209""
""blur"",""35"",""147414""
","""event"",""trial"",""time""
""focus"",""7"",""22821""
""focus"",""35"",""147527""
","""event"",""trial"",""time""
""fullscreenenter"",""1"",""1287""
","
","","","","","","1168.3000000715256","images/feline5.png","","","memory_trial","1","definitely_old","","","","","","",""
"html-keyboard-response","58","223869","0.0-15.0-0.8","1974","2","""event"",""trial"",""time""
""fullscreenenter"",""1"",""1287""
""blur"",""7"",""21209""
""focus"",""7"",""22821""
""blur"",""35"",""147414""
""focus"",""35"",""147527""
","""event"",""trial"",""time""
""blur"",""7"",""21209""
""blur"",""35"",""147414""
","""event"",""trial"",""time""
""focus"",""7"",""22821""
""focus"",""35"",""147527""
","""event"",""trial"",""time""
""fullscreenenter"",""1"",""1287""
","
","","","","","","null","<div style=""font-size:60px;"">+</div>","null","","fixation","","","","","","","","",""
"memory-trial","59","225928","0.0-15.0-1.8","1974","2","""event"",""trial"",""time""
""fullscreenenter"",""1"",""1287""
""blur"",""7"",""21209""
""focus"",""7"",""22821""
""blur"",""35"",""147414""
""focus"",""35"",""147527""
","""event"",""trial"",""time""
""blur"",""7"",""21209""
""blur"",""35"",""147414""
","""event"",""trial"",""time""
""focus"",""7"",""22821""
""focus"",""35"",""147527""
","""event"",""trial"",""time""
""fullscreenenter"",""1"",""1287""
","
","","","","","","1056.7000000476837","images/tree3.png","","","memory_trial","4","definitely_new","","","","","","",""
"html-keyboard-response","60","226429","0.0-15.0-0.9","1974","2","""event"",""trial"",""time""
""fullscreenenter"",""1"",""1287""
""blur"",""7"",""21209""
""focus"",""7"",""22821""
""blur"",""35"",""147414""
""focus"",""35"",""147527""
","""event"",""trial"",""time""
""blur"",""7"",""21209""
""blur"",""35"",""147414""
","""event"",""trial"",""time""
""focus"",""7"",""22821""
""focus"",""35"",""147527""
","""event"",""trial"",""time""
""fullscreenenter"",""1"",""1287""
","
","","","","","","null","<div style=""font-size:60px;"">+</div>","null","","fixation","","","","","","","","",""
"memory-trial","61","228513","0.0-15.0-1.9","1974","2","""event"",""trial"",""time""
""fullscreenenter"",""1"",""1287""
""blur"",""7"",""21209""
""focus"",""7"",""22821""
""blur"",""35"",""147414""
""focus"",""35"",""147527""
","""event"",""trial"",""time""
""blur"",""7"",""21209""
""blur"",""35"",""147414""
","""event"",""trial"",""time""
""focus"",""7"",""22821""
""focus"",""35"",""147527""
","""event"",""trial"",""time""
""fullscreenenter"",""1"",""1287""
","
","","","","","","1080.6000000238419","images/tree1.png","","","memory_trial","1","definitely_old","","","","","","",""
"html-keyboard-response","62","229015","0.0-15.0-0.10","1974","2","""event"",""trial"",""time""
""fullscreenenter"",""1"",""1287""
""blur"",""7"",""21209""
""focus"",""7"",""22821""
""blur"",""35"",""147414""
""focus"",""35"",""147527""
","""event"",""trial"",""time""
""blur"",""7"",""21209""
""blur"",""35"",""147414""
","""event"",""trial"",""time""
""focus"",""7"",""22821""
""focus"",""35"",""147527""
","""event"",""trial"",""time""
""fullscreenenter"",""1"",""1287""
","
","","","","","","null","<div style=""font-size:60px;"">+</div>","null","","fixation","","","","","","","","",""
"memory-trial","63","231825","0.0-15.0-1.10","1974","2","""event"",""trial"",""time""
""fullscreenenter"",""1"",""1287""
""blur"",""7"",""21209""
""focus"",""7"",""22821""
""blur"",""35"",""147414""
""focus"",""35"",""147527""
","""event"",""trial"",""time""
""blur"",""7"",""21209""
""blur"",""35"",""147414""
","""event"",""trial"",""time""
""focus"",""7"",""22821""
""focus"",""35"",""147527""
","""event"",""trial"",""time""
""fullscreenenter"",""1"",""1287""
","
","","","","","","1807.7000000476837","images/goat2.png","","","memory_trial","3","maybe_new","","","","","","",""
"html-keyboard-response","64","232326","0.0-15.0-0.11","1974","2","""event"",""trial"",""time""
""fullscreenenter"",""1"",""1287""
""blur"",""7"",""21209""
""focus"",""7"",""22821""
""blur"",""35"",""147414""
""focus"",""35"",""147527""
","""event"",""trial"",""time""
""blur"",""7"",""21209""
""blur"",""35"",""147414""
","""event"",""trial"",""time""
""focus"",""7"",""22821""
""focus"",""35"",""147527""
","""event"",""trial"",""time""
""fullscreenenter"",""1"",""1287""
","
","","","","","","null","<div style=""font-size:60px;"">+</div>","null","","fixation","","","","","","","","",""
"memory-trial","65","235944","0.0-15.0-1.11","1974","2","""event"",""trial"",""time""
""fullscreenenter"",""1"",""1287""
""blur"",""7"",""21209""
""focus"",""7"",""22821""
""blur"",""35"",""147414""
""focus"",""35"",""147527""
","""event"",""trial"",""time""
""blur"",""7"",""21209""
""blur"",""35"",""147414""
","""event"",""trial"",""time""
""focus"",""7"",""22821""
""focus"",""35"",""147527""
","""event"",""trial"",""time""
""fullscreenenter"",""1"",""1287""
","
","","","","","","2614.9000000953674","images/apple3.png","","","memory_trial","1","definitely_old","","","","","","",""
"html-keyboard-response","66","236445","0.0-15.0-0.12","1974","2","""event"",""trial"",""time""
""fullscreenenter"",""1"",""1287""
""blur"",""7"",""21209""
""focus"",""7"",""22821""
""blur"",""35"",""147414""
""focus"",""35"",""147527""
","""event"",""trial"",""time""
""blur"",""7"",""21209""
""blur"",""35"",""147414""
","""event"",""trial"",""time""
""focus"",""7"",""22821""
""focus"",""35"",""147527""
","""event"",""trial"",""time""
""fullscreenenter"",""1"",""1287""
","
","","","","","","null","<div style=""font-size:60px;"">+</div>","null","","fixation","","","","","","","","",""
"memory-trial","67","238545","0.0-15.0-1.12","1974","2","""event"",""trial"",""time""
""fullscreenenter"",""1"",""1287""
""blur"",""7"",""21209""
""focus"",""7"",""22821""
""blur"",""35"",""147414""
""focus"",""35"",""147527""
","""event"",""trial"",""time""
""blur"",""7"",""21209""
""blur"",""35"",""147414""
","""event"",""trial"",""time""
""focus"",""7"",""22821""
""focus"",""35"",""147527""
","""event"",""trial"",""time""
""fullscreenenter"",""1"",""1287""
","
","","","","","","1096.6000000238419","images/straw3.png","","","memory_trial","1","definitely_old","","","","","","",""
"html-keyboard-response","68","239047","0.0-15.0-0.13","1974","2","""event"",""trial"",""time""
""fullscreenenter"",""1"",""1287""
""blur"",""7"",""21209""
""focus"",""7"",""22821""
""blur"",""35"",""147414""
""focus"",""35"",""147527""
","""event"",""trial"",""time""
""blur"",""7"",""21209""
""blur"",""35"",""147414""
","""event"",""trial"",""time""
""focus"",""7"",""22821""
""focus"",""35"",""147527""
","""event"",""trial"",""time""
""fullscreenenter"",""1"",""1287""
","
","","","","","","null","<div style=""font-size:60px;"">+</div>","null","","fixation","","","","","","","","",""
"memory-trial","69","241019","0.0-15.0-1.13","1974","2","""event"",""trial"",""time""
""fullscreenenter"",""1"",""1287""
""blur"",""7"",""21209""
""focus"",""7"",""22821""
""blur"",""35"",""147414""
""focus"",""35"",""147527""
","""event"",""trial"",""time""
""blur"",""7"",""21209""
""blur"",""35"",""147414""
","""event"",""trial"",""time""
""focus"",""7"",""22821""
""focus"",""35"",""147527""
","""event"",""trial"",""time""
""fullscreenenter"",""1"",""1287""
","
","","","","","","970.2000000476837","images/straw5.png","","","memory_trial","2","maybe_old","","","","","","",""
"html-keyboard-response","70","241520","0.0-15.0-0.14","1974","2","""event"",""trial"",""time""
""fullscreenenter"",""1"",""1287""
""blur"",""7"",""21209""
""focus"",""7"",""22821""
""blur"",""35"",""147414""
""focus"",""35"",""147527""
","""event"",""trial"",""time""
""blur"",""7"",""21209""
""blur"",""35"",""147414""
","""event"",""trial"",""time""
""focus"",""7"",""22821""
""focus"",""35"",""147527""
","""event"",""trial"",""time""
""fullscreenenter"",""1"",""1287""
","
","","","","","","null","<div style=""font-size:60px;"">+</div>","null","","fixation","","","","","","","","",""
"memory-trial","71","243642","0.0-15.0-1.14","1974","2","""event"",""trial"",""time""
""fullscreenenter"",""1"",""1287""
""blur"",""7"",""21209""
""focus"",""7"",""22821""
""blur"",""35"",""147414""
""focus"",""35"",""147527""
","""event"",""trial"",""time""
""blur"",""7"",""21209""
""blur"",""35"",""147414""
","""event"",""trial"",""time""
""focus"",""7"",""22821""
""focus"",""35"",""147527""
","""event"",""trial"",""time""
""fullscreenenter"",""1"",""1287""
","
","","","","","","1118.6000000238419","images/plane4.png","","","memory_trial","3","maybe_new","","","","","","",""
"html-keyboard-response","72","244143","0.0-15.0-0.15","1974","2","""event"",""trial"",""time""
""fullscreenenter"",""1"",""1287""
""blur"",""7"",""21209""
""focus"",""7"",""22821""
""blur"",""35"",""147414""
""focus"",""35"",""147527""
","""event"",""trial"",""time""
""blur"",""7"",""21209""
""blur"",""35"",""147414""
","""event"",""trial"",""time""
""focus"",""7"",""22821""
""focus"",""35"",""147527""
","""event"",""trial"",""time""
""fullscreenenter"",""1"",""1287""
","
","","","","","","null","<div style=""font-size:60px;"">+</div>","null","","fixation","","","","","","","","",""
"memory-trial","73","246562","0.0-15.0-1.15","1974","2","""event"",""trial"",""time""
""fullscreenenter"",""1"",""1287""
""blur"",""7"",""21209""
""focus"",""7"",""22821""
""blur"",""35"",""147414""
""focus"",""35"",""147527""
","""event"",""trial"",""time""
""blur"",""7"",""21209""
""blur"",""35"",""147414""
","""event"",""trial"",""time""
""focus"",""7"",""22821""
""focus"",""35"",""147527""
","""event"",""trial"",""time""
""fullscreenenter"",""1"",""1287""
","
","","","","","","1414.7000000476837","images/banana1.png","","","memory_trial","1","definitely_old","","","","","","",""
"html-keyboard-response","74","247064","0.0-15.0-0.16","1974","2","""event"",""trial"",""time""
""fullscreenenter"",""1"",""1287""
""blur"",""7"",""21209""
""focus"",""7"",""22821""
""blur"",""35"",""147414""
""focus"",""35"",""147527""
","""event"",""trial"",""time""
""blur"",""7"",""21209""
""blur"",""35"",""147414""
","""event"",""trial"",""time""
""focus"",""7"",""22821""
""focus"",""35"",""147527""
","""event"",""trial"",""time""
""fullscreenenter"",""1"",""1287""
","
","","","","","","null","<div style=""font-size:60px;"">+</div>","null","","fixation","","","","","","","","",""
"memory-trial","75","251497","0.0-15.0-1.16","1974","2","""event"",""trial"",""time""
""fullscreenenter"",""1"",""1287""
""blur"",""7"",""21209""
""focus"",""7"",""22821""
""blur"",""35"",""147414""
""focus"",""35"",""147527""
","""event"",""trial"",""time""
""blur"",""7"",""21209""
""blur"",""35"",""147414""
","""event"",""trial"",""time""
""focus"",""7"",""22821""
""focus"",""35"",""147527""
","""event"",""trial"",""time""
""fullscreenenter"",""1"",""1287""
","
","","","","","","3430.4000000953674","images/truck3.png","","","memory_trial","3","maybe_new","","","","","","",""
"html-keyboard-response","76","251998","0.0-15.0-0.17","1974","2","""event"",""trial"",""time""
""fullscreenenter"",""1"",""1287""
""blur"",""7"",""21209""
""focus"",""7"",""22821""
""blur"",""35"",""147414""
""focus"",""35"",""147527""
","""event"",""trial"",""time""
""blur"",""7"",""21209""
""blur"",""35"",""147414""
","""event"",""trial"",""time""
""focus"",""7"",""22821""
""focus"",""35"",""147527""
","""event"",""trial"",""time""
""fullscreenenter"",""1"",""1287""
","
","","","","","","null","<div style=""font-size:60px;"">+</div>","null","","fixation","","","","","","","","",""
"memory-trial","77","254128","0.0-15.0-1.17","1974","2","""event"",""trial"",""time""
""fullscreenenter"",""1"",""1287""
""blur"",""7"",""21209""
""focus"",""7"",""22821""
""blur"",""35"",""147414""
""focus"",""35"",""147527""
","""event"",""trial"",""time""
""blur"",""7"",""21209""
""blur"",""35"",""147414""
","""event"",""trial"",""time""
""focus"",""7"",""22821""
""focus"",""35"",""147527""
","""event"",""trial"",""time""
""fullscreenenter"",""1"",""1287""
","
","","","","","","1128.1000000238419","images/tree5.png","","","memory_trial","1","definitely_old","","","","","","",""
"html-keyboard-response","78","254630","0.0-15.0-0.18","1974","2","""event"",""trial"",""time""
""fullscreenenter"",""1"",""1287""
""blur"",""7"",""21209""
""focus"",""7"",""22821""
""blur"",""35"",""147414""
""focus"",""35"",""147527""
","""event"",""trial"",""time""
""blur"",""7"",""21209""
""blur"",""35"",""147414""
","""event"",""trial"",""time""
""focus"",""7"",""22821""
""focus"",""35"",""147527""
","""event"",""trial"",""time""
""fullscreenenter"",""1"",""1287""
","
","","","","","","null","<div style=""font-size:60px;"">+</div>","null","","fixation","","","","","","","","",""
"memory-trial","79","257249","0.0-15.0-1.18","1974","2","""event"",""trial"",""time""
""fullscreenenter"",""1"",""1287""
""blur"",""7"",""21209""
""focus"",""7"",""22821""
""blur"",""35"",""147414""
""focus"",""35"",""147527""
","""event"",""trial"",""time""
""blur"",""7"",""21209""
""blur"",""35"",""147414""
","""event"",""trial"",""time""
""focus"",""7"",""22821""
""focus"",""35"",""147527""
","""event"",""trial"",""time""
""fullscreenenter"",""1"",""1287""
","
","","","","","","1615.2999999523163","images/table2.png","","","memory_trial","1","definitely_old","","","","","","",""
"html-keyboard-response","80","257750","0.0-15.0-0.19","1974","2","""event"",""trial"",""time""
""fullscreenenter"",""1"",""1287""
""blur"",""7"",""21209""
""focus"",""7"",""22821""
""blur"",""35"",""147414""
""focus"",""35"",""147527""
","""event"",""trial"",""time""
""blur"",""7"",""21209""
""blur"",""35"",""147414""
","""event"",""trial"",""time""
""focus"",""7"",""22821""
""focus"",""35"",""147527""
","""event"",""trial"",""time""
""fullscreenenter"",""1"",""1287""
","
","","","","","","null","<div style=""font-size:60px;"">+</div>","null","","fixation","","","","","","","","",""
"memory-trial","81","263296","0.0-15.0-1.19","1974","2","""event"",""trial"",""time""
""fullscreenenter"",""1"",""1287""
""blur"",""7"",""21209""
""focus"",""7"",""22821""
""blur"",""35"",""147414""
""focus"",""35"",""147527""
","""event"",""trial"",""time""
""blur"",""7"",""21209""
""blur"",""35"",""147414""
","""event"",""trial"",""time""
""focus"",""7"",""22821""
""focus"",""35"",""147527""
","""event"",""trial"",""time""
""fullscreenenter"",""1"",""1287""
","
","","","","","","4543.899999976158","images/flower5.png","","","memory_trial","1","definitely_old","","","","","","",""
"html-keyboard-response","82","263797","0.0-15.0-0.20","1974","2","""event"",""trial"",""time""
""fullscreenenter"",""1"",""1287""
""blur"",""7"",""21209""
""focus"",""7"",""22821""
""blur"",""35"",""147414""
""focus"",""35"",""147527""
","""event"",""trial"",""time""
""blur"",""7"",""21209""
""blur"",""35"",""147414""
","""event"",""trial"",""time""
""focus"",""7"",""22821""
""focus"",""35"",""147527""
","""event"",""trial"",""time""
""fullscreenenter"",""1"",""1287""
","
","","","","","","null","<div style=""font-size:60px;"">+</div>","null","","fixation","","","","","","","","",""
"memory-trial","83","269001","0.0-15.0-1.20","1974","2","""event"",""trial"",""time""
""fullscreenenter"",""1"",""1287""
""blur"",""7"",""21209""
""focus"",""7"",""22821""
""blur"",""35"",""147414""
""focus"",""35"",""147527""
","""event"",""trial"",""time""
""blur"",""7"",""21209""
""blur"",""35"",""147414""
","""event"",""trial"",""time""
""focus"",""7"",""22821""
""focus"",""35"",""147527""
","""event"",""trial"",""time""
""fullscreenenter"",""1"",""1287""
","
","","","","","","4200.600000023842","images/feline2.png","","","memory_trial","1","definitely_old","","","","","","",""
"html-keyboard-response","84","269502","0.0-15.0-0.21","1974","2","""event"",""trial"",""time""
""fullscreenenter"",""1"",""1287""
""blur"",""7"",""21209""
""focus"",""7"",""22821""
""blur"",""35"",""147414""
""focus"",""35"",""147527""
","""event"",""trial"",""time""
""blur"",""7"",""21209""
""blur"",""35"",""147414""
","""event"",""trial"",""time""
""focus"",""7"",""22821""
""focus"",""35"",""147527""
","""event"",""trial"",""time""
""fullscreenenter"",""1"",""1287""
","
","","","","","","null","<div style=""font-size:60px;"">+</div>","null","","fixation","","","","","","","","",""
"memory-trial","85","271585","0.0-15.0-1.21","1974","2","""event"",""trial"",""time""
""fullscreenenter"",""1"",""1287""
""blur"",""7"",""21209""
""focus"",""7"",""22821""
""blur"",""35"",""147414""
""focus"",""35"",""147527""
","""event"",""trial"",""time""
""blur"",""7"",""21209""
""blur"",""35"",""147414""
","""event"",""trial"",""time""
""focus"",""7"",""22821""
""focus"",""35"",""147527""
","""event"",""trial"",""time""
""fullscreenenter"",""1"",""1287""
","
","","","","","","1079.2999999523163","images/boat4.png","","","memory_trial","1","definitely_old","","","","","","",""
"html-keyboard-response","86","272086","0.0-15.0-0.22","1974","2","""event"",""trial"",""time""
""fullscreenenter"",""1"",""1287""
""blur"",""7"",""21209""
""focus"",""7"",""22821""
""blur"",""35"",""147414""
""focus"",""35"",""147527""
","""event"",""trial"",""time""
""blur"",""7"",""21209""
""blur"",""35"",""147414""
","""event"",""trial"",""time""
""focus"",""7"",""22821""
""focus"",""35"",""147527""
","""event"",""trial"",""time""
""fullscreenenter"",""1"",""1287""
","
","","","","","","null","<div style=""font-size:60px;"">+</div>","null","","fixation","","","","","","","","",""
"memory-trial","87","275903","0.0-15.0-1.22","1974","2","""event"",""trial"",""time""
""fullscreenenter"",""1"",""1287""
""blur"",""7"",""21209""
""focus"",""7"",""22821""
""blur"",""35"",""147414""
""focus"",""35"",""147527""
","""event"",""trial"",""time""
""blur"",""7"",""21209""
""blur"",""35"",""147414""
","""event"",""trial"",""time""
""focus"",""7"",""22821""
""focus"",""35"",""147527""
","""event"",""trial"",""time""
""fullscreenenter"",""1"",""1287""
","
","","","","","","2815.2999999523163","images/truck2.png","","","memory_trial","3","maybe_new","","","","","","",""
"html-keyboard-response","88","276404","0.0-15.0-0.23","1974","2","""event"",""trial"",""time""
""fullscreenenter"",""1"",""1287""
""blur"",""7"",""21209""
""focus"",""7"",""22821""
""blur"",""35"",""147414""
""focus"",""35"",""147527""
","""event"",""trial"",""time""
""blur"",""7"",""21209""
""blur"",""35"",""147414""
","""event"",""trial"",""time""
""focus"",""7"",""22821""
""focus"",""35"",""147527""
","""event"",""trial"",""time""
""fullscreenenter"",""1"",""1287""
","
","","","","","","null","<div style=""font-size:60px;"">+</div>","null","","fixation","","","","","","","","",""
"memory-trial","89","278769","0.0-15.0-1.23","1974","2","""event"",""trial"",""time""
""fullscreenenter"",""1"",""1287""
""blur"",""7"",""21209""
""focus"",""7"",""22821""
""blur"",""35"",""147414""
""focus"",""35"",""147527""
","""event"",""trial"",""time""
""blur"",""7"",""21209""
""blur"",""35"",""147414""
","""event"",""trial"",""time""
""focus"",""7"",""22821""
""focus"",""35"",""147527""
","""event"",""trial"",""time""
""fullscreenenter"",""1"",""1287""
","
","","","","","","1360.9000000953674","images/banana2.png","","","memory_trial","1","definitely_old","","","","","","",""
"html-keyboard-response","90","279270","0.0-15.0-0.24","1974","2","""event"",""trial"",""time""
""fullscreenenter"",""1"",""1287""
""blur"",""7"",""21209""
""focus"",""7"",""22821""
""blur"",""35"",""147414""
""focus"",""35"",""147527""
","""event"",""trial"",""time""
""blur"",""7"",""21209""
""blur"",""35"",""147414""
","""event"",""trial"",""time""
""focus"",""7"",""22821""
""focus"",""35"",""147527""
","""event"",""trial"",""time""
""fullscreenenter"",""1"",""1287""
","
","","","","","","null","<div style=""font-size:60px;"">+</div>","null","","fixation","","","","","","","","",""
"memory-trial","91","282473","0.0-15.0-1.24","1974","2","""event"",""trial"",""time""
""fullscreenenter"",""1"",""1287""
""blur"",""7"",""21209""
""focus"",""7"",""22821""
""blur"",""35"",""147414""
""focus"",""35"",""147527""
","""event"",""trial"",""time""
""blur"",""7"",""21209""
""blur"",""35"",""147414""
","""event"",""trial"",""time""
""focus"",""7"",""22821""
""focus"",""35"",""147527""
","""event"",""trial"",""time""
""fullscreenenter"",""1"",""1287""
","
","","","","","","2200.5","images/cactus2.png","","","memory_trial","3","maybe_new","","","","","","",""
"html-keyboard-response","92","282974","0.0-15.0-0.25","1974","2","""event"",""trial"",""time""
""fullscreenenter"",""1"",""1287""
""blur"",""7"",""21209""
""focus"",""7"",""22821""
""blur"",""35"",""147414""
""focus"",""35"",""147527""
","""event"",""trial"",""time""
""blur"",""7"",""21209""
""blur"",""35"",""147414""
","""event"",""trial"",""time""
""focus"",""7"",""22821""
""focus"",""35"",""147527""
","""event"",""trial"",""time""
""fullscreenenter"",""1"",""1287""
","
","","","","","","null","<div style=""font-size:60px;"">+</div>","null","","fixation","","","","","","","","",""
"memory-trial","93","287409","0.0-15.0-1.25","1974","2","""event"",""trial"",""time""
""fullscreenenter"",""1"",""1287""
""blur"",""7"",""21209""
""focus"",""7"",""22821""
""blur"",""35"",""147414""
""focus"",""35"",""147527""
","""event"",""trial"",""time""
""blur"",""7"",""21209""
""blur"",""35"",""147414""
","""event"",""trial"",""time""
""focus"",""7"",""22821""
""focus"",""35"",""147527""
","""event"",""trial"",""time""
""fullscreenenter"",""1"",""1287""
","
","","","","","","3431.8000000715256","images/boat5.png","","","memory_trial","1","definitely_old","","","","","","",""
"html-keyboard-response","94","287910","0.0-15.0-0.26","1974","2","""event"",""trial"",""time""
""fullscreenenter"",""1"",""1287""
""blur"",""7"",""21209""
""focus"",""7"",""22821""
""blur"",""35"",""147414""
""focus"",""35"",""147527""
","""event"",""trial"",""time""
""blur"",""7"",""21209""
""blur"",""35"",""147414""
","""event"",""trial"",""time""
""focus"",""7"",""22821""
""focus"",""35"",""147527""
","""event"",""trial"",""time""
""fullscreenenter"",""1"",""1287""
","
","","","","","","null","<div style=""font-size:60px;"">+</div>","null","","fixation","","","","","","","","",""
"memory-trial","95","289977","0.0-15.0-1.26","1974","2","""event"",""trial"",""time""
""fullscreenenter"",""1"",""1287""
""blur"",""7"",""21209""
""focus"",""7"",""22821""
""blur"",""35"",""147414""
""focus"",""35"",""147527""
","""event"",""trial"",""time""
""blur"",""7"",""21209""
""blur"",""35"",""147414""
","""event"",""trial"",""time""
""focus"",""7"",""22821""
""focus"",""35"",""147527""
","""event"",""trial"",""time""
""fullscreenenter"",""1"",""1287""
","
","","","","","","1065","images/goat1.png","","","memory_trial","2","maybe_old","","","","","","",""
"html-keyboard-response","96","290478","0.0-15.0-0.27","1974","2","""event"",""trial"",""time""
""fullscreenenter"",""1"",""1287""
""blur"",""7"",""21209""
""focus"",""7"",""22821""
""blur"",""35"",""147414""
""focus"",""35"",""147527""
","""event"",""trial"",""time""
""blur"",""7"",""21209""
""blur"",""35"",""147414""
","""event"",""trial"",""time""
""focus"",""7"",""22821""
""focus"",""35"",""147527""
","""event"",""trial"",""time""
""fullscreenenter"",""1"",""1287""
","
","","","","","","null","<div style=""font-size:60px;"">+</div>","null","","fixation","","","","","","","","",""
"memory-trial","97","292897","0.0-15.0-1.27","1974","2","""event"",""trial"",""time""
""fullscreenenter"",""1"",""1287""
""blur"",""7"",""21209""
""focus"",""7"",""22821""
""blur"",""35"",""147414""
""focus"",""35"",""147527""
","""event"",""trial"",""time""
""blur"",""7"",""21209""
""blur"",""35"",""147414""
","""event"",""trial"",""time""
""focus"",""7"",""22821""
""focus"",""35"",""147527""
","""event"",""trial"",""time""
""fullscreenenter"",""1"",""1287""
","
","","","","","","1415.5","images/dog4.png","","","memory_trial","4","definitely_new","","","","","","",""
"html-keyboard-response","98","293398","0.0-15.0-0.28","1974","2","""event"",""trial"",""time""
""fullscreenenter"",""1"",""1287""
""blur"",""7"",""21209""
""focus"",""7"",""22821""
""blur"",""35"",""147414""
""focus"",""35"",""147527""
","""event"",""trial"",""time""
""blur"",""7"",""21209""
""blur"",""35"",""147414""
","""event"",""trial"",""time""
""focus"",""7"",""22821""
""focus"",""35"",""147527""
","""event"",""trial"",""time""
""fullscreenenter"",""1"",""1287""
","
","","","","","","null","<div style=""font-size:60px;"">+</div>","null","","fixation","","","","","","","","",""
"memory-trial","99","297448","0.0-15.0-1.28","1974","2","""event"",""trial"",""time""
""fullscreenenter"",""1"",""1287""
""blur"",""7"",""21209""
""focus"",""7"",""22821""
""blur"",""35"",""147414""
""focus"",""35"",""147527""
","""event"",""trial"",""time""
""blur"",""7"",""21209""
""blur"",""35"",""147414""
","""event"",""trial"",""time""
""focus"",""7"",""22821""
""focus"",""35"",""147527""
","""event"",""trial"",""time""
""fullscreenenter"",""1"",""1287""
","
","","","","","","3048.7000000476837","images/bed4.png","","","memory_trial","1","definitely_old","","","","","","",""
"html-keyboard-response","100","297949","0.0-15.0-0.29","1974","2","""event"",""trial"",""time""
""fullscreenenter"",""1"",""1287""
""blur"",""7"",""21209""
""focus"",""7"",""22821""
""blur"",""35"",""147414""
""focus"",""35"",""147527""
","""event"",""trial"",""time""
""blur"",""7"",""21209""
""blur"",""35"",""147414""
","""event"",""trial"",""time""
""focus"",""7"",""22821""
""focus"",""35"",""147527""
","""event"",""trial"",""time""
""fullscreenenter"",""1"",""1287""
","
","","","","","","null","<div style=""font-size:60px;"">+</div>","null","","fixation","","","","","","","","",""
"memory-trial","101","301970","0.0-15.0-1.29","1974","2","""event"",""trial"",""time""
""fullscreenenter"",""1"",""1287""
""blur"",""7"",""21209""
""focus"",""7"",""22821""
""blur"",""35"",""147414""
""focus"",""35"",""147527""
","""event"",""trial"",""time""
""blur"",""7"",""21209""
""blur"",""35"",""147414""
","""event"",""trial"",""time""
""focus"",""7"",""22821""
""focus"",""35"",""147527""
","""event"",""trial"",""time""
""fullscreenenter"",""1"",""1287""
","
","","","","","","3016.0999999046326","images/orange2.png","","","memory_trial","2","maybe_old","","","","","","",""
"html-keyboard-response","102","302471","0.0-15.0-0.30","1974","2","""event"",""trial"",""time""
""fullscreenenter"",""1"",""1287""
""blur"",""7"",""21209""
""focus"",""7"",""22821""
""blur"",""35"",""147414""
""focus"",""35"",""147527""
","""event"",""trial"",""time""
""blur"",""7"",""21209""
""blur"",""35"",""147414""
","""event"",""trial"",""time""
""focus"",""7"",""22821""
""focus"",""35"",""147527""
","""event"",""trial"",""time""
""fullscreenenter"",""1"",""1287""
","
","","","","","","null","<div style=""font-size:60px;"">+</div>","null","","fixation","","","","","","","","",""
"memory-trial","103","305609","0.0-15.0-1.30","1974","2","""event"",""trial"",""time""
""fullscreenenter"",""1"",""1287""
""blur"",""7"",""21209""
""focus"",""7"",""22821""
""blur"",""35"",""147414""
""focus"",""35"",""147527""
","""event"",""trial"",""time""
""blur"",""7"",""21209""
""blur"",""35"",""147414""
","""event"",""trial"",""time""
""focus"",""7"",""22821""
""focus"",""35"",""147527""
","""event"",""trial"",""time""
""fullscreenenter"",""1"",""1287""
","
","","","","","","2134.2999999523163","images/straw1.png","","","memory_trial","1","definitely_old","","","","","","",""
"html-keyboard-response","104","306110","0.0-15.0-0.31","1974","2","""event"",""trial"",""time""
""fullscreenenter"",""1"",""1287""
""blur"",""7"",""21209""
""focus"",""7"",""22821""
""blur"",""35"",""147414""
""focus"",""35"",""147527""
","""event"",""trial"",""time""
""blur"",""7"",""21209""
""blur"",""35"",""147414""
","""event"",""trial"",""time""
""focus"",""7"",""22821""
""focus"",""35"",""147527""
","""event"",""trial"",""time""
""fullscreenenter"",""1"",""1287""
","
","","","","","","null","<div style=""font-size:60px;"">+</div>","null","","fixation","","","","","","","","",""
"memory-trial","105","309489","0.0-15.0-1.31","1974","2","""event"",""trial"",""time""
""fullscreenenter"",""1"",""1287""
""blur"",""7"",""21209""
""focus"",""7"",""22821""
""blur"",""35"",""147414""
""focus"",""35"",""147527""
","""event"",""trial"",""time""
""blur"",""7"",""21209""
""blur"",""35"",""147414""
","""event"",""trial"",""time""
""focus"",""7"",""22821""
""focus"",""35"",""147527""
","""event"",""trial"",""time""
""fullscreenenter"",""1"",""1287""
","
","","","","","","2375.7999999523163","images/plane5.png","","","memory_trial","2","maybe_old","","","","","","",""
"html-keyboard-response","106","309990","0.0-15.0-0.32","1974","2","""event"",""trial"",""time""
""fullscreenenter"",""1"",""1287""
""blur"",""7"",""21209""
""focus"",""7"",""22821""
""blur"",""35"",""147414""
""focus"",""35"",""147527""
","""event"",""trial"",""time""
""blur"",""7"",""21209""
""blur"",""35"",""147414""
","""event"",""trial"",""time""
""focus"",""7"",""22821""
""focus"",""35"",""147527""
","""event"",""trial"",""time""
""fullscreenenter"",""1"",""1287""
","
","","","","","","null","<div style=""font-size:60px;"">+</div>","null","","fixation","","","","","","","","",""
"memory-trial","107","312329","0.0-15.0-1.32","1974","2","""event"",""trial"",""time""
""fullscreenenter"",""1"",""1287""
""blur"",""7"",""21209""
""focus"",""7"",""22821""
""blur"",""35"",""147414""
""focus"",""35"",""147527""
","""event"",""trial"",""time""
""blur"",""7"",""21209""
""blur"",""35"",""147414""
","""event"",""trial"",""time""
""focus"",""7"",""22821""
""focus"",""35"",""147527""
","""event"",""trial"",""time""
""fullscreenenter"",""1"",""1287""
","
","","","","","","1335.8999999761581","images/banana3.png","","","memory_trial","1","definitely_old","","","","","","",""
"html-keyboard-response","108","312831","0.0-15.0-0.33","1974","2","""event"",""trial"",""time""
""fullscreenenter"",""1"",""1287""
""blur"",""7"",""21209""
""focus"",""7"",""22821""
""blur"",""35"",""147414""
""focus"",""35"",""147527""
","""event"",""trial"",""time""
""blur"",""7"",""21209""
""blur"",""35"",""147414""
","""event"",""trial"",""time""
""focus"",""7"",""22821""
""focus"",""35"",""147527""
","""event"",""trial"",""time""
""fullscreenenter"",""1"",""1287""
","
","","","","","","null","<div style=""font-size:60px;"">+</div>","null","","fixation","","","","","","","","",""
"memory-trial","109","317280","0.0-15.0-1.33","1974","2","""event"",""trial"",""time""
""fullscreenenter"",""1"",""1287""
""blur"",""7"",""21209""
""focus"",""7"",""22821""
""blur"",""35"",""147414""
""focus"",""35"",""147527""
","""event"",""trial"",""time""
""blur"",""7"",""21209""
""blur"",""35"",""147414""
","""event"",""trial"",""time""
""focus"",""7"",""22821""
""focus"",""35"",""147527""
","""event"",""trial"",""time""
""fullscreenenter"",""1"",""1287""
","
","","","","","","3447","images/sheep4.png","","","memory_trial","4","definitely_new","","","","","","",""
"html-keyboard-response","110","317783","0.0-15.0-0.34","1974","2","""event"",""trial"",""time""
""fullscreenenter"",""1"",""1287""
""blur"",""7"",""21209""
""focus"",""7"",""22821""
""blur"",""35"",""147414""
""focus"",""35"",""147527""
","""event"",""trial"",""time""
""blur"",""7"",""21209""
""blur"",""35"",""147414""
","""event"",""trial"",""time""
""focus"",""7"",""22821""
""focus"",""35"",""147527""
","""event"",""trial"",""time""
""fullscreenenter"",""1"",""1287""
","
","","","","","","null","<div style=""font-size:60px;"">+</div>","null","","fixation","","","","","","","","",""
"memory-trial","111","323153","0.0-15.0-1.34","1974","2","""event"",""trial"",""time""
""fullscreenenter"",""1"",""1287""
""blur"",""7"",""21209""
""focus"",""7"",""22821""
""blur"",""35"",""147414""
""focus"",""35"",""147527""
","""event"",""trial"",""time""
""blur"",""7"",""21209""
""blur"",""35"",""147414""
","""event"",""trial"",""time""
""focus"",""7"",""22821""
""focus"",""35"",""147527""
","""event"",""trial"",""time""
""fullscreenenter"",""1"",""1287""
","
","","","","","","4366.899999976158","images/horse5.png","","","memory_trial","3","maybe_new","","","","","","",""
"html-keyboard-response","112","323669","0.0-15.0-0.35","1974","2","""event"",""trial"",""time""
""fullscreenenter"",""1"",""1287""
""blur"",""7"",""21209""
""focus"",""7"",""22821""
""blur"",""35"",""147414""
""focus"",""35"",""147527""
","""event"",""trial"",""time""
""blur"",""7"",""21209""
""blur"",""35"",""147414""
","""event"",""trial"",""time""
""focus"",""7"",""22821""
""focus"",""35"",""147527""
","""event"",""trial"",""time""
""fullscreenenter"",""1"",""1287""
","
","","","","","","null","<div style=""font-size:60px;"">+</div>","null","","fixation","","","","","","","","",""
"memory-trial","113","326186","0.0-15.0-1.35","1974","2","""event"",""trial"",""time""
""fullscreenenter"",""1"",""1287""
""blur"",""7"",""21209""
""focus"",""7"",""22821""
""blur"",""35"",""147414""
""focus"",""35"",""147527""
","""event"",""trial"",""time""
""blur"",""7"",""21209""
""blur"",""35"",""147414""
","""event"",""trial"",""time""
""focus"",""7"",""22821""
""focus"",""35"",""147527""
","""event"",""trial"",""time""
""fullscreenenter"",""1"",""1287""
","
","","","","","","1514.1999999284744","images/boat2.png","","","memory_trial","1","definitely_old","","","","","","",""
"html-keyboard-response","114","326688","0.0-15.0-0.36","1974","2","""event"",""trial"",""time""
""fullscreenenter"",""1"",""1287""
""blur"",""7"",""21209""
""focus"",""7"",""22821""
""blur"",""35"",""147414""
""focus"",""35"",""147527""
","""event"",""trial"",""time""
""blur"",""7"",""21209""
""blur"",""35"",""147414""
","""event"",""trial"",""time""
""focus"",""7"",""22821""
""focus"",""35"",""147527""
","""event"",""trial"",""time""
""fullscreenenter"",""1"",""1287""
","
","","","","","","null","<div style=""font-size:60px;"">+</div>","null","","fixation","","","","","","","","",""
"memory-trial","115","329209","0.0-15.0-1.36","1974","2","""event"",""trial"",""time""
""fullscreenenter"",""1"",""1287""
""blur"",""7"",""21209""
""focus"",""7"",""22821""
""blur"",""35"",""147414""
""focus"",""35"",""147527""
","""event"",""trial"",""time""
""blur"",""7"",""21209""
""blur"",""35"",""147414""
","""event"",""trial"",""time""
""focus"",""7"",""22821""
""focus"",""35"",""147527""
","""event"",""trial"",""time""
""fullscreenenter"",""1"",""1287""
","
","","","","","","1518.1000000238419","images/cactus4.png","","","memory_trial","2","maybe_old","","","","","","",""
"html-keyboard-response","116","329712","0.0-15.0-0.37","1974","2","""event"",""trial"",""time""
""fullscreenenter"",""1"",""1287""
""blur"",""7"",""21209""
""focus"",""7"",""22821""
""blur"",""35"",""147414""
""focus"",""35"",""147527""
","""event"",""trial"",""time""
""blur"",""7"",""21209""
""blur"",""35"",""147414""
","""event"",""trial"",""time""
""focus"",""7"",""22821""
""focus"",""35"",""147527""
","""event"",""trial"",""time""
""fullscreenenter"",""1"",""1287""
","
","","","","","","null","<div style=""font-size:60px;"">+</div>","null","","fixation","","","","","","","","",""
"memory-trial","117","332217","0.0-15.0-1.37","1974","2","""event"",""trial"",""time""
""fullscreenenter"",""1"",""1287""
""blur"",""7"",""21209""
""focus"",""7"",""22821""
""blur"",""35"",""147414""
""focus"",""35"",""147527""
","""event"",""trial"",""time""
""blur"",""7"",""21209""
""blur"",""35"",""147414""
","""event"",""trial"",""time""
""focus"",""7"",""22821""
""focus"",""35"",""147527""
","""event"",""trial"",""time""
""fullscreenenter"",""1"",""1287""
","
","","","","","","1502.2000000476837","images/cow1.png","","","memory_trial","1","definitely_old","","","","","","",""
"html-keyboard-response","118","332719","0.0-15.0-0.38","1974","2","""event"",""trial"",""time""
""fullscreenenter"",""1"",""1287""
""blur"",""7"",""21209""
""focus"",""7"",""22821""
""blur"",""35"",""147414""
""focus"",""35"",""147527""
","""event"",""trial"",""time""
""blur"",""7"",""21209""
""blur"",""35"",""147414""
","""event"",""trial"",""time""
""focus"",""7"",""22821""
""focus"",""35"",""147527""
","""event"",""trial"",""time""
""fullscreenenter"",""1"",""1287""
","
","","","","","","null","<div style=""font-size:60px;"">+</div>","null","","fixation","","","","","","","","",""
"memory-trial","119","336240","0.0-15.0-1.38","1974","2","""event"",""trial"",""time""
""fullscreenenter"",""1"",""1287""
""blur"",""7"",""21209""
""focus"",""7"",""22821""
""blur"",""35"",""147414""
""focus"",""35"",""147527""
","""event"",""trial"",""time""
""blur"",""7"",""21209""
""blur"",""35"",""147414""
","""event"",""trial"",""time""
""focus"",""7"",""22821""
""focus"",""35"",""147527""
","""event"",""trial"",""time""
""fullscreenenter"",""1"",""1287""
","
","","","","","","2518.399999976158","images/bush1.png","","","memory_trial","1","definitely_old","","","","","","",""
"html-keyboard-response","120","336742","0.0-15.0-0.39","1974","2","""event"",""trial"",""time""
""fullscreenenter"",""1"",""1287""
""blur"",""7"",""21209""
""focus"",""7"",""22821""
""blur"",""35"",""147414""
""focus"",""35"",""147527""
","""event"",""trial"",""time""
""blur"",""7"",""21209""
""blur"",""35"",""147414""
","""event"",""trial"",""time""
""focus"",""7"",""22821""
""focus"",""35"",""147527""
","""event"",""trial"",""time""
""fullscreenenter"",""1"",""1287""
","
","","","","","","null","<div style=""font-size:60px;"">+</div>","null","","fixation","","","","","","","","",""
"memory-trial","121","340937","0.0-15.0-1.39","1974","2","""event"",""trial"",""time""
""fullscreenenter"",""1"",""1287""
""blur"",""7"",""21209""
""focus"",""7"",""22821""
""blur"",""35"",""147414""
""focus"",""35"",""147527""
","""event"",""trial"",""time""
""blur"",""7"",""21209""
""blur"",""35"",""147414""
","""event"",""trial"",""time""
""focus"",""7"",""22821""
""focus"",""35"",""147527""
","""event"",""trial"",""time""
""fullscreenenter"",""1"",""1287""
","
","","","","","","3192.1999999284744","images/feline3.png","","","memory_trial","3","maybe_new","","","","","","",""
"html-keyboard-response","122","341439","0.0-15.0-0.40","1974","2","""event"",""trial"",""time""
""fullscreenenter"",""1"",""1287""
""blur"",""7"",""21209""
""focus"",""7"",""22821""
""blur"",""35"",""147414""
""focus"",""35"",""147527""
","""event"",""trial"",""time""
""blur"",""7"",""21209""
""blur"",""35"",""147414""
","""event"",""trial"",""time""
""focus"",""7"",""22821""
""focus"",""35"",""147527""
","""event"",""trial"",""time""
""fullscreenenter"",""1"",""1287""
","
","","","","","","null","<div style=""font-size:60px;"">+</div>","null","","fixation","","","","","","","","",""
"memory-trial","123","343640","0.0-15.0-1.40","1974","2","""event"",""trial"",""time""
""fullscreenenter"",""1"",""1287""
""blur"",""7"",""21209""
""focus"",""7"",""22821""
""blur"",""35"",""147414""
""focus"",""35"",""147527""
","""event"",""trial"",""time""
""blur"",""7"",""21209""
""blur"",""35"",""147414""
","""event"",""trial"",""time""
""focus"",""7"",""22821""
""focus"",""35"",""147527""
","""event"",""trial"",""time""
""fullscreenenter"",""1"",""1287""
","
","","","","","","1198.3999999761581","images/sofa5.png","","","memory_trial","1","definitely_old","","","","","","",""
"html-keyboard-response","124","344141","0.0-15.0-0.41","1974","2","""event"",""trial"",""time""
""fullscreenenter"",""1"",""1287""
""blur"",""7"",""21209""
""focus"",""7"",""22821""
""blur"",""35"",""147414""
""focus"",""35"",""147527""
","""event"",""trial"",""time""
""blur"",""7"",""21209""
""blur"",""35"",""147414""
","""event"",""trial"",""time""
""focus"",""7"",""22821""
""focus"",""35"",""147527""
","""event"",""trial"",""time""
""fullscreenenter"",""1"",""1287""
","
","","","","","","null","<div style=""font-size:60px;"">+</div>","null","","fixation","","","","","","","","",""
"memory-trial","125","347537","0.0-15.0-1.41","1974","2","""event"",""trial"",""time""
""fullscreenenter"",""1"",""1287""
""blur"",""7"",""21209""
""focus"",""7"",""22821""
""blur"",""35"",""147414""
""focus"",""35"",""147527""
","""event"",""trial"",""time""
""blur"",""7"",""21209""
""blur"",""35"",""147414""
","""event"",""trial"",""time""
""focus"",""7"",""22821""
""focus"",""35"",""147527""
","""event"",""trial"",""time""
""fullscreenenter"",""1"",""1287""
","
","","","","","","2392.399999976158","images/cactus5.png","","","memory_trial","3","maybe_new","","","","","","",""
"html-keyboard-response","126","348038","0.0-15.0-0.42","1974","2","""event"",""trial"",""time""
""fullscreenenter"",""1"",""1287""
""blur"",""7"",""21209""
""focus"",""7"",""22821""
""blur"",""35"",""147414""
""focus"",""35"",""147527""
","""event"",""trial"",""time""
""blur"",""7"",""21209""
""blur"",""35"",""147414""
","""event"",""trial"",""time""
""focus"",""7"",""22821""
""focus"",""35"",""147527""
","""event"",""trial"",""time""
""fullscreenenter"",""1"",""1287""
","
","","","","","","null","<div style=""font-size:60px;"">+</div>","null","","fixation","","","","","","","","",""
"memory-trial","127","350378","0.0-15.0-1.42","1974","2","""event"",""trial"",""time""
""fullscreenenter"",""1"",""1287""
""blur"",""7"",""21209""
""focus"",""7"",""22821""
""blur"",""35"",""147414""
""focus"",""35"",""147527""
","""event"",""trial"",""time""
""blur"",""7"",""21209""
""blur"",""35"",""147414""
","""event"",""trial"",""time""
""focus"",""7"",""22821""
""focus"",""35"",""147527""
","""event"",""trial"",""time""
""fullscreenenter"",""1"",""1287""
","
","","","","","","1335.3000000715256","images/train2.png","","","memory_trial","1","definitely_old","","","","","","",""
"html-keyboard-response","128","350879","0.0-15.0-0.43","1974","2","""event"",""trial"",""time""
""fullscreenenter"",""1"",""1287""
""blur"",""7"",""21209""
""focus"",""7"",""22821""
""blur"",""35"",""147414""
""focus"",""35"",""147527""
","""event"",""trial"",""time""
""blur"",""7"",""21209""
""blur"",""35"",""147414""
","""event"",""trial"",""time""
""focus"",""7"",""22821""
""focus"",""35"",""147527""
","""event"",""trial"",""time""
""fullscreenenter"",""1"",""1287""
","
","","","","","","null","<div style=""font-size:60px;"">+</div>","null","","fixation","","","","","","","","",""
"memory-trial","129","353409","0.0-15.0-1.43","1974","2","""event"",""trial"",""time""
""fullscreenenter"",""1"",""1287""
""blur"",""7"",""21209""
""focus"",""7"",""22821""
""blur"",""35"",""147414""
""focus"",""35"",""147527""
","""event"",""trial"",""time""
""blur"",""7"",""21209""
""blur"",""35"",""147414""
","""event"",""trial"",""time""
""focus"",""7"",""22821""
""focus"",""35"",""147527""
","""event"",""trial"",""time""
""fullscreenenter"",""1"",""1287""
","
","","","","","","1527","images/rabbit5.png","","","memory_trial","1","definitely_old","","","","","","",""
"html-keyboard-response","130","353915","0.0-15.0-0.44","1974","2","""event"",""trial"",""time""
""fullscreenenter"",""1"",""1287""
""blur"",""7"",""21209""
""focus"",""7"",""22821""
""blur"",""35"",""147414""
""focus"",""35"",""147527""
","""event"",""trial"",""time""
""blur"",""7"",""21209""
""blur"",""35"",""147414""
","""event"",""trial"",""time""
""focus"",""7"",""22821""
""focus"",""35"",""147527""
","""event"",""trial"",""time""
""fullscreenenter"",""1"",""1287""
","
","","","","","","null","<div style=""font-size:60px;"">+</div>","null","","fixation","","","","","","","","",""
"memory-trial","131","355849","0.0-15.0-1.44","1974","2","""event"",""trial"",""time""
""fullscreenenter"",""1"",""1287""
""blur"",""7"",""21209""
""focus"",""7"",""22821""
""blur"",""35"",""147414""
""focus"",""35"",""147527""
","""event"",""trial"",""time""
""blur"",""7"",""21209""
""blur"",""35"",""147414""
","""event"",""trial"",""time""
""focus"",""7"",""22821""
""focus"",""35"",""147527""
","""event"",""trial"",""time""
""fullscreenenter"",""1"",""1287""
","
","","","","","","932.3999999761581","images/rabbit2.png","","","memory_trial","1","definitely_old","","","","","","",""
"html-keyboard-response","132","356351","0.0-15.0-0.45","1974","2","""event"",""trial"",""time""
""fullscreenenter"",""1"",""1287""
""blur"",""7"",""21209""
""focus"",""7"",""22821""
""blur"",""35"",""147414""
""focus"",""35"",""147527""
","""event"",""trial"",""time""
""blur"",""7"",""21209""
""blur"",""35"",""147414""
","""event"",""trial"",""time""
""focus"",""7"",""22821""
""focus"",""35"",""147527""
","""event"",""trial"",""time""
""fullscreenenter"",""1"",""1287""
","
","","","","","","null","<div style=""font-size:60px;"">+</div>","null","","fixation","","","","","","","","",""
"memory-trial","133","359623","0.0-15.0-1.45","1974","2","""event"",""trial"",""time""
""fullscreenenter"",""1"",""1287""
""blur"",""7"",""21209""
""focus"",""7"",""22821""
""blur"",""35"",""147414""
""focus"",""35"",""147527""
","""event"",""trial"",""time""
""blur"",""7"",""21209""
""blur"",""35"",""147414""
","""event"",""trial"",""time""
""focus"",""7"",""22821""
""focus"",""35"",""147527""
","""event"",""trial"",""time""
""fullscreenenter"",""1"",""1287""
","
","","","","","","2269.3000000715256","images/bush2.png","","","memory_trial","2","maybe_old","","","","","","",""
"html-keyboard-response","134","360124","0.0-15.0-0.46","1974","2","""event"",""trial"",""time""
""fullscreenenter"",""1"",""1287""
""blur"",""7"",""21209""
""focus"",""7"",""22821""
""blur"",""35"",""147414""
""focus"",""35"",""147527""
","""event"",""trial"",""time""
""blur"",""7"",""21209""
""blur"",""35"",""147414""
","""event"",""trial"",""time""
""focus"",""7"",""22821""
""focus"",""35"",""147527""
","""event"",""trial"",""time""
""fullscreenenter"",""1"",""1287""
","
","","","","","","null","<div style=""font-size:60px;"">+</div>","null","","fixation","","","","","","","","",""
"memory-trial","135","362571","0.0-15.0-1.46","1974","2","""event"",""trial"",""time""
""fullscreenenter"",""1"",""1287""
""blur"",""7"",""21209""
""focus"",""7"",""22821""
""blur"",""35"",""147414""
""focus"",""35"",""147527""
","""event"",""trial"",""time""
""blur"",""7"",""21209""
""blur"",""35"",""147414""
","""event"",""trial"",""time""
""focus"",""7"",""22821""
""focus"",""35"",""147527""
","""event"",""trial"",""time""
""fullscreenenter"",""1"",""1287""
","
","","","","","","1445.5","images/sheep5.png","","","memory_trial","4","definitely_new","","","","","","",""
"html-button-response","136","412288","0.0-15.0-2.46-0.46","1974","2","""event"",""trial"",""time""
""fullscreenenter"",""1"",""1287""
""blur"",""7"",""21209""
""focus"",""7"",""22821""
""blur"",""35"",""147414""
""focus"",""35"",""147527""
","""event"",""trial"",""time""
""blur"",""7"",""21209""
""blur"",""35"",""147414""
","""event"",""trial"",""time""
""focus"",""7"",""22821""
""focus"",""35"",""147527""
","""event"",""trial"",""time""
""fullscreenenter"",""1"",""1287""
","
","","","","","","49716.299999952316","<p> Take a break! </p><p> Click the button to continue. </p>","0","","break","","","","","","","","",""
"html-keyboard-response","137","412790","0.0-15.0-0.47","1974","2","""event"",""trial"",""time""
""fullscreenenter"",""1"",""1287""
""blur"",""7"",""21209""
""focus"",""7"",""22821""
""blur"",""35"",""147414""
""focus"",""35"",""147527""
","""event"",""trial"",""time""
""blur"",""7"",""21209""
""blur"",""35"",""147414""
","""event"",""trial"",""time""
""focus"",""7"",""22821""
""focus"",""35"",""147527""
","""event"",""trial"",""time""
""fullscreenenter"",""1"",""1287""
","
","","","","","","null","<div style=""font-size:60px;"">+</div>","null","","fixation","","","","","","","","",""
"memory-trial","138","415866","0.0-15.0-1.47","1974","2","""event"",""trial"",""time""
""fullscreenenter"",""1"",""1287""
""blur"",""7"",""21209""
""focus"",""7"",""22821""
""blur"",""35"",""147414""
""focus"",""35"",""147527""
","""event"",""trial"",""time""
""blur"",""7"",""21209""
""blur"",""35"",""147414""
","""event"",""trial"",""time""
""focus"",""7"",""22821""
""focus"",""35"",""147527""
","""event"",""trial"",""time""
""fullscreenenter"",""1"",""1287""
","
","","","","","","2072.4000000953674","images/truck5.png","","","memory_trial","4","definitely_new","","","","","","",""
"html-keyboard-response","139","416368","0.0-15.0-0.48","1974","2","""event"",""trial"",""time""
""fullscreenenter"",""1"",""1287""
""blur"",""7"",""21209""
""focus"",""7"",""22821""
""blur"",""35"",""147414""
""focus"",""35"",""147527""
","""event"",""trial"",""time""
""blur"",""7"",""21209""
""blur"",""35"",""147414""
","""event"",""trial"",""time""
""focus"",""7"",""22821""
""focus"",""35"",""147527""
","""event"",""trial"",""time""
""fullscreenenter"",""1"",""1287""
","
","","","","","","null","<div style=""font-size:60px;"">+</div>","null","","fixation","","","","","","","","",""
"memory-trial","140","418561","0.0-15.0-1.48","1974","2","""event"",""trial"",""time""
""fullscreenenter"",""1"",""1287""
""blur"",""7"",""21209""
""focus"",""7"",""22821""
""blur"",""35"",""147414""
""focus"",""35"",""147527""
","""event"",""trial"",""time""
""blur"",""7"",""21209""
""blur"",""35"",""147414""
","""event"",""trial"",""time""
""focus"",""7"",""22821""
""focus"",""35"",""147527""
","""event"",""trial"",""time""
""fullscreenenter"",""1"",""1287""
","
","","","","","","1190.3000000715256","images/plane3.png","","","memory_trial","4","definitely_new","","","","","","",""
"html-keyboard-response","141","419063","0.0-15.0-0.49","1974","2","""event"",""trial"",""time""
""fullscreenenter"",""1"",""1287""
""blur"",""7"",""21209""
""focus"",""7"",""22821""
""blur"",""35"",""147414""
""focus"",""35"",""147527""
","""event"",""trial"",""time""
""blur"",""7"",""21209""
""blur"",""35"",""147414""
","""event"",""trial"",""time""
""focus"",""7"",""22821""
""focus"",""35"",""147527""
","""event"",""trial"",""time""
""fullscreenenter"",""1"",""1287""
","
","","","","","","null","<div style=""font-size:60px;"">+</div>","null","","fixation","","","","","","","","",""
"memory-trial","142","422071","0.0-15.0-1.49","1974","2","""event"",""trial"",""time""
""fullscreenenter"",""1"",""1287""
""blur"",""7"",""21209""
""focus"",""7"",""22821""
""blur"",""35"",""147414""
""focus"",""35"",""147527""
","""event"",""trial"",""time""
""blur"",""7"",""21209""
""blur"",""35"",""147414""
","""event"",""trial"",""time""
""focus"",""7"",""22821""
""focus"",""35"",""147527""
","""event"",""trial"",""time""
""fullscreenenter"",""1"",""1287""
","
","","","","","","2005.5","images/rabbit1.png","","","memory_trial","3","maybe_new","","","","","","",""
"html-keyboard-response","143","422573","0.0-15.0-0.50","1974","2","""event"",""trial"",""time""
""fullscreenenter"",""1"",""1287""
""blur"",""7"",""21209""
""focus"",""7"",""22821""
""blur"",""35"",""147414""
""focus"",""35"",""147527""
","""event"",""trial"",""time""
""blur"",""7"",""21209""
""blur"",""35"",""147414""
","""event"",""trial"",""time""
""focus"",""7"",""22821""
""focus"",""35"",""147527""
","""event"",""trial"",""time""
""fullscreenenter"",""1"",""1287""
","
","","","","","","null","<div style=""font-size:60px;"">+</div>","null","","fixation","","","","","","","","",""
"memory-trial","144","425513","0.0-15.0-1.50","1974","2","""event"",""trial"",""time""
""fullscreenenter"",""1"",""1287""
""blur"",""7"",""21209""
""focus"",""7"",""22821""
""blur"",""35"",""147414""
""focus"",""35"",""147527""
","""event"",""trial"",""time""
""blur"",""7"",""21209""
""blur"",""35"",""147414""
","""event"",""trial"",""time""
""focus"",""7"",""22821""
""focus"",""35"",""147527""
","""event"",""trial"",""time""
""fullscreenenter"",""1"",""1287""
","
","","","","","","1936.7000000476837","images/train4.png","","","memory_trial","2","maybe_old","","","","","","",""
"html-keyboard-response","145","426015","0.0-15.0-0.51","1974","2","""event"",""trial"",""time""
""fullscreenenter"",""1"",""1287""
""blur"",""7"",""21209""
""focus"",""7"",""22821""
""blur"",""35"",""147414""
""focus"",""35"",""147527""
","""event"",""trial"",""time""
""blur"",""7"",""21209""
""blur"",""35"",""147414""
","""event"",""trial"",""time""
""focus"",""7"",""22821""
""focus"",""35"",""147527""
","""event"",""trial"",""time""
""fullscreenenter"",""1"",""1287""
","
","","","","","","null","<div style=""font-size:60px;"">+</div>","null","","fixation","","","","","","","","",""
"memory-trial","146","428896","0.0-15.0-1.51","1974","2","""event"",""trial"",""time""
""fullscreenenter"",""1"",""1287""
""blur"",""7"",""21209""
""focus"",""7"",""22821""
""blur"",""35"",""147414""
""focus"",""35"",""147527""
","""event"",""trial"",""time""
""blur"",""7"",""21209""
""blur"",""35"",""147414""
","""event"",""trial"",""time""
""focus"",""7"",""22821""
""focus"",""35"",""147527""
","""event"",""trial"",""time""
""fullscreenenter"",""1"",""1287""
","
","","","","","","1877.8999999761581","images/bed2.png","","","memory_trial","3","maybe_new","","","","","","",""
"html-keyboard-response","147","429397","0.0-15.0-0.52","1974","2","""event"",""trial"",""time""
""fullscreenenter"",""1"",""1287""
""blur"",""7"",""21209""
""focus"",""7"",""22821""
""blur"",""35"",""147414""
""focus"",""35"",""147527""
","""event"",""trial"",""time""
""blur"",""7"",""21209""
""blur"",""35"",""147414""
","""event"",""trial"",""time""
""focus"",""7"",""22821""
""focus"",""35"",""147527""
","""event"",""trial"",""time""
""fullscreenenter"",""1"",""1287""
","
","","","","","","null","<div style=""font-size:60px;"">+</div>","null","","fixation","","","","","","","","",""
"memory-trial","148","431776","0.0-15.0-1.52","1974","2","""event"",""trial"",""time""
""fullscreenenter"",""1"",""1287""
""blur"",""7"",""21209""
""focus"",""7"",""22821""
""blur"",""35"",""147414""
""focus"",""35"",""147527""
","""event"",""trial"",""time""
""blur"",""7"",""21209""
""blur"",""35"",""147414""
","""event"",""trial"",""time""
""focus"",""7"",""22821""
""focus"",""35"",""147527""
","""event"",""trial"",""time""
""fullscreenenter"",""1"",""1287""
","
","","","","","","1376.1999999284744","images/goat3.png","","","memory_trial","4","definitely_new","","","","","","",""
"html-keyboard-response","149","432277","0.0-15.0-0.53","1974","2","""event"",""trial"",""time""
""fullscreenenter"",""1"",""1287""
""blur"",""7"",""21209""
""focus"",""7"",""22821""
""blur"",""35"",""147414""
""focus"",""35"",""147527""
","""event"",""trial"",""time""
""blur"",""7"",""21209""
""blur"",""35"",""147414""
","""event"",""trial"",""time""
""focus"",""7"",""22821""
""focus"",""35"",""147527""
","""event"",""trial"",""time""
""fullscreenenter"",""1"",""1287""
","
","","","","","","null","<div style=""font-size:60px;"">+</div>","null","","fixation","","","","","","","","",""
"memory-trial","150","435217","0.0-15.0-1.53","1974","2","""event"",""trial"",""time""
""fullscreenenter"",""1"",""1287""
""blur"",""7"",""21209""
""focus"",""7"",""22821""
""blur"",""35"",""147414""
""focus"",""35"",""147527""
","""event"",""trial"",""time""
""blur"",""7"",""21209""
""blur"",""35"",""147414""
","""event"",""trial"",""time""
""focus"",""7"",""22821""
""focus"",""35"",""147527""
","""event"",""trial"",""time""
""fullscreenenter"",""1"",""1287""
","
","","","","","","1936.8000000715256","images/sheep3.png","","","memory_trial","4","definitely_new","","","","","","",""
"html-keyboard-response","151","435719","0.0-15.0-0.54","1974","2","""event"",""trial"",""time""
""fullscreenenter"",""1"",""1287""
""blur"",""7"",""21209""
""focus"",""7"",""22821""
""blur"",""35"",""147414""
""focus"",""35"",""147527""
","""event"",""trial"",""time""
""blur"",""7"",""21209""
""blur"",""35"",""147414""
","""event"",""trial"",""time""
""focus"",""7"",""22821""
""focus"",""35"",""147527""
","""event"",""trial"",""time""
""fullscreenenter"",""1"",""1287""
","
","","","","","","null","<div style=""font-size:60px;"">+</div>","null","","fixation","","","","","","","","",""
"memory-trial","152","438208","0.0-15.0-1.54","1974","2","""event"",""trial"",""time""
""fullscreenenter"",""1"",""1287""
""blur"",""7"",""21209""
""focus"",""7"",""22821""
""blur"",""35"",""147414""
""focus"",""35"",""147527""
","""event"",""trial"",""time""
""blur"",""7"",""21209""
""blur"",""35"",""147414""
","""event"",""trial"",""time""
""focus"",""7"",""22821""
""focus"",""35"",""147527""
","""event"",""trial"",""time""
""fullscreenenter"",""1"",""1287""
","
","","","","","","1485.9000000953674","images/tree2.png","","","memory_trial","1","definitely_old","","","","","","",""
"html-keyboard-response","153","438710","0.0-15.0-0.55","1974","2","""event"",""trial"",""time""
""fullscreenenter"",""1"",""1287""
""blur"",""7"",""21209""
""focus"",""7"",""22821""
""blur"",""35"",""147414""
""focus"",""35"",""147527""
","""event"",""trial"",""time""
""blur"",""7"",""21209""
""blur"",""35"",""147414""
","""event"",""trial"",""time""
""focus"",""7"",""22821""
""focus"",""35"",""147527""
","""event"",""trial"",""time""
""fullscreenenter"",""1"",""1287""
","
","","","","","","null","<div style=""font-size:60px;"">+</div>","null","","fixation","","","","","","","","",""
"memory-trial","154","441569","0.0-15.0-1.55","1974","2","""event"",""trial"",""time""
""fullscreenenter"",""1"",""1287""
""blur"",""7"",""21209""
""focus"",""7"",""22821""
""blur"",""35"",""147414""
""focus"",""35"",""147527""
","""event"",""trial"",""time""
""blur"",""7"",""21209""
""blur"",""35"",""147414""
","""event"",""trial"",""time""
""focus"",""7"",""22821""
""focus"",""35"",""147527""
","""event"",""trial"",""time""
""fullscreenenter"",""1"",""1287""
","
","","","","","","1857.5","images/horse4.png","","","memory_trial","1","definitely_old","","","","","","",""
"html-keyboard-response","155","442070","0.0-15.0-0.56","1974","2","""event"",""trial"",""time""
""fullscreenenter"",""1"",""1287""
""blur"",""7"",""21209""
""focus"",""7"",""22821""
""blur"",""35"",""147414""
""focus"",""35"",""147527""
","""event"",""trial"",""time""
""blur"",""7"",""21209""
""blur"",""35"",""147414""
","""event"",""trial"",""time""
""focus"",""7"",""22821""
""focus"",""35"",""147527""
","""event"",""trial"",""time""
""fullscreenenter"",""1"",""1287""
","
","","","","","","null","<div style=""font-size:60px;"">+</div>","null","","fixation","","","","","","","","",""
"memory-trial","156","445256","0.0-15.0-1.56","1974","2","""event"",""trial"",""time""
""fullscreenenter"",""1"",""1287""
""blur"",""7"",""21209""
""focus"",""7"",""22821""
""blur"",""35"",""147414""
""focus"",""35"",""147527""
","""event"",""trial"",""time""
""blur"",""7"",""21209""
""blur"",""35"",""147414""
","""event"",""trial"",""time""
""focus"",""7"",""22821""
""focus"",""35"",""147527""
","""event"",""trial"",""time""
""fullscreenenter"",""1"",""1287""
","
","","","","","","2183.899999976158","images/dog2.png","","","memory_trial","3","maybe_new","","","","","","",""
"html-keyboard-response","157","445758","0.0-15.0-0.57","1974","2","""event"",""trial"",""time""
""fullscreenenter"",""1"",""1287""
""blur"",""7"",""21209""
""focus"",""7"",""22821""
""blur"",""35"",""147414""
""focus"",""35"",""147527""
","""event"",""trial"",""time""
""blur"",""7"",""21209""
""blur"",""35"",""147414""
","""event"",""trial"",""time""
""focus"",""7"",""22821""
""focus"",""35"",""147527""
","""event"",""trial"",""time""
""fullscreenenter"",""1"",""1287""
","
","","","","","","null","<div style=""font-size:60px;"">+</div>","null","","fixation","","","","","","","","",""
"memory-trial","158","449666","0.0-15.0-1.57","1974","2","""event"",""trial"",""time""
""fullscreenenter"",""1"",""1287""
""blur"",""7"",""21209""
""focus"",""7"",""22821""
""blur"",""35"",""147414""
""focus"",""35"",""147527""
","""event"",""trial"",""time""
""blur"",""7"",""21209""
""blur"",""35"",""147414""
","""event"",""trial"",""time""
""focus"",""7"",""22821""
""focus"",""35"",""147527""
","""event"",""trial"",""time""
""fullscreenenter"",""1"",""1287""
","
","","","","","","2904.7999999523163","images/rodent1.png","","","memory_trial","3","maybe_new","","","","","","",""
"html-keyboard-response","159","450168","0.0-15.0-0.58","1974","2","""event"",""trial"",""time""
""fullscreenenter"",""1"",""1287""
""blur"",""7"",""21209""
""focus"",""7"",""22821""
""blur"",""35"",""147414""
""focus"",""35"",""147527""
","""event"",""trial"",""time""
""blur"",""7"",""21209""
""blur"",""35"",""147414""
","""event"",""trial"",""time""
""focus"",""7"",""22821""
""focus"",""35"",""147527""
","""event"",""trial"",""time""
""fullscreenenter"",""1"",""1287""
","
","","","","","","null","<div style=""font-size:60px;"">+</div>","null","","fixation","","","","","","","","",""
"memory-trial","160","453369","0.0-15.0-1.58","1974","2","""event"",""trial"",""time""
""fullscreenenter"",""1"",""1287""
""blur"",""7"",""21209""
""focus"",""7"",""22821""
""blur"",""35"",""147414""
""focus"",""35"",""147527""
","""event"",""trial"",""time""
""blur"",""7"",""21209""
""blur"",""35"",""147414""
","""event"",""trial"",""time""
""focus"",""7"",""22821""
""focus"",""35"",""147527""
","""event"",""trial"",""time""
""fullscreenenter"",""1"",""1287""
","
","","","","","","2197.399999976158","images/cow5.png","","","memory_trial","3","maybe_new","","","","","","",""
"html-keyboard-response","161","453870","0.0-15.0-0.59","1974","2","""event"",""trial"",""time""
""fullscreenenter"",""1"",""1287""
""blur"",""7"",""21209""
""focus"",""7"",""22821""
""blur"",""35"",""147414""
""focus"",""35"",""147527""
","""event"",""trial"",""time""
""blur"",""7"",""21209""
""blur"",""35"",""147414""
","""event"",""trial"",""time""
""focus"",""7"",""22821""
""focus"",""35"",""147527""
","""event"",""trial"",""time""
""fullscreenenter"",""1"",""1287""
","
","","","","","","null","<div style=""font-size:60px;"">+</div>","null","","fixation","","","","","","","","",""
"memory-trial","162","456049","0.0-15.0-1.59","1974","2","""event"",""trial"",""time""
""fullscreenenter"",""1"",""1287""
""blur"",""7"",""21209""
""focus"",""7"",""22821""
""blur"",""35"",""147414""
""focus"",""35"",""147527""
","""event"",""trial"",""time""
""blur"",""7"",""21209""
""blur"",""35"",""147414""
","""event"",""trial"",""time""
""focus"",""7"",""22821""
""focus"",""35"",""147527""
","""event"",""trial"",""time""
""fullscreenenter"",""1"",""1287""
","
","","","","","","1175.2000000476837","images/orange4.png","","","memory_trial","1","definitely_old","","","","","","",""
"html-keyboard-response","163","456552","0.0-15.0-0.60","1974","2","""event"",""trial"",""time""
""fullscreenenter"",""1"",""1287""
""blur"",""7"",""21209""
""focus"",""7"",""22821""
""blur"",""35"",""147414""
""focus"",""35"",""147527""
","""event"",""trial"",""time""
""blur"",""7"",""21209""
""blur"",""35"",""147414""
","""event"",""trial"",""time""
""focus"",""7"",""22821""
""focus"",""35"",""147527""
","""event"",""trial"",""time""
""fullscreenenter"",""1"",""1287""
","
","","","","","","null","<div style=""font-size:60px;"">+</div>","null","","fixation","","","","","","","","",""
"memory-trial","164","459266","0.0-15.0-1.60","1974","2","""event"",""trial"",""time""
""fullscreenenter"",""1"",""1287""
""blur"",""7"",""21209""
""focus"",""7"",""22821""
""blur"",""35"",""147414""
""focus"",""35"",""147527""
","""event"",""trial"",""time""
""blur"",""7"",""21209""
""blur"",""35"",""147414""
","""event"",""trial"",""time""
""focus"",""7"",""22821""
""focus"",""35"",""147527""
","""event"",""trial"",""time""
""fullscreenenter"",""1"",""1287""
","
","","","","","","1711.8999999761581","images/sheep1.png","","","memory_trial","1","definitely_old","","","","","","",""
"html-keyboard-response","165","459768","0.0-15.0-0.61","1974","2","""event"",""trial"",""time""
""fullscreenenter"",""1"",""1287""
""blur"",""7"",""21209""
""focus"",""7"",""22821""
""blur"",""35"",""147414""
""focus"",""35"",""147527""
","""event"",""trial"",""time""
""blur"",""7"",""21209""
""blur"",""35"",""147414""
","""event"",""trial"",""time""
""focus"",""7"",""22821""
""focus"",""35"",""147527""
","""event"",""trial"",""time""
""fullscreenenter"",""1"",""1287""
","
","","","","","","null","<div style=""font-size:60px;"">+</div>","null","","fixation","","","","","","","","",""
"memory-trial","166","461489","0.0-15.0-1.61","1974","2","""event"",""trial"",""time""
""fullscreenenter"",""1"",""1287""
""blur"",""7"",""21209""
""focus"",""7"",""22821""
""blur"",""35"",""147414""
""focus"",""35"",""147527""
","""event"",""trial"",""time""
""blur"",""7"",""21209""
""blur"",""35"",""147414""
","""event"",""trial"",""time""
""focus"",""7"",""22821""
""focus"",""35"",""147527""
","""event"",""trial"",""time""
""fullscreenenter"",""1"",""1287""
","
","","","","","","718.4000000953674","images/banana5.png","","","memory_trial","1","definitely_old","","","","","","",""
"html-keyboard-response","167","461990","0.0-15.0-0.62","1974","2","""event"",""trial"",""time""
""fullscreenenter"",""1"",""1287""
""blur"",""7"",""21209""
""focus"",""7"",""22821""
""blur"",""35"",""147414""
""focus"",""35"",""147527""
","""event"",""trial"",""time""
""blur"",""7"",""21209""
""blur"",""35"",""147414""
","""event"",""trial"",""time""
""focus"",""7"",""22821""
""focus"",""35"",""147527""
","""event"",""trial"",""time""
""fullscreenenter"",""1"",""1287""
","
","","","","","","null","<div style=""font-size:60px;"">+</div>","null","","fixation","","","","","","","","",""
"memory-trial","168","464720","0.0-15.0-1.62","1974","2","""event"",""trial"",""time""
""fullscreenenter"",""1"",""1287""
""blur"",""7"",""21209""
""focus"",""7"",""22821""
""blur"",""35"",""147414""
""focus"",""35"",""147527""
","""event"",""trial"",""time""
""blur"",""7"",""21209""
""blur"",""35"",""147414""
","""event"",""trial"",""time""
""focus"",""7"",""22821""
""focus"",""35"",""147527""
","""event"",""trial"",""time""
""fullscreenenter"",""1"",""1287""
","
","","","","","","1727.5999999046326","images/cow2.png","","","memory_trial","2","maybe_old","","","","","","",""
