"trial_type","trial_index","time_elapsed","internal_node_id","subject_id","task_version","interactions","blur_events","focus_events","fullscreenenter_events","fullscreenexit_events","success","timeout","failed_images","failed_audio","failed_video","rt","stimulus","response","button_pressed","task_part","key_press","answer","correct","left_choice","middle_choice","right_choice","choice_positions","option_selected","block"
"pavlovia","0","20","0.0-0.0","1744","2","""event"",""trial"",""time""
""focus"",""0"",""1""
""fullscreenenter"",""1"",""2138""
","
","""event"",""trial"",""time""
""focus"",""0"",""1""
","""event"",""trial"",""time""
""fullscreenenter"",""1"",""2138""
","
","","","","","","","","","","","","","","","","","","",""
"fullscreen","1","2852","0.0-1.0","1744","2","""event"",""trial"",""time""
""focus"",""0"",""1""
""fullscreenenter"",""1"",""2138""
""fullscreenexit"",""2"",""3305""
","
","""event"",""trial"",""time""
""focus"",""0"",""1""
","""event"",""trial"",""time""
""fullscreenenter"",""1"",""2138""
","""event"",""trial"",""time""
""fullscreenexit"",""2"",""3305""
","true","","","","","","","","","","","","","","","","","",""
"preload","2","3467","0.0-2.0","1744","2","""event"",""trial"",""time""
""focus"",""0"",""1""
""fullscreenenter"",""1"",""2138""
""fullscreenexit"",""2"",""3305""
","
","""event"",""trial"",""time""
""focus"",""0"",""1""
","""event"",""trial"",""time""
""fullscreenenter"",""1"",""2138""
","""event"",""trial"",""time""
""fullscreenexit"",""2"",""3305""
","true","false","[]","[]","[]","","","","","","","","","","","","","",""
"audio-keyboard-response","3","6208","0.0-3.0","1744","2","""event"",""trial"",""time""
""focus"",""0"",""1""
""fullscreenenter"",""1"",""2138""
""fullscreenexit"",""2"",""3305""
","
","""event"",""trial"",""time""
""focus"",""0"",""1""
","""event"",""trial"",""time""
""fullscreenenter"",""1"",""2138""
","""event"",""trial"",""time""
""fullscreenexit"",""2"",""3305""
","","","","","","2741.3333333333335","audio/beep_loop.wav"," ","","","","","","","","","","",""
"audio-button-response","4","8511","0.0-4.0","1744","2","""event"",""trial"",""time""
""focus"",""0"",""1""
""fullscreenenter"",""1"",""2138""
""fullscreenexit"",""2"",""3305""
","
","""event"",""trial"",""time""
""focus"",""0"",""1""
","""event"",""trial"",""time""
""fullscreenenter"",""1"",""2138""
","""event"",""trial"",""time""
""fullscreenexit"",""2"",""3305""
","","","","","","2299","audio/turtle.wav","3","","","","","","","","","","",""
"audio-button-response","5","10390","0.0-5.0","1744","2","""event"",""trial"",""time""
""focus"",""0"",""1""
""fullscreenenter"",""1"",""2138""
""fullscreenexit"",""2"",""3305""
","
","""event"",""trial"",""time""
""focus"",""0"",""1""
","""event"",""trial"",""time""
""fullscreenenter"",""1"",""2138""
","""event"",""trial"",""time""
""fullscreenexit"",""2"",""3305""
","","","","","","869","audio/shark.wav","2","","","","","","","","","","",""
"preload","6","12910","0.0-6.0","1744","2","""event"",""trial"",""time""
""focus"",""0"",""1""
""fullscreenenter"",""1"",""2138""
""fullscreenexit"",""2"",""3305""
","
","""event"",""trial"",""time""
""focus"",""0"",""1""
","""event"",""trial"",""time""
""fullscreenenter"",""1"",""2138""
","""event"",""trial"",""time""
""fullscreenexit"",""2"",""3305""
","true","false","[]","[]","[]","","","","","","","","","","","","","",""
"learning-instructions","7","20900","0.0-7.0-0.0","1744","2","""event"",""trial"",""time""
""focus"",""0"",""1""
""fullscreenenter"",""1"",""2138""
""fullscreenexit"",""2"",""3305""
","
","""event"",""trial"",""time""
""focus"",""0"",""1""
","""event"",""trial"",""time""
""fullscreenenter"",""1"",""2138""
","""event"",""trial"",""time""
""fullscreenexit"",""2"",""3305""
","","","","","","3168","<p> Welcome back! </p><p> Last week, you had to make choices about lots of different items.  </p>","","0","instructions","","","","","","","","",""
"learning-instructions","8","26846","0.0-7.0-0.1","1744","2","""event"",""trial"",""time""
""focus"",""0"",""1""
""fullscreenenter"",""1"",""2138""
""fullscreenexit"",""2"",""3305""
","
","""event"",""trial"",""time""
""focus"",""0"",""1""
","""event"",""trial"",""time""
""fullscreenenter"",""1"",""2138""
","""event"",""trial"",""time""
""fullscreenexit"",""2"",""3305""
","","","","","","1634","<p> Today, we are going to ask you to try to remember all the items. </p>","","0","instructions","","","","","","","","",""
"learning-instructions","9","37452","0.0-7.0-0.2","1744","2","""event"",""trial"",""time""
""focus"",""0"",""1""
""fullscreenenter"",""1"",""2138""
""fullscreenexit"",""2"",""3305""
","
","""event"",""trial"",""time""
""focus"",""0"",""1""
","""event"",""trial"",""time""
""fullscreenenter"",""1"",""2138""
","""event"",""trial"",""time""
""fullscreenexit"",""2"",""3305""
","","","","","","461","<p> On every trial, you will see an image. </p><p> The image may be an OLD image you saw during the games last week or it may be a NEW image that was not presented. </p>","","0","instructions","","","","","","","","",""
"learning-instructions","10","46833","0.0-7.0-0.3","1744","2","""event"",""trial"",""time""
""focus"",""0"",""1""
""fullscreenenter"",""1"",""2138""
""fullscreenexit"",""2"",""3305""
","
","""event"",""trial"",""time""
""focus"",""0"",""1""
","""event"",""trial"",""time""
""fullscreenenter"",""1"",""2138""
","""event"",""trial"",""time""
""fullscreenexit"",""2"",""3305""
","","","","","","861","<p> You need to select whether the image is:  </p><p>  'Definitely old', 'Maybe old', 'Maybe new', or 'Definitely new.'  </p><div class=""mem-choice-instructions-grid""><div class=""choice-option"" id=""choice-option-1"" ><img src=""images/definitely_old_1.png"" id=""choice-option-img-1"" class=""choice-option-img"" stage=""1""></div><div class=""choice-option"" id=""choice-option-2"" ><img src=""images/maybe_old_1.png"" id=""choice-option-img-2"" class=""choice-option-img"" stage=""1""></div><div class=""choice-option"" id=""choice-option-3"" ><img src=""images/maybe_new_1.png"" id=""choice-option-img-3"" class=""choice-option-img"" stage=""1""></div><div class=""choice-option"" id=""choice-option-4"" > <img src=""images/definitely_new_1.png"" id=""choice-option-img-4"" class=""choice-option-img"" stage=""1""></div></div>","","0","instructions","","","","","","","","",""
"learning-instructions","11","54052","0.0-7.0-0.4","1744","2","""event"",""trial"",""time""
""focus"",""0"",""1""
""fullscreenenter"",""1"",""2138""
""fullscreenexit"",""2"",""3305""
","
","""event"",""trial"",""time""
""focus"",""0"",""1""
","""event"",""trial"",""time""
""fullscreenenter"",""1"",""2138""
","""event"",""trial"",""time""
""fullscreenexit"",""2"",""3305""
","","","","","","510","<p> You should use the 1, 2, 3, and 4 keys to make your responses.  </p><div class=""mem-choice-instructions-grid""><div class=""choice-option"" id=""choice-option-1"" ><img src=""images/definitely_old.png"" id=""choice-option-img-1"" class=""choice-option-img"" stage=""1""></div><div class=""choice-option"" id=""choice-option-2"" ><img src=""images/maybe_old.png"" id=""choice-option-img-2"" class=""choice-option-img"" stage=""1""></div><div class=""choice-option"" id=""choice-option-3"" ><img src=""images/maybe_new.png"" id=""choice-option-img-3"" class=""choice-option-img"" stage=""1""></div><div class=""choice-option"" id=""choice-option-4"" > <img src=""images/definitely_new.png"" id=""choice-option-img-4"" class=""choice-option-img"" stage=""1""></div></div>","","0","instructions","","","","","","","","",""
"learning-instructions","12","61736","0.0-7.0-0.5","1744","2","""event"",""trial"",""time""
""focus"",""0"",""1""
""fullscreenenter"",""1"",""2138""
""fullscreenexit"",""2"",""3305""
","
","""event"",""trial"",""time""
""focus"",""0"",""1""
","""event"",""trial"",""time""
""fullscreenenter"",""1"",""2138""
","""event"",""trial"",""time""
""fullscreenexit"",""2"",""3305""
","","","","","","913","<p> You will have 10 seconds to make each response.  </p><p>  Make sure to respond before time runs out! </p>","","0","instructions","","","","","","","","",""
"learning-instructions","13","69712","0.0-7.0-0.6","1744","2","""event"",""trial"",""time""
""focus"",""0"",""1""
""fullscreenenter"",""1"",""2138""
""fullscreenexit"",""2"",""3305""
","
","""event"",""trial"",""time""
""focus"",""0"",""1""
","""event"",""trial"",""time""
""fullscreenenter"",""1"",""2138""
","""event"",""trial"",""time""
""fullscreenexit"",""2"",""3305""
","","","","","","379","<p> Today, you will see each image ONCE only.  </p><p>  That means none of the images will repeat. </p>","","0","instructions","","","","","","","","",""
"learning-instructions","14","83128","0.0-7.0-0.7","1744","2","""event"",""trial"",""time""
""focus"",""0"",""1""
""fullscreenenter"",""1"",""2138""
""fullscreenexit"",""2"",""3305""
","
","""event"",""trial"",""time""
""focus"",""0"",""1""
","""event"",""trial"",""time""
""fullscreenenter"",""1"",""2138""
","""event"",""trial"",""time""
""fullscreenexit"",""2"",""3305""
","","","","","","726","<p> Before you play the real game, it is time to practice. </p><p>  Just like in the real game, some of the images in the practice will be ones you have seen before. </p><p>  Others will be entirely new. </p>","","0","instructions","","","","","","","","",""
"html-button-response","15","87432","0.0-8.0","1744","2","""event"",""trial"",""time""
""focus"",""0"",""1""
""fullscreenenter"",""1"",""2138""
""fullscreenexit"",""2"",""3305""
","
","""event"",""trial"",""time""
""focus"",""0"",""1""
","""event"",""trial"",""time""
""fullscreenenter"",""1"",""2138""
","""event"",""trial"",""time""
""fullscreenexit"",""2"",""3305""
","","","","","","4198","<p> Ready to practice? </p><p> Remember, use the 1, 2, 3, and 4 keys to make your responses. </p>","0","","instructions","","","","","","","","",""
"html-keyboard-response","16","88055","0.0-9.0-0.0","1744","2","""event"",""trial"",""time""
""focus"",""0"",""1""
""fullscreenenter"",""1"",""2138""
""fullscreenexit"",""2"",""3305""
","
","""event"",""trial"",""time""
""focus"",""0"",""1""
","""event"",""trial"",""time""
""fullscreenenter"",""1"",""2138""
","""event"",""trial"",""time""
""fullscreenexit"",""2"",""3305""
","","","","","","null","<div style=""font-size:60px;"">+</div>","null","","fixation","","","","","","","","",""
"memory-trial","17","90966","0.0-9.0-1.0","1744","2","""event"",""trial"",""time""
""focus"",""0"",""1""
""fullscreenenter"",""1"",""2138""
""fullscreenexit"",""2"",""3305""
","
","""event"",""trial"",""time""
""focus"",""0"",""1""
","""event"",""trial"",""time""
""fullscreenenter"",""1"",""2138""
","""event"",""trial"",""time""
""fullscreenexit"",""2"",""3305""
","","","","","","1901","images/racket4.png","","","practice","3","maybe_new","","","","","","",""
"html-keyboard-response","18","91474","0.0-9.0-0.1","1744","2","""event"",""trial"",""time""
""focus"",""0"",""1""
""fullscreenenter"",""1"",""2138""
""fullscreenexit"",""2"",""3305""
","
","""event"",""trial"",""time""
""focus"",""0"",""1""
","""event"",""trial"",""time""
""fullscreenenter"",""1"",""2138""
","""event"",""trial"",""time""
""fullscreenexit"",""2"",""3305""
","","","","","","null","<div style=""font-size:60px;"">+</div>","null","","fixation","","","","","","","","",""
"memory-trial","19","94831","0.0-9.0-1.1","1744","2","""event"",""trial"",""time""
""focus"",""0"",""1""
""fullscreenenter"",""1"",""2138""
""fullscreenexit"",""2"",""3305""
","
","""event"",""trial"",""time""
""focus"",""0"",""1""
","""event"",""trial"",""time""
""fullscreenenter"",""1"",""2138""
","""event"",""trial"",""time""
""fullscreenexit"",""2"",""3305""
","","","","","","2344","images/racket2.png","","","practice","4","definitely_new","","","","","","",""
"html-keyboard-response","20","95341","0.0-9.0-0.2","1744","2","""event"",""trial"",""time""
""focus"",""0"",""1""
""fullscreenenter"",""1"",""2138""
""fullscreenexit"",""2"",""3305""
","
","""event"",""trial"",""time""
""focus"",""0"",""1""
","""event"",""trial"",""time""
""fullscreenenter"",""1"",""2138""
","""event"",""trial"",""time""
""fullscreenexit"",""2"",""3305""
","","","","","","null","<div style=""font-size:60px;"">+</div>","null","","fixation","","","","","","","","",""
"memory-trial","21","98230","0.0-9.0-1.2","1744","2","""event"",""trial"",""time""
""focus"",""0"",""1""
""fullscreenenter"",""1"",""2138""
""fullscreenexit"",""2"",""3305""
","
","""event"",""trial"",""time""
""focus"",""0"",""1""
","""event"",""trial"",""time""
""fullscreenenter"",""1"",""2138""
","""event"",""trial"",""time""
""fullscreenexit"",""2"",""3305""
","","","","","","1876","images/ball1.png","","","practice","1","definitely_old","","","","","","",""
"html-keyboard-response","22","98739","0.0-9.0-0.3","1744","2","""event"",""trial"",""time""
""focus"",""0"",""1""
""fullscreenenter"",""1"",""2138""
""fullscreenexit"",""2"",""3305""
","
","""event"",""trial"",""time""
""focus"",""0"",""1""
","""event"",""trial"",""time""
""fullscreenenter"",""1"",""2138""
","""event"",""trial"",""time""
""fullscreenexit"",""2"",""3305""
","","","","","","null","<div style=""font-size:60px;"">+</div>","null","","fixation","","","","","","","","",""
"memory-trial","23","101751","0.0-9.0-1.3","1744","2","""event"",""trial"",""time""
""focus"",""0"",""1""
""fullscreenenter"",""1"",""2138""
""fullscreenexit"",""2"",""3305""
","
","""event"",""trial"",""time""
""focus"",""0"",""1""
","""event"",""trial"",""time""
""fullscreenenter"",""1"",""2138""
","""event"",""trial"",""time""
""fullscreenexit"",""2"",""3305""
","","","","","","2008","images/racket1.png","","","practice","4","definitely_new","","","","","","",""
"html-keyboard-response","24","102262","0.0-9.0-0.4","1744","2","""event"",""trial"",""time""
""focus"",""0"",""1""
""fullscreenenter"",""1"",""2138""
""fullscreenexit"",""2"",""3305""
","
","""event"",""trial"",""time""
""focus"",""0"",""1""
","""event"",""trial"",""time""
""fullscreenenter"",""1"",""2138""
","""event"",""trial"",""time""
""fullscreenexit"",""2"",""3305""
","","","","","","null","<div style=""font-size:60px;"">+</div>","null","","fixation","","","","","","","","",""
"memory-trial","25","104870","0.0-9.0-1.4","1744","2","""event"",""trial"",""time""
""focus"",""0"",""1""
""fullscreenenter"",""1"",""2138""
""fullscreenexit"",""2"",""3305""
","
","""event"",""trial"",""time""
""focus"",""0"",""1""
","""event"",""trial"",""time""
""fullscreenenter"",""1"",""2138""
","""event"",""trial"",""time""
""fullscreenexit"",""2"",""3305""
","","","","","","1596","images/racket3.png","","","practice","4","definitely_new","","","","","","",""
"html-keyboard-response","26","105381","0.0-9.0-0.5","1744","2","""event"",""trial"",""time""
""focus"",""0"",""1""
""fullscreenenter"",""1"",""2138""
""fullscreenexit"",""2"",""3305""
","
","""event"",""trial"",""time""
""focus"",""0"",""1""
","""event"",""trial"",""time""
""fullscreenenter"",""1"",""2138""
","""event"",""trial"",""time""
""fullscreenexit"",""2"",""3305""
","","","","","","null","<div style=""font-size:60px;"">+</div>","null","","fixation","","","","","","","","",""
"memory-trial","27","108436","0.0-9.0-1.5","1744","2","""event"",""trial"",""time""
""focus"",""0"",""1""
""fullscreenenter"",""1"",""2138""
""fullscreenexit"",""2"",""3305""
","
","""event"",""trial"",""time""
""focus"",""0"",""1""
","""event"",""trial"",""time""
""fullscreenenter"",""1"",""2138""
","""event"",""trial"",""time""
""fullscreenexit"",""2"",""3305""
","","","","","","2046","images/ball3.png","","","practice","1","definitely_old","","","","","","",""
"html-keyboard-response","28","108938","0.0-9.0-0.6","1744","2","""event"",""trial"",""time""
""focus"",""0"",""1""
""fullscreenenter"",""1"",""2138""
""fullscreenexit"",""2"",""3305""
","
","""event"",""trial"",""time""
""focus"",""0"",""1""
","""event"",""trial"",""time""
""fullscreenenter"",""1"",""2138""
","""event"",""trial"",""time""
""fullscreenexit"",""2"",""3305""
","","","","","","null","<div style=""font-size:60px;"">+</div>","null","","fixation","","","","","","","","",""
"memory-trial","29","111819","0.0-9.0-1.6","1744","2","""event"",""trial"",""time""
""focus"",""0"",""1""
""fullscreenenter"",""1"",""2138""
""fullscreenexit"",""2"",""3305""
","
","""event"",""trial"",""time""
""focus"",""0"",""1""
","""event"",""trial"",""time""
""fullscreenenter"",""1"",""2138""
","""event"",""trial"",""time""
""fullscreenexit"",""2"",""3305""
","","","","","","1868","images/ball2.png","","","practice","3","maybe_new","","","","","","",""
"html-keyboard-response","30","112328","0.0-9.0-0.7","1744","2","""event"",""trial"",""time""
""focus"",""0"",""1""
""fullscreenenter"",""1"",""2138""
""fullscreenexit"",""2"",""3305""
","
","""event"",""trial"",""time""
""focus"",""0"",""1""
","""event"",""trial"",""time""
""fullscreenenter"",""1"",""2138""
","""event"",""trial"",""time""
""fullscreenexit"",""2"",""3305""
","","","","","","null","<div style=""font-size:60px;"">+</div>","null","","fixation","","","","","","","","",""
"memory-trial","31","115315","0.0-9.0-1.7","1744","2","""event"",""trial"",""time""
""focus"",""0"",""1""
""fullscreenenter"",""1"",""2138""
""fullscreenexit"",""2"",""3305""
","
","""event"",""trial"",""time""
""focus"",""0"",""1""
","""event"",""trial"",""time""
""fullscreenenter"",""1"",""2138""
","""event"",""trial"",""time""
""fullscreenexit"",""2"",""3305""
","","","","","","1979","images/ball4.png","","","practice","3","maybe_new","","","","","","",""
"learning-instructions","32","124694","0.0-10.0-0.0","1744","2","""event"",""trial"",""time""
""focus"",""0"",""1""
""fullscreenenter"",""1"",""2138""
""fullscreenexit"",""2"",""3305""
","
","""event"",""trial"",""time""
""focus"",""0"",""1""
","""event"",""trial"",""time""
""fullscreenenter"",""1"",""2138""
","""event"",""trial"",""time""
""fullscreenexit"",""2"",""3305""
","","","","","","1421","<p> Great! You have completed the practice. </p><p> Before you start, we're going to ask you a few questions about how the game works.  </p>","","0","instructions","","","","","","","","",""
"preload","33","125939","0.0-11.0","1744","2","""event"",""trial"",""time""
""focus"",""0"",""1""
""fullscreenenter"",""1"",""2138""
""fullscreenexit"",""2"",""3305""
","
","""event"",""trial"",""time""
""focus"",""0"",""1""
","""event"",""trial"",""time""
""fullscreenenter"",""1"",""2138""
","""event"",""trial"",""time""
""fullscreenexit"",""2"",""3305""
","true","false","[]","[]","[]","","","","","","","","","","","","","",""
"comp-q","34","132732","0.0-12.0-0.0","1744","2","""event"",""trial"",""time""
""focus"",""0"",""1""
""fullscreenenter"",""1"",""2138""
""fullscreenexit"",""2"",""3305""
","
","""event"",""trial"",""time""
""focus"",""0"",""1""
","""event"",""trial"",""time""
""fullscreenenter"",""1"",""2138""
","""event"",""trial"",""time""
""fullscreenexit"",""2"",""3305""
","","","","","","959","<p> <b> True or False? </b> </p><p> In this game, you will only see each image once. </p>","","0","comp_question","","","true","","","","","",""
"comp-q","35","140864","0.0-12.0-1.0","1744","2","""event"",""trial"",""time""
""focus"",""0"",""1""
""fullscreenenter"",""1"",""2138""
""fullscreenexit"",""2"",""3305""
","
","""event"",""trial"",""time""
""focus"",""0"",""1""
","""event"",""trial"",""time""
""fullscreenenter"",""1"",""2138""
","""event"",""trial"",""time""
""fullscreenexit"",""2"",""3305""
","","","","","","1781","<p> <b> That's right! </b> You will see many different images <i> one time each </i> in this game. </p>","","0","comp_answer","","","","","","","","",""
"comp-q","36","147128","0.0-12.0-0.1","1744","2","""event"",""trial"",""time""
""focus"",""0"",""1""
""fullscreenenter"",""1"",""2138""
""fullscreenexit"",""2"",""3305""
","
","""event"",""trial"",""time""
""focus"",""0"",""1""
","""event"",""trial"",""time""
""fullscreenenter"",""1"",""2138""
","""event"",""trial"",""time""
""fullscreenexit"",""2"",""3305""
","","","","","","454","<p> <b> True or False? </b> </p><p> You should use the mouse and click to make your response. </p>","","1","comp_question","","","true","","","","","",""
"comp-q","37","155537","0.0-12.0-1.1","1744","2","""event"",""trial"",""time""
""focus"",""0"",""1""
""fullscreenenter"",""1"",""2138""
""fullscreenexit"",""2"",""3305""
","
","""event"",""trial"",""time""
""focus"",""0"",""1""
","""event"",""trial"",""time""
""fullscreenenter"",""1"",""2138""
","""event"",""trial"",""time""
""fullscreenexit"",""2"",""3305""
","","","","","","1045","<p><b> That's right! </b> You should use the '1', '2', '3', and '4' keys to make your response. </p>","","0","comp_answer","","","","","","","","",""
"comp-q","38","162071","0.0-12.0-0.2","1744","2","""event"",""trial"",""time""
""focus"",""0"",""1""
""fullscreenenter"",""1"",""2138""
""fullscreenexit"",""2"",""3305""
","
","""event"",""trial"",""time""
""focus"",""0"",""1""
","""event"",""trial"",""time""
""fullscreenenter"",""1"",""2138""
","""event"",""trial"",""time""
""fullscreenexit"",""2"",""3305""
","","","","","","519","<p> <b> True or False? </b> </p><p> You will have as much time as you want to make each choice. </p>","","1","comp_question","","","true","","","","","",""
"comp-q","39","169635","0.0-12.0-1.2","1744","2","""event"",""trial"",""time""
""focus"",""0"",""1""
""fullscreenenter"",""1"",""2138""
""fullscreenexit"",""2"",""3305""
","
","""event"",""trial"",""time""
""focus"",""0"",""1""
","""event"",""trial"",""time""
""fullscreenenter"",""1"",""2138""
","""event"",""trial"",""time""
""fullscreenexit"",""2"",""3305""
","","","","","","2151","<p> <b> That's right! </b> You will only have 10 seconds to make each choice. </p>","","0","comp_answer","","","","","","","","",""
"learning-instructions","40","179763","0.0-13.0","1744","2","""event"",""trial"",""time""
""focus"",""0"",""1""
""fullscreenenter"",""1"",""2138""
""fullscreenexit"",""2"",""3305""
","
","""event"",""trial"",""time""
""focus"",""0"",""1""
","""event"",""trial"",""time""
""fullscreenenter"",""1"",""2138""
","""event"",""trial"",""time""
""fullscreenexit"",""2"",""3305""
","","","","","","1430","<p> Great! You are now ready to begin the game. </p><p> Remember, use the 1, 2, 3, and 4 keys to make your responses. </p>","","0","instructions","","","","","","","","",""
"preload","41","181835","0.0-14.0","1744","2","""event"",""trial"",""time""
""focus"",""0"",""1""
""fullscreenenter"",""1"",""2138""
""fullscreenexit"",""2"",""3305""
","
","""event"",""trial"",""time""
""focus"",""0"",""1""
","""event"",""trial"",""time""
""fullscreenenter"",""1"",""2138""
","""event"",""trial"",""time""
""fullscreenexit"",""2"",""3305""
","true","false","[]","[]","[]","","","","","","","","","","","","","",""
"html-keyboard-response","42","182338","0.0-15.0-0.0","1744","2","""event"",""trial"",""time""
""focus"",""0"",""1""
""fullscreenenter"",""1"",""2138""
""fullscreenexit"",""2"",""3305""
","
","""event"",""trial"",""time""
""focus"",""0"",""1""
","""event"",""trial"",""time""
""fullscreenenter"",""1"",""2138""
","""event"",""trial"",""time""
""fullscreenexit"",""2"",""3305""
","","","","","","null","<div style=""font-size:60px;"">+</div>","null","","fixation","","","","","","","","",""
"memory-trial","43","185915","0.0-15.0-1.0","1744","2","""event"",""trial"",""time""
""focus"",""0"",""1""
""fullscreenenter"",""1"",""2138""
""fullscreenexit"",""2"",""3305""
","
","""event"",""trial"",""time""
""focus"",""0"",""1""
","""event"",""trial"",""time""
""fullscreenenter"",""1"",""2138""
","""event"",""trial"",""time""
""fullscreenexit"",""2"",""3305""
","","","","","","2568","images/cactus1.png","","","memory_trial","3","maybe_new","","","","","","",""
"html-keyboard-response","44","186421","0.0-15.0-0.1","1744","2","""event"",""trial"",""time""
""focus"",""0"",""1""
""fullscreenenter"",""1"",""2138""
""fullscreenexit"",""2"",""3305""
","
","""event"",""trial"",""time""
""focus"",""0"",""1""
","""event"",""trial"",""time""
""fullscreenenter"",""1"",""2138""
","""event"",""trial"",""time""
""fullscreenexit"",""2"",""3305""
","","","","","","null","<div style=""font-size:60px;"">+</div>","null","","fixation","","","","","","","","",""
"memory-trial","45","189332","0.0-15.0-1.1","1744","2","""event"",""trial"",""time""
""focus"",""0"",""1""
""fullscreenenter"",""1"",""2138""
""fullscreenexit"",""2"",""3305""
","
","""event"",""trial"",""time""
""focus"",""0"",""1""
","""event"",""trial"",""time""
""fullscreenenter"",""1"",""2138""
","""event"",""trial"",""time""
""fullscreenexit"",""2"",""3305""
","","","","","","1900","images/dog4.png","","","memory_trial","1","definitely_old","","","","","","",""
"html-keyboard-response","46","189842","0.0-15.0-0.2","1744","2","""event"",""trial"",""time""
""focus"",""0"",""1""
""fullscreenenter"",""1"",""2138""
""fullscreenexit"",""2"",""3305""
","
","""event"",""trial"",""time""
""focus"",""0"",""1""
","""event"",""trial"",""time""
""fullscreenenter"",""1"",""2138""
","""event"",""trial"",""time""
""fullscreenexit"",""2"",""3305""
","","","","","","null","<div style=""font-size:60px;"">+</div>","null","","fixation","","","","","","","","",""
"memory-trial","47","192907","0.0-15.0-1.2","1744","2","""event"",""trial"",""time""
""focus"",""0"",""1""
""fullscreenenter"",""1"",""2138""
""fullscreenexit"",""2"",""3305""
","
","""event"",""trial"",""time""
""focus"",""0"",""1""
","""event"",""trial"",""time""
""fullscreenenter"",""1"",""2138""
","""event"",""trial"",""time""
""fullscreenexit"",""2"",""3305""
","","","","","","2062","images/sheep2.png","","","memory_trial","3","maybe_new","","","","","","",""
"html-keyboard-response","48","193409","0.0-15.0-0.3","1744","2","""event"",""trial"",""time""
""focus"",""0"",""1""
""fullscreenenter"",""1"",""2138""
""fullscreenexit"",""2"",""3305""
","
","""event"",""trial"",""time""
""focus"",""0"",""1""
","""event"",""trial"",""time""
""fullscreenenter"",""1"",""2138""
","""event"",""trial"",""time""
""fullscreenexit"",""2"",""3305""
","","","","","","null","<div style=""font-size:60px;"">+</div>","null","","fixation","","","","","","","","",""
"memory-trial","49","195531","0.0-15.0-1.3","1744","2","""event"",""trial"",""time""
""focus"",""0"",""1""
""fullscreenenter"",""1"",""2138""
""fullscreenexit"",""2"",""3305""
","
","""event"",""trial"",""time""
""focus"",""0"",""1""
","""event"",""trial"",""time""
""fullscreenenter"",""1"",""2138""
","""event"",""trial"",""time""
""fullscreenexit"",""2"",""3305""
","","","","","","1113","images/straw3.png","","","memory_trial","1","definitely_old","","","","","","",""
"html-keyboard-response","50","196047","0.0-15.0-0.4","1744","2","""event"",""trial"",""time""
""focus"",""0"",""1""
""fullscreenenter"",""1"",""2138""
""fullscreenexit"",""2"",""3305""
","
","""event"",""trial"",""time""
""focus"",""0"",""1""
","""event"",""trial"",""time""
""fullscreenenter"",""1"",""2138""
","""event"",""trial"",""time""
""fullscreenexit"",""2"",""3305""
","","","","","","null","<div style=""font-size:60px;"">+</div>","null","","fixation","","","","","","","","",""
"memory-trial","51","198606","0.0-15.0-1.4","1744","2","""event"",""trial"",""time""
""focus"",""0"",""1""
""fullscreenenter"",""1"",""2138""
""fullscreenexit"",""2"",""3305""
","
","""event"",""trial"",""time""
""focus"",""0"",""1""
","""event"",""trial"",""time""
""fullscreenenter"",""1"",""2138""
","""event"",""trial"",""time""
""fullscreenexit"",""2"",""3305""
","","","","","","1546","images/bed5.png","","","memory_trial","4","definitely_new","","","","","","",""
"html-keyboard-response","52","199118","0.0-15.0-0.5","1744","2","""event"",""trial"",""time""
""focus"",""0"",""1""
""fullscreenenter"",""1"",""2138""
""fullscreenexit"",""2"",""3305""
","
","""event"",""trial"",""time""
""focus"",""0"",""1""
","""event"",""trial"",""time""
""fullscreenenter"",""1"",""2138""
","""event"",""trial"",""time""
""fullscreenexit"",""2"",""3305""
","","","","","","null","<div style=""font-size:60px;"">+</div>","null","","fixation","","","","","","","","",""
"memory-trial","53","201176","0.0-15.0-1.5","1744","2","""event"",""trial"",""time""
""focus"",""0"",""1""
""fullscreenenter"",""1"",""2138""
""fullscreenexit"",""2"",""3305""
","
","""event"",""trial"",""time""
""focus"",""0"",""1""
","""event"",""trial"",""time""
""fullscreenenter"",""1"",""2138""
","""event"",""trial"",""time""
""fullscreenexit"",""2"",""3305""
","","","","","","1054","images/bed1.png","","","memory_trial","1","definitely_old","","","","","","",""
"html-keyboard-response","54","201690","0.0-15.0-0.6","1744","2","""event"",""trial"",""time""
""focus"",""0"",""1""
""fullscreenenter"",""1"",""2138""
""fullscreenexit"",""2"",""3305""
","
","""event"",""trial"",""time""
""focus"",""0"",""1""
","""event"",""trial"",""time""
""fullscreenenter"",""1"",""2138""
","""event"",""trial"",""time""
""fullscreenexit"",""2"",""3305""
","","","","","","null","<div style=""font-size:60px;"">+</div>","null","","fixation","","","","","","","","",""
"memory-trial","55","205078","0.0-15.0-1.6","1744","2","""event"",""trial"",""time""
""focus"",""0"",""1""
""fullscreenenter"",""1"",""2138""
""fullscreenexit"",""2"",""3305""
","
","""event"",""trial"",""time""
""focus"",""0"",""1""
","""event"",""trial"",""time""
""fullscreenenter"",""1"",""2138""
","""event"",""trial"",""time""
""fullscreenexit"",""2"",""3305""
","","","","","","2374","images/banana1.png","","","memory_trial","1","definitely_old","","","","","","",""
"html-keyboard-response","56","205580","0.0-15.0-0.7","1744","2","""event"",""trial"",""time""
""focus"",""0"",""1""
""fullscreenenter"",""1"",""2138""
""fullscreenexit"",""2"",""3305""
","
","""event"",""trial"",""time""
""focus"",""0"",""1""
","""event"",""trial"",""time""
""fullscreenenter"",""1"",""2138""
","""event"",""trial"",""time""
""fullscreenexit"",""2"",""3305""
","","","","","","null","<div style=""font-size:60px;"">+</div>","null","","fixation","","","","","","","","",""
"memory-trial","57","207761","0.0-15.0-1.7","1744","2","""event"",""trial"",""time""
""focus"",""0"",""1""
""fullscreenenter"",""1"",""2138""
""fullscreenexit"",""2"",""3305""
","
","""event"",""trial"",""time""
""focus"",""0"",""1""
","""event"",""trial"",""time""
""fullscreenenter"",""1"",""2138""
","""event"",""trial"",""time""
""fullscreenexit"",""2"",""3305""
","","","","","","1172","images/cactus2.png","","","memory_trial","1","definitely_old","","","","","","",""
"html-keyboard-response","58","208266","0.0-15.0-0.8","1744","2","""event"",""trial"",""time""
""focus"",""0"",""1""
""fullscreenenter"",""1"",""2138""
""fullscreenexit"",""2"",""3305""
","
","""event"",""trial"",""time""
""focus"",""0"",""1""
","""event"",""trial"",""time""
""fullscreenenter"",""1"",""2138""
","""event"",""trial"",""time""
""fullscreenexit"",""2"",""3305""
","","","","","","null","<div style=""font-size:60px;"">+</div>","null","","fixation","","","","","","","","",""
"memory-trial","59","210362","0.0-15.0-1.8","1744","2","""event"",""trial"",""time""
""focus"",""0"",""1""
""fullscreenenter"",""1"",""2138""
""fullscreenexit"",""2"",""3305""
","
","""event"",""trial"",""time""
""focus"",""0"",""1""
","""event"",""trial"",""time""
""fullscreenenter"",""1"",""2138""
","""event"",""trial"",""time""
""fullscreenexit"",""2"",""3305""
","","","","","","1086","images/boat5.png","","","memory_trial","1","definitely_old","","","","","","",""
"html-keyboard-response","60","210872","0.0-15.0-0.9","1744","2","""event"",""trial"",""time""
""focus"",""0"",""1""
""fullscreenenter"",""1"",""2138""
""fullscreenexit"",""2"",""3305""
","
","""event"",""trial"",""time""
""focus"",""0"",""1""
","""event"",""trial"",""time""
""fullscreenenter"",""1"",""2138""
","""event"",""trial"",""time""
""fullscreenexit"",""2"",""3305""
","","","","","","null","<div style=""font-size:60px;"">+</div>","null","","fixation","","","","","","","","",""
"memory-trial","61","213493","0.0-15.0-1.9","1744","2","""event"",""trial"",""time""
""focus"",""0"",""1""
""fullscreenenter"",""1"",""2138""
""fullscreenexit"",""2"",""3305""
","
","""event"",""trial"",""time""
""focus"",""0"",""1""
","""event"",""trial"",""time""
""fullscreenenter"",""1"",""2138""
","""event"",""trial"",""time""
""fullscreenexit"",""2"",""3305""
","","","","","","1611","images/sheep5.png","","","memory_trial","4","definitely_new","","","","","","",""
"html-keyboard-response","62","214007","0.0-15.0-0.10","1744","2","""event"",""trial"",""time""
""focus"",""0"",""1""
""fullscreenenter"",""1"",""2138""
""fullscreenexit"",""2"",""3305""
","
","""event"",""trial"",""time""
""focus"",""0"",""1""
","""event"",""trial"",""time""
""fullscreenenter"",""1"",""2138""
","""event"",""trial"",""time""
""fullscreenexit"",""2"",""3305""
","","","","","","null","<div style=""font-size:60px;"">+</div>","null","","fixation","","","","","","","","",""
"memory-trial","63","215978","0.0-15.0-1.10","1744","2","""event"",""trial"",""time""
""focus"",""0"",""1""
""fullscreenenter"",""1"",""2138""
""fullscreenexit"",""2"",""3305""
","
","""event"",""trial"",""time""
""focus"",""0"",""1""
","""event"",""trial"",""time""
""fullscreenenter"",""1"",""2138""
","""event"",""trial"",""time""
""fullscreenexit"",""2"",""3305""
","","","","","","966","images/horse2.png","","","memory_trial","1","definitely_old","","","","","","",""
"html-keyboard-response","64","216490","0.0-15.0-0.11","1744","2","""event"",""trial"",""time""
""focus"",""0"",""1""
""fullscreenenter"",""1"",""2138""
""fullscreenexit"",""2"",""3305""
","
","""event"",""trial"",""time""
""focus"",""0"",""1""
","""event"",""trial"",""time""
""fullscreenenter"",""1"",""2138""
","""event"",""trial"",""time""
""fullscreenexit"",""2"",""3305""
","","","","","","null","<div style=""font-size:60px;"">+</div>","null","","fixation","","","","","","","","",""
"memory-trial","65","218468","0.0-15.0-1.11","1744","2","""event"",""trial"",""time""
""focus"",""0"",""1""
""fullscreenenter"",""1"",""2138""
""fullscreenexit"",""2"",""3305""
","
","""event"",""trial"",""time""
""focus"",""0"",""1""
","""event"",""trial"",""time""
""fullscreenenter"",""1"",""2138""
","""event"",""trial"",""time""
""fullscreenexit"",""2"",""3305""
","","","","","","963","images/orange1.png","","","memory_trial","1","definitely_old","","","","","","",""
"html-keyboard-response","66","218981","0.0-15.0-0.12","1744","2","""event"",""trial"",""time""
""focus"",""0"",""1""
""fullscreenenter"",""1"",""2138""
""fullscreenexit"",""2"",""3305""
","
","""event"",""trial"",""time""
""focus"",""0"",""1""
","""event"",""trial"",""time""
""fullscreenenter"",""1"",""2138""
","""event"",""trial"",""time""
""fullscreenexit"",""2"",""3305""
","","","","","","null","<div style=""font-size:60px;"">+</div>","null","","fixation","","","","","","","","",""
"memory-trial","67","221425","0.0-15.0-1.12","1744","2","""event"",""trial"",""time""
""focus"",""0"",""1""
""fullscreenenter"",""1"",""2138""
""fullscreenexit"",""2"",""3305""
","
","""event"",""trial"",""time""
""focus"",""0"",""1""
","""event"",""trial"",""time""
""fullscreenenter"",""1"",""2138""
","""event"",""trial"",""time""
""fullscreenexit"",""2"",""3305""
","","","","","","1434","images/truck3.png","","","memory_trial","4","definitely_new","","","","","","",""
"html-keyboard-response","68","221932","0.0-15.0-0.13","1744","2","""event"",""trial"",""time""
""focus"",""0"",""1""
""fullscreenenter"",""1"",""2138""
""fullscreenexit"",""2"",""3305""
","
","""event"",""trial"",""time""
""focus"",""0"",""1""
","""event"",""trial"",""time""
""fullscreenenter"",""1"",""2138""
","""event"",""trial"",""time""
""fullscreenexit"",""2"",""3305""
","","","","","","null","<div style=""font-size:60px;"">+</div>","null","","fixation","","","","","","","","",""
"memory-trial","69","224093","0.0-15.0-1.13","1744","2","""event"",""trial"",""time""
""focus"",""0"",""1""
""fullscreenenter"",""1"",""2138""
""fullscreenexit"",""2"",""3305""
","
","""event"",""trial"",""time""
""focus"",""0"",""1""
","""event"",""trial"",""time""
""fullscreenenter"",""1"",""2138""
","""event"",""trial"",""time""
""fullscreenexit"",""2"",""3305""
","","","","","","1144","images/orange3.png","","","memory_trial","1","definitely_old","","","","","","",""
"html-keyboard-response","70","224607","0.0-15.0-0.14","1744","2","""event"",""trial"",""time""
""focus"",""0"",""1""
""fullscreenenter"",""1"",""2138""
""fullscreenexit"",""2"",""3305""
","
","""event"",""trial"",""time""
""focus"",""0"",""1""
","""event"",""trial"",""time""
""fullscreenenter"",""1"",""2138""
","""event"",""trial"",""time""
""fullscreenexit"",""2"",""3305""
","","","","","","null","<div style=""font-size:60px;"">+</div>","null","","fixation","","","","","","","","",""
"memory-trial","71","226861","0.0-15.0-1.14","1744","2","""event"",""trial"",""time""
""focus"",""0"",""1""
""fullscreenenter"",""1"",""2138""
""fullscreenexit"",""2"",""3305""
","
","""event"",""trial"",""time""
""focus"",""0"",""1""
","""event"",""trial"",""time""
""fullscreenenter"",""1"",""2138""
","""event"",""trial"",""time""
""fullscreenexit"",""2"",""3305""
","","","","","","1237","images/boat3.png","","","memory_trial","4","definitely_new","","","","","","",""
"html-keyboard-response","72","227372","0.0-15.0-0.15","1744","2","""event"",""trial"",""time""
""focus"",""0"",""1""
""fullscreenenter"",""1"",""2138""
""fullscreenexit"",""2"",""3305""
","
","""event"",""trial"",""time""
""focus"",""0"",""1""
","""event"",""trial"",""time""
""fullscreenenter"",""1"",""2138""
","""event"",""trial"",""time""
""fullscreenexit"",""2"",""3305""
","","","","","","null","<div style=""font-size:60px;"">+</div>","null","","fixation","","","","","","","","",""
"memory-trial","73","229176","0.0-15.0-1.15","1744","2","""event"",""trial"",""time""
""focus"",""0"",""1""
""fullscreenenter"",""1"",""2138""
""fullscreenexit"",""2"",""3305""
","
","""event"",""trial"",""time""
""focus"",""0"",""1""
","""event"",""trial"",""time""
""fullscreenenter"",""1"",""2138""
","""event"",""trial"",""time""
""fullscreenexit"",""2"",""3305""
","","","","","","791","images/sofa3.png","","","memory_trial","4","definitely_new","","","","","","",""
"html-keyboard-response","74","229677","0.0-15.0-0.16","1744","2","""event"",""trial"",""time""
""focus"",""0"",""1""
""fullscreenenter"",""1"",""2138""
""fullscreenexit"",""2"",""3305""
","
","""event"",""trial"",""time""
""focus"",""0"",""1""
","""event"",""trial"",""time""
""fullscreenenter"",""1"",""2138""
","""event"",""trial"",""time""
""fullscreenexit"",""2"",""3305""
","","","","","","null","<div style=""font-size:60px;"">+</div>","null","","fixation","","","","","","","","",""
"memory-trial","75","231877","0.0-15.0-1.16","1744","2","""event"",""trial"",""time""
""focus"",""0"",""1""
""fullscreenenter"",""1"",""2138""
""fullscreenexit"",""2"",""3305""
","
","""event"",""trial"",""time""
""focus"",""0"",""1""
","""event"",""trial"",""time""
""fullscreenenter"",""1"",""2138""
","""event"",""trial"",""time""
""fullscreenexit"",""2"",""3305""
","","","","","","1197","images/tree4.png","","","memory_trial","4","definitely_new","","","","","","",""
"html-keyboard-response","76","232381","0.0-15.0-0.17","1744","2","""event"",""trial"",""time""
""focus"",""0"",""1""
""fullscreenenter"",""1"",""2138""
""fullscreenexit"",""2"",""3305""
","
","""event"",""trial"",""time""
""focus"",""0"",""1""
","""event"",""trial"",""time""
""fullscreenenter"",""1"",""2138""
","""event"",""trial"",""time""
""fullscreenexit"",""2"",""3305""
","","","","","","null","<div style=""font-size:60px;"">+</div>","null","","fixation","","","","","","","","",""
"memory-trial","77","234475","0.0-15.0-1.17","1744","2","""event"",""trial"",""time""
""focus"",""0"",""1""
""fullscreenenter"",""1"",""2138""
""fullscreenexit"",""2"",""3305""
","
","""event"",""trial"",""time""
""focus"",""0"",""1""
","""event"",""trial"",""time""
""fullscreenenter"",""1"",""2138""
","""event"",""trial"",""time""
""fullscreenexit"",""2"",""3305""
","","","","","","1092","images/truck2.png","","","memory_trial","1","definitely_old","","","","","","",""
"html-keyboard-response","78","234982","0.0-15.0-0.18","1744","2","""event"",""trial"",""time""
""focus"",""0"",""1""
""fullscreenenter"",""1"",""2138""
""fullscreenexit"",""2"",""3305""
","
","""event"",""trial"",""time""
""focus"",""0"",""1""
","""event"",""trial"",""time""
""fullscreenenter"",""1"",""2138""
","""event"",""trial"",""time""
""fullscreenexit"",""2"",""3305""
","","","","","","null","<div style=""font-size:60px;"">+</div>","null","","fixation","","","","","","","","",""
"memory-trial","79","237028","0.0-15.0-1.18","1744","2","""event"",""trial"",""time""
""focus"",""0"",""1""
""fullscreenenter"",""1"",""2138""
""fullscreenexit"",""2"",""3305""
","
","""event"",""trial"",""time""
""focus"",""0"",""1""
","""event"",""trial"",""time""
""fullscreenenter"",""1"",""2138""
","""event"",""trial"",""time""
""fullscreenexit"",""2"",""3305""
","","","","","","1030","images/train1.png","","","memory_trial","1","definitely_old","","","","","","",""
"html-keyboard-response","80","237528","0.0-15.0-0.19","1744","2","""event"",""trial"",""time""
""focus"",""0"",""1""
""fullscreenenter"",""1"",""2138""
""fullscreenexit"",""2"",""3305""
","
","""event"",""trial"",""time""
""focus"",""0"",""1""
","""event"",""trial"",""time""
""fullscreenenter"",""1"",""2138""
","""event"",""trial"",""time""
""fullscreenexit"",""2"",""3305""
","","","","","","null","<div style=""font-size:60px;"">+</div>","null","","fixation","","","","","","","","",""
"memory-trial","81","239466","0.0-15.0-1.19","1744","2","""event"",""trial"",""time""
""focus"",""0"",""1""
""fullscreenenter"",""1"",""2138""
""fullscreenexit"",""2"",""3305""
","
","""event"",""trial"",""time""
""focus"",""0"",""1""
","""event"",""trial"",""time""
""fullscreenenter"",""1"",""2138""
","""event"",""trial"",""time""
""fullscreenexit"",""2"",""3305""
","","","","","","925","images/cow1.png","","","memory_trial","1","definitely_old","","","","","","",""
"html-keyboard-response","82","239970","0.0-15.0-0.20","1744","2","""event"",""trial"",""time""
""focus"",""0"",""1""
""fullscreenenter"",""1"",""2138""
""fullscreenexit"",""2"",""3305""
","
","""event"",""trial"",""time""
""focus"",""0"",""1""
","""event"",""trial"",""time""
""fullscreenenter"",""1"",""2138""
","""event"",""trial"",""time""
""fullscreenexit"",""2"",""3305""
","","","","","","null","<div style=""font-size:60px;"">+</div>","null","","fixation","","","","","","","","",""
"memory-trial","83","241746","0.0-15.0-1.20","1744","2","""event"",""trial"",""time""
""focus"",""0"",""1""
""fullscreenenter"",""1"",""2138""
""fullscreenexit"",""2"",""3305""
","
","""event"",""trial"",""time""
""focus"",""0"",""1""
","""event"",""trial"",""time""
""fullscreenenter"",""1"",""2138""
","""event"",""trial"",""time""
""fullscreenexit"",""2"",""3305""
","","","","","","761","images/banana3.png","","","memory_trial","1","definitely_old","","","","","","",""
"html-keyboard-response","84","242262","0.0-15.0-0.21","1744","2","""event"",""trial"",""time""
""focus"",""0"",""1""
""fullscreenenter"",""1"",""2138""
""fullscreenexit"",""2"",""3305""
","
","""event"",""trial"",""time""
""focus"",""0"",""1""
","""event"",""trial"",""time""
""fullscreenenter"",""1"",""2138""
","""event"",""trial"",""time""
""fullscreenexit"",""2"",""3305""
","","","","","","null","<div style=""font-size:60px;"">+</div>","null","","fixation","","","","","","","","",""
"memory-trial","85","244126","0.0-15.0-1.21","1744","2","""event"",""trial"",""time""
""focus"",""0"",""1""
""fullscreenenter"",""1"",""2138""
""fullscreenexit"",""2"",""3305""
","
","""event"",""trial"",""time""
""focus"",""0"",""1""
","""event"",""trial"",""time""
""fullscreenenter"",""1"",""2138""
","""event"",""trial"",""time""
""fullscreenexit"",""2"",""3305""
","","","","","","852","images/train4.png","","","memory_trial","1","definitely_old","","","","","","",""
"html-keyboard-response","86","244640","0.0-15.0-0.22","1744","2","""event"",""trial"",""time""
""focus"",""0"",""1""
""fullscreenenter"",""1"",""2138""
""fullscreenexit"",""2"",""3305""
","
","""event"",""trial"",""time""
""focus"",""0"",""1""
","""event"",""trial"",""time""
""fullscreenenter"",""1"",""2138""
","""event"",""trial"",""time""
""fullscreenexit"",""2"",""3305""
","","","","","","null","<div style=""font-size:60px;"">+</div>","null","","fixation","","","","","","","","",""
"memory-trial","87","246408","0.0-15.0-1.22","1744","2","""event"",""trial"",""time""
""focus"",""0"",""1""
""fullscreenenter"",""1"",""2138""
""fullscreenexit"",""2"",""3305""
","
","""event"",""trial"",""time""
""focus"",""0"",""1""
","""event"",""trial"",""time""
""fullscreenenter"",""1"",""2138""
","""event"",""trial"",""time""
""fullscreenexit"",""2"",""3305""
","","","","","","752","images/dog2.png","","","memory_trial","1","definitely_old","","","","","","",""
"html-keyboard-response","88","246919","0.0-15.0-0.23","1744","2","""event"",""trial"",""time""
""focus"",""0"",""1""
""fullscreenenter"",""1"",""2138""
""fullscreenexit"",""2"",""3305""
","
","""event"",""trial"",""time""
""focus"",""0"",""1""
","""event"",""trial"",""time""
""fullscreenenter"",""1"",""2138""
","""event"",""trial"",""time""
""fullscreenexit"",""2"",""3305""
","","","","","","null","<div style=""font-size:60px;"">+</div>","null","","fixation","","","","","","","","",""
"memory-trial","89","248005","0.0-15.0-1.23","1744","2","""event"",""trial"",""time""
""focus"",""0"",""1""
""fullscreenenter"",""1"",""2138""
""fullscreenexit"",""2"",""3305""
","
","""event"",""trial"",""time""
""focus"",""0"",""1""
","""event"",""trial"",""time""
""fullscreenenter"",""1"",""2138""
","""event"",""trial"",""time""
""fullscreenexit"",""2"",""3305""
","","","","","","73","images/table3.png","","","memory_trial","1","definitely_old","","","","","","",""
"html-keyboard-response","90","248520","0.0-15.0-0.24","1744","2","""event"",""trial"",""time""
""focus"",""0"",""1""
""fullscreenenter"",""1"",""2138""
""fullscreenexit"",""2"",""3305""
","
","""event"",""trial"",""time""
""focus"",""0"",""1""
","""event"",""trial"",""time""
""fullscreenenter"",""1"",""2138""
","""event"",""trial"",""time""
""fullscreenexit"",""2"",""3305""
","","","","","","null","<div style=""font-size:60px;"">+</div>","null","","fixation","","","","","","","","",""
"memory-trial","91","250621","0.0-15.0-1.24","1744","2","""event"",""trial"",""time""
""focus"",""0"",""1""
""fullscreenenter"",""1"",""2138""
""fullscreenexit"",""2"",""3305""
","
","""event"",""trial"",""time""
""focus"",""0"",""1""
","""event"",""trial"",""time""
""fullscreenenter"",""1"",""2138""
","""event"",""trial"",""time""
""fullscreenexit"",""2"",""3305""
","","","","","","1093","images/rabbit4.png","","","memory_trial","4","definitely_new","","","","","","",""
"html-keyboard-response","92","251132","0.0-15.0-0.25","1744","2","""event"",""trial"",""time""
""focus"",""0"",""1""
""fullscreenenter"",""1"",""2138""
""fullscreenexit"",""2"",""3305""
","
","""event"",""trial"",""time""
""focus"",""0"",""1""
","""event"",""trial"",""time""
""fullscreenenter"",""1"",""2138""
","""event"",""trial"",""time""
""fullscreenexit"",""2"",""3305""
","","","","","","null","<div style=""font-size:60px;"">+</div>","null","","fixation","","","","","","","","",""
"memory-trial","93","253053","0.0-15.0-1.25","1744","2","""event"",""trial"",""time""
""focus"",""0"",""1""
""fullscreenenter"",""1"",""2138""
""fullscreenexit"",""2"",""3305""
","
","""event"",""trial"",""time""
""focus"",""0"",""1""
","""event"",""trial"",""time""
""fullscreenenter"",""1"",""2138""
","""event"",""trial"",""time""
""fullscreenexit"",""2"",""3305""
","","","","","","912","images/apple5.png","","","memory_trial","1","definitely_old","","","","","","",""
"html-keyboard-response","94","253562","0.0-15.0-0.26","1744","2","""event"",""trial"",""time""
""focus"",""0"",""1""
""fullscreenenter"",""1"",""2138""
""fullscreenexit"",""2"",""3305""
","
","""event"",""trial"",""time""
""focus"",""0"",""1""
","""event"",""trial"",""time""
""fullscreenenter"",""1"",""2138""
","""event"",""trial"",""time""
""fullscreenexit"",""2"",""3305""
","","","","","","null","<div style=""font-size:60px;"">+</div>","null","","fixation","","","","","","","","",""
"memory-trial","95","255833","0.0-15.0-1.26","1744","2","""event"",""trial"",""time""
""focus"",""0"",""1""
""fullscreenenter"",""1"",""2138""
""fullscreenexit"",""2"",""3305""
","
","""event"",""trial"",""time""
""focus"",""0"",""1""
","""event"",""trial"",""time""
""fullscreenenter"",""1"",""2138""
","""event"",""trial"",""time""
""fullscreenexit"",""2"",""3305""
","","","","","","1263","images/bush3.png","","","memory_trial","4","definitely_new","","","","","","",""
"html-keyboard-response","96","256342","0.0-15.0-0.27","1744","2","""event"",""trial"",""time""
""focus"",""0"",""1""
""fullscreenenter"",""1"",""2138""
""fullscreenexit"",""2"",""3305""
","
","""event"",""trial"",""time""
""focus"",""0"",""1""
","""event"",""trial"",""time""
""fullscreenenter"",""1"",""2138""
","""event"",""trial"",""time""
""fullscreenexit"",""2"",""3305""
","","","","","","null","<div style=""font-size:60px;"">+</div>","null","","fixation","","","","","","","","",""
"memory-trial","97","258847","0.0-15.0-1.27","1744","2","""event"",""trial"",""time""
""focus"",""0"",""1""
""fullscreenenter"",""1"",""2138""
""fullscreenexit"",""2"",""3305""
","
","""event"",""trial"",""time""
""focus"",""0"",""1""
","""event"",""trial"",""time""
""fullscreenenter"",""1"",""2138""
","""event"",""trial"",""time""
""fullscreenexit"",""2"",""3305""
","","","","","","1490","images/tree3.png","","","memory_trial","4","definitely_new","","","","","","",""
"html-keyboard-response","98","259360","0.0-15.0-0.28","1744","2","""event"",""trial"",""time""
""focus"",""0"",""1""
""fullscreenenter"",""1"",""2138""
""fullscreenexit"",""2"",""3305""
","
","""event"",""trial"",""time""
""focus"",""0"",""1""
","""event"",""trial"",""time""
""fullscreenenter"",""1"",""2138""
","""event"",""trial"",""time""
""fullscreenexit"",""2"",""3305""
","","","","","","null","<div style=""font-size:60px;"">+</div>","null","","fixation","","","","","","","","",""
"memory-trial","99","261362","0.0-15.0-1.28","1744","2","""event"",""trial"",""time""
""focus"",""0"",""1""
""fullscreenenter"",""1"",""2138""
""fullscreenexit"",""2"",""3305""
","
","""event"",""trial"",""time""
""focus"",""0"",""1""
","""event"",""trial"",""time""
""fullscreenenter"",""1"",""2138""
","""event"",""trial"",""time""
""fullscreenexit"",""2"",""3305""
","","","","","","992","images/straw2.png","","","memory_trial","4","definitely_new","","","","","","",""
"html-keyboard-response","100","261866","0.0-15.0-0.29","1744","2","""event"",""trial"",""time""
""focus"",""0"",""1""
""fullscreenenter"",""1"",""2138""
""fullscreenexit"",""2"",""3305""
","
","""event"",""trial"",""time""
""focus"",""0"",""1""
","""event"",""trial"",""time""
""fullscreenenter"",""1"",""2138""
","""event"",""trial"",""time""
""fullscreenexit"",""2"",""3305""
","","","","","","null","<div style=""font-size:60px;"">+</div>","null","","fixation","","","","","","","","",""
"memory-trial","101","264541","0.0-15.0-1.29","1744","2","""event"",""trial"",""time""
""focus"",""0"",""1""
""fullscreenenter"",""1"",""2138""
""fullscreenexit"",""2"",""3305""
","
","""event"",""trial"",""time""
""focus"",""0"",""1""
","""event"",""trial"",""time""
""fullscreenenter"",""1"",""2138""
","""event"",""trial"",""time""
""fullscreenexit"",""2"",""3305""
","","","","","","1666","images/train2.png","","","memory_trial","1","definitely_old","","","","","","",""
"html-keyboard-response","102","265050","0.0-15.0-0.30","1744","2","""event"",""trial"",""time""
""focus"",""0"",""1""
""fullscreenenter"",""1"",""2138""
""fullscreenexit"",""2"",""3305""
","
","""event"",""trial"",""time""
""focus"",""0"",""1""
","""event"",""trial"",""time""
""fullscreenenter"",""1"",""2138""
","""event"",""trial"",""time""
""fullscreenexit"",""2"",""3305""
","","","","","","null","<div style=""font-size:60px;"">+</div>","null","","fixation","","","","","","","","",""
"memory-trial","103","267011","0.0-15.0-1.30","1744","2","""event"",""trial"",""time""
""focus"",""0"",""1""
""fullscreenenter"",""1"",""2138""
""fullscreenexit"",""2"",""3305""
","
","""event"",""trial"",""time""
""focus"",""0"",""1""
","""event"",""trial"",""time""
""fullscreenenter"",""1"",""2138""
","""event"",""trial"",""time""
""fullscreenexit"",""2"",""3305""
","","","","","","953","images/plane4.png","","","memory_trial","4","definitely_new","","","","","","",""
"html-keyboard-response","104","267522","0.0-15.0-0.31","1744","2","""event"",""trial"",""time""
""focus"",""0"",""1""
""fullscreenenter"",""1"",""2138""
""fullscreenexit"",""2"",""3305""
","
","""event"",""trial"",""time""
""focus"",""0"",""1""
","""event"",""trial"",""time""
""fullscreenenter"",""1"",""2138""
","""event"",""trial"",""time""
""fullscreenexit"",""2"",""3305""
","","","","","","null","<div style=""font-size:60px;"">+</div>","null","","fixation","","","","","","","","",""
"memory-trial","105","270099","0.0-15.0-1.31","1744","2","""event"",""trial"",""time""
""focus"",""0"",""1""
""fullscreenenter"",""1"",""2138""
""fullscreenexit"",""2"",""3305""
","
","""event"",""trial"",""time""
""focus"",""0"",""1""
","""event"",""trial"",""time""
""fullscreenenter"",""1"",""2138""
","""event"",""trial"",""time""
""fullscreenexit"",""2"",""3305""
","","","","","","1572","images/boat2.png","","","memory_trial","1","definitely_old","","","","","","",""
"html-keyboard-response","106","270613","0.0-15.0-0.32","1744","2","""event"",""trial"",""time""
""focus"",""0"",""1""
""fullscreenenter"",""1"",""2138""
""fullscreenexit"",""2"",""3305""
","
","""event"",""trial"",""time""
""focus"",""0"",""1""
","""event"",""trial"",""time""
""fullscreenenter"",""1"",""2138""
","""event"",""trial"",""time""
""fullscreenexit"",""2"",""3305""
","","","","","","null","<div style=""font-size:60px;"">+</div>","null","","fixation","","","","","","","","",""
"memory-trial","107","274392","0.0-15.0-1.32","1744","2","""event"",""trial"",""time""
""focus"",""0"",""1""
""fullscreenenter"",""1"",""2138""
""fullscreenexit"",""2"",""3305""
","
","""event"",""trial"",""time""
""focus"",""0"",""1""
","""event"",""trial"",""time""
""fullscreenenter"",""1"",""2138""
","""event"",""trial"",""time""
""fullscreenexit"",""2"",""3305""
","","","","","","2761","images/bush5.png","","","memory_trial","2","maybe_old","","","","","","",""
"html-keyboard-response","108","274904","0.0-15.0-0.33","1744","2","""event"",""trial"",""time""
""focus"",""0"",""1""
""fullscreenenter"",""1"",""2138""
""fullscreenexit"",""2"",""3305""
","
","""event"",""trial"",""time""
""focus"",""0"",""1""
","""event"",""trial"",""time""
""fullscreenenter"",""1"",""2138""
","""event"",""trial"",""time""
""fullscreenexit"",""2"",""3305""
","","","","","","null","<div style=""font-size:60px;"">+</div>","null","","fixation","","","","","","","","",""
"memory-trial","109","277206","0.0-15.0-1.33","1744","2","""event"",""trial"",""time""
""focus"",""0"",""1""
""fullscreenenter"",""1"",""2138""
""fullscreenexit"",""2"",""3305""
","
","""event"",""trial"",""time""
""focus"",""0"",""1""
","""event"",""trial"",""time""
""fullscreenenter"",""1"",""2138""
","""event"",""trial"",""time""
""fullscreenexit"",""2"",""3305""
","","","","","","1299","images/plane2.png","","","memory_trial","4","definitely_new","","","","","","",""
"html-keyboard-response","110","277712","0.0-15.0-0.34","1744","2","""event"",""trial"",""time""
""focus"",""0"",""1""
""fullscreenenter"",""1"",""2138""
""fullscreenexit"",""2"",""3305""
","
","""event"",""trial"",""time""
""focus"",""0"",""1""
","""event"",""trial"",""time""
""fullscreenenter"",""1"",""2138""
","""event"",""trial"",""time""
""fullscreenexit"",""2"",""3305""
","","","","","","null","<div style=""font-size:60px;"">+</div>","null","","fixation","","","","","","","","",""
"memory-trial","111","279713","0.0-15.0-1.34","1744","2","""event"",""trial"",""time""
""focus"",""0"",""1""
""fullscreenenter"",""1"",""2138""
""fullscreenexit"",""2"",""3305""
","
","""event"",""trial"",""time""
""focus"",""0"",""1""
","""event"",""trial"",""time""
""fullscreenenter"",""1"",""2138""
","""event"",""trial"",""time""
""fullscreenexit"",""2"",""3305""
","","","","","","983","images/straw1.png","","","memory_trial","4","definitely_new","","","","","","",""
"html-keyboard-response","112","280222","0.0-15.0-0.35","1744","2","""event"",""trial"",""time""
""focus"",""0"",""1""
""fullscreenenter"",""1"",""2138""
""fullscreenexit"",""2"",""3305""
","
","""event"",""trial"",""time""
""focus"",""0"",""1""
","""event"",""trial"",""time""
""fullscreenenter"",""1"",""2138""
","""event"",""trial"",""time""
""fullscreenexit"",""2"",""3305""
","","","","","","null","<div style=""font-size:60px;"">+</div>","null","","fixation","","","","","","","","",""
"memory-trial","113","282153","0.0-15.0-1.35","1744","2","""event"",""trial"",""time""
""focus"",""0"",""1""
""fullscreenenter"",""1"",""2138""
""fullscreenexit"",""2"",""3305""
","
","""event"",""trial"",""time""
""focus"",""0"",""1""
","""event"",""trial"",""time""
""fullscreenenter"",""1"",""2138""
","""event"",""trial"",""time""
""fullscreenexit"",""2"",""3305""
","","","","","","921","images/straw5.png","","","memory_trial","4","definitely_new","","","","","","",""
"html-keyboard-response","114","282661","0.0-15.0-0.36","1744","2","""event"",""trial"",""time""
""focus"",""0"",""1""
""fullscreenenter"",""1"",""2138""
""fullscreenexit"",""2"",""3305""
","
","""event"",""trial"",""time""
""focus"",""0"",""1""
","""event"",""trial"",""time""
""fullscreenenter"",""1"",""2138""
","""event"",""trial"",""time""
""fullscreenexit"",""2"",""3305""
","","","","","","null","<div style=""font-size:60px;"">+</div>","null","","fixation","","","","","","","","",""
"memory-trial","115","284760","0.0-15.0-1.36","1744","2","""event"",""trial"",""time""
""focus"",""0"",""1""
""fullscreenenter"",""1"",""2138""
""fullscreenexit"",""2"",""3305""
","
","""event"",""trial"",""time""
""focus"",""0"",""1""
","""event"",""trial"",""time""
""fullscreenenter"",""1"",""2138""
","""event"",""trial"",""time""
""fullscreenexit"",""2"",""3305""
","","","","","","1082","images/goat1.png","","","memory_trial","4","definitely_new","","","","","","",""
"html-keyboard-response","116","285262","0.0-15.0-0.37","1744","2","""event"",""trial"",""time""
""focus"",""0"",""1""
""fullscreenenter"",""1"",""2138""
""fullscreenexit"",""2"",""3305""
","
","""event"",""trial"",""time""
""focus"",""0"",""1""
","""event"",""trial"",""time""
""fullscreenenter"",""1"",""2138""
","""event"",""trial"",""time""
""fullscreenexit"",""2"",""3305""
","","","","","","null","<div style=""font-size:60px;"">+</div>","null","","fixation","","","","","","","","",""
"memory-trial","117","287079","0.0-15.0-1.37","1744","2","""event"",""trial"",""time""
""focus"",""0"",""1""
""fullscreenenter"",""1"",""2138""
""fullscreenexit"",""2"",""3305""
","
","""event"",""trial"",""time""
""focus"",""0"",""1""
","""event"",""trial"",""time""
""fullscreenenter"",""1"",""2138""
","""event"",""trial"",""time""
""fullscreenexit"",""2"",""3305""
","","","","","","802","images/orange5.png","","","memory_trial","1","definitely_old","","","","","","",""
"html-keyboard-response","118","287592","0.0-15.0-0.38","1744","2","""event"",""trial"",""time""
""focus"",""0"",""1""
""fullscreenenter"",""1"",""2138""
""fullscreenexit"",""2"",""3305""
","
","""event"",""trial"",""time""
""focus"",""0"",""1""
","""event"",""trial"",""time""
""fullscreenenter"",""1"",""2138""
","""event"",""trial"",""time""
""fullscreenexit"",""2"",""3305""
","","","","","","null","<div style=""font-size:60px;"">+</div>","null","","fixation","","","","","","","","",""
"memory-trial","119","289618","0.0-15.0-1.38","1744","2","""event"",""trial"",""time""
""focus"",""0"",""1""
""fullscreenenter"",""1"",""2138""
""fullscreenexit"",""2"",""3305""
","
","""event"",""trial"",""time""
""focus"",""0"",""1""
","""event"",""trial"",""time""
""fullscreenenter"",""1"",""2138""
","""event"",""trial"",""time""
""fullscreenexit"",""2"",""3305""
","","","","","","1021","images/feline1.png","","","memory_trial","1","definitely_old","","","","","","",""
"html-keyboard-response","120","290119","0.0-15.0-0.39","1744","2","""event"",""trial"",""time""
""focus"",""0"",""1""
""fullscreenenter"",""1"",""2138""
""fullscreenexit"",""2"",""3305""
","
","""event"",""trial"",""time""
""focus"",""0"",""1""
","""event"",""trial"",""time""
""fullscreenenter"",""1"",""2138""
","""event"",""trial"",""time""
""fullscreenexit"",""2"",""3305""
","","","","","","null","<div style=""font-size:60px;"">+</div>","null","","fixation","","","","","","","","",""
"memory-trial","121","292357","0.0-15.0-1.39","1744","2","""event"",""trial"",""time""
""focus"",""0"",""1""
""fullscreenenter"",""1"",""2138""
""fullscreenexit"",""2"",""3305""
","
","""event"",""trial"",""time""
""focus"",""0"",""1""
","""event"",""trial"",""time""
""fullscreenenter"",""1"",""2138""
","""event"",""trial"",""time""
""fullscreenexit"",""2"",""3305""
","","","","","","1224","images/banana2.png","","","memory_trial","1","definitely_old","","","","","","",""
"html-keyboard-response","122","292871","0.0-15.0-0.40","1744","2","""event"",""trial"",""time""
""focus"",""0"",""1""
""fullscreenenter"",""1"",""2138""
""fullscreenexit"",""2"",""3305""
","
","""event"",""trial"",""time""
""focus"",""0"",""1""
","""event"",""trial"",""time""
""fullscreenenter"",""1"",""2138""
","""event"",""trial"",""time""
""fullscreenexit"",""2"",""3305""
","","","","","","null","<div style=""font-size:60px;"">+</div>","null","","fixation","","","","","","","","",""
"memory-trial","123","294807","0.0-15.0-1.40","1744","2","""event"",""trial"",""time""
""focus"",""0"",""1""
""fullscreenenter"",""1"",""2138""
""fullscreenexit"",""2"",""3305""
","
","""event"",""trial"",""time""
""focus"",""0"",""1""
","""event"",""trial"",""time""
""fullscreenenter"",""1"",""2138""
","""event"",""trial"",""time""
""fullscreenexit"",""2"",""3305""
","","","","","","920","images/apple1.png","","","memory_trial","1","definitely_old","","","","","","",""
"html-keyboard-response","124","295320","0.0-15.0-0.41","1744","2","""event"",""trial"",""time""
""focus"",""0"",""1""
""fullscreenenter"",""1"",""2138""
""fullscreenexit"",""2"",""3305""
","
","""event"",""trial"",""time""
""focus"",""0"",""1""
","""event"",""trial"",""time""
""fullscreenenter"",""1"",""2138""
","""event"",""trial"",""time""
""fullscreenexit"",""2"",""3305""
","","","","","","null","<div style=""font-size:60px;"">+</div>","null","","fixation","","","","","","","","",""
"memory-trial","125","297887","0.0-15.0-1.41","1744","2","""event"",""trial"",""time""
""focus"",""0"",""1""
""fullscreenenter"",""1"",""2138""
""fullscreenexit"",""2"",""3305""
","
","""event"",""trial"",""time""
""focus"",""0"",""1""
","""event"",""trial"",""time""
""fullscreenenter"",""1"",""2138""
","""event"",""trial"",""time""
""fullscreenexit"",""2"",""3305""
","","","","","","1554","images/plane3.png","","","memory_trial","3","maybe_new","","","","","","",""
"html-keyboard-response","126","298390","0.0-15.0-0.42","1744","2","""event"",""trial"",""time""
""focus"",""0"",""1""
""fullscreenenter"",""1"",""2138""
""fullscreenexit"",""2"",""3305""
","
","""event"",""trial"",""time""
""focus"",""0"",""1""
","""event"",""trial"",""time""
""fullscreenenter"",""1"",""2138""
","""event"",""trial"",""time""
""fullscreenexit"",""2"",""3305""
","","","","","","null","<div style=""font-size:60px;"">+</div>","null","","fixation","","","","","","","","",""
"memory-trial","127","300927","0.0-15.0-1.42","1744","2","""event"",""trial"",""time""
""focus"",""0"",""1""
""fullscreenenter"",""1"",""2138""
""fullscreenexit"",""2"",""3305""
","
","""event"",""trial"",""time""
""focus"",""0"",""1""
","""event"",""trial"",""time""
""fullscreenenter"",""1"",""2138""
","""event"",""trial"",""time""
""fullscreenexit"",""2"",""3305""
","","","","","","1523","images/rodent5.png","","","memory_trial","4","definitely_new","","","","","","",""
"html-keyboard-response","128","301431","0.0-15.0-0.43","1744","2","""event"",""trial"",""time""
""focus"",""0"",""1""
""fullscreenenter"",""1"",""2138""
""fullscreenexit"",""2"",""3305""
","
","""event"",""trial"",""time""
""focus"",""0"",""1""
","""event"",""trial"",""time""
""fullscreenenter"",""1"",""2138""
","""event"",""trial"",""time""
""fullscreenexit"",""2"",""3305""
","","","","","","null","<div style=""font-size:60px;"">+</div>","null","","fixation","","","","","","","","",""
"memory-trial","129","303383","0.0-15.0-1.43","1744","2","""event"",""trial"",""time""
""focus"",""0"",""1""
""fullscreenenter"",""1"",""2138""
""fullscreenexit"",""2"",""3305""
","
","""event"",""trial"",""time""
""focus"",""0"",""1""
","""event"",""trial"",""time""
""fullscreenenter"",""1"",""2138""
","""event"",""trial"",""time""
""fullscreenexit"",""2"",""3305""
","","","","","","944","images/sheep3.png","","","memory_trial","4","definitely_new","","","","","","",""
"html-keyboard-response","130","303891","0.0-15.0-0.44","1744","2","""event"",""trial"",""time""
""focus"",""0"",""1""
""fullscreenenter"",""1"",""2138""
""fullscreenexit"",""2"",""3305""
","
","""event"",""trial"",""time""
""focus"",""0"",""1""
","""event"",""trial"",""time""
""fullscreenenter"",""1"",""2138""
","""event"",""trial"",""time""
""fullscreenexit"",""2"",""3305""
","","","","","","null","<div style=""font-size:60px;"">+</div>","null","","fixation","","","","","","","","",""
"memory-trial","131","305942","0.0-15.0-1.44","1744","2","""event"",""trial"",""time""
""focus"",""0"",""1""
""fullscreenenter"",""1"",""2138""
""fullscreenexit"",""2"",""3305""
","
","""event"",""trial"",""time""
""focus"",""0"",""1""
","""event"",""trial"",""time""
""fullscreenenter"",""1"",""2138""
","""event"",""trial"",""time""
""fullscreenexit"",""2"",""3305""
","","","","","","1042","images/sheep4.png","","","memory_trial","1","definitely_old","","","","","","",""
"html-keyboard-response","132","306447","0.0-15.0-0.45","1744","2","""event"",""trial"",""time""
""focus"",""0"",""1""
""fullscreenenter"",""1"",""2138""
""fullscreenexit"",""2"",""3305""
","
","""event"",""trial"",""time""
""focus"",""0"",""1""
","""event"",""trial"",""time""
""fullscreenenter"",""1"",""2138""
","""event"",""trial"",""time""
""fullscreenexit"",""2"",""3305""
","","","","","","null","<div style=""font-size:60px;"">+</div>","null","","fixation","","","","","","","","",""
"memory-trial","133","309467","0.0-15.0-1.45","1744","2","""event"",""trial"",""time""
""focus"",""0"",""1""
""fullscreenenter"",""1"",""2138""
""fullscreenexit"",""2"",""3305""
","
","""event"",""trial"",""time""
""focus"",""0"",""1""
","""event"",""trial"",""time""
""fullscreenenter"",""1"",""2138""
","""event"",""trial"",""time""
""fullscreenexit"",""2"",""3305""
","","","","","","2006","images/cow3.png","","","memory_trial","2","maybe_old","","","","","","",""
"html-keyboard-response","134","309976","0.0-15.0-0.46","1744","2","""event"",""trial"",""time""
""focus"",""0"",""1""
""fullscreenenter"",""1"",""2138""
""fullscreenexit"",""2"",""3305""
","
","""event"",""trial"",""time""
""focus"",""0"",""1""
","""event"",""trial"",""time""
""fullscreenenter"",""1"",""2138""
","""event"",""trial"",""time""
""fullscreenexit"",""2"",""3305""
","","","","","","null","<div style=""font-size:60px;"">+</div>","null","","fixation","","","","","","","","",""
"memory-trial","135","312953","0.0-15.0-1.46","1744","2","""event"",""trial"",""time""
""focus"",""0"",""1""
""fullscreenenter"",""1"",""2138""
""fullscreenexit"",""2"",""3305""
","
","""event"",""trial"",""time""
""focus"",""0"",""1""
","""event"",""trial"",""time""
""fullscreenenter"",""1"",""2138""
","""event"",""trial"",""time""
""fullscreenexit"",""2"",""3305""
","","","","","","1966","images/bed3.png","","","memory_trial","4","definitely_new","","","","","","",""
"html-button-response","136","315153","0.0-15.0-2.46-0.46","1744","2","""event"",""trial"",""time""
""focus"",""0"",""1""
""fullscreenenter"",""1"",""2138""
""fullscreenexit"",""2"",""3305""
","
","""event"",""trial"",""time""
""focus"",""0"",""1""
","""event"",""trial"",""time""
""fullscreenenter"",""1"",""2138""
","""event"",""trial"",""time""
""fullscreenexit"",""2"",""3305""
","","","","","","2200","<p> Take a break! </p><p> Click the button to continue. </p>","0","","break","","","","","","","","",""
"html-keyboard-response","137","315661","0.0-15.0-0.47","1744","2","""event"",""trial"",""time""
""focus"",""0"",""1""
""fullscreenenter"",""1"",""2138""
""fullscreenexit"",""2"",""3305""
","
","""event"",""trial"",""time""
""focus"",""0"",""1""
","""event"",""trial"",""time""
""fullscreenenter"",""1"",""2138""
","""event"",""trial"",""time""
""fullscreenexit"",""2"",""3305""
","","","","","","null","<div style=""font-size:60px;"">+</div>","null","","fixation","","","","","","","","",""
"memory-trial","138","317840","0.0-15.0-1.47","1744","2","""event"",""trial"",""time""
""focus"",""0"",""1""
""fullscreenenter"",""1"",""2138""
""fullscreenexit"",""2"",""3305""
","
","""event"",""trial"",""time""
""focus"",""0"",""1""
","""event"",""trial"",""time""
""fullscreenenter"",""1"",""2138""
","""event"",""trial"",""time""
""fullscreenexit"",""2"",""3305""
","","","","","","1173","images/dog5.png","","","memory_trial","1","definitely_old","","","","","","",""
"html-keyboard-response","139","318357","0.0-15.0-0.48","1744","2","""event"",""trial"",""time""
""focus"",""0"",""1""
""fullscreenenter"",""1"",""2138""
""fullscreenexit"",""2"",""3305""
","
","""event"",""trial"",""time""
""focus"",""0"",""1""
","""event"",""trial"",""time""
""fullscreenenter"",""1"",""2138""
","""event"",""trial"",""time""
""fullscreenexit"",""2"",""3305""
","","","","","","null","<div style=""font-size:60px;"">+</div>","null","","fixation","","","","","","","","",""
"memory-trial","140","320167","0.0-15.0-1.48","1744","2","""event"",""trial"",""time""
""focus"",""0"",""1""
""fullscreenenter"",""1"",""2138""
""fullscreenexit"",""2"",""3305""
","
","""event"",""trial"",""time""
""focus"",""0"",""1""
","""event"",""trial"",""time""
""fullscreenenter"",""1"",""2138""
","""event"",""trial"",""time""
""fullscreenexit"",""2"",""3305""
","","","","","","796","images/feline3.png","","","memory_trial","1","definitely_old","","","","","","",""
"html-keyboard-response","141","320673","0.0-15.0-0.49","1744","2","""event"",""trial"",""time""
""focus"",""0"",""1""
""fullscreenenter"",""1"",""2138""
""fullscreenexit"",""2"",""3305""
","
","""event"",""trial"",""time""
""focus"",""0"",""1""
","""event"",""trial"",""time""
""fullscreenenter"",""1"",""2138""
","""event"",""trial"",""time""
""fullscreenexit"",""2"",""3305""
","","","","","","null","<div style=""font-size:60px;"">+</div>","null","","fixation","","","","","","","","",""
"memory-trial","142","322921","0.0-15.0-1.49","1744","2","""event"",""trial"",""time""
""focus"",""0"",""1""
""fullscreenenter"",""1"",""2138""
""fullscreenexit"",""2"",""3305""
","
","""event"",""trial"",""time""
""focus"",""0"",""1""
","""event"",""trial"",""time""
""fullscreenenter"",""1"",""2138""
","""event"",""trial"",""time""
""fullscreenexit"",""2"",""3305""
","","","","","","1239","images/cactus5.png","","","memory_trial","3","maybe_new","","","","","","",""
"html-keyboard-response","143","323427","0.0-15.0-0.50","1744","2","""event"",""trial"",""time""
""focus"",""0"",""1""
""fullscreenenter"",""1"",""2138""
""fullscreenexit"",""2"",""3305""
","
","""event"",""trial"",""time""
""focus"",""0"",""1""
","""event"",""trial"",""time""
""fullscreenenter"",""1"",""2138""
","""event"",""trial"",""time""
""fullscreenexit"",""2"",""3305""
","","","","","","null","<div style=""font-size:60px;"">+</div>","null","","fixation","","","","","","","","",""
"memory-trial","144","325509","0.0-15.0-1.50","1744","2","""event"",""trial"",""time""
""focus"",""0"",""1""
""fullscreenenter"",""1"",""2138""
""fullscreenexit"",""2"",""3305""
","
","""event"",""trial"",""time""
""focus"",""0"",""1""
","""event"",""trial"",""time""
""fullscreenenter"",""1"",""2138""
","""event"",""trial"",""time""
""fullscreenexit"",""2"",""3305""
","","","","","","1066","images/goat4.png","","","memory_trial","4","definitely_new","","","","","","",""
"html-keyboard-response","145","326012","0.0-15.0-0.51","1744","2","""event"",""trial"",""time""
""focus"",""0"",""1""
""fullscreenenter"",""1"",""2138""
""fullscreenexit"",""2"",""3305""
","
","""event"",""trial"",""time""
""focus"",""0"",""1""
","""event"",""trial"",""time""
""fullscreenenter"",""1"",""2138""
","""event"",""trial"",""time""
""fullscreenexit"",""2"",""3305""
","","","","","","null","<div style=""font-size:60px;"">+</div>","null","","fixation","","","","","","","","",""
"memory-trial","146","328883","0.0-15.0-1.51","1744","2","""event"",""trial"",""time""
""focus"",""0"",""1""
""fullscreenenter"",""1"",""2138""
""fullscreenexit"",""2"",""3305""
","
","""event"",""trial"",""time""
""focus"",""0"",""1""
","""event"",""trial"",""time""
""fullscreenenter"",""1"",""2138""
","""event"",""trial"",""time""
""fullscreenexit"",""2"",""3305""
","","","","","","1862","images/bush4.png","","","memory_trial","1","definitely_old","","","","","","",""
"html-keyboard-response","147","329393","0.0-15.0-0.52","1744","2","""event"",""trial"",""time""
""focus"",""0"",""1""
""fullscreenenter"",""1"",""2138""
""fullscreenexit"",""2"",""3305""
","
","""event"",""trial"",""time""
""focus"",""0"",""1""
","""event"",""trial"",""time""
""fullscreenenter"",""1"",""2138""
","""event"",""trial"",""time""
""fullscreenexit"",""2"",""3305""
","","","","","","null","<div style=""font-size:60px;"">+</div>","null","","fixation","","","","","","","","",""
"memory-trial","148","331962","0.0-15.0-1.52","1744","2","""event"",""trial"",""time""
""focus"",""0"",""1""
""fullscreenenter"",""1"",""2138""
""fullscreenexit"",""2"",""3305""
","
","""event"",""trial"",""time""
""focus"",""0"",""1""
","""event"",""trial"",""time""
""fullscreenenter"",""1"",""2138""
","""event"",""trial"",""time""
""fullscreenexit"",""2"",""3305""
","","","","","","1560","images/dog1.png","","","memory_trial","4","definitely_new","","","","","","",""
"html-keyboard-response","149","332465","0.0-15.0-0.53","1744","2","""event"",""trial"",""time""
""focus"",""0"",""1""
""fullscreenenter"",""1"",""2138""
""fullscreenexit"",""2"",""3305""
","
","""event"",""trial"",""time""
""focus"",""0"",""1""
","""event"",""trial"",""time""
""fullscreenenter"",""1"",""2138""
","""event"",""trial"",""time""
""fullscreenexit"",""2"",""3305""
","","","","","","null","<div style=""font-size:60px;"">+</div>","null","","fixation","","","","","","","","",""
"memory-trial","150","336178","0.0-15.0-1.53","1744","2","""event"",""trial"",""time""
""focus"",""0"",""1""
""fullscreenenter"",""1"",""2138""
""fullscreenexit"",""2"",""3305""
","
","""event"",""trial"",""time""
""focus"",""0"",""1""
","""event"",""trial"",""time""
""fullscreenenter"",""1"",""2138""
","""event"",""trial"",""time""
""fullscreenexit"",""2"",""3305""
","","","","","","2699","images/rabbit3.png","","","memory_trial","3","maybe_new","","","","","","",""
"html-keyboard-response","151","336690","0.0-15.0-0.54","1744","2","""event"",""trial"",""time""
""focus"",""0"",""1""
""fullscreenenter"",""1"",""2138""
""fullscreenexit"",""2"",""3305""
","
","""event"",""trial"",""time""
""focus"",""0"",""1""
","""event"",""trial"",""time""
""fullscreenenter"",""1"",""2138""
","""event"",""trial"",""time""
""fullscreenexit"",""2"",""3305""
","","","","","","null","<div style=""font-size:60px;"">+</div>","null","","fixation","","","","","","","","",""
"memory-trial","152","339791","0.0-15.0-1.54","1744","2","""event"",""trial"",""time""
""focus"",""0"",""1""
""fullscreenenter"",""1"",""2138""
""fullscreenexit"",""2"",""3305""
","
","""event"",""trial"",""time""
""focus"",""0"",""1""
","""event"",""trial"",""time""
""fullscreenenter"",""1"",""2138""
","""event"",""trial"",""time""
""fullscreenexit"",""2"",""3305""
","","","","","","2094","images/cow2.png","","","memory_trial","3","maybe_new","","","","","","",""
"html-keyboard-response","153","340293","0.0-15.0-0.55","1744","2","""event"",""trial"",""time""
""focus"",""0"",""1""
""fullscreenenter"",""1"",""2138""
""fullscreenexit"",""2"",""3305""
","
","""event"",""trial"",""time""
""focus"",""0"",""1""
","""event"",""trial"",""time""
""fullscreenenter"",""1"",""2138""
","""event"",""trial"",""time""
""fullscreenexit"",""2"",""3305""
","","","","","","null","<div style=""font-size:60px;"">+</div>","null","","fixation","","","","","","","","",""
"memory-trial","154","342222","0.0-15.0-1.55","1744","2","""event"",""trial"",""time""
""focus"",""0"",""1""
""fullscreenenter"",""1"",""2138""
""fullscreenexit"",""2"",""3305""
","
","""event"",""trial"",""time""
""focus"",""0"",""1""
","""event"",""trial"",""time""
""fullscreenenter"",""1"",""2138""
","""event"",""trial"",""time""
""fullscreenexit"",""2"",""3305""
","","","","","","912","images/horse1.png","","","memory_trial","1","definitely_old","","","","","","",""
"html-keyboard-response","155","342733","0.0-15.0-0.56","1744","2","""event"",""trial"",""time""
""focus"",""0"",""1""
""fullscreenenter"",""1"",""2138""
""fullscreenexit"",""2"",""3305""
","
","""event"",""trial"",""time""
""focus"",""0"",""1""
","""event"",""trial"",""time""
""fullscreenenter"",""1"",""2138""
","""event"",""trial"",""time""
""fullscreenexit"",""2"",""3305""
","","","","","","null","<div style=""font-size:60px;"">+</div>","null","","fixation","","","","","","","","",""
"memory-trial","156","346234","0.0-15.0-1.56","1744","2","""event"",""trial"",""time""
""focus"",""0"",""1""
""fullscreenenter"",""1"",""2138""
""fullscreenexit"",""2"",""3305""
","
","""event"",""trial"",""time""
""focus"",""0"",""1""
","""event"",""trial"",""time""
""fullscreenenter"",""1"",""2138""
","""event"",""trial"",""time""
""fullscreenexit"",""2"",""3305""
","","","","","","2490","images/rabbit2.png","","","memory_trial","3","maybe_new","","","","","","",""
"html-keyboard-response","157","346742","0.0-15.0-0.57","1744","2","""event"",""trial"",""time""
""focus"",""0"",""1""
""fullscreenenter"",""1"",""2138""
""fullscreenexit"",""2"",""3305""
","
","""event"",""trial"",""time""
""focus"",""0"",""1""
","""event"",""trial"",""time""
""fullscreenenter"",""1"",""2138""
","""event"",""trial"",""time""
""fullscreenexit"",""2"",""3305""
","","","","","","null","<div style=""font-size:60px;"">+</div>","null","","fixation","","","","","","","","",""
"memory-trial","158","349027","0.0-15.0-1.57","1744","2","""event"",""trial"",""time""
""focus"",""0"",""1""
""fullscreenenter"",""1"",""2138""
""fullscreenexit"",""2"",""3305""
","
","""event"",""trial"",""time""
""focus"",""0"",""1""
","""event"",""trial"",""time""
""fullscreenenter"",""1"",""2138""
","""event"",""trial"",""time""
""fullscreenexit"",""2"",""3305""
","","","","","","1270","images/bed2.png","","","memory_trial","3","maybe_new","","","","","","",""
"html-keyboard-response","159","349533","0.0-15.0-0.58","1744","2","""event"",""trial"",""time""
""focus"",""0"",""1""
""fullscreenenter"",""1"",""2138""
""fullscreenexit"",""2"",""3305""
","
","""event"",""trial"",""time""
""focus"",""0"",""1""
","""event"",""trial"",""time""
""fullscreenenter"",""1"",""2138""
","""event"",""trial"",""time""
""fullscreenexit"",""2"",""3305""
","","","","","","null","<div style=""font-size:60px;"">+</div>","null","","fixation","","","","","","","","",""
"memory-trial","160","352513","0.0-15.0-1.58","1744","2","""event"",""trial"",""time""
""focus"",""0"",""1""
""fullscreenenter"",""1"",""2138""
""fullscreenexit"",""2"",""3305""
","
","""event"",""trial"",""time""
""focus"",""0"",""1""
","""event"",""trial"",""time""
""fullscreenenter"",""1"",""2138""
","""event"",""trial"",""time""
""fullscreenexit"",""2"",""3305""
","","","","","","1974","images/apple4.png","","","memory_trial","4","definitely_new","","","","","","",""
"html-keyboard-response","161","353023","0.0-15.0-0.59","1744","2","""event"",""trial"",""time""
""focus"",""0"",""1""
""fullscreenenter"",""1"",""2138""
""fullscreenexit"",""2"",""3305""
","
","""event"",""trial"",""time""
""focus"",""0"",""1""
","""event"",""trial"",""time""
""fullscreenenter"",""1"",""2138""
","""event"",""trial"",""time""
""fullscreenexit"",""2"",""3305""
","","","","","","null","<div style=""font-size:60px;"">+</div>","null","","fixation","","","","","","","","",""
"memory-trial","162","355844","0.0-15.0-1.59","1744","2","""event"",""trial"",""time""
""focus"",""0"",""1""
""fullscreenenter"",""1"",""2138""
""fullscreenexit"",""2"",""3305""
","
","""event"",""trial"",""time""
""focus"",""0"",""1""
","""event"",""trial"",""time""
""fullscreenenter"",""1"",""2138""
","""event"",""trial"",""time""
""fullscreenexit"",""2"",""3305""
","","","","","","1812","images/horse3.png","","","memory_trial","4","definitely_new","","","","","","",""
"html-keyboard-response","163","356352","0.0-15.0-0.60","1744","2","""event"",""trial"",""time""
""focus"",""0"",""1""
""fullscreenenter"",""1"",""2138""
""fullscreenexit"",""2"",""3305""
","
","""event"",""trial"",""time""
""focus"",""0"",""1""
","""event"",""trial"",""time""
""fullscreenenter"",""1"",""2138""
","""event"",""trial"",""time""
""fullscreenexit"",""2"",""3305""
","","","","","","null","<div style=""font-size:60px;"">+</div>","null","","fixation","","","","","","","","",""
"memory-trial","164","359383","0.0-15.0-1.60","1744","2","""event"",""trial"",""time""
""focus"",""0"",""1""
""fullscreenenter"",""1"",""2138""
""fullscreenexit"",""2"",""3305""
","
","""event"",""trial"",""time""
""focus"",""0"",""1""
","""event"",""trial"",""time""
""fullscreenenter"",""1"",""2138""
","""event"",""trial"",""time""
""fullscreenexit"",""2"",""3305""
","","","","","","2021","images/chair2.png","","","memory_trial","1","definitely_old","","","","","","",""
"html-keyboard-response","165","359894","0.0-15.0-0.61","1744","2","""event"",""trial"",""time""
""focus"",""0"",""1""
""fullscreenenter"",""1"",""2138""
""fullscreenexit"",""2"",""3305""
","
","""event"",""trial"",""time""
""focus"",""0"",""1""
","""event"",""trial"",""time""
""fullscreenenter"",""1"",""2138""
","""event"",""trial"",""time""
""fullscreenexit"",""2"",""3305""
","","","","","","null","<div style=""font-size:60px;"">+</div>","null","","fixation","","","","","","","","",""
"memory-trial","166","361823","0.0-15.0-1.61","1744","2","""event"",""trial"",""time""
""focus"",""0"",""1""
""fullscreenenter"",""1"",""2138""
""fullscreenexit"",""2"",""3305""
","
","""event"",""trial"",""time""
""focus"",""0"",""1""
","""event"",""trial"",""time""
""fullscreenenter"",""1"",""2138""
","""event"",""trial"",""time""
""fullscreenexit"",""2"",""3305""
","","","","","","920","images/tree2.png","","","memory_trial","4","definitely_new","","","","","","",""
"html-keyboard-response","167","362331","0.0-15.0-0.62","1744","2","""event"",""trial"",""time""
""focus"",""0"",""1""
""fullscreenenter"",""1"",""2138""
""fullscreenexit"",""2"",""3305""
","
","""event"",""trial"",""time""
""focus"",""0"",""1""
","""event"",""trial"",""time""
""fullscreenenter"",""1"",""2138""
","""event"",""trial"",""time""
""fullscreenexit"",""2"",""3305""
","","","","","","null","<div style=""font-size:60px;"">+</div>","null","","fixation","","","","","","","","",""
"memory-trial","168","364956","0.0-15.0-1.62","1744","2","""event"",""trial"",""time""
""focus"",""0"",""1""
""fullscreenenter"",""1"",""2138""
""fullscreenexit"",""2"",""3305""
","
","""event"",""trial"",""time""
""focus"",""0"",""1""
","""event"",""trial"",""time""
""fullscreenenter"",""1"",""2138""
","""event"",""trial"",""time""
""fullscreenexit"",""2"",""3305""
","","","","","","1614","images/cactus4.png","","","memory_trial","1","definitely_old","","","","","","",""
"html-keyboard-response","169","365461","0.0-15.0-0.63","1744","2","""event"",""trial"",""time""
""focus"",""0"",""1""
""fullscreenenter"",""1"",""2138""
""fullscreenexit"",""2"",""3305""
","
","""event"",""trial"",""time""
""focus"",""0"",""1""
","""event"",""trial"",""time""
""fullscreenenter"",""1"",""2138""
","""event"",""trial"",""time""
""fullscreenexit"",""2"",""3305""
","","","","","","null","<div style=""font-size:60px;"">+</div>","null","","fixation","","","","","","","","",""
"memory-trial","170","368030","0.0-15.0-1.63","1744","2","""event"",""trial"",""time""
""focus"",""0"",""1""
""fullscreenenter"",""1"",""2138""
""fullscreenexit"",""2"",""3305""
","
","""event"",""trial"",""time""
""focus"",""0"",""1""
","""event"",""trial"",""time""
""fullscreenenter"",""1"",""2138""
","""event"",""trial"",""time""
""fullscreenexit"",""2"",""3305""
","","","","","","1562","images/rodent3.png","","","memory_trial","1","definitely_old","","","","","","",""
"html-keyboard-response","171","368534","0.0-15.0-0.64","1744","2","""event"",""trial"",""time""
""focus"",""0"",""1""
""fullscreenenter"",""1"",""2138""
""fullscreenexit"",""2"",""3305""
","
","""event"",""trial"",""time""
""focus"",""0"",""1""
","""event"",""trial"",""time""
""fullscreenenter"",""1"",""2138""
","""event"",""trial"",""time""
""fullscreenexit"",""2"",""3305""
","","","","","","null","<div style=""font-size:60px;"">+</div>","null","","fixation","","","","","","","","",""
"memory-trial","172","370727","0.0-15.0-1.64","1744","2","""event"",""trial"",""time""
""focus"",""0"",""1""
""fullscreenenter"",""1"",""2138""
""fullscreenexit"",""2"",""3305""
","
","""event"",""trial"",""time""
""focus"",""0"",""1""
","""event"",""trial"",""time""
""fullscreenenter"",""1"",""2138""
","""event"",""trial"",""time""
""fullscreenexit"",""2"",""3305""
","","","","","","1179","images/chair3.png","","","memory_trial","1","definitely_old","","","","","","",""
"html-keyboard-response","173","371241","0.0-15.0-0.65","1744","2","""event"",""trial"",""time""
""focus"",""0"",""1""
""fullscreenenter"",""1"",""2138""
""fullscreenexit"",""2"",""3305""
","
","""event"",""trial"",""time""
""focus"",""0"",""1""
","""event"",""trial"",""time""
""fullscreenenter"",""1"",""2138""
","""event"",""trial"",""time""
""fullscreenexit"",""2"",""3305""
","","","","","","null","<div style=""font-size:60px;"">+</div>","null","","fixation","","","","","","","","",""
"memory-trial","174","373122","0.0-15.0-1.65","1744","2","""event"",""trial"",""time""
""focus"",""0"",""1""
""fullscreenenter"",""1"",""2138""
""fullscreenexit"",""2"",""3305""
","
","""event"",""trial"",""time""
""focus"",""0"",""1""
","""event"",""trial"",""time""
""fullscreenenter"",""1"",""2138""
","""event"",""trial"",""time""
""fullscreenexit"",""2"",""3305""
","","","","","","865","images/bed4.png","","","memory_trial","1","definitely_old","","","","","","",""
"html-keyboard-response","175","373637","0.0-15.0-0.66","1744","2","""event"",""trial"",""time""
""focus"",""0"",""1""
""fullscreenenter"",""1"",""2138""
""fullscreenexit"",""2"",""3305""
","
","""event"",""trial"",""time""
""focus"",""0"",""1""
","""event"",""trial"",""time""
""fullscreenenter"",""1"",""2138""
","""event"",""trial"",""time""
""fullscreenexit"",""2"",""3305""
","","","","","","null","<div style=""font-size:60px;"">+</div>","null","","fixation","","","","","","","","",""
"memory-trial","176","375758","0.0-15.0-1.66","1744","2","""event"",""trial"",""time""
""focus"",""0"",""1""
""fullscreenenter"",""1"",""2138""
""fullscreenexit"",""2"",""3305""
","
","""event"",""trial"",""time""
""focus"",""0"",""1""
","""event"",""trial"",""time""
""fullscreenenter"",""1"",""2138""
","""event"",""trial"",""time""
""fullscreenexit"",""2"",""3305""
","","","","","","1107","images/rabbit1.png","","","memory_trial","1","definitely_old","","","","","","",""
"html-keyboard-response","177","376271","0.0-15.0-0.67","1744","2","""event"",""trial"",""time""
""focus"",""0"",""1""
""fullscreenenter"",""1"",""2138""
""fullscreenexit"",""2"",""3305""
","
","""event"",""trial"",""time""
""focus"",""0"",""1""
","""event"",""trial"",""time""
""fullscreenenter"",""1"",""2138""
","""event"",""trial"",""time""
""fullscreenexit"",""2"",""3305""
","","","","","","null","<div style=""font-size:60px;"">+</div>","null","","fixation","","","","","","","","",""
"memory-trial","178","378758","0.0-15.0-1.67","1744","2","""event"",""trial"",""time""
""focus"",""0"",""1""
""fullscreenenter"",""1"",""2138""
""fullscreenexit"",""2"",""3305""
","
","""event"",""trial"",""time""
""focus"",""0"",""1""
","""event"",""trial"",""time""
""fullscreenenter"",""1"",""2138""
","""event"",""trial"",""time""
""fullscreenexit"",""2"",""3305""
","","","","","","1475","images/sofa5.png","","","memory_trial","3","maybe_new","","","","","","",""
"html-keyboard-response","179","379261","0.0-15.0-0.68","1744","2","""event"",""trial"",""time""
""focus"",""0"",""1""
""fullscreenenter"",""1"",""2138""
""fullscreenexit"",""2"",""3305""
","
","""event"",""trial"",""time""
""focus"",""0"",""1""
","""event"",""trial"",""time""
""fullscreenenter"",""1"",""2138""
","""event"",""trial"",""time""
""fullscreenexit"",""2"",""3305""
","","","","","","null","<div style=""font-size:60px;"">+</div>","null","","fixation","","","","","","","","",""
"memory-trial","180","381034","0.0-15.0-1.68","1744","2","""event"",""trial"",""time""
""focus"",""0"",""1""
""fullscreenenter"",""1"",""2138""
""fullscreenexit"",""2"",""3305""
","
","""event"",""trial"",""time""
""focus"",""0"",""1""
","""event"",""trial"",""time""
""fullscreenenter"",""1"",""2138""
","""event"",""trial"",""time""
""fullscreenexit"",""2"",""3305""
","","","","","","762","images/plane5.png","","","memory_trial","4","definitely_new","","","","","","",""
"html-keyboard-response","181","381539","0.0-15.0-0.69","1744","2","""event"",""trial"",""time""
""focus"",""0"",""1""
""fullscreenenter"",""1"",""2138""
""fullscreenexit"",""2"",""3305""
","
","""event"",""trial"",""time""
""focus"",""0"",""1""
","""event"",""trial"",""time""
""fullscreenenter"",""1"",""2138""
","""event"",""trial"",""time""
""fullscreenexit"",""2"",""3305""
","","","","","","null","<div style=""font-size:60px;"">+</div>","null","","fixation","","","","","","","","",""
"memory-trial","182","383878","0.0-15.0-1.69","1744","2","""event"",""trial"",""time""
""focus"",""0"",""1""
""fullscreenenter"",""1"",""2138""
""fullscreenexit"",""2"",""3305""
","
","""event"",""trial"",""time""
""focus"",""0"",""1""
","""event"",""trial"",""time""
""fullscreenenter"",""1"",""2138""
","""event"",""trial"",""time""
""fullscreenexit"",""2"",""3305""
","","","","","","1326","images/truck5.png","","","memory_trial","4","definitely_new","","","","","","",""
"html-keyboard-response","183","384383","0.0-15.0-0.70","1744","2","""event"",""trial"",""time""
""focus"",""0"",""1""
""fullscreenenter"",""1"",""2138""
""fullscreenexit"",""2"",""3305""
","
","""event"",""trial"",""time""
""focus"",""0"",""1""
","""event"",""trial"",""time""
""fullscreenenter"",""1"",""2138""
","""event"",""trial"",""time""
""fullscreenexit"",""2"",""3305""
","","","","","","null","<div style=""font-size:60px;"">+</div>","null","","fixation","","","","","","","","",""
"memory-trial","184","386796","0.0-15.0-1.70","1744","2","""event"",""trial"",""time""
""focus"",""0"",""1""
""fullscreenenter"",""1"",""2138""
""fullscreenexit"",""2"",""3305""
","
","""event"",""trial"",""time""
""focus"",""0"",""1""
","""event"",""trial"",""time""
""fullscreenenter"",""1"",""2138""
","""event"",""trial"",""time""
""fullscreenexit"",""2"",""3305""
","","","","","","1400","images/flower5.png","","","memory_trial","4","definitely_new","","","","","","",""
"html-keyboard-response","185","387299","0.0-15.0-0.71","1744","2","""event"",""trial"",""time""
""focus"",""0"",""1""
""fullscreenenter"",""1"",""2138""
""fullscreenexit"",""2"",""3305""
","
","""event"",""trial"",""time""
""focus"",""0"",""1""
","""event"",""trial"",""time""
""fullscreenenter"",""1"",""2138""
","""event"",""trial"",""time""
""fullscreenexit"",""2"",""3305""
","","","","","","null","<div style=""font-size:60px;"">+</div>","null","","fixation","","","","","","","","",""
"memory-trial","186","390927","0.0-15.0-1.71","1744","2","""event"",""trial"",""time""
""focus"",""0"",""1""
""fullscreenenter"",""1"",""2138""
""fullscreenexit"",""2"",""3305""
","
","""event"",""trial"",""time""
""focus"",""0"",""1""
","""event"",""trial"",""time""
""fullscreenenter"",""1"",""2138""
","""event"",""trial"",""time""
""fullscreenexit"",""2"",""3305""
","","","","","","2625","images/goat5.png","","","memory_trial","4","definitely_new","","","","","","",""
"html-keyboard-response","187","391433","0.0-15.0-0.72","1744","2","""event"",""trial"",""time""
""focus"",""0"",""1""
""fullscreenenter"",""1"",""2138""
""fullscreenexit"",""2"",""3305""
","
","""event"",""trial"",""time""
""focus"",""0"",""1""
","""event"",""trial"",""time""
""fullscreenenter"",""1"",""2138""
","""event"",""trial"",""time""
""fullscreenexit"",""2"",""3305""
","","","","","","null","<div style=""font-size:60px;"">+</div>","null","","fixation","","","","","","","","",""
"memory-trial","188","394313","0.0-15.0-1.72","1744","2","""event"",""trial"",""time""
""focus"",""0"",""1""
""fullscreenenter"",""1"",""2138""
""fullscreenexit"",""2"",""3305""
","
","""event"",""trial"",""time""
""focus"",""0"",""1""
","""event"",""trial"",""time""
""fullscreenenter"",""1"",""2138""
","""event"",""trial"",""time""
""fullscreenexit"",""2"",""3305""
","","","","","","1872","images/apple2.png","","","memory_trial","1","definitely_old","","","","","","",""
"html-keyboard-response","189","394824","0.0-15.0-0.73","1744","2","""event"",""trial"",""time""
""focus"",""0"",""1""
""fullscreenenter"",""1"",""2138""
""fullscreenexit"",""2"",""3305""
","
","""event"",""trial"",""time""
""focus"",""0"",""1""
","""event"",""trial"",""time""
""fullscreenenter"",""1"",""2138""
","""event"",""trial"",""time""
""fullscreenexit"",""2"",""3305""
","","","","","","null","<div style=""font-size:60px;"">+</div>","null","","fixation","","","","","","","","",""
"memory-trial","190","396664","0.0-15.0-1.73","1744","2","""event"",""trial"",""time""
""focus"",""0"",""1""
""fullscreenenter"",""1"",""2138""
""fullscreenexit"",""2"",""3305""
","
","""event"",""trial"",""time""
""focus"",""0"",""1""
","""event"",""trial"",""time""
""fullscreenenter"",""1"",""2138""
","""event"",""trial"",""time""
""fullscreenexit"",""2"",""3305""
","","","","","","832","images/orange2.png","","","memory_trial","1","definitely_old","","","","","","",""
"html-keyboard-response","191","397174","0.0-15.0-0.74","1744","2","""event"",""trial"",""time""
""focus"",""0"",""1""
""fullscreenenter"",""1"",""2138""
""fullscreenexit"",""2"",""3305""
","
","""event"",""trial"",""time""
""focus"",""0"",""1""
","""event"",""trial"",""time""
""fullscreenenter"",""1"",""2138""
","""event"",""trial"",""time""
""fullscreenexit"",""2"",""3305""
","","","","","","null","<div style=""font-size:60px;"">+</div>","null","","fixation","","","","","","","","",""
"memory-trial","192","399994","0.0-15.0-1.74","1744","2","""event"",""trial"",""time""
""focus"",""0"",""1""
""fullscreenenter"",""1"",""2138""
""fullscreenexit"",""2"",""3305""
","
","""event"",""trial"",""time""
""focus"",""0"",""1""
","""event"",""trial"",""time""
""fullscreenenter"",""1"",""2138""
","""event"",""trial"",""time""
""fullscreenexit"",""2"",""3305""
","","","","","","1810","images/flower2.png","","","memory_trial","2","maybe_old","","","","","","",""
"html-keyboard-response","193","400504","0.0-15.0-0.75","1744","2","""event"",""trial"",""time""
""focus"",""0"",""1""
""fullscreenenter"",""1"",""2138""
""fullscreenexit"",""2"",""3305""
","
","""event"",""trial"",""time""
""focus"",""0"",""1""
","""event"",""trial"",""time""
""fullscreenenter"",""1"",""2138""
","""event"",""trial"",""time""
""fullscreenexit"",""2"",""3305""
","","","","","","null","<div style=""font-size:60px;"">+</div>","null","","fixation","","","","","","","","",""
"memory-trial","194","402651","0.0-15.0-1.75","1744","2","""event"",""trial"",""time""
""focus"",""0"",""1""
""fullscreenenter"",""1"",""2138""
""fullscreenexit"",""2"",""3305""
","
","""event"",""trial"",""time""
""focus"",""0"",""1""
","""event"",""trial"",""time""
""fullscreenenter"",""1"",""2138""
","""event"",""trial"",""time""
""fullscreenexit"",""2"",""3305""
","","","","","","1140","images/horse4.png","","","memory_trial","4","definitely_new","","","","","","",""
"html-keyboard-response","195","403163","0.0-15.0-0.76","1744","2","""event"",""trial"",""time""
""focus"",""0"",""1""
""fullscreenenter"",""1"",""2138""
""fullscreenexit"",""2"",""3305""
","
","""event"",""trial"",""time""
""focus"",""0"",""1""
","""event"",""trial"",""time""
""fullscreenenter"",""1"",""2138""
","""event"",""trial"",""time""
""fullscreenexit"",""2"",""3305""
","","","","","","null","<div style=""font-size:60px;"">+</div>","null","","fixation","","","","","","","","",""
"memory-trial","196","405338","0.0-15.0-1.76","1744","2","""event"",""trial"",""time""
""focus"",""0"",""1""
""fullscreenenter"",""1"",""2138""
""fullscreenexit"",""2"",""3305""
","
","""event"",""trial"",""time""
""focus"",""0"",""1""
","""event"",""trial"",""time""
""fullscreenenter"",""1"",""2138""
","""event"",""trial"",""time""
""fullscreenexit"",""2"",""3305""
","","","","","","1170","images/table1.png","","","memory_trial","1","definitely_old","","","","","","",""
