"trial_type","trial_index","time_elapsed","internal_node_id","subject_id","task_version","interactions","blur_events","focus_events","fullscreenenter_events","fullscreenexit_events","success","timeout","failed_images","failed_audio","failed_video","rt","stimulus","response","button_pressed","task_part","key_press","answer","correct","left_choice","middle_choice","right_choice","choice_positions","option_selected","block"
"pavlovia","0","4","0.0-0.0","1648","2","""event"",""trial"",""time""
""fullscreenenter"",""1"",""4246""
","
","
","""event"",""trial"",""time""
""fullscreenenter"",""1"",""4246""
","
","","","","","","","","","","","","","","","","","","",""
"fullscreen","1","5117","0.0-1.0","1648","2","""event"",""trial"",""time""
""fullscreenenter"",""1"",""4246""
","
","
","""event"",""trial"",""time""
""fullscreenenter"",""1"",""4246""
","
","true","","","","","","","","","","","","","","","","","",""
"preload","2","6021","0.0-2.0","1648","2","""event"",""trial"",""time""
""fullscreenenter"",""1"",""4246""
","
","
","""event"",""trial"",""time""
""fullscreenenter"",""1"",""4246""
","
","true","false","[]","[]","[]","","","","","","","","","","","","","",""
"audio-keyboard-response","3","8233","0.0-3.0","1648","2","""event"",""trial"",""time""
""fullscreenenter"",""1"",""4246""
","
","
","""event"",""trial"",""time""
""fullscreenenter"",""1"",""4246""
","
","","","","","","0","audio/beep_loop.wav"," ","","","","","","","","","","",""
"audio-button-response","4","10109","0.0-4.0","1648","2","""event"",""trial"",""time""
""fullscreenenter"",""1"",""4246""
","
","
","""event"",""trial"",""time""
""fullscreenenter"",""1"",""4246""
","
","","","","","","1824","audio/turtle.wav","3","","","","","","","","","","",""
"audio-button-response","5","12466","0.0-5.0","1648","2","""event"",""trial"",""time""
""fullscreenenter"",""1"",""4246""
","
","
","""event"",""trial"",""time""
""fullscreenenter"",""1"",""4246""
","
","","","","","","1355","audio/shark.wav","2","","","","","","","","","","",""
"preload","6","15649","0.0-6.0","1648","2","""event"",""trial"",""time""
""fullscreenenter"",""1"",""4246""
","
","
","""event"",""trial"",""time""
""fullscreenenter"",""1"",""4246""
","
","true","false","[]","[]","[]","","","","","","","","","","","","","",""
"learning-instructions","7","22298","0.0-7.0-0.0","1648","2","""event"",""trial"",""time""
""fullscreenenter"",""1"",""4246""
","
","
","""event"",""trial"",""time""
""fullscreenenter"",""1"",""4246""
","
","","","","","","1846","<p> Welcome back! </p><p> Last week, you had to make choices about lots of different items.  </p>","","0","instructions","","","","","","","","",""
"learning-instructions","8","27393","0.0-7.0-0.1","1648","2","""event"",""trial"",""time""
""fullscreenenter"",""1"",""4246""
","
","
","""event"",""trial"",""time""
""fullscreenenter"",""1"",""4246""
","
","","","","","","798","<p> Today, we are going to ask you to try to remember all the items. </p>","","0","instructions","","","","","","","","",""
"learning-instructions","9","38105","0.0-7.0-0.2","1648","2","""event"",""trial"",""time""
""fullscreenenter"",""1"",""4246""
","
","
","""event"",""trial"",""time""
""fullscreenenter"",""1"",""4246""
","
","","","","","","581.9999999999927","<p> On every trial, you will see an image. </p><p> The image may be an OLD image you saw during the games last week or it may be a NEW image that was not presented. </p>","","0","instructions","","","","","","","","",""
"learning-instructions","10","47665","0.0-7.0-0.3","1648","2","""event"",""trial"",""time""
""fullscreenenter"",""1"",""4246""
","
","
","""event"",""trial"",""time""
""fullscreenenter"",""1"",""4246""
","
","","","","","","1067","<p> You need to select whether the image is:  </p><p>  'Definitely old', 'Maybe old', 'Maybe new', or 'Definitely new.'  </p><div class=""mem-choice-instructions-grid""><div class=""choice-option"" id=""choice-option-1"" ><img src=""images/definitely_old_1.png"" id=""choice-option-img-1"" class=""choice-option-img"" stage=""1""></div><div class=""choice-option"" id=""choice-option-2"" ><img src=""images/maybe_old_1.png"" id=""choice-option-img-2"" class=""choice-option-img"" stage=""1""></div><div class=""choice-option"" id=""choice-option-3"" ><img src=""images/maybe_new_1.png"" id=""choice-option-img-3"" class=""choice-option-img"" stage=""1""></div><div class=""choice-option"" id=""choice-option-4"" > <img src=""images/definitely_new_1.png"" id=""choice-option-img-4"" class=""choice-option-img"" stage=""1""></div></div>","","0","instructions","","","","","","","","",""
"learning-instructions","11","55688","0.0-7.0-0.4","1648","2","""event"",""trial"",""time""
""fullscreenenter"",""1"",""4246""
","
","
","""event"",""trial"",""time""
""fullscreenenter"",""1"",""4246""
","
","","","","","","1337","<p> You should use the 1, 2, 3, and 4 keys to make your responses.  </p><div class=""mem-choice-instructions-grid""><div class=""choice-option"" id=""choice-option-1"" ><img src=""images/definitely_old.png"" id=""choice-option-img-1"" class=""choice-option-img"" stage=""1""></div><div class=""choice-option"" id=""choice-option-2"" ><img src=""images/maybe_old.png"" id=""choice-option-img-2"" class=""choice-option-img"" stage=""1""></div><div class=""choice-option"" id=""choice-option-3"" ><img src=""images/maybe_new.png"" id=""choice-option-img-3"" class=""choice-option-img"" stage=""1""></div><div class=""choice-option"" id=""choice-option-4"" > <img src=""images/definitely_new.png"" id=""choice-option-img-4"" class=""choice-option-img"" stage=""1""></div></div>","","0","instructions","","","","","","","","",""
"learning-instructions","12","63280","0.0-7.0-0.5","1648","2","""event"",""trial"",""time""
""fullscreenenter"",""1"",""4246""
","
","
","""event"",""trial"",""time""
""fullscreenenter"",""1"",""4246""
","
","","","","","","835.0000000000073","<p> You will have 10 seconds to make each response.  </p><p>  Make sure to respond before time runs out! </p>","","0","instructions","","","","","","","","",""
"learning-instructions","13","71472","0.0-7.0-0.6","1648","2","""event"",""trial"",""time""
""fullscreenenter"",""1"",""4246""
","
","
","""event"",""trial"",""time""
""fullscreenenter"",""1"",""4246""
","
","","","","","","614","<p> Today, you will see each image ONCE only.  </p><p>  That means none of the images will repeat. </p>","","0","instructions","","","","","","","","",""
"learning-instructions","14","84823","0.0-7.0-0.7","1648","2","""event"",""trial"",""time""
""fullscreenenter"",""1"",""4246""
","
","
","""event"",""trial"",""time""
""fullscreenenter"",""1"",""4246""
","
","","","","","","688","<p> Before you play the real game, it is time to practice. </p><p>  Just like in the real game, some of the images in the practice will be ones you have seen before. </p><p>  Others will be entirely new. </p>","","0","instructions","","","","","","","","",""
"html-button-response","15","86575","0.0-8.0","1648","2","""event"",""trial"",""time""
""fullscreenenter"",""1"",""4246""
","
","
","""event"",""trial"",""time""
""fullscreenenter"",""1"",""4246""
","
","","","","","","1650","<p> Ready to practice? </p><p> Remember, use the 1, 2, 3, and 4 keys to make your responses. </p>","0","","instructions","","","","","","","","",""
"html-keyboard-response","16","87177","0.0-9.0-0.0","1648","2","""event"",""trial"",""time""
""fullscreenenter"",""1"",""4246""
","
","
","""event"",""trial"",""time""
""fullscreenenter"",""1"",""4246""
","
","","","","","","null","<div style=""font-size:60px;"">+</div>","null","","fixation","","","","","","","","",""
"memory-trial","17","91837","0.0-9.0-1.0","1648","2","""event"",""trial"",""time""
""fullscreenenter"",""1"",""4246""
","
","
","""event"",""trial"",""time""
""fullscreenenter"",""1"",""4246""
","
","","","","","","3656","images/ball4.png","","","practice","1","definitely_old","","","","","","",""
"html-keyboard-response","18","92338","0.0-9.0-0.1","1648","2","""event"",""trial"",""time""
""fullscreenenter"",""1"",""4246""
","
","
","""event"",""trial"",""time""
""fullscreenenter"",""1"",""4246""
","
","","","","","","null","<div style=""font-size:60px;"">+</div>","null","","fixation","","","","","","","","",""
"memory-trial","19","96801","0.0-9.0-1.1","1648","2","""event"",""trial"",""time""
""fullscreenenter"",""1"",""4246""
","
","
","""event"",""trial"",""time""
""fullscreenenter"",""1"",""4246""
","
","","","","","","3460","images/racket4.png","","","practice","3","maybe_new","","","","","","",""
"html-keyboard-response","20","97303","0.0-9.0-0.2","1648","2","""event"",""trial"",""time""
""fullscreenenter"",""1"",""4246""
","
","
","""event"",""trial"",""time""
""fullscreenenter"",""1"",""4246""
","
","","","","","","null","<div style=""font-size:60px;"">+</div>","null","","fixation","","","","","","","","",""
"memory-trial","21","99726","0.0-9.0-1.2","1648","2","""event"",""trial"",""time""
""fullscreenenter"",""1"",""4246""
","
","
","""event"",""trial"",""time""
""fullscreenenter"",""1"",""4246""
","
","","","","","","1421","images/ball2.png","","","practice","1","definitely_old","","","","","","",""
"html-keyboard-response","22","100227","0.0-9.0-0.3","1648","2","""event"",""trial"",""time""
""fullscreenenter"",""1"",""4246""
","
","
","""event"",""trial"",""time""
""fullscreenenter"",""1"",""4246""
","
","","","","","","null","<div style=""font-size:60px;"">+</div>","null","","fixation","","","","","","","","",""
"memory-trial","23","102875","0.0-9.0-1.3","1648","2","""event"",""trial"",""time""
""fullscreenenter"",""1"",""4246""
","
","
","""event"",""trial"",""time""
""fullscreenenter"",""1"",""4246""
","
","","","","","","1645.9999999999854","images/ball3.png","","","practice","1","definitely_old","","","","","","",""
"html-keyboard-response","24","103376","0.0-9.0-0.4","1648","2","""event"",""trial"",""time""
""fullscreenenter"",""1"",""4246""
","
","
","""event"",""trial"",""time""
""fullscreenenter"",""1"",""4246""
","
","","","","","","null","<div style=""font-size:60px;"">+</div>","null","","fixation","","","","","","","","",""
"memory-trial","25","106295","0.0-9.0-1.4","1648","2","""event"",""trial"",""time""
""fullscreenenter"",""1"",""4246""
","
","
","""event"",""trial"",""time""
""fullscreenenter"",""1"",""4246""
","
","","","","","","1917","images/racket3.png","","","practice","4","definitely_new","","","","","","",""
"html-keyboard-response","26","106797","0.0-9.0-0.5","1648","2","""event"",""trial"",""time""
""fullscreenenter"",""1"",""4246""
","
","
","""event"",""trial"",""time""
""fullscreenenter"",""1"",""4246""
","
","","","","","","null","<div style=""font-size:60px;"">+</div>","null","","fixation","","","","","","","","",""
"memory-trial","27","108800","0.0-9.0-1.5","1648","2","""event"",""trial"",""time""
""fullscreenenter"",""1"",""4246""
","
","
","""event"",""trial"",""time""
""fullscreenenter"",""1"",""4246""
","
","","","","","","1001","images/ball1.png","","","practice","1","definitely_old","","","","","","",""
"html-keyboard-response","28","109301","0.0-9.0-0.6","1648","2","""event"",""trial"",""time""
""fullscreenenter"",""1"",""4246""
","
","
","""event"",""trial"",""time""
""fullscreenenter"",""1"",""4246""
","
","","","","","","null","<div style=""font-size:60px;"">+</div>","null","","fixation","","","","","","","","",""
"memory-trial","29","113945","0.0-9.0-1.6","1648","2","""event"",""trial"",""time""
""fullscreenenter"",""1"",""4246""
","
","
","""event"",""trial"",""time""
""fullscreenenter"",""1"",""4246""
","
","","","","","","3642","images/racket2.png","","","practice","3","maybe_new","","","","","","",""
"html-keyboard-response","30","114446","0.0-9.0-0.7","1648","2","""event"",""trial"",""time""
""fullscreenenter"",""1"",""4246""
","
","
","""event"",""trial"",""time""
""fullscreenenter"",""1"",""4246""
","
","","","","","","null","<div style=""font-size:60px;"">+</div>","null","","fixation","","","","","","","","",""
"memory-trial","31","119074","0.0-9.0-1.7","1648","2","""event"",""trial"",""time""
""fullscreenenter"",""1"",""4246""
","
","
","""event"",""trial"",""time""
""fullscreenenter"",""1"",""4246""
","
","","","","","","3625.9999999999854","images/racket1.png","","","practice","2","maybe_old","","","","","","",""
"learning-instructions","32","128406","0.0-10.0-0.0","1648","2","""event"",""trial"",""time""
""fullscreenenter"",""1"",""4246""
","
","
","""event"",""trial"",""time""
""fullscreenenter"",""1"",""4246""
","
","","","","","","1381","<p> Great! You have completed the practice. </p><p> Before you start, we're going to ask you a few questions about how the game works.  </p>","","0","instructions","","","","","","","","",""
"preload","33","130082","0.0-11.0","1648","2","""event"",""trial"",""time""
""fullscreenenter"",""1"",""4246""
","
","
","""event"",""trial"",""time""
""fullscreenenter"",""1"",""4246""
","
","true","false","[]","[]","[]","","","","","","","","","","","","","",""
"comp-q","34","136741","0.0-12.0-0.0","1648","2","""event"",""trial"",""time""
""fullscreenenter"",""1"",""4246""
","
","
","""event"",""trial"",""time""
""fullscreenenter"",""1"",""4246""
","
","","","","","","829","<p> <b> True or False? </b> </p><p> In this game, you will only see each image once. </p>","","0","comp_question","","","true","","","","","",""
"comp-q","35","144205","0.0-12.0-1.0","1648","2","""event"",""trial"",""time""
""fullscreenenter"",""1"",""4246""
","
","
","""event"",""trial"",""time""
""fullscreenenter"",""1"",""4246""
","
","","","","","","1132","<p> <b> That's right! </b> You will see many different images <i> one time each </i> in this game. </p>","","0","comp_answer","","","","","","","","",""
"comp-q","36","150773","0.0-12.0-0.1","1648","2","""event"",""trial"",""time""
""fullscreenenter"",""1"",""4246""
","
","
","""event"",""trial"",""time""
""fullscreenenter"",""1"",""4246""
","
","","","","","","773.0000000000291","<p> <b> True or False? </b> </p><p> You should use the mouse and click to make your response. </p>","","1","comp_question","","","true","","","","","",""
"comp-q","37","159181","0.0-12.0-1.1","1648","2","""event"",""trial"",""time""
""fullscreenenter"",""1"",""4246""
","
","
","""event"",""trial"",""time""
""fullscreenenter"",""1"",""4246""
","
","","","","","","1064","<p><b> That's right! </b> You should use the '1', '2', '3', and '4' keys to make your response. </p>","","0","comp_answer","","","","","","","","",""
"comp-q","38","165876","0.0-12.0-0.2","1648","2","""event"",""trial"",""time""
""fullscreenenter"",""1"",""4246""
","
","
","""event"",""trial"",""time""
""fullscreenenter"",""1"",""4246""
","
","","","","","","704","<p> <b> True or False? </b> </p><p> You will have as much time as you want to make each choice. </p>","","1","comp_question","","","true","","","","","",""
"comp-q","39","172388","0.0-12.0-1.2","1648","2","""event"",""trial"",""time""
""fullscreenenter"",""1"",""4246""
","
","
","""event"",""trial"",""time""
""fullscreenenter"",""1"",""4246""
","
","","","","","","1125","<p> <b> That's right! </b> You will only have 10 seconds to make each choice. </p>","","0","comp_answer","","","","","","","","",""
"learning-instructions","40","185148","0.0-13.0","1648","2","""event"",""trial"",""time""
""fullscreenenter"",""1"",""4246""
","
","
","""event"",""trial"",""time""
""fullscreenenter"",""1"",""4246""
","
","","","","","","4093","<p> Great! You are now ready to begin the game. </p><p> Remember, use the 1, 2, 3, and 4 keys to make your responses. </p>","","0","instructions","","","","","","","","",""
"preload","41","187923","0.0-14.0","1648","2","""event"",""trial"",""time""
""fullscreenenter"",""1"",""4246""
","
","
","""event"",""trial"",""time""
""fullscreenenter"",""1"",""4246""
","
","true","false","[]","[]","[]","","","","","","","","","","","","","",""
"html-keyboard-response","42","188425","0.0-15.0-0.0","1648","2","""event"",""trial"",""time""
""fullscreenenter"",""1"",""4246""
","
","
","""event"",""trial"",""time""
""fullscreenenter"",""1"",""4246""
","
","","","","","","null","<div style=""font-size:60px;"">+</div>","null","","fixation","","","","","","","","",""
"memory-trial","43","192018","0.0-15.0-1.0","1648","2","""event"",""trial"",""time""
""fullscreenenter"",""1"",""4246""
","
","
","""event"",""trial"",""time""
""fullscreenenter"",""1"",""4246""
","
","","","","","","2592","images/sofa1.png","","","memory_trial","1","definitely_old","","","","","","",""
"html-keyboard-response","44","192520","0.0-15.0-0.1","1648","2","""event"",""trial"",""time""
""fullscreenenter"",""1"",""4246""
","
","
","""event"",""trial"",""time""
""fullscreenenter"",""1"",""4246""
","
","","","","","","null","<div style=""font-size:60px;"">+</div>","null","","fixation","","","","","","","","",""
"memory-trial","45","195603","0.0-15.0-1.1","1648","2","""event"",""trial"",""time""
""fullscreenenter"",""1"",""4246""
","
","
","""event"",""trial"",""time""
""fullscreenenter"",""1"",""4246""
","
","","","","","","2080.999999999971","images/feline4.png","","","memory_trial","1","definitely_old","","","","","","",""
"html-keyboard-response","46","196104","0.0-15.0-0.2","1648","2","""event"",""trial"",""time""
""fullscreenenter"",""1"",""4246""
","
","
","""event"",""trial"",""time""
""fullscreenenter"",""1"",""4246""
","
","","","","","","null","<div style=""font-size:60px;"">+</div>","null","","fixation","","","","","","","","",""
"memory-trial","47","199832","0.0-15.0-1.2","1648","2","""event"",""trial"",""time""
""fullscreenenter"",""1"",""4246""
","
","
","""event"",""trial"",""time""
""fullscreenenter"",""1"",""4246""
","
","","","","","","2727","images/sofa5.png","","","memory_trial","2","maybe_old","","","","","","",""
"html-keyboard-response","48","200335","0.0-15.0-0.3","1648","2","""event"",""trial"",""time""
""fullscreenenter"",""1"",""4246""
","
","
","""event"",""trial"",""time""
""fullscreenenter"",""1"",""4246""
","
","","","","","","null","<div style=""font-size:60px;"">+</div>","null","","fixation","","","","","","","","",""
"memory-trial","49","204317","0.0-15.0-1.3","1648","2","""event"",""trial"",""time""
""fullscreenenter"",""1"",""4246""
","
","
","""event"",""trial"",""time""
""fullscreenenter"",""1"",""4246""
","
","","","","","","2979.999999999971","images/plane1.png","","","memory_trial","4","definitely_new","","","","","","",""
"html-keyboard-response","50","204818","0.0-15.0-0.4","1648","2","""event"",""trial"",""time""
""fullscreenenter"",""1"",""4246""
","
","
","""event"",""trial"",""time""
""fullscreenenter"",""1"",""4246""
","
","","","","","","null","<div style=""font-size:60px;"">+</div>","null","","fixation","","","","","","","","",""
"memory-trial","51","208728","0.0-15.0-1.4","1648","2","""event"",""trial"",""time""
""fullscreenenter"",""1"",""4246""
","
","
","""event"",""trial"",""time""
""fullscreenenter"",""1"",""4246""
","
","","","","","","2907","images/apple1.png","","","memory_trial","4","definitely_new","","","","","","",""
"html-keyboard-response","52","209229","0.0-15.0-0.5","1648","2","""event"",""trial"",""time""
""fullscreenenter"",""1"",""4246""
","
","
","""event"",""trial"",""time""
""fullscreenenter"",""1"",""4246""
","
","","","","","","null","<div style=""font-size:60px;"">+</div>","null","","fixation","","","","","","","","",""
"memory-trial","53","214952","0.0-15.0-1.5","1648","2","""event"",""trial"",""time""
""fullscreenenter"",""1"",""4246""
","
","
","""event"",""trial"",""time""
""fullscreenenter"",""1"",""4246""
","
","","","","","","4721","images/goat3.png","","","memory_trial","2","maybe_old","","","","","","",""
"html-keyboard-response","54","215453","0.0-15.0-0.6","1648","2","""event"",""trial"",""time""
""fullscreenenter"",""1"",""4246""
","
","
","""event"",""trial"",""time""
""fullscreenenter"",""1"",""4246""
","
","","","","","","null","<div style=""font-size:60px;"">+</div>","null","","fixation","","","","","","","","",""
"memory-trial","55","218312","0.0-15.0-1.6","1648","2","""event"",""trial"",""time""
""fullscreenenter"",""1"",""4246""
","
","
","""event"",""trial"",""time""
""fullscreenenter"",""1"",""4246""
","
","","","","","","1857","images/chair1.png","","","memory_trial","1","definitely_old","","","","","","",""
"html-keyboard-response","56","218813","0.0-15.0-0.7","1648","2","""event"",""trial"",""time""
""fullscreenenter"",""1"",""4246""
","
","
","""event"",""trial"",""time""
""fullscreenenter"",""1"",""4246""
","
","","","","","","null","<div style=""font-size:60px;"">+</div>","null","","fixation","","","","","","","","",""
"memory-trial","57","222796","0.0-15.0-1.7","1648","2","""event"",""trial"",""time""
""fullscreenenter"",""1"",""4246""
","
","
","""event"",""trial"",""time""
""fullscreenenter"",""1"",""4246""
","
","","","","","","2982","images/chair5.png","","","memory_trial","2","maybe_old","","","","","","",""
"html-keyboard-response","58","223298","0.0-15.0-0.8","1648","2","""event"",""trial"",""time""
""fullscreenenter"",""1"",""4246""
","
","
","""event"",""trial"",""time""
""fullscreenenter"",""1"",""4246""
","
","","","","","","null","<div style=""font-size:60px;"">+</div>","null","","fixation","","","","","","","","",""
"memory-trial","59","228227","0.0-15.0-1.8","1648","2","""event"",""trial"",""time""
""fullscreenenter"",""1"",""4246""
","
","
","""event"",""trial"",""time""
""fullscreenenter"",""1"",""4246""
","
","","","","","","3927","images/plane3.png","","","memory_trial","4","definitely_new","","","","","","",""
"html-keyboard-response","60","228728","0.0-15.0-0.9","1648","2","""event"",""trial"",""time""
""fullscreenenter"",""1"",""4246""
","
","
","""event"",""trial"",""time""
""fullscreenenter"",""1"",""4246""
","
","","","","","","null","<div style=""font-size:60px;"">+</div>","null","","fixation","","","","","","","","",""
"memory-trial","61","232412","0.0-15.0-1.9","1648","2","""event"",""trial"",""time""
""fullscreenenter"",""1"",""4246""
","
","
","""event"",""trial"",""time""
""fullscreenenter"",""1"",""4246""
","
","","","","","","2681.999999999971","images/table5.png","","","memory_trial","3","maybe_new","","","","","","",""
"html-keyboard-response","62","232914","0.0-15.0-0.10","1648","2","""event"",""trial"",""time""
""fullscreenenter"",""1"",""4246""
","
","
","""event"",""trial"",""time""
""fullscreenenter"",""1"",""4246""
","
","","","","","","null","<div style=""font-size:60px;"">+</div>","null","","fixation","","","","","","","","",""
"memory-trial","63","236912","0.0-15.0-1.10","1648","2","""event"",""trial"",""time""
""fullscreenenter"",""1"",""4246""
","
","
","""event"",""trial"",""time""
""fullscreenenter"",""1"",""4246""
","
","","","","","","2996","images/cow5.png","","","memory_trial","3","maybe_new","","","","","","",""
"html-keyboard-response","64","237413","0.0-15.0-0.11","1648","2","""event"",""trial"",""time""
""fullscreenenter"",""1"",""4246""
","
","
","""event"",""trial"",""time""
""fullscreenenter"",""1"",""4246""
","
","","","","","","null","<div style=""font-size:60px;"">+</div>","null","","fixation","","","","","","","","",""
"memory-trial","65","240722","0.0-15.0-1.11","1648","2","""event"",""trial"",""time""
""fullscreenenter"",""1"",""4246""
","
","
","""event"",""trial"",""time""
""fullscreenenter"",""1"",""4246""
","
","","","","","","2306","images/straw2.png","","","memory_trial","1","definitely_old","","","","","","",""
"html-keyboard-response","66","241223","0.0-15.0-0.12","1648","2","""event"",""trial"",""time""
""fullscreenenter"",""1"",""4246""
","
","
","""event"",""trial"",""time""
""fullscreenenter"",""1"",""4246""
","
","","","","","","null","<div style=""font-size:60px;"">+</div>","null","","fixation","","","","","","","","",""
"memory-trial","67","244726","0.0-15.0-1.12","1648","2","""event"",""trial"",""time""
""fullscreenenter"",""1"",""4246""
","
","
","""event"",""trial"",""time""
""fullscreenenter"",""1"",""4246""
","
","","","","","","2501","images/chair3.png","","","memory_trial","2","maybe_old","","","","","","",""
"html-keyboard-response","68","245228","0.0-15.0-0.13","1648","2","""event"",""trial"",""time""
""fullscreenenter"",""1"",""4246""
","
","
","""event"",""trial"",""time""
""fullscreenenter"",""1"",""4246""
","
","","","","","","null","<div style=""font-size:60px;"">+</div>","null","","fixation","","","","","","","","",""
"memory-trial","69","249991","0.0-15.0-1.13","1648","2","""event"",""trial"",""time""
""fullscreenenter"",""1"",""4246""
","
","
","""event"",""trial"",""time""
""fullscreenenter"",""1"",""4246""
","
","","","","","","3761.000000000029","images/feline1.png","","","memory_trial","1","definitely_old","","","","","","",""
"html-keyboard-response","70","250493","0.0-15.0-0.14","1648","2","""event"",""trial"",""time""
""fullscreenenter"",""1"",""4246""
","
","
","""event"",""trial"",""time""
""fullscreenenter"",""1"",""4246""
","
","","","","","","null","<div style=""font-size:60px;"">+</div>","null","","fixation","","","","","","","","",""
"memory-trial","71","256096","0.0-15.0-1.14","1648","2","""event"",""trial"",""time""
""fullscreenenter"",""1"",""4246""
","
","
","""event"",""trial"",""time""
""fullscreenenter"",""1"",""4246""
","
","","","","","","4601","images/train4.png","","","memory_trial","2","maybe_old","","","","","","",""
"html-keyboard-response","72","256598","0.0-15.0-0.15","1648","2","""event"",""trial"",""time""
""fullscreenenter"",""1"",""4246""
","
","
","""event"",""trial"",""time""
""fullscreenenter"",""1"",""4246""
","
","","","","","","null","<div style=""font-size:60px;"">+</div>","null","","fixation","","","","","","","","",""
"memory-trial","73","258871","0.0-15.0-1.15","1648","2","""event"",""trial"",""time""
""fullscreenenter"",""1"",""4246""
","
","
","""event"",""trial"",""time""
""fullscreenenter"",""1"",""4246""
","
","","","","","","1270","images/rodent4.png","","","memory_trial","1","definitely_old","","","","","","",""
"html-keyboard-response","74","259373","0.0-15.0-0.16","1648","2","""event"",""trial"",""time""
""fullscreenenter"",""1"",""4246""
","
","
","""event"",""trial"",""time""
""fullscreenenter"",""1"",""4246""
","
","","","","","","null","<div style=""font-size:60px;"">+</div>","null","","fixation","","","","","","","","",""
"memory-trial","75","268606","0.0-15.0-1.16","1648","2","""event"",""trial"",""time""
""fullscreenenter"",""1"",""4246""
","
","
","""event"",""trial"",""time""
""fullscreenenter"",""1"",""4246""
","
","","","","","","8230.00000000003","images/boat4.png","","","memory_trial","3","maybe_new","","","","","","",""
"html-keyboard-response","76","269107","0.0-15.0-0.17","1648","2","""event"",""trial"",""time""
""fullscreenenter"",""1"",""4246""
","
","
","""event"",""trial"",""time""
""fullscreenenter"",""1"",""4246""
","
","","","","","","null","<div style=""font-size:60px;"">+</div>","null","","fixation","","","","","","","","",""
"memory-trial","77","273076","0.0-15.0-1.17","1648","2","""event"",""trial"",""time""
""fullscreenenter"",""1"",""4246""
","
","
","""event"",""trial"",""time""
""fullscreenenter"",""1"",""4246""
","
","","","","","","2966","images/cow3.png","","","memory_trial","1","definitely_old","","","","","","",""
"html-keyboard-response","78","273577","0.0-15.0-0.18","1648","2","""event"",""trial"",""time""
""fullscreenenter"",""1"",""4246""
","
","
","""event"",""trial"",""time""
""fullscreenenter"",""1"",""4246""
","
","","","","","","null","<div style=""font-size:60px;"">+</div>","null","","fixation","","","","","","","","",""
"memory-trial","79","276181","0.0-15.0-1.18","1648","2","""event"",""trial"",""time""
""fullscreenenter"",""1"",""4246""
","
","
","""event"",""trial"",""time""
""fullscreenenter"",""1"",""4246""
","
","","","","","","1600","images/bush5.png","","","memory_trial","4","definitely_new","","","","","","",""
"html-keyboard-response","80","276683","0.0-15.0-0.19","1648","2","""event"",""trial"",""time""
""fullscreenenter"",""1"",""4246""
","
","
","""event"",""trial"",""time""
""fullscreenenter"",""1"",""4246""
","
","","","","","","null","<div style=""font-size:60px;"">+</div>","null","","fixation","","","","","","","","",""
"memory-trial","81","282525","0.0-15.0-1.19","1648","2","""event"",""trial"",""time""
""fullscreenenter"",""1"",""4246""
","
","
","""event"",""trial"",""time""
""fullscreenenter"",""1"",""4246""
","
","","","","","","4840","images/feline5.png","","","memory_trial","3","maybe_new","","","","","","",""
"html-keyboard-response","82","283027","0.0-15.0-0.20","1648","2","""event"",""trial"",""time""
""fullscreenenter"",""1"",""4246""
","
","
","""event"",""trial"",""time""
""fullscreenenter"",""1"",""4246""
","
","","","","","","null","<div style=""font-size:60px;"">+</div>","null","","fixation","","","","","","","","",""
"memory-trial","83","288256","0.0-15.0-1.20","1648","2","""event"",""trial"",""time""
""fullscreenenter"",""1"",""4246""
","
","
","""event"",""trial"",""time""
""fullscreenenter"",""1"",""4246""
","
","","","","","","4227","images/cactus4.png","","","memory_trial","2","maybe_old","","","","","","",""
"html-keyboard-response","84","288757","0.0-15.0-0.21","1648","2","""event"",""trial"",""time""
""fullscreenenter"",""1"",""4246""
","
","
","""event"",""trial"",""time""
""fullscreenenter"",""1"",""4246""
","
","","","","","","null","<div style=""font-size:60px;"">+</div>","null","","fixation","","","","","","","","",""
"memory-trial","85","292949","0.0-15.0-1.21","1648","2","""event"",""trial"",""time""
""fullscreenenter"",""1"",""4246""
","
","
","""event"",""trial"",""time""
""fullscreenenter"",""1"",""4246""
","
","","","","","","3190.999999999942","images/orange5.png","","","memory_trial","4","definitely_new","","","","","","",""
"html-keyboard-response","86","293451","0.0-15.0-0.22","1648","2","""event"",""trial"",""time""
""fullscreenenter"",""1"",""4246""
","
","
","""event"",""trial"",""time""
""fullscreenenter"",""1"",""4246""
","
","","","","","","null","<div style=""font-size:60px;"">+</div>","null","","fixation","","","","","","","","",""
"memory-trial","87","297210","0.0-15.0-1.22","1648","2","""event"",""trial"",""time""
""fullscreenenter"",""1"",""4246""
","
","
","""event"",""trial"",""time""
""fullscreenenter"",""1"",""4246""
","
","","","","","","2758","images/sofa2.png","","","memory_trial","4","definitely_new","","","","","","",""
"html-keyboard-response","88","297711","0.0-15.0-0.23","1648","2","""event"",""trial"",""time""
""fullscreenenter"",""1"",""4246""
","
","
","""event"",""trial"",""time""
""fullscreenenter"",""1"",""4246""
","
","","","","","","null","<div style=""font-size:60px;"">+</div>","null","","fixation","","","","","","","","",""
"memory-trial","89","299805","0.0-15.0-1.23","1648","2","""event"",""trial"",""time""
""fullscreenenter"",""1"",""4246""
","
","
","""event"",""trial"",""time""
""fullscreenenter"",""1"",""4246""
","
","","","","","","1092","images/banana2.png","","","memory_trial","1","definitely_old","","","","","","",""
"html-keyboard-response","90","300306","0.0-15.0-0.24","1648","2","""event"",""trial"",""time""
""fullscreenenter"",""1"",""4246""
","
","
","""event"",""trial"",""time""
""fullscreenenter"",""1"",""4246""
","
","","","","","","null","<div style=""font-size:60px;"">+</div>","null","","fixation","","","","","","","","",""
"memory-trial","91","303358","0.0-15.0-1.24","1648","2","""event"",""trial"",""time""
""fullscreenenter"",""1"",""4246""
","
","
","""event"",""trial"",""time""
""fullscreenenter"",""1"",""4246""
","
","","","","","","2051","images/sheep2.png","","","memory_trial","1","definitely_old","","","","","","",""
"html-keyboard-response","92","303860","0.0-15.0-0.25","1648","2","""event"",""trial"",""time""
""fullscreenenter"",""1"",""4246""
","
","
","""event"",""trial"",""time""
""fullscreenenter"",""1"",""4246""
","
","","","","","","null","<div style=""font-size:60px;"">+</div>","null","","fixation","","","","","","","","",""
"memory-trial","93","306510","0.0-15.0-1.25","1648","2","""event"",""trial"",""time""
""fullscreenenter"",""1"",""4246""
","
","
","""event"",""trial"",""time""
""fullscreenenter"",""1"",""4246""
","
","","","","","","1648","images/rabbit2.png","","","memory_trial","1","definitely_old","","","","","","",""
"html-keyboard-response","94","307010","0.0-15.0-0.26","1648","2","""event"",""trial"",""time""
""fullscreenenter"",""1"",""4246""
","
","
","""event"",""trial"",""time""
""fullscreenenter"",""1"",""4246""
","
","","","","","","null","<div style=""font-size:60px;"">+</div>","null","","fixation","","","","","","","","",""
"memory-trial","95","311775","0.0-15.0-1.26","1648","2","""event"",""trial"",""time""
""fullscreenenter"",""1"",""4246""
","
","
","""event"",""trial"",""time""
""fullscreenenter"",""1"",""4246""
","
","","","","","","3762","images/rabbit4.png","","","memory_trial","1","definitely_old","","","","","","",""
"html-keyboard-response","96","312276","0.0-15.0-0.27","1648","2","""event"",""trial"",""time""
""fullscreenenter"",""1"",""4246""
","
","
","""event"",""trial"",""time""
""fullscreenenter"",""1"",""4246""
","
","","","","","","null","<div style=""font-size:60px;"">+</div>","null","","fixation","","","","","","","","",""
"memory-trial","97","317355","0.0-15.0-1.27","1648","2","""event"",""trial"",""time""
""fullscreenenter"",""1"",""4246""
","
","
","""event"",""trial"",""time""
""fullscreenenter"",""1"",""4246""
","
","","","","","","4076.000000000058","images/tree1.png","","","memory_trial","4","definitely_new","","","","","","",""
"html-keyboard-response","98","317857","0.0-15.0-0.28","1648","2","""event"",""trial"",""time""
""fullscreenenter"",""1"",""4246""
","
","
","""event"",""trial"",""time""
""fullscreenenter"",""1"",""4246""
","
","","","","","","null","<div style=""font-size:60px;"">+</div>","null","","fixation","","","","","","","","",""
"memory-trial","99","320385","0.0-15.0-1.28","1648","2","""event"",""trial"",""time""
""fullscreenenter"",""1"",""4246""
","
","
","""event"",""trial"",""time""
""fullscreenenter"",""1"",""4246""
","
","","","","","","1526","images/goat4.png","","","memory_trial","1","definitely_old","","","","","","",""
"html-keyboard-response","100","320885","0.0-15.0-0.29","1648","2","""event"",""trial"",""time""
""fullscreenenter"",""1"",""4246""
","
","
","""event"",""trial"",""time""
""fullscreenenter"",""1"",""4246""
","
","","","","","","null","<div style=""font-size:60px;"">+</div>","null","","fixation","","","","","","","","",""
"memory-trial","101","325004","0.0-15.0-1.29","1648","2","""event"",""trial"",""time""
""fullscreenenter"",""1"",""4246""
","
","
","""event"",""trial"",""time""
""fullscreenenter"",""1"",""4246""
","
","","","","","","3117","images/plane5.png","","","memory_trial","3","maybe_new","","","","","","",""
"html-keyboard-response","102","325507","0.0-15.0-0.30","1648","2","""event"",""trial"",""time""
""fullscreenenter"",""1"",""4246""
","
","
","""event"",""trial"",""time""
""fullscreenenter"",""1"",""4246""
","
","","","","","","null","<div style=""font-size:60px;"">+</div>","null","","fixation","","","","","","","","",""
"memory-trial","103","331724","0.0-15.0-1.30","1648","2","""event"",""trial"",""time""
""fullscreenenter"",""1"",""4246""
","
","
","""event"",""trial"",""time""
""fullscreenenter"",""1"",""4246""
","
","","","","","","5215","images/train2.png","","","memory_trial","3","maybe_new","","","","","","",""
"html-keyboard-response","104","332225","0.0-15.0-0.31","1648","2","""event"",""trial"",""time""
""fullscreenenter"",""1"",""4246""
","
","
","""event"",""trial"",""time""
""fullscreenenter"",""1"",""4246""
","
","","","","","","null","<div style=""font-size:60px;"">+</div>","null","","fixation","","","","","","","","",""
"memory-trial","105","336073","0.0-15.0-1.31","1648","2","""event"",""trial"",""time""
""fullscreenenter"",""1"",""4246""
","
","
","""event"",""trial"",""time""
""fullscreenenter"",""1"",""4246""
","
","","","","","","2847","images/apple2.png","","","memory_trial","1","definitely_old","","","","","","",""
"html-keyboard-response","106","336574","0.0-15.0-0.32","1648","2","""event"",""trial"",""time""
""fullscreenenter"",""1"",""4246""
","
","
","""event"",""trial"",""time""
""fullscreenenter"",""1"",""4246""
","
","","","","","","null","<div style=""font-size:60px;"">+</div>","null","","fixation","","","","","","","","",""
"memory-trial","107","340424","0.0-15.0-1.32","1648","2","""event"",""trial"",""time""
""fullscreenenter"",""1"",""4246""
","
","
","""event"",""trial"",""time""
""fullscreenenter"",""1"",""4246""
","
","","","","","","2847","images/bed2.png","","","memory_trial","3","maybe_new","","","","","","",""
"html-keyboard-response","108","340926","0.0-15.0-0.33","1648","2","""event"",""trial"",""time""
""fullscreenenter"",""1"",""4246""
","
","
","""event"",""trial"",""time""
""fullscreenenter"",""1"",""4246""
","
","","","","","","null","<div style=""font-size:60px;"">+</div>","null","","fixation","","","","","","","","",""
"memory-trial","109","346243","0.0-15.0-1.33","1648","2","""event"",""trial"",""time""
""fullscreenenter"",""1"",""4246""
","
","
","""event"",""trial"",""time""
""fullscreenenter"",""1"",""4246""
","
","","","","","","4316","images/apple5.png","","","memory_trial","3","maybe_new","","","","","","",""
"html-keyboard-response","110","346745","0.0-15.0-0.34","1648","2","""event"",""trial"",""time""
""fullscreenenter"",""1"",""4246""
","
","
","""event"",""trial"",""time""
""fullscreenenter"",""1"",""4246""
","
","","","","","","null","<div style=""font-size:60px;"">+</div>","null","","fixation","","","","","","","","",""
"memory-trial","111","352394","0.0-15.0-1.34","1648","2","""event"",""trial"",""time""
""fullscreenenter"",""1"",""4246""
","
","
","""event"",""trial"",""time""
""fullscreenenter"",""1"",""4246""
","
","","","","","","4646","images/dog3.png","","","memory_trial","1","definitely_old","","","","","","",""
"html-keyboard-response","112","352895","0.0-15.0-0.35","1648","2","""event"",""trial"",""time""
""fullscreenenter"",""1"",""4246""
","
","
","""event"",""trial"",""time""
""fullscreenenter"",""1"",""4246""
","
","","","","","","null","<div style=""font-size:60px;"">+</div>","null","","fixation","","","","","","","","",""
"memory-trial","113","356533","0.0-15.0-1.35","1648","2","""event"",""trial"",""time""
""fullscreenenter"",""1"",""4246""
","
","
","""event"",""trial"",""time""
""fullscreenenter"",""1"",""4246""
","
","","","","","","2636","images/orange4.png","","","memory_trial","3","maybe_new","","","","","","",""
"html-keyboard-response","114","357035","0.0-15.0-0.36","1648","2","""event"",""trial"",""time""
""fullscreenenter"",""1"",""4246""
","
","
","""event"",""trial"",""time""
""fullscreenenter"",""1"",""4246""
","
","","","","","","null","<div style=""font-size:60px;"">+</div>","null","","fixation","","","","","","","","",""
"memory-trial","115","360883","0.0-15.0-1.36","1648","2","""event"",""trial"",""time""
""fullscreenenter"",""1"",""4246""
","
","
","""event"",""trial"",""time""
""fullscreenenter"",""1"",""4246""
","
","","","","","","2846","images/dog1.png","","","memory_trial","4","definitely_new","","","","","","",""
"html-keyboard-response","116","361384","0.0-15.0-0.37","1648","2","""event"",""trial"",""time""
""fullscreenenter"",""1"",""4246""
","
","
","""event"",""trial"",""time""
""fullscreenenter"",""1"",""4246""
","
","","","","","","null","<div style=""font-size:60px;"">+</div>","null","","fixation","","","","","","","","",""
"memory-trial","117","365428","0.0-15.0-1.37","1648","2","""event"",""trial"",""time""
""fullscreenenter"",""1"",""4246""
","
","
","""event"",""trial"",""time""
""fullscreenenter"",""1"",""4246""
","
","","","","","","3042","images/flower4.png","","","memory_trial","4","definitely_new","","","","","","",""
"html-keyboard-response","118","365930","0.0-15.0-0.38","1648","2","""event"",""trial"",""time""
""fullscreenenter"",""1"",""4246""
","
","
","""event"",""trial"",""time""
""fullscreenenter"",""1"",""4246""
","
","","","","","","null","<div style=""font-size:60px;"">+</div>","null","","fixation","","","","","","","","",""
"memory-trial","119","372328","0.0-15.0-1.38","1648","2","""event"",""trial"",""time""
""fullscreenenter"",""1"",""4246""
","
","
","""event"",""trial"",""time""
""fullscreenenter"",""1"",""4246""
","
","","","","","","5396","images/goat1.png","","","memory_trial","3","maybe_new","","","","","","",""
"html-keyboard-response","120","372829","0.0-15.0-0.39","1648","2","""event"",""trial"",""time""
""fullscreenenter"",""1"",""4246""
","
","
","""event"",""trial"",""time""
""fullscreenenter"",""1"",""4246""
","
","","","","","","null","<div style=""font-size:60px;"">+</div>","null","","fixation","","","","","","","","",""
"memory-trial","121","376858","0.0-15.0-1.39","1648","2","""event"",""trial"",""time""
""fullscreenenter"",""1"",""4246""
","
","
","""event"",""trial"",""time""
""fullscreenenter"",""1"",""4246""
","
","","","","","","3026","images/cow4.png","","","memory_trial","2","maybe_old","","","","","","",""
"html-keyboard-response","122","377359","0.0-15.0-0.40","1648","2","""event"",""trial"",""time""
""fullscreenenter"",""1"",""4246""
","
","
","""event"",""trial"",""time""
""fullscreenenter"",""1"",""4246""
","
","","","","","","null","<div style=""font-size:60px;"">+</div>","null","","fixation","","","","","","","","",""
"memory-trial","123","380937","0.0-15.0-1.40","1648","2","""event"",""trial"",""time""
""fullscreenenter"",""1"",""4246""
","
","
","""event"",""trial"",""time""
""fullscreenenter"",""1"",""4246""
","
","","","","","","2576","images/chair4.png","","","memory_trial","3","maybe_new","","","","","","",""
"html-keyboard-response","124","381439","0.0-15.0-0.41","1648","2","""event"",""trial"",""time""
""fullscreenenter"",""1"",""4246""
","
","
","""event"",""trial"",""time""
""fullscreenenter"",""1"",""4246""
","
","","","","","","null","<div style=""font-size:60px;"">+</div>","null","","fixation","","","","","","","","",""
"memory-trial","125","385947","0.0-15.0-1.41","1648","2","""event"",""trial"",""time""
""fullscreenenter"",""1"",""4246""
","
","
","""event"",""trial"",""time""
""fullscreenenter"",""1"",""4246""
","
","","","","","","3505.999999999942","images/train1.png","","","memory_trial","2","maybe_old","","","","","","",""
"html-keyboard-response","126","386449","0.0-15.0-0.42","1648","2","""event"",""trial"",""time""
""fullscreenenter"",""1"",""4246""
","
","
","""event"",""trial"",""time""
""fullscreenenter"",""1"",""4246""
","
","","","","","","null","<div style=""font-size:60px;"">+</div>","null","","fixation","","","","","","","","",""
"memory-trial","127","390282","0.0-15.0-1.42","1648","2","""event"",""trial"",""time""
""fullscreenenter"",""1"",""4246""
","
","
","""event"",""trial"",""time""
""fullscreenenter"",""1"",""4246""
","
","","","","","","2831","images/orange1.png","","","memory_trial","3","maybe_new","","","","","","",""
"html-keyboard-response","128","390784","0.0-15.0-0.43","1648","2","""event"",""trial"",""time""
""fullscreenenter"",""1"",""4246""
","
","
","""event"",""trial"",""time""
""fullscreenenter"",""1"",""4246""
","
","","","","","","null","<div style=""font-size:60px;"">+</div>","null","","fixation","","","","","","","","",""
"memory-trial","129","394857","0.0-15.0-1.43","1648","2","""event"",""trial"",""time""
""fullscreenenter"",""1"",""4246""
","
","
","""event"",""trial"",""time""
""fullscreenenter"",""1"",""4246""
","
","","","","","","3071","images/straw5.png","","","memory_trial","4","definitely_new","","","","","","",""
"html-keyboard-response","130","395358","0.0-15.0-0.44","1648","2","""event"",""trial"",""time""
""fullscreenenter"",""1"",""4246""
","
","
","""event"",""trial"",""time""
""fullscreenenter"",""1"",""4246""
","
","","","","","","null","<div style=""font-size:60px;"">+</div>","null","","fixation","","","","","","","","",""
"memory-trial","131","401006","0.0-15.0-1.44","1648","2","""event"",""trial"",""time""
""fullscreenenter"",""1"",""4246""
","
","
","""event"",""trial"",""time""
""fullscreenenter"",""1"",""4246""
","
","","","","","","4647","images/truck5.png","","","memory_trial","1","definitely_old","","","","","","",""
"html-keyboard-response","132","401508","0.0-15.0-0.45","1648","2","""event"",""trial"",""time""
""fullscreenenter"",""1"",""4246""
","
","
","""event"",""trial"",""time""
""fullscreenenter"",""1"",""4246""
","
","","","","","","null","<div style=""font-size:60px;"">+</div>","null","","fixation","","","","","","","","",""
"memory-trial","133","408056","0.0-15.0-1.45","1648","2","""event"",""trial"",""time""
""fullscreenenter"",""1"",""4246""
","
","
","""event"",""trial"",""time""
""fullscreenenter"",""1"",""4246""
","
","","","","","","5547","images/bush4.png","","","memory_trial","3","maybe_new","","","","","","",""
"html-keyboard-response","134","408558","0.0-15.0-0.46","1648","2","""event"",""trial"",""time""
""fullscreenenter"",""1"",""4246""
","
","
","""event"",""trial"",""time""
""fullscreenenter"",""1"",""4246""
","
","","","","","","null","<div style=""font-size:60px;"">+</div>","null","","fixation","","","","","","","","",""
"memory-trial","135","412707","0.0-15.0-1.46","1648","2","""event"",""trial"",""time""
""fullscreenenter"",""1"",""4246""
","
","
","""event"",""trial"",""time""
""fullscreenenter"",""1"",""4246""
","
","","","","","","3146.999999999942","images/cactus3.png","","","memory_trial","4","definitely_new","","","","","","",""
"html-button-response","136","425003","0.0-15.0-2.46-0.46","1648","2","""event"",""trial"",""time""
""fullscreenenter"",""1"",""4246""
","
","
","""event"",""trial"",""time""
""fullscreenenter"",""1"",""4246""
","
","","","","","","12295","<p> Take a break! </p><p> Click the button to continue. </p>","0","","break","","","","","","","","",""
"html-keyboard-response","137","425505","0.0-15.0-0.47","1648","2","""event"",""trial"",""time""
""fullscreenenter"",""1"",""4246""
","
","
","""event"",""trial"",""time""
""fullscreenenter"",""1"",""4246""
","
","","","","","","null","<div style=""font-size:60px;"">+</div>","null","","fixation","","","","","","","","",""
"memory-trial","138","428756","0.0-15.0-1.47","1648","2","""event"",""trial"",""time""
""fullscreenenter"",""1"",""4246""
","
","
","""event"",""trial"",""time""
""fullscreenenter"",""1"",""4246""
","
","","","","","","2250","images/flower3.png","","","memory_trial","4","definitely_new","","","","","","",""
"html-keyboard-response","139","429259","0.0-15.0-0.48","1648","2","""event"",""trial"",""time""
""fullscreenenter"",""1"",""4246""
","
","
","""event"",""trial"",""time""
""fullscreenenter"",""1"",""4246""
","
","","","","","","null","<div style=""font-size:60px;"">+</div>","null","","fixation","","","","","","","","",""
"memory-trial","140","432521","0.0-15.0-1.48","1648","2","""event"",""trial"",""time""
""fullscreenenter"",""1"",""4246""
","
","
","""event"",""trial"",""time""
""fullscreenenter"",""1"",""4246""
","
","","","","","","2261","images/bush3.png","","","memory_trial","3","maybe_new","","","","","","",""
"html-keyboard-response","141","433022","0.0-15.0-0.49","1648","2","""event"",""trial"",""time""
""fullscreenenter"",""1"",""4246""
","
","
","""event"",""trial"",""time""
""fullscreenenter"",""1"",""4246""
","
","","","","","","null","<div style=""font-size:60px;"">+</div>","null","","fixation","","","","","","","","",""
"memory-trial","142","436871","0.0-15.0-1.49","1648","2","""event"",""trial"",""time""
""fullscreenenter"",""1"",""4246""
","
","
","""event"",""trial"",""time""
""fullscreenenter"",""1"",""4246""
","
","","","","","","2847","images/banana3.png","","","memory_trial","1","definitely_old","","","","","","",""
"html-keyboard-response","143","437373","0.0-15.0-0.50","1648","2","""event"",""trial"",""time""
""fullscreenenter"",""1"",""4246""
","
","
","""event"",""trial"",""time""
""fullscreenenter"",""1"",""4246""
","
","","","","","","null","<div style=""font-size:60px;"">+</div>","null","","fixation","","","","","","","","",""
"memory-trial","144","442751","0.0-15.0-1.50","1648","2","""event"",""trial"",""time""
""fullscreenenter"",""1"",""4246""
","
","
","""event"",""trial"",""time""
""fullscreenenter"",""1"",""4246""
","
","","","","","","4375","images/cow2.png","","","memory_trial","2","maybe_old","","","","","","",""
"html-keyboard-response","145","443251","0.0-15.0-0.51","1648","2","""event"",""trial"",""time""
""fullscreenenter"",""1"",""4246""
","
","
","""event"",""trial"",""time""
""fullscreenenter"",""1"",""4246""
","
","","","","","","null","<div style=""font-size:60px;"">+</div>","null","","fixation","","","","","","","","",""
"memory-trial","146","446456","0.0-15.0-1.51","1648","2","""event"",""trial"",""time""
""fullscreenenter"",""1"",""4246""
","
","
","""event"",""trial"",""time""
""fullscreenenter"",""1"",""4246""
","
","","","","","","2203","images/sheep4.png","","","memory_trial","4","definitely_new","","","","","","",""
"html-keyboard-response","147","446957","0.0-15.0-0.52","1648","2","""event"",""trial"",""time""
""fullscreenenter"",""1"",""4246""
","
","
","""event"",""trial"",""time""
""fullscreenenter"",""1"",""4246""
","
","","","","","","null","<div style=""font-size:60px;"">+</div>","null","","fixation","","","","","","","","",""
"memory-trial","148","449515","0.0-15.0-1.52","1648","2","""event"",""trial"",""time""
""fullscreenenter"",""1"",""4246""
","
","
","""event"",""trial"",""time""
""fullscreenenter"",""1"",""4246""
","
","","","","","","1555","images/rodent5.png","","","memory_trial","4","definitely_new","","","","","","",""
"html-keyboard-response","149","450017","0.0-15.0-0.53","1648","2","""event"",""trial"",""time""
""fullscreenenter"",""1"",""4246""
","
","
","""event"",""trial"",""time""
""fullscreenenter"",""1"",""4246""
","
","","","","","","null","<div style=""font-size:60px;"">+</div>","null","","fixation","","","","","","","","",""
"memory-trial","150","452726","0.0-15.0-1.53","1648","2","""event"",""trial"",""time""
""fullscreenenter"",""1"",""4246""
","
","
","""event"",""trial"",""time""
""fullscreenenter"",""1"",""4246""
","
","","","","","","1707","images/sofa4.png","","","memory_trial","1","definitely_old","","","","","","",""
"html-keyboard-response","151","453227","0.0-15.0-0.54","1648","2","""event"",""trial"",""time""
""fullscreenenter"",""1"",""4246""
","
","
","""event"",""trial"",""time""
""fullscreenenter"",""1"",""4246""
","
","","","","","","null","<div style=""font-size:60px;"">+</div>","null","","fixation","","","","","","","","",""
"memory-trial","152","456251","0.0-15.0-1.54","1648","2","""event"",""trial"",""time""
""fullscreenenter"",""1"",""4246""
","
","
","""event"",""trial"",""time""
""fullscreenenter"",""1"",""4246""
","
","","","","","","2021","images/boat3.png","","","memory_trial","3","maybe_new","","","","","","",""
"html-keyboard-response","153","456752","0.0-15.0-0.55","1648","2","""event"",""trial"",""time""
""fullscreenenter"",""1"",""4246""
","
","
","""event"",""trial"",""time""
""fullscreenenter"",""1"",""4246""
","
","","","","","","null","<div style=""font-size:60px;"">+</div>","null","","fixation","","","","","","","","",""
"memory-trial","154","460375","0.0-15.0-1.55","1648","2","""event"",""trial"",""time""
""fullscreenenter"",""1"",""4246""
","
","
","""event"",""trial"",""time""
""fullscreenenter"",""1"",""4246""
","
","","","","","","2621","images/feline3.png","","","memory_trial","4","definitely_new","","","","","","",""
"html-keyboard-response","155","460877","0.0-15.0-0.56","1648","2","""event"",""trial"",""time""
""fullscreenenter"",""1"",""4246""
","
","
","""event"",""trial"",""time""
""fullscreenenter"",""1"",""4246""
","
","","","","","","null","<div style=""font-size:60px;"">+</div>","null","","fixation","","","","","","","","",""
"memory-trial","156","465940","0.0-15.0-1.56","1648","2","""event"",""trial"",""time""
""fullscreenenter"",""1"",""4246""
","
","
","""event"",""trial"",""time""
""fullscreenenter"",""1"",""4246""
","
","","","","","","4061","images/table2.png","","","memory_trial","2","maybe_old","","","","","","",""
"html-keyboard-response","157","466442","0.0-15.0-0.57","1648","2","""event"",""trial"",""time""
""fullscreenenter"",""1"",""4246""
","
","
","""event"",""trial"",""time""
""fullscreenenter"",""1"",""4246""
","
","","","","","","null","<div style=""font-size:60px;"">+</div>","null","","fixation","","","","","","","","",""
"memory-trial","158","469495","0.0-15.0-1.57","1648","2","""event"",""trial"",""time""
""fullscreenenter"",""1"",""4246""
","
","
","""event"",""trial"",""time""
""fullscreenenter"",""1"",""4246""
","
","","","","","","2051","images/banana1.png","","","memory_trial","1","definitely_old","","","","","","",""
"html-keyboard-response","159","469997","0.0-15.0-0.58","1648","2","""event"",""trial"",""time""
""fullscreenenter"",""1"",""4246""
","
","
","""event"",""trial"",""time""
""fullscreenenter"",""1"",""4246""
","
","","","","","","null","<div style=""font-size:60px;"">+</div>","null","","fixation","","","","","","","","",""
"memory-trial","160","473560","0.0-15.0-1.58","1648","2","""event"",""trial"",""time""
""fullscreenenter"",""1"",""4246""
","
","
","""event"",""trial"",""time""
""fullscreenenter"",""1"",""4246""
","
","","","","","","2559","images/straw4.png","","","memory_trial","4","definitely_new","","","","","","",""
"html-keyboard-response","161","474062","0.0-15.0-0.59","1648","2","""event"",""trial"",""time""
""fullscreenenter"",""1"",""4246""
","
","
","""event"",""trial"",""time""
""fullscreenenter"",""1"",""4246""
","
","","","","","","null","<div style=""font-size:60px;"">+</div>","null","","fixation","","","","","","","","",""
"memory-trial","162","478135","0.0-15.0-1.59","1648","2","""event"",""trial"",""time""
""fullscreenenter"",""1"",""4246""
","
","
","""event"",""trial"",""time""
""fullscreenenter"",""1"",""4246""
","
","","","","","","3071.000000000058","images/truck3.png","","","memory_trial","3","maybe_new","","","","","","",""
"html-keyboard-response","163","478637","0.0-15.0-0.60","1648","2","""event"",""trial"",""time""
""fullscreenenter"",""1"",""4246""
","
","
","""event"",""trial"",""time""
""fullscreenenter"",""1"",""4246""
","
","","","","","","null","<div style=""font-size:60px;"">+</div>","null","","fixation","","","","","","","","",""
"memory-trial","164","482725","0.0-15.0-1.60","1648","2","""event"",""trial"",""time""
""fullscreenenter"",""1"",""4246""
","
","
","""event"",""trial"",""time""
""fullscreenenter"",""1"",""4246""
","
","","","","","","3087","images/chair2.png","","","memory_trial","2","maybe_old","","","","","","",""
"html-keyboard-response","165","483226","0.0-15.0-0.61","1648","2","""event"",""trial"",""time""
""fullscreenenter"",""1"",""4246""
","
","
","""event"",""trial"",""time""
""fullscreenenter"",""1"",""4246""
","
","","","","","","null","<div style=""font-size:60px;"">+</div>","null","","fixation","","","","","","","","",""
"memory-trial","166","487389","0.0-15.0-1.61","1648","2","""event"",""trial"",""time""
""fullscreenenter"",""1"",""4246""
","
","
","""event"",""trial"",""time""
""fullscreenenter"",""1"",""4246""
","
","","","","","","3163","images/boat5.png","","","memory_trial","2","maybe_old","","","","","","",""
"html-keyboard-response","167","487891","0.0-15.0-0.62","1648","2","""event"",""trial"",""time""
""fullscreenenter"",""1"",""4246""
","
","
","""event"",""trial"",""time""
""fullscreenenter"",""1"",""4246""
","
","","","","","","null","<div style=""font-size:60px;"">+</div>","null","","fixation","","","","","","","","",""
"memory-trial","168","490270","0.0-15.0-1.62","1648","2","""event"",""trial"",""time""
""fullscreenenter"",""1"",""4246""
","
","
","""event"",""trial"",""time""
""fullscreenenter"",""1"",""4246""
","
","","","","","","1376","images/bed5.png","","","memory_trial","4","definitely_new","","","","","","",""
"html-keyboard-response","169","490771","0.0-15.0-0.63","1648","2","""event"",""trial"",""time""
""fullscreenenter"",""1"",""4246""
","
","
","""event"",""trial"",""time""
""fullscreenenter"",""1"",""4246""
","
","","","","","","null","<div style=""font-size:60px;"">+</div>","null","","fixation","","","","","","","","",""
"memory-trial","170","496195","0.0-15.0-1.63","1648","2","""event"",""trial"",""time""
""fullscreenenter"",""1"",""4246""
","
","
","""event"",""trial"",""time""
""fullscreenenter"",""1"",""4246""
","
","","","","","","4421.000000000058","images/rodent3.png","","","memory_trial","2","maybe_old","","","","","","",""
"html-keyboard-response","171","496696","0.0-15.0-0.64","1648","2","""event"",""trial"",""time""
""fullscreenenter"",""1"",""4246""
","
","
","""event"",""trial"",""time""
""fullscreenenter"",""1"",""4246""
","
","","","","","","null","<div style=""font-size:60px;"">+</div>","null","","fixation","","","","","","","","",""
"memory-trial","172","499869","0.0-15.0-1.64","1648","2","""event"",""trial"",""time""
""fullscreenenter"",""1"",""4246""
","
","
","""event"",""trial"",""time""
""fullscreenenter"",""1"",""4246""
","
","","","","","","2171","images/horse5.png","","","memory_trial","4","definitely_new","","","","","","",""
"html-keyboard-response","173","500371","0.0-15.0-0.65","1648","2","""event"",""trial"",""time""
""fullscreenenter"",""1"",""4246""
","
","
","""event"",""trial"",""time""
""fullscreenenter"",""1"",""4246""
","
","","","","","","null","<div style=""font-size:60px;"">+</div>","null","","fixation","","","","","","","","",""
"memory-trial","174","505134","0.0-15.0-1.65","1648","2","""event"",""trial"",""time""
""fullscreenenter"",""1"",""4246""
","
","
","""event"",""trial"",""time""
""fullscreenenter"",""1"",""4246""
","
","","","","","","3761.000000000058","images/truck1.png","","","memory_trial","2","maybe_old","","","","","","",""
"html-keyboard-response","175","505635","0.0-15.0-0.66","1648","2","""event"",""trial"",""time""
""fullscreenenter"",""1"",""4246""
","
","
","""event"",""trial"",""time""
""fullscreenenter"",""1"",""4246""
","
","","","","","","null","<div style=""font-size:60px;"">+</div>","null","","fixation","","","","","","","","",""
"memory-trial","176","509589","0.0-15.0-1.66","1648","2","""event"",""trial"",""time""
""fullscreenenter"",""1"",""4246""
","
","
","""event"",""trial"",""time""
""fullscreenenter"",""1"",""4246""
","
","","","","","","2951","images/plane4.png","","","memory_trial","3","maybe_new","","","","","","",""
"html-keyboard-response","177","510090","0.0-15.0-0.67","1648","2","""event"",""trial"",""time""
""fullscreenenter"",""1"",""4246""
","
","
","""event"",""trial"",""time""
""fullscreenenter"",""1"",""4246""
","
","","","","","","null","<div style=""font-size:60px;"">+</div>","null","","fixation","","","","","","","","",""
"memory-trial","178","513324","0.0-15.0-1.67","1648","2","""event"",""trial"",""time""
""fullscreenenter"",""1"",""4246""
","
","
","""event"",""trial"",""time""
""fullscreenenter"",""1"",""4246""
","
","","","","","","2232","images/rabbit5.png","","","memory_trial","4","definitely_new","","","","","","",""
"html-keyboard-response","179","513827","0.0-15.0-0.68","1648","2","""event"",""trial"",""time""
""fullscreenenter"",""1"",""4246""
","
","
","""event"",""trial"",""time""
""fullscreenenter"",""1"",""4246""
","
","","","","","","null","<div style=""font-size:60px;"">+</div>","null","","fixation","","","","","","","","",""
"memory-trial","180","518739","0.0-15.0-1.68","1648","2","""event"",""trial"",""time""
""fullscreenenter"",""1"",""4246""
","
","
","""event"",""trial"",""time""
""fullscreenenter"",""1"",""4246""
","
","","","","","","3909","images/rodent2.png","","","memory_trial","2","maybe_old","","","","","","",""
"html-keyboard-response","181","519241","0.0-15.0-0.69","1648","2","""event"",""trial"",""time""
""fullscreenenter"",""1"",""4246""
","
","
","""event"",""trial"",""time""
""fullscreenenter"",""1"",""4246""
","
","","","","","","null","<div style=""font-size:60px;"">+</div>","null","","fixation","","","","","","","","",""
"memory-trial","182","521454","0.0-15.0-1.69","1648","2","""event"",""trial"",""time""
""fullscreenenter"",""1"",""4246""
","
","
","""event"",""trial"",""time""
""fullscreenenter"",""1"",""4246""
","
","","","","","","1211.0000000000582","images/rodent1.png","","","memory_trial","1","definitely_old","","","","","","",""
"html-keyboard-response","183","521955","0.0-15.0-0.70","1648","2","""event"",""trial"",""time""
""fullscreenenter"",""1"",""4246""
","
","
","""event"",""trial"",""time""
""fullscreenenter"",""1"",""4246""
","
","","","","","","null","<div style=""font-size:60px;"">+</div>","null","","fixation","","","","","","","","",""
"memory-trial","184","524874","0.0-15.0-1.70","1648","2","""event"",""trial"",""time""
""fullscreenenter"",""1"",""4246""
","
","
","""event"",""trial"",""time""
""fullscreenenter"",""1"",""4246""
","
","","","","","","1917","images/goat5.png","","","memory_trial","3","maybe_new","","","","","","",""
"html-keyboard-response","185","525375","0.0-15.0-0.71","1648","2","""event"",""trial"",""time""
""fullscreenenter"",""1"",""4246""
","
","
","""event"",""trial"",""time""
""fullscreenenter"",""1"",""4246""
","
","","","","","","null","<div style=""font-size:60px;"">+</div>","null","","fixation","","","","","","","","",""
"memory-trial","186","528189","0.0-15.0-1.71","1648","2","""event"",""trial"",""time""
""fullscreenenter"",""1"",""4246""
","
","
","""event"",""trial"",""time""
""fullscreenenter"",""1"",""4246""
","
","","","","","","1811","images/banana4.png","","","memory_trial","4","definitely_new","","","","","","",""
"html-keyboard-response","187","528690","0.0-15.0-0.72","1648","2","""event"",""trial"",""time""
""fullscreenenter"",""1"",""4246""
","
","
","""event"",""trial"",""time""
""fullscreenenter"",""1"",""4246""
","
","","","","","","null","<div style=""font-size:60px;"">+</div>","null","","fixation","","","","","","","","",""
"memory-trial","188","534398","0.0-15.0-1.72","1648","2","""event"",""trial"",""time""
""fullscreenenter"",""1"",""4246""
","
","
","""event"",""trial"",""time""
""fullscreenenter"",""1"",""4246""
","
","","","","","","4706","images/cactus5.png","","","memory_trial","3","maybe_new","","","","","","",""
"html-keyboard-response","189","534899","0.0-15.0-0.73","1648","2","""event"",""trial"",""time""
""fullscreenenter"",""1"",""4246""
","
","
","""event"",""trial"",""time""
""fullscreenenter"",""1"",""4246""
","
","","","","","","null","<div style=""font-size:60px;"">+</div>","null","","fixation","","","","","","","","",""
"memory-trial","190","537489","0.0-15.0-1.73","1648","2","""event"",""trial"",""time""
""fullscreenenter"",""1"",""4246""
","
","
","""event"",""trial"",""time""
""fullscreenenter"",""1"",""4246""
","
","","","","","","1587","images/horse1.png","","","memory_trial","4","definitely_new","","","","","","",""
"html-keyboard-response","191","537989","0.0-15.0-0.74","1648","2","""event"",""trial"",""time""
""fullscreenenter"",""1"",""4246""
","
","
","""event"",""trial"",""time""
""fullscreenenter"",""1"",""4246""
","
","","","","","","null","<div style=""font-size:60px;"">+</div>","null","","fixation","","","","","","","","",""
"memory-trial","192","542409","0.0-15.0-1.74","1648","2","""event"",""trial"",""time""
""fullscreenenter"",""1"",""4246""
","
","
","""event"",""trial"",""time""
""fullscreenenter"",""1"",""4246""
","
","","","","","","3417","images/straw3.png","","","memory_trial","2","maybe_old","","","","","","",""
"html-keyboard-response","193","542910","0.0-15.0-0.75","1648","2","""event"",""trial"",""time""
""fullscreenenter"",""1"",""4246""
","
","
","""event"",""trial"",""time""
""fullscreenenter"",""1"",""4246""
","
","","","","","","null","<div style=""font-size:60px;"">+</div>","null","","fixation","","","","","","","","",""
"memory-trial","194","547164","0.0-15.0-1.75","1648","2","""event"",""trial"",""time""
""fullscreenenter"",""1"",""4246""
","
","
","""event"",""trial"",""time""
""fullscreenenter"",""1"",""4246""
","
","","","","","","3251","images/feline2.png","","","memory_trial","1","definitely_old","","","","","","",""
"html-keyboard-response","195","547666","0.0-15.0-0.76","1648","2","""event"",""trial"",""time""
""fullscreenenter"",""1"",""4246""
","
","
","""event"",""trial"",""time""
""fullscreenenter"",""1"",""4246""
","
","","","","","","null","<div style=""font-size:60px;"">+</div>","null","","fixation","","","","","","","","",""
"memory-trial","196","552864","0.0-15.0-1.76","1648","2","""event"",""trial"",""time""
""fullscreenenter"",""1"",""4246""
","
","
","""event"",""trial"",""time""
""fullscreenenter"",""1"",""4246""
","
","","","","","","4195","images/tree2.png","","","memory_trial","2","maybe_old","","","","","","",""
"html-keyboard-response","197","553366","0.0-15.0-0.77","1648","2","""event"",""trial"",""time""
""fullscreenenter"",""1"",""4246""
","
","
","""event"",""trial"",""time""
""fullscreenenter"",""1"",""4246""
","
","","","","","","null","<div style=""font-size:60px;"">+</div>","null","","fixation","","","","","","","","",""
"memory-trial","198","559222","0.0-15.0-1.77","1648","2","""event"",""trial"",""time""
""fullscreenenter"",""1"",""4246""
","
","
","""event"",""trial"",""time""
""fullscreenenter"",""1"",""4246""
","
","","","","","","4855","images/cactus1.png","","","memory_trial","3","maybe_new","","","","","","",""
"html-keyboard-response","199","559724","0.0-15.0-0.78","1648","2","""event"",""trial"",""time""
""fullscreenenter"",""1"",""4246""
","
","
","""event"",""trial"",""time""
""fullscreenenter"",""1"",""4246""
","
","","","","","","null","<div style=""font-size:60px;"">+</div>","null","","fixation","","","","","","","","",""
"memory-trial","200","563902","0.0-15.0-1.78","1648","2","""event"",""trial"",""time""
""fullscreenenter"",""1"",""4246""
","
","
","""event"",""trial"",""time""
""fullscreenenter"",""1"",""4246""
","
","","","","","","3177","images/cactus2.png","","","memory_trial","4","definitely_new","","","","","","",""
"html-keyboard-response","201","564404","0.0-15.0-0.79","1648","2","""event"",""trial"",""time""
""fullscreenenter"",""1"",""4246""
","
","
","""event"",""trial"",""time""
""fullscreenenter"",""1"",""4246""
","
","","","","","","null","<div style=""font-size:60px;"">+</div>","null","","fixation","","","","","","","","",""
"memory-trial","202","568852","0.0-15.0-1.79","1648","2","""event"",""trial"",""time""
""fullscreenenter"",""1"",""4246""
","
","
","""event"",""trial"",""time""
""fullscreenenter"",""1"",""4246""
","
","","","","","","3447","images/flower5.png","","","memory_trial","2","maybe_old","","","","","","",""
"html-keyboard-response","203","569354","0.0-15.0-0.80","1648","2","""event"",""trial"",""time""
""fullscreenenter"",""1"",""4246""
","
","
","""event"",""trial"",""time""
""fullscreenenter"",""1"",""4246""
","
","","","","","","null","<div style=""font-size:60px;"">+</div>","null","","fixation","","","","","","","","",""
"memory-trial","204","574507","0.0-15.0-1.80","1648","2","""event"",""trial"",""time""
""fullscreenenter"",""1"",""4246""
","
","
","""event"",""trial"",""time""
""fullscreenenter"",""1"",""4246""
","
","","","","","","4152","images/train5.png","","","memory_trial","2","maybe_old","","","","","","",""
"html-keyboard-response","205","575009","0.0-15.0-0.81","1648","2","""event"",""trial"",""time""
""fullscreenenter"",""1"",""4246""
","
","
","""event"",""trial"",""time""
""fullscreenenter"",""1"",""4246""
","
","","","","","","null","<div style=""font-size:60px;"">+</div>","null","","fixation","","","","","","","","",""
"memory-trial","206","577748","0.0-15.0-1.81","1648","2","""event"",""trial"",""time""
""fullscreenenter"",""1"",""4246""
","
","
","""event"",""trial"",""time""
""fullscreenenter"",""1"",""4246""
","
","","","","","","1736","images/bed1.png","","","memory_trial","4","definitely_new","","","","","","",""
"html-keyboard-response","207","578249","0.0-15.0-0.82","1648","2","""event"",""trial"",""time""
""fullscreenenter"",""1"",""4246""
","
","
","""event"",""trial"",""time""
""fullscreenenter"",""1"",""4246""
","
","","","","","","null","<div style=""font-size:60px;"">+</div>","null","","fixation","","","","","","","","",""
"memory-trial","208","582307","0.0-15.0-1.82","1648","2","""event"",""trial"",""time""
""fullscreenenter"",""1"",""4246""
","
","
","""event"",""trial"",""time""
""fullscreenenter"",""1"",""4246""
","
","","","","","","3056","images/sheep3.png","","","memory_trial","1","definitely_old","","","","","","",""
"html-keyboard-response","209","582809","0.0-15.0-0.83","1648","2","""event"",""trial"",""time""
""fullscreenenter"",""1"",""4246""
","
","
","""event"",""trial"",""time""
""fullscreenenter"",""1"",""4246""
","
","","","","","","null","<div style=""font-size:60px;"">+</div>","null","","fixation","","","","","","","","",""
"memory-trial","210","587842","0.0-15.0-1.83","1648","2","""event"",""trial"",""time""
""fullscreenenter"",""1"",""4246""
","
","
","""event"",""trial"",""time""
""fullscreenenter"",""1"",""4246""
","
","","","","","","4031","images/boat1.png","","","memory_trial","2","maybe_old","","","","","","",""
"html-keyboard-response","211","588343","0.0-15.0-0.84","1648","2","""event"",""trial"",""time""
""fullscreenenter"",""1"",""4246""
","
","
","""event"",""trial"",""time""
""fullscreenenter"",""1"",""4246""
","
","","","","","","null","<div style=""font-size:60px;"">+</div>","null","","fixation","","","","","","","","",""
"memory-trial","212","591412","0.0-15.0-1.84","1648","2","""event"",""trial"",""time""
""fullscreenenter"",""1"",""4246""
","
","
","""event"",""trial"",""time""
""fullscreenenter"",""1"",""4246""
","
","","","","","","2067","images/sheep5.png","","","memory_trial","4","definitely_new","","","","","","",""
"html-keyboard-response","213","591913","0.0-15.0-0.85","1648","2","""event"",""trial"",""time""
""fullscreenenter"",""1"",""4246""
","
","
","""event"",""trial"",""time""
""fullscreenenter"",""1"",""4246""
","
","","","","","","null","<div style=""font-size:60px;"">+</div>","null","","fixation","","","","","","","","",""
"memory-trial","214","594681","0.0-15.0-1.85","1648","2","""event"",""trial"",""time""
""fullscreenenter"",""1"",""4246""
","
","
","""event"",""trial"",""time""
""fullscreenenter"",""1"",""4246""
","
","","","","","","1767","images/flower2.png","","","memory_trial","2","maybe_old","","","","","","",""
"html-keyboard-response","215","595183","0.0-15.0-0.86","1648","2","""event"",""trial"",""time""
""fullscreenenter"",""1"",""4246""
","
","
","""event"",""trial"",""time""
""fullscreenenter"",""1"",""4246""
","
","","","","","","null","<div style=""font-size:60px;"">+</div>","null","","fixation","","","","","","","","",""
"memory-trial","216","598506","0.0-15.0-1.86","1648","2","""event"",""trial"",""time""
""fullscreenenter"",""1"",""4246""
","
","
","""event"",""trial"",""time""
""fullscreenenter"",""1"",""4246""
","
","","","","","","2322","images/banana5.png","","","memory_trial","3","maybe_new","","","","","","",""
"html-keyboard-response","217","599008","0.0-15.0-0.87","1648","2","""event"",""trial"",""time""
""fullscreenenter"",""1"",""4246""
","
","
","""event"",""trial"",""time""
""fullscreenenter"",""1"",""4246""
","
","","","","","","null","<div style=""font-size:60px;"">+</div>","null","","fixation","","","","","","","","",""
"memory-trial","218","601476","0.0-15.0-1.87","1648","2","""event"",""trial"",""time""
""fullscreenenter"",""1"",""4246""
","
","
","""event"",""trial"",""time""
""fullscreenenter"",""1"",""4246""
","
","","","","","","1466","images/apple4.png","","","memory_trial","1","definitely_old","","","","","","",""
"html-keyboard-response","219","601977","0.0-15.0-0.88","1648","2","""event"",""trial"",""time""
""fullscreenenter"",""1"",""4246""
","
","
","""event"",""trial"",""time""
""fullscreenenter"",""1"",""4246""
","
","","","","","","null","<div style=""font-size:60px;"">+</div>","null","","fixation","","","","","","","","",""
"memory-trial","220","605646","0.0-15.0-1.88","1648","2","""event"",""trial"",""time""
""fullscreenenter"",""1"",""4246""
","
","
","""event"",""trial"",""time""
""fullscreenenter"",""1"",""4246""
","
","","","","","","2667","images/truck4.png","","","memory_trial","2","maybe_old","","","","","","",""
"html-keyboard-response","221","606148","0.0-15.0-0.89","1648","2","""event"",""trial"",""time""
""fullscreenenter"",""1"",""4246""
","
","
","""event"",""trial"",""time""
""fullscreenenter"",""1"",""4246""
","
","","","","","","null","<div style=""font-size:60px;"">+</div>","null","","fixation","","","","","","","","",""
"memory-trial","222","610477","0.0-15.0-1.89","1648","2","""event"",""trial"",""time""
""fullscreenenter"",""1"",""4246""
","
","
","""event"",""trial"",""time""
""fullscreenenter"",""1"",""4246""
","
","","","","","","3326","images/plane2.png","","","memory_trial","2","maybe_old","","","","","","",""
"html-keyboard-response","223","610978","0.0-15.0-0.90","1648","2","""event"",""trial"",""time""
""fullscreenenter"",""1"",""4246""
","
","
","""event"",""trial"",""time""
""fullscreenenter"",""1"",""4246""
","
","","","","","","null","<div style=""font-size:60px;"">+</div>","null","","fixation","","","","","","","","",""
"memory-trial","224","613131","0.0-15.0-1.90","1648","2","""event"",""trial"",""time""
""fullscreenenter"",""1"",""4246""
","
","
","""event"",""trial"",""time""
""fullscreenenter"",""1"",""4246""
","
","","","","","","1148","images/sofa3.png","","","memory_trial","4","definitely_new","","","","","","",""
"html-keyboard-response","225","613633","0.0-15.0-0.91","1648","2","""event"",""trial"",""time""
""fullscreenenter"",""1"",""4246""
","
","
","""event"",""trial"",""time""
""fullscreenenter"",""1"",""4246""
","
","","","","","","null","<div style=""font-size:60px;"">+</div>","null","","fixation","","","","","","","","",""
"memory-trial","226","617512","0.0-15.0-1.91","1648","2","""event"",""trial"",""time""
""fullscreenenter"",""1"",""4246""
","
","
","""event"",""trial"",""time""
""fullscreenenter"",""1"",""4246""
","
","","","","","","2877","images/table1.png","","","memory_trial","3","maybe_new","","","","","","",""
"html-keyboard-response","227","618013","0.0-15.0-0.92","1648","2","""event"",""trial"",""time""
""fullscreenenter"",""1"",""4246""
","
","
","""event"",""trial"",""time""
""fullscreenenter"",""1"",""4246""
","
","","","","","","null","<div style=""font-size:60px;"">+</div>","null","","fixation","","","","","","","","",""
"memory-trial","228","622536","0.0-15.0-1.92","1648","2","""event"",""trial"",""time""
""fullscreenenter"",""1"",""4246""
","
","
","""event"",""trial"",""time""
""fullscreenenter"",""1"",""4246""
","
","","","","","","3521","images/orange2.png","","","memory_trial","2","maybe_old","","","","","","",""
"html-keyboard-response","229","623038","0.0-15.0-0.93","1648","2","""event"",""trial"",""time""
""fullscreenenter"",""1"",""4246""
","
","
","""event"",""trial"",""time""
""fullscreenenter"",""1"",""4246""
","
","","","","","","null","<div style=""font-size:60px;"">+</div>","null","","fixation","","","","","","","","",""
"memory-trial","230","625656","0.0-15.0-1.93","1648","2","""event"",""trial"",""time""
""fullscreenenter"",""1"",""4246""
","
","
","""event"",""trial"",""time""
""fullscreenenter"",""1"",""4246""
","
","","","","","","1615","images/dog5.png","","","memory_trial","4","definitely_new","","","","","","",""
"html-keyboard-response","231","626156","0.0-15.0-0.94","1648","2","""event"",""trial"",""time""
""fullscreenenter"",""1"",""4246""
","
","
","""event"",""trial"",""time""
""fullscreenenter"",""1"",""4246""
","
","","","","","","null","<div style=""font-size:60px;"">+</div>","null","","fixation","","","","","","","","",""
"memory-trial","232","628386","0.0-15.0-1.94","1648","2","""event"",""trial"",""time""
""fullscreenenter"",""1"",""4246""
","
","
","""event"",""trial"",""time""
""fullscreenenter"",""1"",""4246""
","
","","","","","","1228","images/bed4.png","","","memory_trial","4","definitely_new","","","","","","",""
"html-keyboard-response","233","628888","0.0-15.0-0.95","1648","2","""event"",""trial"",""time""
""fullscreenenter"",""1"",""4246""
","
","
","""event"",""trial"",""time""
""fullscreenenter"",""1"",""4246""
","
","","","","","","null","<div style=""font-size:60px;"">+</div>","null","","fixation","","","","","","","","",""
"memory-trial","234","633876","0.0-15.0-1.95","1648","2","""event"",""trial"",""time""
""fullscreenenter"",""1"",""4246""
","
","
","""event"",""trial"",""time""
""fullscreenenter"",""1"",""4246""
","
","","","","","","3986","images/cow1.png","","","memory_trial","2","maybe_old","","","","","","",""
"html-keyboard-response","235","634378","0.0-15.0-0.96","1648","2","""event"",""trial"",""time""
""fullscreenenter"",""1"",""4246""
","
","
","""event"",""trial"",""time""
""fullscreenenter"",""1"",""4246""
","
","","","","","","null","<div style=""font-size:60px;"">+</div>","null","","fixation","","","","","","","","",""
"memory-trial","236","637686","0.0-15.0-1.96","1648","2","""event"",""trial"",""time""
""fullscreenenter"",""1"",""4246""
","
","
","""event"",""trial"",""time""
""fullscreenenter"",""1"",""4246""
","
","","","","","","2306","images/dog4.png","","","memory_trial","3","maybe_new","","","","","","",""
"html-keyboard-response","237","638187","0.0-15.0-0.97","1648","2","""event"",""trial"",""time""
""fullscreenenter"",""1"",""4246""
","
","
","""event"",""trial"",""time""
""fullscreenenter"",""1"",""4246""
","
","","","","","","null","<div style=""font-size:60px;"">+</div>","null","","fixation","","","","","","","","",""
"memory-trial","238","641241","0.0-15.0-1.97","1648","2","""event"",""trial"",""time""
""fullscreenenter"",""1"",""4246""
","
","
","""event"",""trial"",""time""
""fullscreenenter"",""1"",""4246""
","
","","","","","","2052","images/train3.png","","","memory_trial","2","maybe_old","","","","","","",""
"html-keyboard-response","239","641742","0.0-15.0-0.98","1648","2","""event"",""trial"",""time""
""fullscreenenter"",""1"",""4246""
","
","
","""event"",""trial"",""time""
""fullscreenenter"",""1"",""4246""
","
","","","","","","null","<div style=""font-size:60px;"">+</div>","null","","fixation","","","","","","","","",""
"memory-trial","240","644435","0.0-15.0-1.98","1648","2","""event"",""trial"",""time""
""fullscreenenter"",""1"",""4246""
","
","
","""event"",""trial"",""time""
""fullscreenenter"",""1"",""4246""
","
","","","","","","1692","images/table3.png","","","memory_trial","4","definitely_new","","","","","","",""
"html-keyboard-response","241","644937","0.0-15.0-0.99","1648","2","""event"",""trial"",""time""
""fullscreenenter"",""1"",""4246""
","
","
","""event"",""trial"",""time""
""fullscreenenter"",""1"",""4246""
","
","","","","","","null","<div style=""font-size:60px;"">+</div>","null","","fixation","","","","","","","","",""
"memory-trial","242","648725","0.0-15.0-1.99","1648","2","""event"",""trial"",""time""
""fullscreenenter"",""1"",""4246""
","
","
","""event"",""trial"",""time""
""fullscreenenter"",""1"",""4246""
","
","","","","","","2787","images/tree5.png","","","memory_trial","2","maybe_old","","","","","","",""
"html-keyboard-response","243","649226","0.0-15.0-0.100","1648","2","""event"",""trial"",""time""
""fullscreenenter"",""1"",""4246""
","
","
","""event"",""trial"",""time""
""fullscreenenter"",""1"",""4246""
","
","","","","","","null","<div style=""font-size:60px;"">+</div>","null","","fixation","","","","","","","","",""
"memory-trial","244","653165","0.0-15.0-1.100","1648","2","""event"",""trial"",""time""
""fullscreenenter"",""1"",""4246""
","
","
","""event"",""trial"",""time""
""fullscreenenter"",""1"",""4246""
","
","","","","","","2937","images/horse4.png","","","memory_trial","3","maybe_new","","","","","","",""
"html-keyboard-response","245","653665","0.0-15.0-0.101","1648","2","""event"",""trial"",""time""
""fullscreenenter"",""1"",""4246""
","
","
","""event"",""trial"",""time""
""fullscreenenter"",""1"",""4246""
","
","","","","","","null","<div style=""font-size:60px;"">+</div>","null","","fixation","","","","","","","","",""
"memory-trial","246","656165","0.0-15.0-1.101","1648","2","""event"",""trial"",""time""
""fullscreenenter"",""1"",""4246""
","
","
","""event"",""trial"",""time""
""fullscreenenter"",""1"",""4246""
","
","","","","","","1498.0000000001164","images/tree3.png","","","memory_trial","1","definitely_old","","","","","","",""
"html-button-response","247","659779","0.0-15.0-2.101-0.101","1648","2","""event"",""trial"",""time""
""fullscreenenter"",""1"",""4246""
","
","
","""event"",""trial"",""time""
""fullscreenenter"",""1"",""4246""
","
","","","","","","3614","<p> Take a break! </p><p> Click the button to continue. </p>","0","","break","","","","","","","","",""
"html-keyboard-response","248","660279","0.0-15.0-0.102","1648","2","""event"",""trial"",""time""
""fullscreenenter"",""1"",""4246""
","
","
","""event"",""trial"",""time""
""fullscreenenter"",""1"",""4246""
","
","","","","","","null","<div style=""font-size:60px;"">+</div>","null","","fixation","","","","","","","","",""
"memory-trial","249","663185","0.0-15.0-1.102","1648","2","""event"",""trial"",""time""
""fullscreenenter"",""1"",""4246""
","
","
","""event"",""trial"",""time""
""fullscreenenter"",""1"",""4246""
","
","","","","","","1903","images/truck2.png","","","memory_trial","2","maybe_old","","","","","","",""
"html-keyboard-response","250","663686","0.0-15.0-0.103","1648","2","""event"",""trial"",""time""
""fullscreenenter"",""1"",""4246""
","
","
","""event"",""trial"",""time""
""fullscreenenter"",""1"",""4246""
","
","","","","","","null","<div style=""font-size:60px;"">+</div>","null","","fixation","","","","","","","","",""
"memory-trial","251","667265","0.0-15.0-1.103","1648","2","""event"",""trial"",""time""
""fullscreenenter"",""1"",""4246""
","
","
","""event"",""trial"",""time""
""fullscreenenter"",""1"",""4246""
","
","","","","","","2577","images/bush2.png","","","memory_trial","2","maybe_old","","","","","","",""
"html-keyboard-response","252","667766","0.0-15.0-0.104","1648","2","""event"",""trial"",""time""
""fullscreenenter"",""1"",""4246""
","
","
","""event"",""trial"",""time""
""fullscreenenter"",""1"",""4246""
","
","","","","","","null","<div style=""font-size:60px;"">+</div>","null","","fixation","","","","","","","","",""
"memory-trial","253","671074","0.0-15.0-1.104","1648","2","""event"",""trial"",""time""
""fullscreenenter"",""1"",""4246""
","
","
","""event"",""trial"",""time""
""fullscreenenter"",""1"",""4246""
","
","","","","","","2306","images/horse3.png","","","memory_trial","3","maybe_new","","","","","","",""
"html-keyboard-response","254","671575","0.0-15.0-0.105","1648","2","""event"",""trial"",""time""
""fullscreenenter"",""1"",""4246""
","
","
","""event"",""trial"",""time""
""fullscreenenter"",""1"",""4246""
","
","","","","","","null","<div style=""font-size:60px;"">+</div>","null","","fixation","","","","","","","","",""
"memory-trial","255","675469","0.0-15.0-1.105","1648","2","""event"",""trial"",""time""
""fullscreenenter"",""1"",""4246""
","
","
","""event"",""trial"",""time""
""fullscreenenter"",""1"",""4246""
","
","","","","","","2893","images/boat2.png","","","memory_trial","2","maybe_old","","","","","","",""
"html-keyboard-response","256","675970","0.0-15.0-0.106","1648","2","""event"",""trial"",""time""
""fullscreenenter"",""1"",""4246""
","
","
","""event"",""trial"",""time""
""fullscreenenter"",""1"",""4246""
","
","","","","","","null","<div style=""font-size:60px;"">+</div>","null","","fixation","","","","","","","","",""
"memory-trial","257","678950","0.0-15.0-1.106","1648","2","""event"",""trial"",""time""
""fullscreenenter"",""1"",""4246""
","
","
","""event"",""trial"",""time""
""fullscreenenter"",""1"",""4246""
","
","","","","","","1976.9999999998836","images/bed3.png","","","memory_trial","4","definitely_new","","","","","","",""
"html-keyboard-response","258","679451","0.0-15.0-0.107","1648","2","""event"",""trial"",""time""
""fullscreenenter"",""1"",""4246""
","
","
","""event"",""trial"",""time""
""fullscreenenter"",""1"",""4246""
","
","","","","","","null","<div style=""font-size:60px;"">+</div>","null","","fixation","","","","","","","","",""
"memory-trial","259","683090","0.0-15.0-1.107","1648","2","""event"",""trial"",""time""
""fullscreenenter"",""1"",""4246""
","
","
","""event"",""trial"",""time""
""fullscreenenter"",""1"",""4246""
","
","","","","","","2636","images/rabbit1.png","","","memory_trial","3","maybe_new","","","","","","",""
"html-keyboard-response","260","683592","0.0-15.0-0.108","1648","2","""event"",""trial"",""time""
""fullscreenenter"",""1"",""4246""
","
","
","""event"",""trial"",""time""
""fullscreenenter"",""1"",""4246""
","
","","","","","","null","<div style=""font-size:60px;"">+</div>","null","","fixation","","","","","","","","",""
"memory-trial","261","686600","0.0-15.0-1.108","1648","2","""event"",""trial"",""time""
""fullscreenenter"",""1"",""4246""
","
","
","""event"",""trial"",""time""
""fullscreenenter"",""1"",""4246""
","
","","","","","","2006","images/apple3.png","","","memory_trial","4","definitely_new","","","","","","",""
"html-keyboard-response","262","687102","0.0-15.0-0.109","1648","2","""event"",""trial"",""time""
""fullscreenenter"",""1"",""4246""
","
","
","""event"",""trial"",""time""
""fullscreenenter"",""1"",""4246""
","
","","","","","","null","<div style=""font-size:60px;"">+</div>","null","","fixation","","","","","","","","",""
"memory-trial","263","689465","0.0-15.0-1.109","1648","2","""event"",""trial"",""time""
""fullscreenenter"",""1"",""4246""
","
","
","""event"",""trial"",""time""
""fullscreenenter"",""1"",""4246""
","
","","","","","","1361","images/rabbit3.png","","","memory_trial","4","definitely_new","","","","","","",""
"html-keyboard-response","264","689969","0.0-15.0-0.110","1648","2","""event"",""trial"",""time""
""fullscreenenter"",""1"",""4246""
","
","
","""event"",""trial"",""time""
""fullscreenenter"",""1"",""4246""
","
","","","","","","null","<div style=""font-size:60px;"">+</div>","null","","fixation","","","","","","","","",""
"memory-trial","265","693770","0.0-15.0-1.110","1648","2","""event"",""trial"",""time""
""fullscreenenter"",""1"",""4246""
","
","
","""event"",""trial"",""time""
""fullscreenenter"",""1"",""4246""
","
","","","","","","2798","images/horse2.png","","","memory_trial","4","definitely_new","","","","","","",""
"html-keyboard-response","266","694271","0.0-15.0-0.111","1648","2","""event"",""trial"",""time""
""fullscreenenter"",""1"",""4246""
","
","
","""event"",""trial"",""time""
""fullscreenenter"",""1"",""4246""
","
","","","","","","null","<div style=""font-size:60px;"">+</div>","null","","fixation","","","","","","","","",""
"memory-trial","267","698869","0.0-15.0-1.111","1648","2","""event"",""trial"",""time""
""fullscreenenter"",""1"",""4246""
","
","
","""event"",""trial"",""time""
""fullscreenenter"",""1"",""4246""
","
","","","","","","3595","images/straw1.png","","","memory_trial","4","definitely_new","","","","","","",""
"html-keyboard-response","268","699371","0.0-15.0-0.112","1648","2","""event"",""trial"",""time""
""fullscreenenter"",""1"",""4246""
","
","
","""event"",""trial"",""time""
""fullscreenenter"",""1"",""4246""
","
","","","","","","null","<div style=""font-size:60px;"">+</div>","null","","fixation","","","","","","","","",""
"memory-trial","269","704328","0.0-15.0-1.112","1648","2","""event"",""trial"",""time""
""fullscreenenter"",""1"",""4246""
","
","
","""event"",""trial"",""time""
""fullscreenenter"",""1"",""4246""
","
","","","","","","3956","images/sheep1.png","","","memory_trial","3","maybe_new","","","","","","",""
"html-keyboard-response","270","704830","0.0-15.0-0.113","1648","2","""event"",""trial"",""time""
""fullscreenenter"",""1"",""4246""
","
","
","""event"",""trial"",""time""
""fullscreenenter"",""1"",""4246""
","
","","","","","","null","<div style=""font-size:60px;"">+</div>","null","","fixation","","","","","","","","",""
"memory-trial","271","710629","0.0-15.0-1.113","1648","2","""event"",""trial"",""time""
""fullscreenenter"",""1"",""4246""
","
","
","""event"",""trial"",""time""
""fullscreenenter"",""1"",""4246""
","
","","","","","","4797","images/orange3.png","","","memory_trial","2","maybe_old","","","","","","",""
"html-keyboard-response","272","711131","0.0-15.0-0.114","1648","2","""event"",""trial"",""time""
""fullscreenenter"",""1"",""4246""
","
","
","""event"",""trial"",""time""
""fullscreenenter"",""1"",""4246""
","
","","","","","","null","<div style=""font-size:60px;"">+</div>","null","","fixation","","","","","","","","",""
"memory-trial","273","713958","0.0-15.0-1.114","1648","2","""event"",""trial"",""time""
""fullscreenenter"",""1"",""4246""
","
","
","""event"",""trial"",""time""
""fullscreenenter"",""1"",""4246""
","
","","","","","","1825","images/tree4.png","","","memory_trial","1","definitely_old","","","","","","",""
"html-keyboard-response","274","714460","0.0-15.0-0.115","1648","2","""event"",""trial"",""time""
""fullscreenenter"",""1"",""4246""
","
","
","""event"",""trial"",""time""
""fullscreenenter"",""1"",""4246""
","
","","","","","","null","<div style=""font-size:60px;"">+</div>","null","","fixation","","","","","","","","",""
"memory-trial","275","717033","0.0-15.0-1.115","1648","2","""event"",""trial"",""time""
""fullscreenenter"",""1"",""4246""
","
","
","""event"",""trial"",""time""
""fullscreenenter"",""1"",""4246""
","
","","","","","","1571","images/flower1.png","","","memory_trial","1","definitely_old","","","","","","",""
"html-keyboard-response","276","717535","0.0-15.0-0.116","1648","2","""event"",""trial"",""time""
""fullscreenenter"",""1"",""4246""
","
","
","""event"",""trial"",""time""
""fullscreenenter"",""1"",""4246""
","
","","","","","","null","<div style=""font-size:60px;"">+</div>","null","","fixation","","","","","","","","",""
"memory-trial","277","721953","0.0-15.0-1.116","1648","2","""event"",""trial"",""time""
""fullscreenenter"",""1"",""4246""
","
","
","""event"",""trial"",""time""
""fullscreenenter"",""1"",""4246""
","
","","","","","","3417","images/dog2.png","","","memory_trial","2","maybe_old","","","","","","",""
"html-keyboard-response","278","722455","0.0-15.0-0.117","1648","2","""event"",""trial"",""time""
""fullscreenenter"",""1"",""4246""
","
","
","""event"",""trial"",""time""
""fullscreenenter"",""1"",""4246""
","
","","","","","","null","<div style=""font-size:60px;"">+</div>","null","","fixation","","","","","","","","",""
"memory-trial","279","726634","0.0-15.0-1.117","1648","2","""event"",""trial"",""time""
""fullscreenenter"",""1"",""4246""
","
","
","""event"",""trial"",""time""
""fullscreenenter"",""1"",""4246""
","
","","","","","","3177","images/table4.png","","","memory_trial","3","maybe_new","","","","","","",""
"html-keyboard-response","280","727134","0.0-15.0-0.118","1648","2","""event"",""trial"",""time""
""fullscreenenter"",""1"",""4246""
","
","
","""event"",""trial"",""time""
""fullscreenenter"",""1"",""4246""
","
","","","","","","null","<div style=""font-size:60px;"">+</div>","null","","fixation","","","","","","","","",""
"memory-trial","281","731538","0.0-15.0-1.118","1648","2","""event"",""trial"",""time""
""fullscreenenter"",""1"",""4246""
","
","
","""event"",""trial"",""time""
""fullscreenenter"",""1"",""4246""
","
","","","","","","3402","images/bush1.png","","","memory_trial","2","maybe_old","","","","","","",""
"html-keyboard-response","282","732040","0.0-15.0-0.119","1648","2","""event"",""trial"",""time""
""fullscreenenter"",""1"",""4246""
","
","
","""event"",""trial"",""time""
""fullscreenenter"",""1"",""4246""
","
","","","","","","null","<div style=""font-size:60px;"">+</div>","null","","fixation","","","","","","","","",""
"memory-trial","283","735213","0.0-15.0-1.119","1648","2","""event"",""trial"",""time""
""fullscreenenter"",""1"",""4246""
","
","
","""event"",""trial"",""time""
""fullscreenenter"",""1"",""4246""
","
","","","","","","2172","images/goat2.png","","","memory_trial","4","definitely_new","","","","","","",""
"preload","284","738453","0.0-16.0","1648","2","""event"",""trial"",""time""
""fullscreenenter"",""1"",""4246""
","
","
","""event"",""trial"",""time""
""fullscreenenter"",""1"",""4246""
","
","true","false","[]","[]","[]","","","","","","","","","","","","","",""
"learning-instructions","285","743424","0.0-17.0-0.0-0.0-0.0","1648","2","""event"",""trial"",""time""
""fullscreenenter"",""1"",""4246""
","
","
","""event"",""trial"",""time""
""fullscreenenter"",""1"",""4246""
","
","","","","","","1977.9999999998836","<p> We're now going to ask you to water your plants again. </p>","","0","instructions","","","","","","","","",""
"learning-instructions","286","750248","0.0-17.0-0.0-0.0-0.1","1648","2","""event"",""trial"",""time""
""fullscreenenter"",""1"",""4246""
","
","
","""event"",""trial"",""time""
""fullscreenenter"",""1"",""4246""
","
","","","","","","953","<p> On each trial, you will see a plant. Select the watering can that you think will make the plant grow. </p>","","0","instructions","","","","","","","","",""
"learning-instructions","287","758079","0.0-17.0-0.0-0.0-0.2","1648","2","""event"",""trial"",""time""
""fullscreenenter"",""1"",""4246""
","
","
","""event"",""trial"",""time""
""fullscreenenter"",""1"",""4246""
","
","","","","","","771","<p> To make your selection, think about what you learned last week. You will NOT receive any feedback about your choice. </p>","","0","instructions","","","","","","","","",""
"learning-instructions","288","767919","0.0-17.0-0.0-0.0-0.3","1648","2","""event"",""trial"",""time""
""fullscreenenter"",""1"",""4246""
","
","
","""event"",""trial"",""time""
""fullscreenenter"",""1"",""4246""
","
","","","","","","728","<p> You should use the 1 key to select the watering can on the left, the 2 key to select the watering can in the middle, and the 3 key to select the watering can on the right. </p><br><div class=""choice-mem-instructions-grid""> <div class=""choice-mem-option""><img src=""images/plants_choice1.png"" class=""choice-mem-option-img"" stage=""instructions"" position=""0"" ><div class=""choice-mem-option-text""> Press ""1."" </div></div><div class=""choice-mem-option""><img src=""images/plants_choice2.png"" class=""choice-mem-option-img"" stage=""instructions"" position=""1"" ><div class=""choice-mem-option-text""> Press ""2."" </div></div><div class=""choice-mem-option""><img src=""images/plants_choice3.png"" class=""choice-mem-option-img"" stage=""instructions"" position=""2"" ><div class=""choice-mem-option-text""> Press ""3."" </div></div></div>","","0","instructions","","","","","","","","",""
"learning-instructions","289","774703","0.0-17.0-0.0-0.0-0.4","1648","2","""event"",""trial"",""time""
""fullscreenenter"",""1"",""4246""
","
","
","""event"",""trial"",""time""
""fullscreenenter"",""1"",""4246""
","
","","","","","","521","<p> You will have 10 seconds to make each selection. Try to respond before time runs out! </p>","","0","instructions","","","","","","","","",""
"learning-instructions","290","778751","0.0-17.0-0.0-1.0","1648","2","""event"",""trial"",""time""
""fullscreenenter"",""1"",""4246""
","
","
","""event"",""trial"",""time""
""fullscreenenter"",""1"",""4246""
","
","","","","","","1993","<p> You are now ready to begin the game. </p>","","0","instructions","","","","","","","","",""
"html-keyboard-response","291","779353","0.0-17.0-0.0-2.0-0.0","1648","2","""event"",""trial"",""time""
""fullscreenenter"",""1"",""4246""
","
","
","""event"",""trial"",""time""
""fullscreenenter"",""1"",""4246""
","
","","","","","","null","<div style=""font-size:60px;"">+</div>","null","","fixation","","","","","","","","",""
"choice-memory-trial","292","782718","0.0-17.0-0.0-2.0-1.0","1648","2","""event"",""trial"",""time""
""fullscreenenter"",""1"",""4246""
","
","
","""event"",""trial"",""time""
""fullscreenenter"",""1"",""4246""
","
","","","","","","2361","images/tree3.png","","","choice_memory_trial","2","","","images/plants_choice3.png","images/plants_choice2.png","images/plants_choice1.png","[2,1,0]","images/plants_choice2.png","plants"
"html-keyboard-response","293","783220","0.0-17.0-0.0-2.0-0.1","1648","2","""event"",""trial"",""time""
""fullscreenenter"",""1"",""4246""
","
","
","""event"",""trial"",""time""
""fullscreenenter"",""1"",""4246""
","
","","","","","","null","<div style=""font-size:60px;"">+</div>","null","","fixation","","","","","","","","",""
"choice-memory-trial","294","788177","0.0-17.0-0.0-2.0-1.1","1648","2","""event"",""trial"",""time""
""fullscreenenter"",""1"",""4246""
","
","
","""event"",""trial"",""time""
""fullscreenenter"",""1"",""4246""
","
","","","","","","3956","images/cactus5.png","","","choice_memory_trial","3","","","images/plants_choice2.png","images/plants_choice1.png","images/plants_choice3.png","[1,0,2]","images/plants_choice3.png","plants"
"html-keyboard-response","295","788679","0.0-17.0-0.0-2.0-0.2","1648","2","""event"",""trial"",""time""
""fullscreenenter"",""1"",""4246""
","
","
","""event"",""trial"",""time""
""fullscreenenter"",""1"",""4246""
","
","","","","","","null","<div style=""font-size:60px;"">+</div>","null","","fixation","","","","","","","","",""
"choice-memory-trial","296","792077","0.0-17.0-0.0-2.0-1.2","1648","2","""event"",""trial"",""time""
""fullscreenenter"",""1"",""4246""
","
","
","""event"",""trial"",""time""
""fullscreenenter"",""1"",""4246""
","
