"trial_type","trial_index","time_elapsed","internal_node_id","subject_id","task_version","interactions","blur_events","focus_events","fullscreenenter_events","fullscreenexit_events","success","timeout","failed_images","failed_audio","failed_video","rt","stimulus","response","button_pressed","task_part","key_press","answer","correct","left_choice","middle_choice","right_choice","choice_positions","option_selected","block"
"pavlovia","0","5","0.0-0.0","1850","2","""event"",""trial"",""time""
""fullscreenenter"",""1"",""6463""
","
","
","""event"",""trial"",""time""
""fullscreenenter"",""1"",""6463""
","
","","","","","","","","","","","","","","","","","","",""
"fullscreen","1","7440","0.0-1.0","1850","2","""event"",""trial"",""time""
""fullscreenenter"",""1"",""6463""
","
","
","""event"",""trial"",""time""
""fullscreenenter"",""1"",""6463""
","
","true","","","","","","","","","","","","","","","","","",""
"preload","2","10204","0.0-2.0","1850","2","""event"",""trial"",""time""
""fullscreenenter"",""1"",""6463""
","
","
","""event"",""trial"",""time""
""fullscreenenter"",""1"",""6463""
","
","true","false","[]","[]","[]","","","","","","","","","","","","","",""
"audio-keyboard-response","3","20579","0.0-3.0","1850","2","""event"",""trial"",""time""
""fullscreenenter"",""1"",""6463""
""blur"",""4"",""40010""
""focus"",""4"",""44345""
""fullscreenexit"",""4"",""48454""
""blur"",""4"",""67155""
""focus"",""4"",""94565""
","""event"",""trial"",""time""
""blur"",""4"",""40010""
""blur"",""4"",""67155""
","""event"",""trial"",""time""
""focus"",""4"",""44345""
""focus"",""4"",""94565""
","""event"",""trial"",""time""
""fullscreenenter"",""1"",""6463""
","""event"",""trial"",""time""
""fullscreenexit"",""4"",""48454""
","","","","","","10370.666666666666","audio/beep_loop.wav"," ","","","","","","","","","","",""
"audio-button-response","4","98305","0.0-4.0","1850","2","""event"",""trial"",""time""
""fullscreenenter"",""1"",""6463""
""blur"",""4"",""40010""
""focus"",""4"",""44345""
""fullscreenexit"",""4"",""48454""
""blur"",""4"",""67155""
""focus"",""4"",""94565""
","""event"",""trial"",""time""
""blur"",""4"",""40010""
""blur"",""4"",""67155""
","""event"",""trial"",""time""
""focus"",""4"",""44345""
""focus"",""4"",""94565""
","""event"",""trial"",""time""
""fullscreenenter"",""1"",""6463""
","""event"",""trial"",""time""
""fullscreenexit"",""4"",""48454""
","","","","","","77688","audio/turtle.wav","0","","","","","","","","","","",""
"audio-button-response","5","104157","0.0-5.0","1850","2","""event"",""trial"",""time""
""fullscreenenter"",""1"",""6463""
""blur"",""4"",""40010""
""focus"",""4"",""44345""
""fullscreenexit"",""4"",""48454""
""blur"",""4"",""67155""
""focus"",""4"",""94565""
","""event"",""trial"",""time""
""blur"",""4"",""40010""
""blur"",""4"",""67155""
","""event"",""trial"",""time""
""focus"",""4"",""44345""
""focus"",""4"",""94565""
","""event"",""trial"",""time""
""fullscreenenter"",""1"",""6463""
","""event"",""trial"",""time""
""fullscreenexit"",""4"",""48454""
","","","","","","4789","audio/shark.wav","2","","","","","","","","","","",""
"preload","6","117755","0.0-6.0","1850","2","""event"",""trial"",""time""
""fullscreenenter"",""1"",""6463""
""blur"",""4"",""40010""
""focus"",""4"",""44345""
""fullscreenexit"",""4"",""48454""
""blur"",""4"",""67155""
""focus"",""4"",""94565""
","""event"",""trial"",""time""
""blur"",""4"",""40010""
""blur"",""4"",""67155""
","""event"",""trial"",""time""
""focus"",""4"",""44345""
""focus"",""4"",""94565""
","""event"",""trial"",""time""
""fullscreenenter"",""1"",""6463""
","""event"",""trial"",""time""
""fullscreenexit"",""4"",""48454""
","true","false","[]","[]","[]","","","","","","","","","","","","","",""
"learning-instructions","7","145467","0.0-7.0-0.0","1850","2","""event"",""trial"",""time""
""fullscreenenter"",""1"",""6463""
""blur"",""4"",""40010""
""focus"",""4"",""44345""
""fullscreenexit"",""4"",""48454""
""blur"",""4"",""67155""
""focus"",""4"",""94565""
","""event"",""trial"",""time""
""blur"",""4"",""40010""
""blur"",""4"",""67155""
","""event"",""trial"",""time""
""focus"",""4"",""44345""
""focus"",""4"",""94565""
","""event"",""trial"",""time""
""fullscreenenter"",""1"",""6463""
","""event"",""trial"",""time""
""fullscreenexit"",""4"",""48454""
","","","","","","22901.5","<p> Welcome back! </p><p> Last week, you had to make choices about lots of different items.  </p>","","0","instructions","","","","","","","","",""
"learning-instructions","8","151743","0.0-7.0-0.1","1850","2","""event"",""trial"",""time""
""fullscreenenter"",""1"",""6463""
""blur"",""4"",""40010""
""focus"",""4"",""44345""
""fullscreenexit"",""4"",""48454""
""blur"",""4"",""67155""
""focus"",""4"",""94565""
","""event"",""trial"",""time""
""blur"",""4"",""40010""
""blur"",""4"",""67155""
","""event"",""trial"",""time""
""focus"",""4"",""44345""
""focus"",""4"",""94565""
","""event"",""trial"",""time""
""fullscreenenter"",""1"",""6463""
","""event"",""trial"",""time""
""fullscreenexit"",""4"",""48454""
","","","","","","1967.4000000059605","<p> Today, we are going to ask you to try to remember all the items. </p>","","0","instructions","","","","","","","","",""
"learning-instructions","9","164988","0.0-7.0-0.2","1850","2","""event"",""trial"",""time""
""fullscreenenter"",""1"",""6463""
""blur"",""4"",""40010""
""focus"",""4"",""44345""
""fullscreenexit"",""4"",""48454""
""blur"",""4"",""67155""
""focus"",""4"",""94565""
","""event"",""trial"",""time""
""blur"",""4"",""40010""
""blur"",""4"",""67155""
","""event"",""trial"",""time""
""focus"",""4"",""44345""
""focus"",""4"",""94565""
","""event"",""trial"",""time""
""fullscreenenter"",""1"",""6463""
","""event"",""trial"",""time""
""fullscreenexit"",""4"",""48454""
","","","","","","3112.0999999940395","<p> On every trial, you will see an image. </p><p> The image may be an OLD image you saw during the games last week or it may be a NEW image that was not presented. </p>","","0","instructions","","","","","","","","",""
"learning-instructions","10","182907","0.0-7.0-0.3","1850","2","""event"",""trial"",""time""
""fullscreenenter"",""1"",""6463""
""blur"",""4"",""40010""
""focus"",""4"",""44345""
""fullscreenexit"",""4"",""48454""
""blur"",""4"",""67155""
""focus"",""4"",""94565""
","""event"",""trial"",""time""
""blur"",""4"",""40010""
""blur"",""4"",""67155""
","""event"",""trial"",""time""
""focus"",""4"",""44345""
""focus"",""4"",""94565""
","""event"",""trial"",""time""
""fullscreenenter"",""1"",""6463""
","""event"",""trial"",""time""
""fullscreenexit"",""4"",""48454""
","","","","","","9409.70000000298","<p> You need to select whether the image is:  </p><p>  'Definitely old', 'Maybe old', 'Maybe new', or 'Definitely new.'  </p><div class=""mem-choice-instructions-grid""><div class=""choice-option"" id=""choice-option-1"" ><img src=""images/definitely_old_1.png"" id=""choice-option-img-1"" class=""choice-option-img"" stage=""1""></div><div class=""choice-option"" id=""choice-option-2"" ><img src=""images/maybe_old_1.png"" id=""choice-option-img-2"" class=""choice-option-img"" stage=""1""></div><div class=""choice-option"" id=""choice-option-3"" ><img src=""images/maybe_new_1.png"" id=""choice-option-img-3"" class=""choice-option-img"" stage=""1""></div><div class=""choice-option"" id=""choice-option-4"" > <img src=""images/definitely_new_1.png"" id=""choice-option-img-4"" class=""choice-option-img"" stage=""1""></div></div>","","0","instructions","","","","","","","","",""
"learning-instructions","11","195209","0.0-7.0-0.4","1850","2","""event"",""trial"",""time""
""fullscreenenter"",""1"",""6463""
""blur"",""4"",""40010""
""focus"",""4"",""44345""
""fullscreenexit"",""4"",""48454""
""blur"",""4"",""67155""
""focus"",""4"",""94565""
","""event"",""trial"",""time""
""blur"",""4"",""40010""
""blur"",""4"",""67155""
","""event"",""trial"",""time""
""focus"",""4"",""44345""
""focus"",""4"",""94565""
","""event"",""trial"",""time""
""fullscreenenter"",""1"",""6463""
","""event"",""trial"",""time""
""fullscreenexit"",""4"",""48454""
","","","","","","5601.300000011921","<p> You should use the 1, 2, 3, and 4 keys to make your responses.  </p><div class=""mem-choice-instructions-grid""><div class=""choice-option"" id=""choice-option-1"" ><img src=""images/definitely_old.png"" id=""choice-option-img-1"" class=""choice-option-img"" stage=""1""></div><div class=""choice-option"" id=""choice-option-2"" ><img src=""images/maybe_old.png"" id=""choice-option-img-2"" class=""choice-option-img"" stage=""1""></div><div class=""choice-option"" id=""choice-option-3"" ><img src=""images/maybe_new.png"" id=""choice-option-img-3"" class=""choice-option-img"" stage=""1""></div><div class=""choice-option"" id=""choice-option-4"" > <img src=""images/definitely_new.png"" id=""choice-option-img-4"" class=""choice-option-img"" stage=""1""></div></div>","","0","instructions","","","","","","","","",""
"learning-instructions","12","208118","0.0-7.0-0.5","1850","2","""event"",""trial"",""time""
""fullscreenenter"",""1"",""6463""
""blur"",""4"",""40010""
""focus"",""4"",""44345""
""fullscreenexit"",""4"",""48454""
""blur"",""4"",""67155""
""focus"",""4"",""94565""
","""event"",""trial"",""time""
""blur"",""4"",""40010""
""blur"",""4"",""67155""
","""event"",""trial"",""time""
""focus"",""4"",""44345""
""focus"",""4"",""94565""
","""event"",""trial"",""time""
""fullscreenenter"",""1"",""6463""
","""event"",""trial"",""time""
""fullscreenexit"",""4"",""48454""
","","","","","","6141.899999991059","<p> You will have 10 seconds to make each response.  </p><p>  Make sure to respond before time runs out! </p>","","0","instructions","","","","","","","","",""
"learning-instructions","13","218163","0.0-7.0-0.6","1850","2","""event"",""trial"",""time""
""fullscreenenter"",""1"",""6463""
""blur"",""4"",""40010""
""focus"",""4"",""44345""
""fullscreenexit"",""4"",""48454""
""blur"",""4"",""67155""
""focus"",""4"",""94565""
","""event"",""trial"",""time""
""blur"",""4"",""40010""
""blur"",""4"",""67155""
","""event"",""trial"",""time""
""focus"",""4"",""44345""
""focus"",""4"",""94565""
","""event"",""trial"",""time""
""fullscreenenter"",""1"",""6463""
","""event"",""trial"",""time""
""fullscreenexit"",""4"",""48454""
","","","","","","2457","<p> Today, you will see each image ONCE only.  </p><p>  That means none of the images will repeat. </p>","","0","instructions","","","","","","","","",""
"learning-instructions","14","232509","0.0-7.0-0.7","1850","2","""event"",""trial"",""time""
""fullscreenenter"",""1"",""6463""
""blur"",""4"",""40010""
""focus"",""4"",""44345""
""fullscreenexit"",""4"",""48454""
""blur"",""4"",""67155""
""focus"",""4"",""94565""
","""event"",""trial"",""time""
""blur"",""4"",""40010""
""blur"",""4"",""67155""
","""event"",""trial"",""time""
""focus"",""4"",""44345""
""focus"",""4"",""94565""
","""event"",""trial"",""time""
""fullscreenenter"",""1"",""6463""
","""event"",""trial"",""time""
""fullscreenexit"",""4"",""48454""
","","","","","","1672.9000000059605","<p> Before you play the real game, it is time to practice. </p><p>  Just like in the real game, some of the images in the practice will be ones you have seen before. </p><p>  Others will be entirely new. </p>","","0","instructions","","","","","","","","",""
"html-button-response","15","238128","0.0-8.0","1850","2","""event"",""trial"",""time""
""fullscreenenter"",""1"",""6463""
""blur"",""4"",""40010""
""focus"",""4"",""44345""
""fullscreenexit"",""4"",""48454""
""blur"",""4"",""67155""
""focus"",""4"",""94565""
","""event"",""trial"",""time""
""blur"",""4"",""40010""
""blur"",""4"",""67155""
","""event"",""trial"",""time""
""focus"",""4"",""44345""
""focus"",""4"",""94565""
","""event"",""trial"",""time""
""fullscreenenter"",""1"",""6463""
","""event"",""trial"",""time""
""fullscreenexit"",""4"",""48454""
","","","","","","5510.399999991059","<p> Ready to practice? </p><p> Remember, use the 1, 2, 3, and 4 keys to make your responses. </p>","0","","instructions","","","","","","","","",""
"html-keyboard-response","16","238746","0.0-9.0-0.0","1850","2","""event"",""trial"",""time""
""fullscreenenter"",""1"",""6463""
""blur"",""4"",""40010""
""focus"",""4"",""44345""
""fullscreenexit"",""4"",""48454""
""blur"",""4"",""67155""
""focus"",""4"",""94565""
","""event"",""trial"",""time""
""blur"",""4"",""40010""
""blur"",""4"",""67155""
","""event"",""trial"",""time""
""focus"",""4"",""44345""
""focus"",""4"",""94565""
","""event"",""trial"",""time""
""fullscreenenter"",""1"",""6463""
","""event"",""trial"",""time""
""fullscreenexit"",""4"",""48454""
","","","","","","null","<div style=""font-size:60px;"">+</div>","null","","fixation","","","","","","","","",""
"memory-trial","17","243502","0.0-9.0-1.0","1850","2","""event"",""trial"",""time""
""fullscreenenter"",""1"",""6463""
""blur"",""4"",""40010""
""focus"",""4"",""44345""
""fullscreenexit"",""4"",""48454""
""blur"",""4"",""67155""
""focus"",""4"",""94565""
","""event"",""trial"",""time""
""blur"",""4"",""40010""
""blur"",""4"",""67155""
","""event"",""trial"",""time""
""focus"",""4"",""44345""
""focus"",""4"",""94565""
","""event"",""trial"",""time""
""fullscreenenter"",""1"",""6463""
","""event"",""trial"",""time""
""fullscreenexit"",""4"",""48454""
","","","","","","3746.1000000089407","images/ball1.png","","","practice","2","maybe_old","","","","","","",""
"html-keyboard-response","18","244004","0.0-9.0-0.1","1850","2","""event"",""trial"",""time""
""fullscreenenter"",""1"",""6463""
""blur"",""4"",""40010""
""focus"",""4"",""44345""
""fullscreenexit"",""4"",""48454""
""blur"",""4"",""67155""
""focus"",""4"",""94565""
","""event"",""trial"",""time""
""blur"",""4"",""40010""
""blur"",""4"",""67155""
","""event"",""trial"",""time""
""focus"",""4"",""44345""
""focus"",""4"",""94565""
","""event"",""trial"",""time""
""fullscreenenter"",""1"",""6463""
","""event"",""trial"",""time""
""fullscreenexit"",""4"",""48454""
","","","","","","null","<div style=""font-size:60px;"">+</div>","null","","fixation","","","","","","","","",""
"memory-trial","19","249952","0.0-9.0-1.1","1850","2","""event"",""trial"",""time""
""fullscreenenter"",""1"",""6463""
""blur"",""4"",""40010""
""focus"",""4"",""44345""
""fullscreenexit"",""4"",""48454""
""blur"",""4"",""67155""
""focus"",""4"",""94565""
","""event"",""trial"",""time""
""blur"",""4"",""40010""
""blur"",""4"",""67155""
","""event"",""trial"",""time""
""focus"",""4"",""44345""
""focus"",""4"",""94565""
","""event"",""trial"",""time""
""fullscreenenter"",""1"",""6463""
","""event"",""trial"",""time""
""fullscreenexit"",""4"",""48454""
","","","","","","4933","images/racket1.png","","","practice","1","definitely_old","","","","","","",""
"html-keyboard-response","20","250469","0.0-9.0-0.2","1850","2","""event"",""trial"",""time""
""fullscreenenter"",""1"",""6463""
""blur"",""4"",""40010""
""focus"",""4"",""44345""
""fullscreenexit"",""4"",""48454""
""blur"",""4"",""67155""
""focus"",""4"",""94565""
","""event"",""trial"",""time""
""blur"",""4"",""40010""
""blur"",""4"",""67155""
","""event"",""trial"",""time""
""focus"",""4"",""44345""
""focus"",""4"",""94565""
","""event"",""trial"",""time""
""fullscreenenter"",""1"",""6463""
","""event"",""trial"",""time""
""fullscreenexit"",""4"",""48454""
","","","","","","null","<div style=""font-size:60px;"">+</div>","null","","fixation","","","","","","","","",""
"memory-trial","21","257633","0.0-9.0-1.2","1850","2","""event"",""trial"",""time""
""fullscreenenter"",""1"",""6463""
""blur"",""4"",""40010""
""focus"",""4"",""44345""
""fullscreenexit"",""4"",""48454""
""blur"",""4"",""67155""
""focus"",""4"",""94565""
","""event"",""trial"",""time""
""blur"",""4"",""40010""
""blur"",""4"",""67155""
","""event"",""trial"",""time""
""focus"",""4"",""44345""
""focus"",""4"",""94565""
","""event"",""trial"",""time""
""fullscreenenter"",""1"",""6463""
","""event"",""trial"",""time""
""fullscreenexit"",""4"",""48454""
","","","","","","6157.79999999702","images/ball4.png","","","practice","1","definitely_old","","","","","","",""
"html-keyboard-response","22","258141","0.0-9.0-0.3","1850","2","""event"",""trial"",""time""
""fullscreenenter"",""1"",""6463""
""blur"",""4"",""40010""
""focus"",""4"",""44345""
""fullscreenexit"",""4"",""48454""
""blur"",""4"",""67155""
""focus"",""4"",""94565""
","""event"",""trial"",""time""
""blur"",""4"",""40010""
""blur"",""4"",""67155""
","""event"",""trial"",""time""
""focus"",""4"",""44345""
""focus"",""4"",""94565""
","""event"",""trial"",""time""
""fullscreenenter"",""1"",""6463""
","""event"",""trial"",""time""
""fullscreenexit"",""4"",""48454""
","","","","","","null","<div style=""font-size:60px;"">+</div>","null","","fixation","","","","","","","","",""
"memory-trial","23","267013","0.0-9.0-1.3","1850","2","""event"",""trial"",""time""
""fullscreenenter"",""1"",""6463""
""blur"",""4"",""40010""
""focus"",""4"",""44345""
""fullscreenexit"",""4"",""48454""
""blur"",""4"",""67155""
""focus"",""4"",""94565""
","""event"",""trial"",""time""
""blur"",""4"",""40010""
""blur"",""4"",""67155""
","""event"",""trial"",""time""
""focus"",""4"",""44345""
""focus"",""4"",""94565""
","""event"",""trial"",""time""
""fullscreenenter"",""1"",""6463""
","""event"",""trial"",""time""
""fullscreenexit"",""4"",""48454""
","","","","","","7866.20000000298","images/racket4.png","","","practice","2","maybe_old","","","","","","",""
"html-keyboard-response","24","267517","0.0-9.0-0.4","1850","2","""event"",""trial"",""time""
""fullscreenenter"",""1"",""6463""
""blur"",""4"",""40010""
""focus"",""4"",""44345""
""fullscreenexit"",""4"",""48454""
""blur"",""4"",""67155""
""focus"",""4"",""94565""
","""event"",""trial"",""time""
""blur"",""4"",""40010""
""blur"",""4"",""67155""
","""event"",""trial"",""time""
""focus"",""4"",""44345""
""focus"",""4"",""94565""
","""event"",""trial"",""time""
""fullscreenenter"",""1"",""6463""
","""event"",""trial"",""time""
""fullscreenexit"",""4"",""48454""
","","","","","","null","<div style=""font-size:60px;"">+</div>","null","","fixation","","","","","","","","",""
"memory-trial","25","271602","0.0-9.0-1.4","1850","2","""event"",""trial"",""time""
""fullscreenenter"",""1"",""6463""
""blur"",""4"",""40010""
""focus"",""4"",""44345""
""fullscreenexit"",""4"",""48454""
""blur"",""4"",""67155""
""focus"",""4"",""94565""
","""event"",""trial"",""time""
""blur"",""4"",""40010""
""blur"",""4"",""67155""
","""event"",""trial"",""time""
""focus"",""4"",""44345""
""focus"",""4"",""94565""
","""event"",""trial"",""time""
""fullscreenenter"",""1"",""6463""
","""event"",""trial"",""time""
""fullscreenexit"",""4"",""48454""
","","","","","","3080.2000000029802","images/racket2.png","","","practice","2","maybe_old","","","","","","",""
"html-keyboard-response","26","272105","0.0-9.0-0.5","1850","2","""event"",""trial"",""time""
""fullscreenenter"",""1"",""6463""
""blur"",""4"",""40010""
""focus"",""4"",""44345""
""fullscreenexit"",""4"",""48454""
""blur"",""4"",""67155""
""focus"",""4"",""94565""
","""event"",""trial"",""time""
""blur"",""4"",""40010""
""blur"",""4"",""67155""
","""event"",""trial"",""time""
""focus"",""4"",""44345""
""focus"",""4"",""94565""
","""event"",""trial"",""time""
""fullscreenenter"",""1"",""6463""
","""event"",""trial"",""time""
""fullscreenexit"",""4"",""48454""
","","","","","","null","<div style=""font-size:60px;"">+</div>","null","","fixation","","","","","","","","",""
"memory-trial","27","275551","0.0-9.0-1.5","1850","2","""event"",""trial"",""time""
""fullscreenenter"",""1"",""6463""
""blur"",""4"",""40010""
""focus"",""4"",""44345""
""fullscreenexit"",""4"",""48454""
""blur"",""4"",""67155""
""focus"",""4"",""94565""
","""event"",""trial"",""time""
""blur"",""4"",""40010""
""blur"",""4"",""67155""
","""event"",""trial"",""time""
""focus"",""4"",""44345""
""focus"",""4"",""94565""
","""event"",""trial"",""time""
""fullscreenenter"",""1"",""6463""
","""event"",""trial"",""time""
""fullscreenexit"",""4"",""48454""
","","","","","","2441.4000000059605","images/ball2.png","","","practice","1","definitely_old","","","","","","",""
"html-keyboard-response","28","276053","0.0-9.0-0.6","1850","2","""event"",""trial"",""time""
""fullscreenenter"",""1"",""6463""
""blur"",""4"",""40010""
""focus"",""4"",""44345""
""fullscreenexit"",""4"",""48454""
""blur"",""4"",""67155""
""focus"",""4"",""94565""
","""event"",""trial"",""time""
""blur"",""4"",""40010""
""blur"",""4"",""67155""
","""event"",""trial"",""time""
""focus"",""4"",""44345""
""focus"",""4"",""94565""
","""event"",""trial"",""time""
""fullscreenenter"",""1"",""6463""
","""event"",""trial"",""time""
""fullscreenexit"",""4"",""48454""
","","","","","","null","<div style=""font-size:60px;"">+</div>","null","","fixation","","","","","","","","",""
"memory-trial","29","279855","0.0-9.0-1.6","1850","2","""event"",""trial"",""time""
""fullscreenenter"",""1"",""6463""
""blur"",""4"",""40010""
""focus"",""4"",""44345""
""fullscreenexit"",""4"",""48454""
""blur"",""4"",""67155""
""focus"",""4"",""94565""
","""event"",""trial"",""time""
""blur"",""4"",""40010""
""blur"",""4"",""67155""
","""event"",""trial"",""time""
""focus"",""4"",""44345""
""focus"",""4"",""94565""
","""event"",""trial"",""time""
""fullscreenenter"",""1"",""6463""
","""event"",""trial"",""time""
""fullscreenexit"",""4"",""48454""
","","","","","","2796.5","images/racket3.png","","","practice","3","maybe_new","","","","","","",""
"html-keyboard-response","30","280362","0.0-9.0-0.7","1850","2","""event"",""trial"",""time""
""fullscreenenter"",""1"",""6463""
""blur"",""4"",""40010""
""focus"",""4"",""44345""
""fullscreenexit"",""4"",""48454""
""blur"",""4"",""67155""
""focus"",""4"",""94565""
","""event"",""trial"",""time""
""blur"",""4"",""40010""
""blur"",""4"",""67155""
","""event"",""trial"",""time""
""focus"",""4"",""44345""
""focus"",""4"",""94565""
","""event"",""trial"",""time""
""fullscreenenter"",""1"",""6463""
","""event"",""trial"",""time""
""fullscreenexit"",""4"",""48454""
","","","","","","null","<div style=""font-size:60px;"">+</div>","null","","fixation","","","","","","","","",""
"memory-trial","31","283827","0.0-9.0-1.7","1850","2","""event"",""trial"",""time""
""fullscreenenter"",""1"",""6463""
""blur"",""4"",""40010""
""focus"",""4"",""44345""
""fullscreenexit"",""4"",""48454""
""blur"",""4"",""67155""
""focus"",""4"",""94565""
","""event"",""trial"",""time""
""blur"",""4"",""40010""
""blur"",""4"",""67155""
","""event"",""trial"",""time""
""focus"",""4"",""44345""
""focus"",""4"",""94565""
","""event"",""trial"",""time""
""fullscreenenter"",""1"",""6463""
","""event"",""trial"",""time""
""fullscreenexit"",""4"",""48454""
","","","","","","2459.9000000059605","images/ball3.png","","","practice","2","maybe_old","","","","","","",""
"learning-instructions","32","294890","0.0-10.0-0.0","1850","2","""event"",""trial"",""time""
""fullscreenenter"",""1"",""6463""
""blur"",""4"",""40010""
""focus"",""4"",""44345""
""fullscreenexit"",""4"",""48454""
""blur"",""4"",""67155""
""focus"",""4"",""94565""
","""event"",""trial"",""time""
""blur"",""4"",""40010""
""blur"",""4"",""67155""
","""event"",""trial"",""time""
""focus"",""4"",""44345""
""focus"",""4"",""94565""
","""event"",""trial"",""time""
""fullscreenenter"",""1"",""6463""
","""event"",""trial"",""time""
""fullscreenexit"",""4"",""48454""
","","","","","","3049.5999999940395","<p> Great! You have completed the practice. </p><p> Before you start, we're going to ask you a few questions about how the game works.  </p>","","0","instructions","","","","","","","","",""
"preload","33","314407","0.0-11.0","1850","2","""event"",""trial"",""time""
""fullscreenenter"",""1"",""6463""
""blur"",""4"",""40010""
""focus"",""4"",""44345""
""fullscreenexit"",""4"",""48454""
""blur"",""4"",""67155""
""focus"",""4"",""94565""
","""event"",""trial"",""time""
""blur"",""4"",""40010""
""blur"",""4"",""67155""
","""event"",""trial"",""time""
""focus"",""4"",""44345""
""focus"",""4"",""94565""
","""event"",""trial"",""time""
""fullscreenenter"",""1"",""6463""
","""event"",""trial"",""time""
""fullscreenexit"",""4"",""48454""
","true","false","[]","[]","[]","","","","","","","","","","","","","",""
"comp-q","34","330775","0.0-12.0-0.0","1850","2","""event"",""trial"",""time""
""fullscreenenter"",""1"",""6463""
""blur"",""4"",""40010""
""focus"",""4"",""44345""
""fullscreenexit"",""4"",""48454""
""blur"",""4"",""67155""
""focus"",""4"",""94565""
","""event"",""trial"",""time""
""blur"",""4"",""40010""
""blur"",""4"",""67155""
","""event"",""trial"",""time""
""focus"",""4"",""44345""
""focus"",""4"",""94565""
","""event"",""trial"",""time""
""fullscreenenter"",""1"",""6463""
","""event"",""trial"",""time""
""fullscreenexit"",""4"",""48454""
","","","","","","10534.5","<p> <b> True or False? </b> </p><p> In this game, you will only see each image once. </p>","","0","comp_question","","","true","","","","","",""
"comp-q","35","346622","0.0-12.0-1.0","1850","2","""event"",""trial"",""time""
""fullscreenenter"",""1"",""6463""
""blur"",""4"",""40010""
""focus"",""4"",""44345""
""fullscreenexit"",""4"",""48454""
""blur"",""4"",""67155""
""focus"",""4"",""94565""
","""event"",""trial"",""time""
""blur"",""4"",""40010""
""blur"",""4"",""67155""
","""event"",""trial"",""time""
""focus"",""4"",""44345""
""focus"",""4"",""94565""
","""event"",""trial"",""time""
""fullscreenenter"",""1"",""6463""
","""event"",""trial"",""time""
""fullscreenexit"",""4"",""48454""
","","","","","","9501.70000000298","<p> <b> That's right! </b> You will see many different images <i> one time each </i> in this game. </p>","","0","comp_answer","","","","","","","","",""
"comp-q","36","358571","0.0-12.0-0.1","1850","2","""event"",""trial"",""time""
""fullscreenenter"",""1"",""6463""
""blur"",""4"",""40010""
""focus"",""4"",""44345""
""fullscreenexit"",""4"",""48454""
""blur"",""4"",""67155""
""focus"",""4"",""94565""
","""event"",""trial"",""time""
""blur"",""4"",""40010""
""blur"",""4"",""67155""
","""event"",""trial"",""time""
""focus"",""4"",""44345""
""focus"",""4"",""94565""
","""event"",""trial"",""time""
""fullscreenenter"",""1"",""6463""
","""event"",""trial"",""time""
""fullscreenexit"",""4"",""48454""
","","","","","","6141.600000008941","<p> <b> True or False? </b> </p><p> You should use the mouse and click to make your response. </p>","","0","comp_question","","","false","","","","","",""
"comp-q","37","370246","0.0-12.0-1.1","1850","2","""event"",""trial"",""time""
""fullscreenenter"",""1"",""6463""
""blur"",""4"",""40010""
""focus"",""4"",""44345""
""fullscreenexit"",""4"",""48454""
""blur"",""4"",""67155""
""focus"",""4"",""94565""
","""event"",""trial"",""time""
""blur"",""4"",""40010""
""blur"",""4"",""67155""
","""event"",""trial"",""time""
""focus"",""4"",""44345""
""focus"",""4"",""94565""
","""event"",""trial"",""time""
""fullscreenenter"",""1"",""6463""
","""event"",""trial"",""time""
""fullscreenexit"",""4"",""48454""
","","","","","","4715.20000000298","<p><b> Incorrect. </b> You should use the '1', '2', '3', and '4' keys to make your response. </p>","","0","comp_answer","","","","","","","","",""
"comp-q","38","383631","0.0-12.0-0.2","1850","2","""event"",""trial"",""time""
""fullscreenenter"",""1"",""6463""
""blur"",""4"",""40010""
""focus"",""4"",""44345""
""fullscreenexit"",""4"",""48454""
""blur"",""4"",""67155""
""focus"",""4"",""94565""
","""event"",""trial"",""time""
""blur"",""4"",""40010""
""blur"",""4"",""67155""
","""event"",""trial"",""time""
""focus"",""4"",""44345""
""focus"",""4"",""94565""
","""event"",""trial"",""time""
""fullscreenenter"",""1"",""6463""
","""event"",""trial"",""time""
""fullscreenexit"",""4"",""48454""
","","","","","","7389.600000008941","<p> <b> True or False? </b> </p><p> You will have as much time as you want to make each choice. </p>","","0","comp_question","","","false","","","","","",""
"comp-q","39","393934","0.0-12.0-1.2","1850","2","""event"",""trial"",""time""
""fullscreenenter"",""1"",""6463""
""blur"",""4"",""40010""
""focus"",""4"",""44345""
""fullscreenexit"",""4"",""48454""
""blur"",""4"",""67155""
""focus"",""4"",""94565""
","""event"",""trial"",""time""
""blur"",""4"",""40010""
""blur"",""4"",""67155""
","""event"",""trial"",""time""
""focus"",""4"",""44345""
""focus"",""4"",""94565""
","""event"",""trial"",""time""
""fullscreenenter"",""1"",""6463""
","""event"",""trial"",""time""
""fullscreenexit"",""4"",""48454""
","","","","","","4983.100000008941","<p> <b>Incorrect.</b> You will only have 10 seconds to make each choice.</p>","","0","comp_answer","","","","","","","","",""
"learning-instructions","40","411304","0.0-13.0","1850","2","""event"",""trial"",""time""
""fullscreenenter"",""1"",""6463""
""blur"",""4"",""40010""
""focus"",""4"",""44345""
""fullscreenexit"",""4"",""48454""
""blur"",""4"",""67155""
""focus"",""4"",""94565""
","""event"",""trial"",""time""
""blur"",""4"",""40010""
""blur"",""4"",""67155""
","""event"",""trial"",""time""
""focus"",""4"",""44345""
""focus"",""4"",""94565""
","""event"",""trial"",""time""
""fullscreenenter"",""1"",""6463""
","""event"",""trial"",""time""
""fullscreenexit"",""4"",""48454""
","","","","","","8693.40000000596","<p> Great! You are now ready to begin the game. </p><p> Remember, use the 1, 2, 3, and 4 keys to make your responses. </p>","","0","instructions","","","","","","","","",""
"preload","41","446607","0.0-14.0","1850","2","""event"",""trial"",""time""
""fullscreenenter"",""1"",""6463""
""blur"",""4"",""40010""
""focus"",""4"",""44345""
""fullscreenexit"",""4"",""48454""
""blur"",""4"",""67155""
""focus"",""4"",""94565""
","""event"",""trial"",""time""
""blur"",""4"",""40010""
""blur"",""4"",""67155""
","""event"",""trial"",""time""
""focus"",""4"",""44345""
""focus"",""4"",""94565""
","""event"",""trial"",""time""
""fullscreenenter"",""1"",""6463""
","""event"",""trial"",""time""
""fullscreenexit"",""4"",""48454""
","true","false","[]","[]","[]","","","","","","","","","","","","","",""
"html-keyboard-response","42","447109","0.0-15.0-0.0","1850","2","""event"",""trial"",""time""
""fullscreenenter"",""1"",""6463""
""blur"",""4"",""40010""
""focus"",""4"",""44345""
""fullscreenexit"",""4"",""48454""
""blur"",""4"",""67155""
""focus"",""4"",""94565""
","""event"",""trial"",""time""
""blur"",""4"",""40010""
""blur"",""4"",""67155""
","""event"",""trial"",""time""
""focus"",""4"",""44345""
""focus"",""4"",""94565""
","""event"",""trial"",""time""
""fullscreenenter"",""1"",""6463""
","""event"",""trial"",""time""
""fullscreenexit"",""4"",""48454""
","","","","","","null","<div style=""font-size:60px;"">+</div>","null","","fixation","","","","","","","","",""
"memory-trial","43","454391","0.0-15.0-1.0","1850","2","""event"",""trial"",""time""
""fullscreenenter"",""1"",""6463""
""blur"",""4"",""40010""
""focus"",""4"",""44345""
""fullscreenexit"",""4"",""48454""
""blur"",""4"",""67155""
""focus"",""4"",""94565""
","""event"",""trial"",""time""
""blur"",""4"",""40010""
""blur"",""4"",""67155""
","""event"",""trial"",""time""
""focus"",""4"",""44345""
""focus"",""4"",""94565""
","""event"",""trial"",""time""
""fullscreenenter"",""1"",""6463""
","""event"",""trial"",""time""
""fullscreenexit"",""4"",""48454""
","","","","","","6278.70000000298","images/boat1.png","","","memory_trial","2","maybe_old","","","","","","",""
"html-keyboard-response","44","454894","0.0-15.0-0.1","1850","2","""event"",""trial"",""time""
""fullscreenenter"",""1"",""6463""
""blur"",""4"",""40010""
""focus"",""4"",""44345""
""fullscreenexit"",""4"",""48454""
""blur"",""4"",""67155""
""focus"",""4"",""94565""
","""event"",""trial"",""time""
""blur"",""4"",""40010""
""blur"",""4"",""67155""
","""event"",""trial"",""time""
""focus"",""4"",""44345""
""focus"",""4"",""94565""
","""event"",""trial"",""time""
""fullscreenenter"",""1"",""6463""
","""event"",""trial"",""time""
""fullscreenexit"",""4"",""48454""
","","","","","","null","<div style=""font-size:60px;"">+</div>","null","","fixation","","","","","","","","",""
"memory-trial","45","460821","0.0-15.0-1.1","1850","2","""event"",""trial"",""time""
""fullscreenenter"",""1"",""6463""
""blur"",""4"",""40010""
""focus"",""4"",""44345""
""fullscreenexit"",""4"",""48454""
""blur"",""4"",""67155""
""focus"",""4"",""94565""
","""event"",""trial"",""time""
""blur"",""4"",""40010""
""blur"",""4"",""67155""
","""event"",""trial"",""time""
""focus"",""4"",""44345""
""focus"",""4"",""94565""
","""event"",""trial"",""time""
""fullscreenenter"",""1"",""6463""
","""event"",""trial"",""time""
""fullscreenexit"",""4"",""48454""
","","","","","","4922.9000000059605","images/tree5.png","","","memory_trial","1","definitely_old","","","","","","",""
"html-keyboard-response","46","461324","0.0-15.0-0.2","1850","2","""event"",""trial"",""time""
""fullscreenenter"",""1"",""6463""
""blur"",""4"",""40010""
""focus"",""4"",""44345""
""fullscreenexit"",""4"",""48454""
""blur"",""4"",""67155""
""focus"",""4"",""94565""
","""event"",""trial"",""time""
""blur"",""4"",""40010""
""blur"",""4"",""67155""
","""event"",""trial"",""time""
""focus"",""4"",""44345""
""focus"",""4"",""94565""
","""event"",""trial"",""time""
""fullscreenenter"",""1"",""6463""
","""event"",""trial"",""time""
""fullscreenexit"",""4"",""48454""
","","","","","","null","<div style=""font-size:60px;"">+</div>","null","","fixation","","","","","","","","",""
"memory-trial","47","467610","0.0-15.0-1.2","1850","2","""event"",""trial"",""time""
""fullscreenenter"",""1"",""6463""
""blur"",""4"",""40010""
""focus"",""4"",""44345""
""fullscreenexit"",""4"",""48454""
""blur"",""4"",""67155""
""focus"",""4"",""94565""
","""event"",""trial"",""time""
""blur"",""4"",""40010""
""blur"",""4"",""67155""
","""event"",""trial"",""time""
""focus"",""4"",""44345""
""focus"",""4"",""94565""
","""event"",""trial"",""time""
""fullscreenenter"",""1"",""6463""
","""event"",""trial"",""time""
""fullscreenexit"",""4"",""48454""
","","","","","","5281.79999999702","images/bed3.png","","","memory_trial","3","maybe_new","","","","","","",""
"html-keyboard-response","48","468113","0.0-15.0-0.3","1850","2","""event"",""trial"",""time""
""fullscreenenter"",""1"",""6463""
""blur"",""4"",""40010""
""focus"",""4"",""44345""
""fullscreenexit"",""4"",""48454""
""blur"",""4"",""67155""
""focus"",""4"",""94565""
","""event"",""trial"",""time""
""blur"",""4"",""40010""
""blur"",""4"",""67155""
","""event"",""trial"",""time""
""focus"",""4"",""44345""
""focus"",""4"",""94565""
","""event"",""trial"",""time""
""fullscreenenter"",""1"",""6463""
","""event"",""trial"",""time""
""fullscreenexit"",""4"",""48454""
","","","","","","null","<div style=""font-size:60px;"">+</div>","null","","fixation","","","","","","","","",""
"memory-trial","49","474352","0.0-15.0-1.3","1850","2","""event"",""trial"",""time""
""fullscreenenter"",""1"",""6463""
""blur"",""4"",""40010""
""focus"",""4"",""44345""
""fullscreenexit"",""4"",""48454""
""blur"",""4"",""67155""
""focus"",""4"",""94565""
","""event"",""trial"",""time""
""blur"",""4"",""40010""
""blur"",""4"",""67155""
","""event"",""trial"",""time""
""focus"",""4"",""44345""
""focus"",""4"",""94565""
","""event"",""trial"",""time""
""fullscreenenter"",""1"",""6463""
","""event"",""trial"",""time""
""fullscreenexit"",""4"",""48454""
","","","","","","5233.399999991059","images/table2.png","","","memory_trial","3","maybe_new","","","","","","",""
"html-keyboard-response","50","474854","0.0-15.0-0.4","1850","2","""event"",""trial"",""time""
""fullscreenenter"",""1"",""6463""
""blur"",""4"",""40010""
""focus"",""4"",""44345""
""fullscreenexit"",""4"",""48454""
""blur"",""4"",""67155""
""focus"",""4"",""94565""
","""event"",""trial"",""time""
""blur"",""4"",""40010""
""blur"",""4"",""67155""
","""event"",""trial"",""time""
""focus"",""4"",""44345""
""focus"",""4"",""94565""
","""event"",""trial"",""time""
""fullscreenenter"",""1"",""6463""
","""event"",""trial"",""time""
""fullscreenexit"",""4"",""48454""
","","","","","","null","<div style=""font-size:60px;"">+</div>","null","","fixation","","","","","","","","",""
"memory-trial","51","480716","0.0-15.0-1.4","1850","2","""event"",""trial"",""time""
""fullscreenenter"",""1"",""6463""
""blur"",""4"",""40010""
""focus"",""4"",""44345""
""fullscreenexit"",""4"",""48454""
""blur"",""4"",""67155""
""focus"",""4"",""94565""
","""event"",""trial"",""time""
""blur"",""4"",""40010""
""blur"",""4"",""67155""
","""event"",""trial"",""time""
""focus"",""4"",""44345""
""focus"",""4"",""94565""
","""event"",""trial"",""time""
""fullscreenenter"",""1"",""6463""
","""event"",""trial"",""time""
""fullscreenexit"",""4"",""48454""
","","","","","","4857.29999999702","images/banana3.png","","","memory_trial","2","maybe_old","","","","","","",""
"html-keyboard-response","52","481218","0.0-15.0-0.5","1850","2","""event"",""trial"",""time""
""fullscreenenter"",""1"",""6463""
""blur"",""4"",""40010""
""focus"",""4"",""44345""
""fullscreenexit"",""4"",""48454""
""blur"",""4"",""67155""
""focus"",""4"",""94565""
","""event"",""trial"",""time""
""blur"",""4"",""40010""
""blur"",""4"",""67155""
","""event"",""trial"",""time""
""focus"",""4"",""44345""
""focus"",""4"",""94565""
","""event"",""trial"",""time""
""fullscreenenter"",""1"",""6463""
","""event"",""trial"",""time""
""fullscreenexit"",""4"",""48454""
","","","","","","null","<div style=""font-size:60px;"">+</div>","null","","fixation","","","","","","","","",""
"memory-trial","53","486989","0.0-15.0-1.5","1850","2","""event"",""trial"",""time""
""fullscreenenter"",""1"",""6463""
""blur"",""4"",""40010""
""focus"",""4"",""44345""
""fullscreenexit"",""4"",""48454""
""blur"",""4"",""67155""
""focus"",""4"",""94565""
","""event"",""trial"",""time""
""blur"",""4"",""40010""
""blur"",""4"",""67155""
","""event"",""trial"",""time""
""focus"",""4"",""44345""
""focus"",""4"",""94565""
","""event"",""trial"",""time""
""fullscreenenter"",""1"",""6463""
","""event"",""trial"",""time""
""fullscreenexit"",""4"",""48454""
","","","","","","4766.300000011921","images/table3.png","","","memory_trial","2","maybe_old","","","","","","",""
"html-keyboard-response","54","487492","0.0-15.0-0.6","1850","2","""event"",""trial"",""time""
""fullscreenenter"",""1"",""6463""
""blur"",""4"",""40010""
""focus"",""4"",""44345""
""fullscreenexit"",""4"",""48454""
""blur"",""4"",""67155""
""focus"",""4"",""94565""
","""event"",""trial"",""time""
""blur"",""4"",""40010""
""blur"",""4"",""67155""
","""event"",""trial"",""time""
""focus"",""4"",""44345""
""focus"",""4"",""94565""
","""event"",""trial"",""time""
""fullscreenenter"",""1"",""6463""
","""event"",""trial"",""time""
""fullscreenexit"",""4"",""48454""
","","","","","","null","<div style=""font-size:60px;"">+</div>","null","","fixation","","","","","","","","",""
"memory-trial","55","490093","0.0-15.0-1.6","1850","2","""event"",""trial"",""time""
""fullscreenenter"",""1"",""6463""
""blur"",""4"",""40010""
""focus"",""4"",""44345""
""fullscreenexit"",""4"",""48454""
""blur"",""4"",""67155""
""focus"",""4"",""94565""
","""event"",""trial"",""time""
""blur"",""4"",""40010""
""blur"",""4"",""67155""
","""event"",""trial"",""time""
""focus"",""4"",""44345""
""focus"",""4"",""94565""
","""event"",""trial"",""time""
""fullscreenenter"",""1"",""6463""
","""event"",""trial"",""time""
""fullscreenexit"",""4"",""48454""
","","","","","","1596.7000000029802","images/orange1.png","","","memory_trial","3","maybe_new","","","","","","",""
"html-keyboard-response","56","490595","0.0-15.0-0.7","1850","2","""event"",""trial"",""time""
""fullscreenenter"",""1"",""6463""
""blur"",""4"",""40010""
""focus"",""4"",""44345""
""fullscreenexit"",""4"",""48454""
""blur"",""4"",""67155""
""focus"",""4"",""94565""
","""event"",""trial"",""time""
""blur"",""4"",""40010""
""blur"",""4"",""67155""
","""event"",""trial"",""time""
""focus"",""4"",""44345""
""focus"",""4"",""94565""
","""event"",""trial"",""time""
""fullscreenenter"",""1"",""6463""
","""event"",""trial"",""time""
""fullscreenexit"",""4"",""48454""
","","","","","","null","<div style=""font-size:60px;"">+</div>","null","","fixation","","","","","","","","",""
"memory-trial","57","493137","0.0-15.0-1.7","1850","2","""event"",""trial"",""time""
""fullscreenenter"",""1"",""6463""
""blur"",""4"",""40010""
""focus"",""4"",""44345""
""fullscreenexit"",""4"",""48454""
""blur"",""4"",""67155""
""focus"",""4"",""94565""
","""event"",""trial"",""time""
""blur"",""4"",""40010""
""blur"",""4"",""67155""
","""event"",""trial"",""time""
""focus"",""4"",""44345""
""focus"",""4"",""94565""
","""event"",""trial"",""time""
""fullscreenenter"",""1"",""6463""
","""event"",""trial"",""time""
""fullscreenexit"",""4"",""48454""
","","","","","","1541","images/sheep4.png","","","memory_trial","2","maybe_old","","","","","","",""
"html-keyboard-response","58","493642","0.0-15.0-0.8","1850","2","""event"",""trial"",""time""
""fullscreenenter"",""1"",""6463""
""blur"",""4"",""40010""
""focus"",""4"",""44345""
""fullscreenexit"",""4"",""48454""
""blur"",""4"",""67155""
""focus"",""4"",""94565""
","""event"",""trial"",""time""
""blur"",""4"",""40010""
""blur"",""4"",""67155""
","""event"",""trial"",""time""
""focus"",""4"",""44345""
""focus"",""4"",""94565""
","""event"",""trial"",""time""
""fullscreenenter"",""1"",""6463""
","""event"",""trial"",""time""
""fullscreenexit"",""4"",""48454""
","","","","","","null","<div style=""font-size:60px;"">+</div>","null","","fixation","","","","","","","","",""
"memory-trial","59","495778","0.0-15.0-1.8","1850","2","""event"",""trial"",""time""
""fullscreenenter"",""1"",""6463""
""blur"",""4"",""40010""
""focus"",""4"",""44345""
""fullscreenexit"",""4"",""48454""
""blur"",""4"",""67155""
""focus"",""4"",""94565""
","""event"",""trial"",""time""
""blur"",""4"",""40010""
""blur"",""4"",""67155""
","""event"",""trial"",""time""
""focus"",""4"",""44345""
""focus"",""4"",""94565""
","""event"",""trial"",""time""
""fullscreenenter"",""1"",""6463""
","""event"",""trial"",""time""
""fullscreenexit"",""4"",""48454""
","","","","","","1133.5","images/flower1.png","","","memory_trial","2","maybe_old","","","","","","",""
"html-keyboard-response","60","496280","0.0-15.0-0.9","1850","2","""event"",""trial"",""time""
""fullscreenenter"",""1"",""6463""
""blur"",""4"",""40010""
""focus"",""4"",""44345""
""fullscreenexit"",""4"",""48454""
""blur"",""4"",""67155""
""focus"",""4"",""94565""
","""event"",""trial"",""time""
""blur"",""4"",""40010""
""blur"",""4"",""67155""
","""event"",""trial"",""time""
""focus"",""4"",""44345""
""focus"",""4"",""94565""
","""event"",""trial"",""time""
""fullscreenenter"",""1"",""6463""
","""event"",""trial"",""time""
""fullscreenexit"",""4"",""48454""
","","","","","","null","<div style=""font-size:60px;"">+</div>","null","","fixation","","","","","","","","",""
"memory-trial","61","499001","0.0-15.0-1.9","1850","2","""event"",""trial"",""time""
""fullscreenenter"",""1"",""6463""
""blur"",""4"",""40010""
""focus"",""4"",""44345""
""fullscreenexit"",""4"",""48454""
""blur"",""4"",""67155""
""focus"",""4"",""94565""
","""event"",""trial"",""time""
""blur"",""4"",""40010""
""blur"",""4"",""67155""
","""event"",""trial"",""time""
""focus"",""4"",""44345""
""focus"",""4"",""94565""
","""event"",""trial"",""time""
""fullscreenenter"",""1"",""6463""
","""event"",""trial"",""time""
""fullscreenexit"",""4"",""48454""
","","","","","","1717.300000011921","images/straw2.png","","","memory_trial","3","maybe_new","","","","","","",""
"html-keyboard-response","62","499503","0.0-15.0-0.10","1850","2","""event"",""trial"",""time""
""fullscreenenter"",""1"",""6463""
""blur"",""4"",""40010""
""focus"",""4"",""44345""
""fullscreenexit"",""4"",""48454""
""blur"",""4"",""67155""
""focus"",""4"",""94565""
","""event"",""trial"",""time""
""blur"",""4"",""40010""
""blur"",""4"",""67155""
","""event"",""trial"",""time""
""focus"",""4"",""44345""
""focus"",""4"",""94565""
","""event"",""trial"",""time""
""fullscreenenter"",""1"",""6463""
","""event"",""trial"",""time""
""fullscreenexit"",""4"",""48454""
","","","","","","null","<div style=""font-size:60px;"">+</div>","null","","fixation","","","","","","","","",""
"memory-trial","63","502436","0.0-15.0-1.10","1850","2","""event"",""trial"",""time""
""fullscreenenter"",""1"",""6463""
""blur"",""4"",""40010""
""focus"",""4"",""44345""
""fullscreenexit"",""4"",""48454""
""blur"",""4"",""67155""
""focus"",""4"",""94565""
","""event"",""trial"",""time""
""blur"",""4"",""40010""
""blur"",""4"",""67155""
","""event"",""trial"",""time""
""focus"",""4"",""44345""
""focus"",""4"",""94565""
","""event"",""trial"",""time""
""fullscreenenter"",""1"",""6463""
","""event"",""trial"",""time""
""fullscreenexit"",""4"",""48454""
","","","","","","1912.5","images/dog5.png","","","memory_trial","2","maybe_old","","","","","","",""
"html-keyboard-response","64","502938","0.0-15.0-0.11","1850","2","""event"",""trial"",""time""
""fullscreenenter"",""1"",""6463""
""blur"",""4"",""40010""
""focus"",""4"",""44345""
""fullscreenexit"",""4"",""48454""
""blur"",""4"",""67155""
""focus"",""4"",""94565""
","""event"",""trial"",""time""
""blur"",""4"",""40010""
""blur"",""4"",""67155""
","""event"",""trial"",""time""
""focus"",""4"",""44345""
""focus"",""4"",""94565""
","""event"",""trial"",""time""
""fullscreenenter"",""1"",""6463""
","""event"",""trial"",""time""
""fullscreenexit"",""4"",""48454""
","","","","","","null","<div style=""font-size:60px;"">+</div>","null","","fixation","","","","","","","","",""
"memory-trial","65","506263","0.0-15.0-1.11","1850","2","""event"",""trial"",""time""
""fullscreenenter"",""1"",""6463""
""blur"",""4"",""40010""
""focus"",""4"",""44345""
""fullscreenexit"",""4"",""48454""
""blur"",""4"",""67155""
""focus"",""4"",""94565""
","""event"",""trial"",""time""
""blur"",""4"",""40010""
""blur"",""4"",""67155""
","""event"",""trial"",""time""
""focus"",""4"",""44345""
""focus"",""4"",""94565""
","""event"",""trial"",""time""
""fullscreenenter"",""1"",""6463""
","""event"",""trial"",""time""
""fullscreenexit"",""4"",""48454""
","","","","","","2321.2000000029802","images/boat3.png","","","memory_trial","2","maybe_old","","","","","","",""
"html-keyboard-response","66","506765","0.0-15.0-0.12","1850","2","""event"",""trial"",""time""
""fullscreenenter"",""1"",""6463""
""blur"",""4"",""40010""
""focus"",""4"",""44345""
""fullscreenexit"",""4"",""48454""
""blur"",""4"",""67155""
""focus"",""4"",""94565""
","""event"",""trial"",""time""
""blur"",""4"",""40010""
""blur"",""4"",""67155""
","""event"",""trial"",""time""
""focus"",""4"",""44345""
""focus"",""4"",""94565""
","""event"",""trial"",""time""
""fullscreenenter"",""1"",""6463""
","""event"",""trial"",""time""
""fullscreenexit"",""4"",""48454""
","","","","","","null","<div style=""font-size:60px;"">+</div>","null","","fixation","","","","","","","","",""
"memory-trial","67","509812","0.0-15.0-1.12","1850","2","""event"",""trial"",""time""
""fullscreenenter"",""1"",""6463""
""blur"",""4"",""40010""
""focus"",""4"",""44345""
""fullscreenexit"",""4"",""48454""
""blur"",""4"",""67155""
""focus"",""4"",""94565""
","""event"",""trial"",""time""
""blur"",""4"",""40010""
""blur"",""4"",""67155""
","""event"",""trial"",""time""
""focus"",""4"",""44345""
""focus"",""4"",""94565""
","""event"",""trial"",""time""
""fullscreenenter"",""1"",""6463""
","""event"",""trial"",""time""
""fullscreenexit"",""4"",""48454""
","","","","","","2044.5","images/train2.png","","","memory_trial","3","maybe_new","","","","","","",""
"html-keyboard-response","68","510315","0.0-15.0-0.13","1850","2","""event"",""trial"",""time""
""fullscreenenter"",""1"",""6463""
""blur"",""4"",""40010""
""focus"",""4"",""44345""
""fullscreenexit"",""4"",""48454""
""blur"",""4"",""67155""
""focus"",""4"",""94565""
","""event"",""trial"",""time""
""blur"",""4"",""40010""
""blur"",""4"",""67155""
","""event"",""trial"",""time""
""focus"",""4"",""44345""
""focus"",""4"",""94565""
","""event"",""trial"",""time""
""fullscreenenter"",""1"",""6463""
","""event"",""trial"",""time""
""fullscreenexit"",""4"",""48454""
","","","","","","null","<div style=""font-size:60px;"">+</div>","null","","fixation","","","","","","","","",""
"memory-trial","69","513147","0.0-15.0-1.13","1850","2","""event"",""trial"",""time""
""fullscreenenter"",""1"",""6463""
""blur"",""4"",""40010""
""focus"",""4"",""44345""
""fullscreenexit"",""4"",""48454""
""blur"",""4"",""67155""
""focus"",""4"",""94565""
","""event"",""trial"",""time""
""blur"",""4"",""40010""
""blur"",""4"",""67155""
","""event"",""trial"",""time""
""focus"",""4"",""44345""
""focus"",""4"",""94565""
","""event"",""trial"",""time""
""fullscreenenter"",""1"",""6463""
","""event"",""trial"",""time""
""fullscreenexit"",""4"",""48454""
","","","","","","1827.4000000059605","images/rodent1.png","","","memory_trial","3","maybe_new","","","","","","",""
"html-keyboard-response","70","513649","0.0-15.0-0.14","1850","2","""event"",""trial"",""time""
""fullscreenenter"",""1"",""6463""
""blur"",""4"",""40010""
""focus"",""4"",""44345""
""fullscreenexit"",""4"",""48454""
""blur"",""4"",""67155""
""focus"",""4"",""94565""
","""event"",""trial"",""time""
""blur"",""4"",""40010""
""blur"",""4"",""67155""
","""event"",""trial"",""time""
""focus"",""4"",""44345""
""focus"",""4"",""94565""
","""event"",""trial"",""time""
""fullscreenenter"",""1"",""6463""
","""event"",""trial"",""time""
""fullscreenexit"",""4"",""48454""
","","","","","","null","<div style=""font-size:60px;"">+</div>","null","","fixation","","","","","","","","",""
"memory-trial","71","519886","0.0-15.0-1.14","1850","2","""event"",""trial"",""time""
""fullscreenenter"",""1"",""6463""
""blur"",""4"",""40010""
""focus"",""4"",""44345""
""fullscreenexit"",""4"",""48454""
""blur"",""4"",""67155""
""focus"",""4"",""94565""
","""event"",""trial"",""time""
""blur"",""4"",""40010""
""blur"",""4"",""67155""
","""event"",""trial"",""time""
""focus"",""4"",""44345""
""focus"",""4"",""94565""
","""event"",""trial"",""time""
""fullscreenenter"",""1"",""6463""
","""event"",""trial"",""time""
""fullscreenexit"",""4"",""48454""
","","","","","","5232.20000000298","images/orange4.png","","","memory_trial","2","maybe_old","","","","","","",""
"html-keyboard-response","72","520387","0.0-15.0-0.15","1850","2","""event"",""trial"",""time""
""fullscreenenter"",""1"",""6463""
""blur"",""4"",""40010""
""focus"",""4"",""44345""
""fullscreenexit"",""4"",""48454""
""blur"",""4"",""67155""
""focus"",""4"",""94565""
","""event"",""trial"",""time""
""blur"",""4"",""40010""
""blur"",""4"",""67155""
","""event"",""trial"",""time""
""focus"",""4"",""44345""
""focus"",""4"",""94565""
","""event"",""trial"",""time""
""fullscreenenter"",""1"",""6463""
","""event"",""trial"",""time""
""fullscreenexit"",""4"",""48454""
","","","","","","null","<div style=""font-size:60px;"">+</div>","null","","fixation","","","","","","","","",""
"memory-trial","73","523345","0.0-15.0-1.15","1850","2","""event"",""trial"",""time""
""fullscreenenter"",""1"",""6463""
""blur"",""4"",""40010""
""focus"",""4"",""44345""
""fullscreenexit"",""4"",""48454""
""blur"",""4"",""67155""
""focus"",""4"",""94565""
","""event"",""trial"",""time""
""blur"",""4"",""40010""
""blur"",""4"",""67155""
","""event"",""trial"",""time""
""focus"",""4"",""44345""
""focus"",""4"",""94565""
","""event"",""trial"",""time""
""fullscreenenter"",""1"",""6463""
","""event"",""trial"",""time""
""fullscreenexit"",""4"",""48454""
","","","","","","1953.2000000029802","images/rabbit2.png","","","memory_trial","3","maybe_new","","","","","","",""
"html-keyboard-response","74","523847","0.0-15.0-0.16","1850","2","""event"",""trial"",""time""
""fullscreenenter"",""1"",""6463""
""blur"",""4"",""40010""
""focus"",""4"",""44345""
""fullscreenexit"",""4"",""48454""
""blur"",""4"",""67155""
""focus"",""4"",""94565""
","""event"",""trial"",""time""
""blur"",""4"",""40010""
""blur"",""4"",""67155""
","""event"",""trial"",""time""
""focus"",""4"",""44345""
""focus"",""4"",""94565""
","""event"",""trial"",""time""
""fullscreenenter"",""1"",""6463""
","""event"",""trial"",""time""
""fullscreenexit"",""4"",""48454""
","","","","","","null","<div style=""font-size:60px;"">+</div>","null","","fixation","","","","","","","","",""
"memory-trial","75","529678","0.0-15.0-1.16","1850","2","""event"",""trial"",""time""
""fullscreenenter"",""1"",""6463""
""blur"",""4"",""40010""
""focus"",""4"",""44345""
""fullscreenexit"",""4"",""48454""
""blur"",""4"",""67155""
""focus"",""4"",""94565""
","""event"",""trial"",""time""
""blur"",""4"",""40010""
""blur"",""4"",""67155""
","""event"",""trial"",""time""
""focus"",""4"",""44345""
""focus"",""4"",""94565""
","""event"",""trial"",""time""
""fullscreenenter"",""1"",""6463""
","""event"",""trial"",""time""
""fullscreenexit"",""4"",""48454""
","","","","","","4828.0999999940395","images/bush5.png","","","memory_trial","2","maybe_old","","","","","","",""
"html-keyboard-response","76","530181","0.0-15.0-0.17","1850","2","""event"",""trial"",""time""
""fullscreenenter"",""1"",""6463""
""blur"",""4"",""40010""
""focus"",""4"",""44345""
""fullscreenexit"",""4"",""48454""
""blur"",""4"",""67155""
""focus"",""4"",""94565""
","""event"",""trial"",""time""
""blur"",""4"",""40010""
""blur"",""4"",""67155""
","""event"",""trial"",""time""
""focus"",""4"",""44345""
""focus"",""4"",""94565""
","""event"",""trial"",""time""
""fullscreenenter"",""1"",""6463""
","""event"",""trial"",""time""
""fullscreenexit"",""4"",""48454""
","","","","","","null","<div style=""font-size:60px;"">+</div>","null","","fixation","","","","","","","","",""
"memory-trial","77","534392","0.0-15.0-1.17","1850","2","""event"",""trial"",""time""
""fullscreenenter"",""1"",""6463""
""blur"",""4"",""40010""
""focus"",""4"",""44345""
""fullscreenexit"",""4"",""48454""
""blur"",""4"",""67155""
""focus"",""4"",""94565""
","""event"",""trial"",""time""
""blur"",""4"",""40010""
""blur"",""4"",""67155""
","""event"",""trial"",""time""
""focus"",""4"",""44345""
""focus"",""4"",""94565""
","""event"",""trial"",""time""
""fullscreenenter"",""1"",""6463""
","""event"",""trial"",""time""
""fullscreenexit"",""4"",""48454""
","","","","","","3208","images/boat2.png","","","memory_trial","2","maybe_old","","","","","","",""
"html-keyboard-response","78","534895","0.0-15.0-0.18","1850","2","""event"",""trial"",""time""
""fullscreenenter"",""1"",""6463""
""blur"",""4"",""40010""
""focus"",""4"",""44345""
""fullscreenexit"",""4"",""48454""
""blur"",""4"",""67155""
""focus"",""4"",""94565""
","""event"",""trial"",""time""
""blur"",""4"",""40010""
""blur"",""4"",""67155""
","""event"",""trial"",""time""
""focus"",""4"",""44345""
""focus"",""4"",""94565""
","""event"",""trial"",""time""
""fullscreenenter"",""1"",""6463""
","""event"",""trial"",""time""
""fullscreenexit"",""4"",""48454""
","","","","","","null","<div style=""font-size:60px;"">+</div>","null","","fixation","","","","","","","","",""
"memory-trial","79","537496","0.0-15.0-1.18","1850","2","""event"",""trial"",""time""
""fullscreenenter"",""1"",""6463""
""blur"",""4"",""40010""
""focus"",""4"",""44345""
""fullscreenexit"",""4"",""48454""
""blur"",""4"",""67155""
""focus"",""4"",""94565""
","""event"",""trial"",""time""
""blur"",""4"",""40010""
""blur"",""4"",""67155""
","""event"",""trial"",""time""
""focus"",""4"",""44345""
""focus"",""4"",""94565""
","""event"",""trial"",""time""
""fullscreenenter"",""1"",""6463""
","""event"",""trial"",""time""
""fullscreenexit"",""4"",""48454""
","","","","","","1596.5999999940395","images/dog4.png","","","memory_trial","2","maybe_old","","","","","","",""
"html-keyboard-response","80","537998","0.0-15.0-0.19","1850","2","""event"",""trial"",""time""
""fullscreenenter"",""1"",""6463""
""blur"",""4"",""40010""
""focus"",""4"",""44345""
""fullscreenexit"",""4"",""48454""
""blur"",""4"",""67155""
""focus"",""4"",""94565""
","""event"",""trial"",""time""
""blur"",""4"",""40010""
""blur"",""4"",""67155""
","""event"",""trial"",""time""
""focus"",""4"",""44345""
""focus"",""4"",""94565""
","""event"",""trial"",""time""
""fullscreenenter"",""1"",""6463""
","""event"",""trial"",""time""
""fullscreenexit"",""4"",""48454""
","","","","","","null","<div style=""font-size:60px;"">+</div>","null","","fixation","","","","","","","","",""
"memory-trial","81","540745","0.0-15.0-1.19","1850","2","""event"",""trial"",""time""
""fullscreenenter"",""1"",""6463""
""blur"",""4"",""40010""
""focus"",""4"",""44345""
""fullscreenexit"",""4"",""48454""
""blur"",""4"",""67155""
""focus"",""4"",""94565""
","""event"",""trial"",""time""
""blur"",""4"",""40010""
""blur"",""4"",""67155""
","""event"",""trial"",""time""
""focus"",""4"",""44345""
""focus"",""4"",""94565""
","""event"",""trial"",""time""
""fullscreenenter"",""1"",""6463""
","""event"",""trial"",""time""
""fullscreenexit"",""4"",""48454""
","","","","","","1728","images/horse3.png","","","memory_trial","3","maybe_new","","","","","","",""
"html-keyboard-response","82","541247","0.0-15.0-0.20","1850","2","""event"",""trial"",""time""
""fullscreenenter"",""1"",""6463""
""blur"",""4"",""40010""
""focus"",""4"",""44345""
""fullscreenexit"",""4"",""48454""
""blur"",""4"",""67155""
""focus"",""4"",""94565""
","""event"",""trial"",""time""
""blur"",""4"",""40010""
""blur"",""4"",""67155""
","""event"",""trial"",""time""
""focus"",""4"",""44345""
""focus"",""4"",""94565""
","""event"",""trial"",""time""
""fullscreenenter"",""1"",""6463""
","""event"",""trial"",""time""
""fullscreenexit"",""4"",""48454""
","","","","","","null","<div style=""font-size:60px;"">+</div>","null","","fixation","","","","","","","","",""
"memory-trial","83","545019","0.0-15.0-1.20","1850","2","""event"",""trial"",""time""
""fullscreenenter"",""1"",""6463""
""blur"",""4"",""40010""
""focus"",""4"",""44345""
""fullscreenexit"",""4"",""48454""
""blur"",""4"",""67155""
""focus"",""4"",""94565""
","""event"",""trial"",""time""
""blur"",""4"",""40010""
""blur"",""4"",""67155""
","""event"",""trial"",""time""
""focus"",""4"",""44345""
""focus"",""4"",""94565""
","""event"",""trial"",""time""
""fullscreenenter"",""1"",""6463""
","""event"",""trial"",""time""
""fullscreenexit"",""4"",""48454""
","","","","","","2768","images/cow4.png","","","memory_trial","2","maybe_old","","","","","","",""
"html-keyboard-response","84","545522","0.0-15.0-0.21","1850","2","""event"",""trial"",""time""
""fullscreenenter"",""1"",""6463""
""blur"",""4"",""40010""
""focus"",""4"",""44345""
""fullscreenexit"",""4"",""48454""
""blur"",""4"",""67155""
""focus"",""4"",""94565""
","""event"",""trial"",""time""
""blur"",""4"",""40010""
""blur"",""4"",""67155""
","""event"",""trial"",""time""
""focus"",""4"",""44345""
""focus"",""4"",""94565""
","""event"",""trial"",""time""
""fullscreenenter"",""1"",""6463""
","""event"",""trial"",""time""
""fullscreenexit"",""4"",""48454""
","","","","","","null","<div style=""font-size:60px;"">+</div>","null","","fixation","","","","","","","","",""
"memory-trial","85","548333","0.0-15.0-1.21","1850","2","""event"",""trial"",""time""
""fullscreenenter"",""1"",""6463""
""blur"",""4"",""40010""
""focus"",""4"",""44345""
""fullscreenexit"",""4"",""48454""
""blur"",""4"",""67155""
""focus"",""4"",""94565""
","""event"",""trial"",""time""
""blur"",""4"",""40010""
""blur"",""4"",""67155""
","""event"",""trial"",""time""
""focus"",""4"",""44345""
""focus"",""4"",""94565""
","""event"",""trial"",""time""
""fullscreenenter"",""1"",""6463""
","""event"",""trial"",""time""
""fullscreenexit"",""4"",""48454""
","","","","","","1806.5999999940395","images/truck3.png","","","memory_trial","3","maybe_new","","","","","","",""
"html-keyboard-response","86","548835","0.0-15.0-0.22","1850","2","""event"",""trial"",""time""
""fullscreenenter"",""1"",""6463""
""blur"",""4"",""40010""
""focus"",""4"",""44345""
""fullscreenexit"",""4"",""48454""
""blur"",""4"",""67155""
""focus"",""4"",""94565""
","""event"",""trial"",""time""
""blur"",""4"",""40010""
""blur"",""4"",""67155""
","""event"",""trial"",""time""
""focus"",""4"",""44345""
""focus"",""4"",""94565""
","""event"",""trial"",""time""
""fullscreenenter"",""1"",""6463""
","""event"",""trial"",""time""
""fullscreenexit"",""4"",""48454""
","","","","","","null","<div style=""font-size:60px;"">+</div>","null","","fixation","","","","","","","","",""
"memory-trial","87","552013","0.0-15.0-1.22","1850","2","""event"",""trial"",""time""
""fullscreenenter"",""1"",""6463""
""blur"",""4"",""40010""
""focus"",""4"",""44345""
""fullscreenexit"",""4"",""48454""
""blur"",""4"",""67155""
""focus"",""4"",""94565""
","""event"",""trial"",""time""
""blur"",""4"",""40010""
""blur"",""4"",""67155""
","""event"",""trial"",""time""
""focus"",""4"",""44345""
""focus"",""4"",""94565""
","""event"",""trial"",""time""
""fullscreenenter"",""1"",""6463""
","""event"",""trial"",""time""
""fullscreenexit"",""4"",""48454""
","","","","","","2174.300000011921","images/orange2.png","","","memory_trial","2","maybe_old","","","","","","",""
"html-keyboard-response","88","552515","0.0-15.0-0.23","1850","2","""event"",""trial"",""time""
""fullscreenenter"",""1"",""6463""
""blur"",""4"",""40010""
""focus"",""4"",""44345""
""fullscreenexit"",""4"",""48454""
""blur"",""4"",""67155""
""focus"",""4"",""94565""
","""event"",""trial"",""time""
""blur"",""4"",""40010""
""blur"",""4"",""67155""
","""event"",""trial"",""time""
""focus"",""4"",""44345""
""focus"",""4"",""94565""
","""event"",""trial"",""time""
""fullscreenenter"",""1"",""6463""
","""event"",""trial"",""time""
""fullscreenexit"",""4"",""48454""
","","","","","","null","<div style=""font-size:60px;"">+</div>","null","","fixation","","","","","","","","",""
"memory-trial","89","556147","0.0-15.0-1.23","1850","2","""event"",""trial"",""time""
""fullscreenenter"",""1"",""6463""
""blur"",""4"",""40010""
""focus"",""4"",""44345""
""fullscreenexit"",""4"",""48454""
""blur"",""4"",""67155""
""focus"",""4"",""94565""
","""event"",""trial"",""time""
""blur"",""4"",""40010""
""blur"",""4"",""67155""
","""event"",""trial"",""time""
""focus"",""4"",""44345""
""focus"",""4"",""94565""
","""event"",""trial"",""time""
""fullscreenenter"",""1"",""6463""
","""event"",""trial"",""time""
""fullscreenexit"",""4"",""48454""
","","","","","","2629.2999999970198","images/feline5.png","","","memory_trial","2","maybe_old","","","","","","",""
"html-keyboard-response","90","556649","0.0-15.0-0.24","1850","2","""event"",""trial"",""time""
""fullscreenenter"",""1"",""6463""
""blur"",""4"",""40010""
""focus"",""4"",""44345""
""fullscreenexit"",""4"",""48454""
""blur"",""4"",""67155""
""focus"",""4"",""94565""
","""event"",""trial"",""time""
""blur"",""4"",""40010""
""blur"",""4"",""67155""
","""event"",""trial"",""time""
""focus"",""4"",""44345""
""focus"",""4"",""94565""
","""event"",""trial"",""time""
""fullscreenenter"",""1"",""6463""
","""event"",""trial"",""time""
""fullscreenexit"",""4"",""48454""
","","","","","","null","<div style=""font-size:60px;"">+</div>","null","","fixation","","","","","","","","",""
"memory-trial","91","561011","0.0-15.0-1.24","1850","2","""event"",""trial"",""time""
""fullscreenenter"",""1"",""6463""
""blur"",""4"",""40010""
""focus"",""4"",""44345""
""fullscreenexit"",""4"",""48454""
""blur"",""4"",""67155""
""focus"",""4"",""94565""
","""event"",""trial"",""time""
""blur"",""4"",""40010""
""blur"",""4"",""67155""
","""event"",""trial"",""time""
""focus"",""4"",""44345""
""focus"",""4"",""94565""
","""event"",""trial"",""time""
""fullscreenenter"",""1"",""6463""
","""event"",""trial"",""time""
""fullscreenexit"",""4"",""48454""
","","","","","","3357.2999999970198","images/banana1.png","","","memory_trial","2","maybe_old","","","","","","",""
"html-keyboard-response","92","561513","0.0-15.0-0.25","1850","2","""event"",""trial"",""time""
""fullscreenenter"",""1"",""6463""
""blur"",""4"",""40010""
""focus"",""4"",""44345""
""fullscreenexit"",""4"",""48454""
""blur"",""4"",""67155""
""focus"",""4"",""94565""
","""event"",""trial"",""time""
""blur"",""4"",""40010""
""blur"",""4"",""67155""
","""event"",""trial"",""time""
""focus"",""4"",""44345""
""focus"",""4"",""94565""
","""event"",""trial"",""time""
""fullscreenenter"",""1"",""6463""
","""event"",""trial"",""time""
""fullscreenexit"",""4"",""48454""
","","","","","","null","<div style=""font-size:60px;"">+</div>","null","","fixation","","","","","","","","",""
"memory-trial","93","565004","0.0-15.0-1.25","1850","2","""event"",""trial"",""time""
""fullscreenenter"",""1"",""6463""
""blur"",""4"",""40010""
""focus"",""4"",""44345""
""fullscreenexit"",""4"",""48454""
""blur"",""4"",""67155""
""focus"",""4"",""94565""
","""event"",""trial"",""time""
""blur"",""4"",""40010""
""blur"",""4"",""67155""
","""event"",""trial"",""time""
""focus"",""4"",""44345""
""focus"",""4"",""94565""
","""event"",""trial"",""time""
""fullscreenenter"",""1"",""6463""
","""event"",""trial"",""time""
""fullscreenexit"",""4"",""48454""
","","","","","","2486.2999999970198","images/goat2.png","","","memory_trial","3","maybe_new","","","","","","",""
"html-keyboard-response","94","565508","0.0-15.0-0.26","1850","2","""event"",""trial"",""time""
""fullscreenenter"",""1"",""6463""
""blur"",""4"",""40010""
""focus"",""4"",""44345""
""fullscreenexit"",""4"",""48454""
""blur"",""4"",""67155""
""focus"",""4"",""94565""
","""event"",""trial"",""time""
""blur"",""4"",""40010""
""blur"",""4"",""67155""
","""event"",""trial"",""time""
""focus"",""4"",""44345""
""focus"",""4"",""94565""
","""event"",""trial"",""time""
""fullscreenenter"",""1"",""6463""
","""event"",""trial"",""time""
""fullscreenexit"",""4"",""48454""
","","","","","","null","<div style=""font-size:60px;"">+</div>","null","","fixation","","","","","","","","",""
"memory-trial","95","570909","0.0-15.0-1.26","1850","2","""event"",""trial"",""time""
""fullscreenenter"",""1"",""6463""
""blur"",""4"",""40010""
""focus"",""4"",""44345""
""fullscreenexit"",""4"",""48454""
""blur"",""4"",""67155""
""focus"",""4"",""94565""
","""event"",""trial"",""time""
""blur"",""4"",""40010""
""blur"",""4"",""67155""
","""event"",""trial"",""time""
""focus"",""4"",""44345""
""focus"",""4"",""94565""
","""event"",""trial"",""time""
""fullscreenenter"",""1"",""6463""
","""event"",""trial"",""time""
""fullscreenexit"",""4"",""48454""
","","","","","","4396.5999999940395","images/train1.png","","","memory_trial","2","maybe_old","","","","","","",""
"html-keyboard-response","96","571412","0.0-15.0-0.27","1850","2","""event"",""trial"",""time""
""fullscreenenter"",""1"",""6463""
""blur"",""4"",""40010""
""focus"",""4"",""44345""
""fullscreenexit"",""4"",""48454""
""blur"",""4"",""67155""
""focus"",""4"",""94565""
","""event"",""trial"",""time""
""blur"",""4"",""40010""
""blur"",""4"",""67155""
","""event"",""trial"",""time""
""focus"",""4"",""44345""
""focus"",""4"",""94565""
","""event"",""trial"",""time""
""fullscreenenter"",""1"",""6463""
","""event"",""trial"",""time""
""fullscreenexit"",""4"",""48454""
","","","","","","null","<div style=""font-size:60px;"">+</div>","null","","fixation","","","","","","","","",""
"memory-trial","97","575816","0.0-15.0-1.27","1850","2","""event"",""trial"",""time""
""fullscreenenter"",""1"",""6463""
""blur"",""4"",""40010""
""focus"",""4"",""44345""
""fullscreenexit"",""4"",""48454""
""blur"",""4"",""67155""
""focus"",""4"",""94565""
","""event"",""trial"",""time""
""blur"",""4"",""40010""
""blur"",""4"",""67155""
","""event"",""trial"",""time""
""focus"",""4"",""44345""
""focus"",""4"",""94565""
","""event"",""trial"",""time""
""fullscreenenter"",""1"",""6463""
","""event"",""trial"",""time""
""fullscreenexit"",""4"",""48454""
","","","","","","3399.9000000059605","images/apple3.png","","","memory_trial","2","maybe_old","","","","","","",""
"html-keyboard-response","98","576319","0.0-15.0-0.28","1850","2","""event"",""trial"",""time""
""fullscreenenter"",""1"",""6463""
""blur"",""4"",""40010""
""focus"",""4"",""44345""
""fullscreenexit"",""4"",""48454""
""blur"",""4"",""67155""
""focus"",""4"",""94565""
","""event"",""trial"",""time""
""blur"",""4"",""40010""
""blur"",""4"",""67155""
","""event"",""trial"",""time""
""focus"",""4"",""44345""
""focus"",""4"",""94565""
","""event"",""trial"",""time""
""fullscreenenter"",""1"",""6463""
","""event"",""trial"",""time""
""fullscreenexit"",""4"",""48454""
","","","","","","null","<div style=""font-size:60px;"">+</div>","null","","fixation","","","","","","","","",""
"memory-trial","99","579924","0.0-15.0-1.28","1850","2","""event"",""trial"",""time""
""fullscreenenter"",""1"",""6463""
""blur"",""4"",""40010""
""focus"",""4"",""44345""
""fullscreenexit"",""4"",""48454""
""blur"",""4"",""67155""
""focus"",""4"",""94565""
","""event"",""trial"",""time""
""blur"",""4"",""40010""
""blur"",""4"",""67155""
","""event"",""trial"",""time""
""focus"",""4"",""44345""
""focus"",""4"",""94565""
","""event"",""trial"",""time""
""fullscreenenter"",""1"",""6463""
","""event"",""trial"",""time""
""fullscreenexit"",""4"",""48454""
","","","","","","2601.2999999970198","images/horse5.png","","","memory_trial","3","maybe_new","","","","","","",""
"html-keyboard-response","100","580425","0.0-15.0-0.29","1850","2","""event"",""trial"",""time""
""fullscreenenter"",""1"",""6463""
""blur"",""4"",""40010""
""focus"",""4"",""44345""
""fullscreenexit"",""4"",""48454""
""blur"",""4"",""67155""
""focus"",""4"",""94565""
","""event"",""trial"",""time""
""blur"",""4"",""40010""
""blur"",""4"",""67155""
","""event"",""trial"",""time""
""focus"",""4"",""44345""
""focus"",""4"",""94565""
","""event"",""trial"",""time""
""fullscreenenter"",""1"",""6463""
","""event"",""trial"",""time""
""fullscreenexit"",""4"",""48454""
","","","","","","null","<div style=""font-size:60px;"">+</div>","null","","fixation","","","","","","","","",""
"memory-trial","101","584735","0.0-15.0-1.29","1850","2","""event"",""trial"",""time""
""fullscreenenter"",""1"",""6463""
""blur"",""4"",""40010""
""focus"",""4"",""44345""
""fullscreenexit"",""4"",""48454""
""blur"",""4"",""67155""
""focus"",""4"",""94565""
","""event"",""trial"",""time""
""blur"",""4"",""40010""
""blur"",""4"",""67155""
","""event"",""trial"",""time""
""focus"",""4"",""44345""
""focus"",""4"",""94565""
","""event"",""trial"",""time""
""fullscreenenter"",""1"",""6463""
","""event"",""trial"",""time""
""fullscreenexit"",""4"",""48454""
","","","","","","3305.5","images/cactus2.png","","","memory_trial","2","maybe_old","","","","","","",""
"html-keyboard-response","102","585237","0.0-15.0-0.30","1850","2","""event"",""trial"",""time""
""fullscreenenter"",""1"",""6463""
""blur"",""4"",""40010""
""focus"",""4"",""44345""
""fullscreenexit"",""4"",""48454""
""blur"",""4"",""67155""
""focus"",""4"",""94565""
","""event"",""trial"",""time""
""blur"",""4"",""40010""
""blur"",""4"",""67155""
","""event"",""trial"",""time""
""focus"",""4"",""44345""
""focus"",""4"",""94565""
","""event"",""trial"",""time""
""fullscreenenter"",""1"",""6463""
","""event"",""trial"",""time""
""fullscreenexit"",""4"",""48454""
","","","","","","null","<div style=""font-size:60px;"">+</div>","null","","fixation","","","","","","","","",""
"memory-trial","103","588433","0.0-15.0-1.30","1850","2","""event"",""trial"",""time""
""fullscreenenter"",""1"",""6463""
""blur"",""4"",""40010""
""focus"",""4"",""44345""
""fullscreenexit"",""4"",""48454""
""blur"",""4"",""67155""
""focus"",""4"",""94565""
","""event"",""trial"",""time""
""blur"",""4"",""40010""
""blur"",""4"",""67155""
","""event"",""trial"",""time""
""focus"",""4"",""44345""
""focus"",""4"",""94565""
","""event"",""trial"",""time""
""fullscreenenter"",""1"",""6463""
","""event"",""trial"",""time""
""fullscreenexit"",""4"",""48454""
","","","","","","2191.3999999910593","images/boat5.png","","","memory_trial","2","maybe_old","","","","","","",""
"html-keyboard-response","104","588935","0.0-15.0-0.31","1850","2","""event"",""trial"",""time""
""fullscreenenter"",""1"",""6463""
""blur"",""4"",""40010""
""focus"",""4"",""44345""
""fullscreenexit"",""4"",""48454""
""blur"",""4"",""67155""
""focus"",""4"",""94565""
","""event"",""trial"",""time""
""blur"",""4"",""40010""
""blur"",""4"",""67155""
","""event"",""trial"",""time""
""focus"",""4"",""44345""
""focus"",""4"",""94565""
","""event"",""trial"",""time""
""fullscreenenter"",""1"",""6463""
","""event"",""trial"",""time""
""fullscreenexit"",""4"",""48454""
","","","","","","null","<div style=""font-size:60px;"">+</div>","null","","fixation","","","","","","","","",""
"memory-trial","105","591987","0.0-15.0-1.31","1850","2","""event"",""trial"",""time""
""fullscreenenter"",""1"",""6463""
""blur"",""4"",""40010""
""focus"",""4"",""44345""
""fullscreenexit"",""4"",""48454""
""blur"",""4"",""67155""
""focus"",""4"",""94565""
","""event"",""trial"",""time""
""blur"",""4"",""40010""
""blur"",""4"",""67155""
","""event"",""trial"",""time""
""focus"",""4"",""44345""
""focus"",""4"",""94565""
","""event"",""trial"",""time""
""fullscreenenter"",""1"",""6463""
","""event"",""trial"",""time""
""fullscreenexit"",""4"",""48454""
","","","","","","2048.7000000029802","images/feline1.png","","","memory_trial","3","maybe_new","","","","","","",""
"html-keyboard-response","106","592489","0.0-15.0-0.32","1850","2","""event"",""trial"",""time""
""fullscreenenter"",""1"",""6463""
""blur"",""4"",""40010""
""focus"",""4"",""44345""
""fullscreenexit"",""4"",""48454""
""blur"",""4"",""67155""
""focus"",""4"",""94565""
","""event"",""trial"",""time""
""blur"",""4"",""40010""
""blur"",""4"",""67155""
","""event"",""trial"",""time""
""focus"",""4"",""44345""
""focus"",""4"",""94565""
","""event"",""trial"",""time""
""fullscreenenter"",""1"",""6463""
","""event"",""trial"",""time""
""fullscreenexit"",""4"",""48454""
","","","","","","null","<div style=""font-size:60px;"">+</div>","null","","fixation","","","","","","","","",""
"memory-trial","107","595218","0.0-15.0-1.32","1850","2","""event"",""trial"",""time""
""fullscreenenter"",""1"",""6463""
""blur"",""4"",""40010""
""focus"",""4"",""44345""
""fullscreenexit"",""4"",""48454""
""blur"",""4"",""67155""
""focus"",""4"",""94565""
","""event"",""trial"",""time""
""blur"",""4"",""40010""
""blur"",""4"",""67155""
","""event"",""trial"",""time""
""focus"",""4"",""44345""
""focus"",""4"",""94565""
","""event"",""trial"",""time""
""fullscreenenter"",""1"",""6463""
","""event"",""trial"",""time""
""fullscreenexit"",""4"",""48454""
","","","","","","1723.7000000029802","images/sofa2.png","","","memory_trial","2","maybe_old","","","","","","",""
"html-keyboard-response","108","595719","0.0-15.0-0.33","1850","2","""event"",""trial"",""time""
""fullscreenenter"",""1"",""6463""
""blur"",""4"",""40010""
""focus"",""4"",""44345""
""fullscreenexit"",""4"",""48454""
""blur"",""4"",""67155""
""focus"",""4"",""94565""
","""event"",""trial"",""time""
""blur"",""4"",""40010""
""blur"",""4"",""67155""
","""event"",""trial"",""time""
""focus"",""4"",""44345""
""focus"",""4"",""94565""
","""event"",""trial"",""time""
""fullscreenenter"",""1"",""6463""
","""event"",""trial"",""time""
""fullscreenexit"",""4"",""48454""
","","","","","","null","<div style=""font-size:60px;"">+</div>","null","","fixation","","","","","","","","",""
"memory-trial","109","598645","0.0-15.0-1.33","1850","2","""event"",""trial"",""time""
""fullscreenenter"",""1"",""6463""
""blur"",""4"",""40010""
""focus"",""4"",""44345""
""fullscreenexit"",""4"",""48454""
""blur"",""4"",""67155""
""focus"",""4"",""94565""
","""event"",""trial"",""time""
""blur"",""4"",""40010""
""blur"",""4"",""67155""
","""event"",""trial"",""time""
""focus"",""4"",""44345""
""focus"",""4"",""94565""
","""event"",""trial"",""time""
""fullscreenenter"",""1"",""6463""
","""event"",""trial"",""time""
""fullscreenexit"",""4"",""48454""
","","","","","","1920.7000000029802","images/sofa3.png","","","memory_trial","2","maybe_old","","","","","","",""
"html-keyboard-response","110","599147","0.0-15.0-0.34","1850","2","""event"",""trial"",""time""
""fullscreenenter"",""1"",""6463""
""blur"",""4"",""40010""
""focus"",""4"",""44345""
""fullscreenexit"",""4"",""48454""
""blur"",""4"",""67155""
""focus"",""4"",""94565""
","""event"",""trial"",""time""
""blur"",""4"",""40010""
""blur"",""4"",""67155""
","""event"",""trial"",""time""
""focus"",""4"",""44345""
""focus"",""4"",""94565""
","""event"",""trial"",""time""
""fullscreenenter"",""1"",""6463""
","""event"",""trial"",""time""
""fullscreenexit"",""4"",""48454""
","","","","","","null","<div style=""font-size:60px;"">+</div>","null","","fixation","","","","","","","","",""
"memory-trial","111","602294","0.0-15.0-1.34","1850","2","""event"",""trial"",""time""
""fullscreenenter"",""1"",""6463""
""blur"",""4"",""40010""
""focus"",""4"",""44345""
""fullscreenexit"",""4"",""48454""
""blur"",""4"",""67155""
""focus"",""4"",""94565""
","""event"",""trial"",""time""
""blur"",""4"",""40010""
""blur"",""4"",""67155""
","""event"",""trial"",""time""
""focus"",""4"",""44345""
""focus"",""4"",""94565""
","""event"",""trial"",""time""
""fullscreenenter"",""1"",""6463""
","""event"",""trial"",""time""
""fullscreenexit"",""4"",""48454""
","","","","","","2145.6000000089407","images/plane2.png","","","memory_trial","3","maybe_new","","","","","","",""
"html-keyboard-response","112","602797","0.0-15.0-0.35","1850","2","""event"",""trial"",""time""
""fullscreenenter"",""1"",""6463""
""blur"",""4"",""40010""
""focus"",""4"",""44345""
""fullscreenexit"",""4"",""48454""
""blur"",""4"",""67155""
""focus"",""4"",""94565""
","""event"",""trial"",""time""
""blur"",""4"",""40010""
""blur"",""4"",""67155""
","""event"",""trial"",""time""
""focus"",""4"",""44345""
""focus"",""4"",""94565""
","""event"",""trial"",""time""
""fullscreenenter"",""1"",""6463""
","""event"",""trial"",""time""
""fullscreenexit"",""4"",""48454""
","","","","","","null","<div style=""font-size:60px;"">+</div>","null","","fixation","","","","","","","","",""
"memory-trial","113","605800","0.0-15.0-1.35","1850","2","""event"",""trial"",""time""
""fullscreenenter"",""1"",""6463""
""blur"",""4"",""40010""
""focus"",""4"",""44345""
""fullscreenexit"",""4"",""48454""
""blur"",""4"",""67155""
""focus"",""4"",""94565""
","""event"",""trial"",""time""
""blur"",""4"",""40010""
""blur"",""4"",""67155""
","""event"",""trial"",""time""
""focus"",""4"",""44345""
""focus"",""4"",""94565""
","""event"",""trial"",""time""
""fullscreenenter"",""1"",""6463""
","""event"",""trial"",""time""
""fullscreenexit"",""4"",""48454""
","","","","","","1998","images/bed5.png","","","memory_trial","2","maybe_old","","","","","","",""
"html-keyboard-response","114","606302","0.0-15.0-0.36","1850","2","""event"",""trial"",""time""
""fullscreenenter"",""1"",""6463""
""blur"",""4"",""40010""
""focus"",""4"",""44345""
""fullscreenexit"",""4"",""48454""
""blur"",""4"",""67155""
""focus"",""4"",""94565""
","""event"",""trial"",""time""
""blur"",""4"",""40010""
""blur"",""4"",""67155""
","""event"",""trial"",""time""
""focus"",""4"",""44345""
""focus"",""4"",""94565""
","""event"",""trial"",""time""
""fullscreenenter"",""1"",""6463""
","""event"",""trial"",""time""
""fullscreenexit"",""4"",""48454""
","","","","","","null","<div style=""font-size:60px;"">+</div>","null","","fixation","","","","","","","","",""
"memory-trial","115","609018","0.0-15.0-1.36","1850","2","""event"",""trial"",""time""
""fullscreenenter"",""1"",""6463""
""blur"",""4"",""40010""
""focus"",""4"",""44345""
""fullscreenexit"",""4"",""48454""
""blur"",""4"",""67155""
""focus"",""4"",""94565""
","""event"",""trial"",""time""
""blur"",""4"",""40010""
""blur"",""4"",""67155""
","""event"",""trial"",""time""
""focus"",""4"",""44345""
""focus"",""4"",""94565""
","""event"",""trial"",""time""
""fullscreenenter"",""1"",""6463""
","""event"",""trial"",""time""
""fullscreenexit"",""4"",""48454""
","","","","","","1712.5999999940395","images/table4.png","","","memory_trial","2","maybe_old","","","","","","",""
"html-keyboard-response","116","609520","0.0-15.0-0.37","1850","2","""event"",""trial"",""time""
""fullscreenenter"",""1"",""6463""
""blur"",""4"",""40010""
""focus"",""4"",""44345""
""fullscreenexit"",""4"",""48454""
""blur"",""4"",""67155""
""focus"",""4"",""94565""
","""event"",""trial"",""time""
""blur"",""4"",""40010""
""blur"",""4"",""67155""
","""event"",""trial"",""time""
""focus"",""4"",""44345""
""focus"",""4"",""94565""
","""event"",""trial"",""time""
""fullscreenenter"",""1"",""6463""
","""event"",""trial"",""time""
""fullscreenexit"",""4"",""48454""
","","","","","","null","<div style=""font-size:60px;"">+</div>","null","","fixation","","","","","","","","",""
"memory-trial","117","612652","0.0-15.0-1.37","1850","2","""event"",""trial"",""time""
""fullscreenenter"",""1"",""6463""
""blur"",""4"",""40010""
""focus"",""4"",""44345""
""fullscreenexit"",""4"",""48454""
""blur"",""4"",""67155""
""focus"",""4"",""94565""
","""event"",""trial"",""time""
""blur"",""4"",""40010""
""blur"",""4"",""67155""
","""event"",""trial"",""time""
""focus"",""4"",""44345""
""focus"",""4"",""94565""
","""event"",""trial"",""time""
""fullscreenenter"",""1"",""6463""
","""event"",""trial"",""time""
""fullscreenexit"",""4"",""48454""
","","","","","","2127.800000011921","images/plane4.png","","","memory_trial","3","maybe_new","","","","","","",""
"html-keyboard-response","118","613155","0.0-15.0-0.38","1850","2","""event"",""trial"",""time""
""fullscreenenter"",""1"",""6463""
""blur"",""4"",""40010""
""focus"",""4"",""44345""
""fullscreenexit"",""4"",""48454""
""blur"",""4"",""67155""
""focus"",""4"",""94565""
","""event"",""trial"",""time""
""blur"",""4"",""40010""
""blur"",""4"",""67155""
","""event"",""trial"",""time""
""focus"",""4"",""44345""
""focus"",""4"",""94565""
","""event"",""trial"",""time""
""fullscreenenter"",""1"",""6463""
","""event"",""trial"",""time""
""fullscreenexit"",""4"",""48454""
","","","","","","null","<div style=""font-size:60px;"">+</div>","null","","fixation","","","","","","","","",""
"memory-trial","119","616282","0.0-15.0-1.38","1850","2","""event"",""trial"",""time""
""fullscreenenter"",""1"",""6463""
""blur"",""4"",""40010""
""focus"",""4"",""44345""
""fullscreenexit"",""4"",""48454""
""blur"",""4"",""67155""
""focus"",""4"",""94565""
","""event"",""trial"",""time""
""blur"",""4"",""40010""
""blur"",""4"",""67155""
","""event"",""trial"",""time""
""focus"",""4"",""44345""
""focus"",""4"",""94565""
","""event"",""trial"",""time""
""fullscreenenter"",""1"",""6463""
","""event"",""trial"",""time""
""fullscreenexit"",""4"",""48454""
","","","","","","2124.199999988079","images/horse1.png","","","memory_trial","3","maybe_new","","","","","","",""
"html-keyboard-response","120","616784","0.0-15.0-0.39","1850","2","""event"",""trial"",""time""
""fullscreenenter"",""1"",""6463""
""blur"",""4"",""40010""
""focus"",""4"",""44345""
""fullscreenexit"",""4"",""48454""
""blur"",""4"",""67155""
""focus"",""4"",""94565""
","""event"",""trial"",""time""
""blur"",""4"",""40010""
""blur"",""4"",""67155""
","""event"",""trial"",""time""
""focus"",""4"",""44345""
""focus"",""4"",""94565""
","""event"",""trial"",""time""
""fullscreenenter"",""1"",""6463""
","""event"",""trial"",""time""
""fullscreenexit"",""4"",""48454""
","","","","","","null","<div style=""font-size:60px;"">+</div>","null","","fixation","","","","","","","","",""
"memory-trial","121","620371","0.0-15.0-1.39","1850","2","""event"",""trial"",""time""
""fullscreenenter"",""1"",""6463""
""blur"",""4"",""40010""
""focus"",""4"",""44345""
""fullscreenexit"",""4"",""48454""
""blur"",""4"",""67155""
""focus"",""4"",""94565""
","""event"",""trial"",""time""
""blur"",""4"",""40010""
""blur"",""4"",""67155""
","""event"",""trial"",""time""
""focus"",""4"",""44345""
""focus"",""4"",""94565""
","""event"",""trial"",""time""
""fullscreenenter"",""1"",""6463""
","""event"",""trial"",""time""
""fullscreenexit"",""4"",""48454""
","","","","","","2582.699999988079","images/plane1.png","","","memory_trial","3","maybe_new","","","","","","",""
"html-keyboard-response","122","620872","0.0-15.0-0.40","1850","2","""event"",""trial"",""time""
""fullscreenenter"",""1"",""6463""
""blur"",""4"",""40010""
""focus"",""4"",""44345""
""fullscreenexit"",""4"",""48454""
""blur"",""4"",""67155""
""focus"",""4"",""94565""
","""event"",""trial"",""time""
""blur"",""4"",""40010""
""blur"",""4"",""67155""
","""event"",""trial"",""time""
""focus"",""4"",""44345""
""focus"",""4"",""94565""
","""event"",""trial"",""time""
""fullscreenenter"",""1"",""6463""
","""event"",""trial"",""time""
""fullscreenexit"",""4"",""48454""
","","","","","","null","<div style=""font-size:60px;"">+</div>","null","","fixation","","","","","","","","",""
"memory-trial","123","624474","0.0-15.0-1.40","1850","2","""event"",""trial"",""time""
""fullscreenenter"",""1"",""6463""
""blur"",""4"",""40010""
""focus"",""4"",""44345""
""fullscreenexit"",""4"",""48454""
""blur"",""4"",""67155""
""focus"",""4"",""94565""
","""event"",""trial"",""time""
""blur"",""4"",""40010""
""blur"",""4"",""67155""
","""event"",""trial"",""time""
""focus"",""4"",""44345""
""focus"",""4"",""94565""
","""event"",""trial"",""time""
""fullscreenenter"",""1"",""6463""
","""event"",""trial"",""time""
""fullscreenexit"",""4"",""48454""
","","","","","","2597.7000000029802","images/bush4.png","","","memory_trial","2","maybe_old","","","","","","",""
"html-keyboard-response","124","624976","0.0-15.0-0.41","1850","2","""event"",""trial"",""time""
""fullscreenenter"",""1"",""6463""
""blur"",""4"",""40010""
""focus"",""4"",""44345""
""fullscreenexit"",""4"",""48454""
""blur"",""4"",""67155""
""focus"",""4"",""94565""
","""event"",""trial"",""time""
""blur"",""4"",""40010""
""blur"",""4"",""67155""
","""event"",""trial"",""time""
""focus"",""4"",""44345""
""focus"",""4"",""94565""
","""event"",""trial"",""time""
""fullscreenenter"",""1"",""6463""
","""event"",""trial"",""time""
""fullscreenexit"",""4"",""48454""
","","","","","","null","<div style=""font-size:60px;"">+</div>","null","","fixation","","","","","","","","",""
"memory-trial","125","627999","0.0-15.0-1.41","1850","2","""event"",""trial"",""time""
""fullscreenenter"",""1"",""6463""
""blur"",""4"",""40010""
""focus"",""4"",""44345""
""fullscreenexit"",""4"",""48454""
""blur"",""4"",""67155""
""focus"",""4"",""94565""
","""event"",""trial"",""time""
""blur"",""4"",""40010""
""blur"",""4"",""67155""
","""event"",""trial"",""time""
""focus"",""4"",""44345""
""focus"",""4"",""94565""
","""event"",""trial"",""time""
""fullscreenenter"",""1"",""6463""
","""event"",""trial"",""time""
""fullscreenexit"",""4"",""48454""
","","","","","","2019.5","images/banana4.png","","","memory_trial","2","maybe_old","","","","","","",""
"html-keyboard-response","126","628502","0.0-15.0-0.42","1850","2","""event"",""trial"",""time""
""fullscreenenter"",""1"",""6463""
""blur"",""4"",""40010""
""focus"",""4"",""44345""
""fullscreenexit"",""4"",""48454""
""blur"",""4"",""67155""
""focus"",""4"",""94565""
","""event"",""trial"",""time""
""blur"",""4"",""40010""
""blur"",""4"",""67155""
","""event"",""trial"",""time""
""focus"",""4"",""44345""
""focus"",""4"",""94565""
","""event"",""trial"",""time""
""fullscreenenter"",""1"",""6463""
","""event"",""trial"",""time""
""fullscreenexit"",""4"",""48454""
","","","","","","null","<div style=""font-size:60px;"">+</div>","null","","fixation","","","","","","","","",""
"memory-trial","127","632317","0.0-15.0-1.42","1850","2","""event"",""trial"",""time""
""fullscreenenter"",""1"",""6463""
""blur"",""4"",""40010""
""focus"",""4"",""44345""
""fullscreenexit"",""4"",""48454""
""blur"",""4"",""67155""
""focus"",""4"",""94565""
","""event"",""trial"",""time""
""blur"",""4"",""40010""
""blur"",""4"",""67155""
","""event"",""trial"",""time""
""focus"",""4"",""44345""
""focus"",""4"",""94565""
","""event"",""trial"",""time""
""fullscreenenter"",""1"",""6463""
","""event"",""trial"",""time""
""fullscreenexit"",""4"",""48454""
","","","","","","2811.2000000029802","images/horse4.png","","","memory_trial","3","maybe_new","","","","","","",""
"html-keyboard-response","128","632820","0.0-15.0-0.43","1850","2","""event"",""trial"",""time""
""fullscreenenter"",""1"",""6463""
""blur"",""4"",""40010""
""focus"",""4"",""44345""
""fullscreenexit"",""4"",""48454""
""blur"",""4"",""67155""
""focus"",""4"",""94565""
","""event"",""trial"",""time""
""blur"",""4"",""40010""
""blur"",""4"",""67155""
","""event"",""trial"",""time""
""focus"",""4"",""44345""
""focus"",""4"",""94565""
","""event"",""trial"",""time""
""fullscreenenter"",""1"",""6463""
","""event"",""trial"",""time""
""fullscreenexit"",""4"",""48454""
","","","","","","null","<div style=""font-size:60px;"">+</div>","null","","fixation","","","","","","","","",""
"memory-trial","129","638467","0.0-15.0-1.43","1850","2","""event"",""trial"",""time""
""fullscreenenter"",""1"",""6463""
""blur"",""4"",""40010""
""focus"",""4"",""44345""
""fullscreenexit"",""4"",""48454""
""blur"",""4"",""67155""
""focus"",""4"",""94565""
","""event"",""trial"",""time""
""blur"",""4"",""40010""
""blur"",""4"",""67155""
","""event"",""trial"",""time""
""focus"",""4"",""44345""
""focus"",""4"",""94565""
","""event"",""trial"",""time""
""fullscreenenter"",""1"",""6463""
","""event"",""trial"",""time""
""fullscreenexit"",""4"",""48454""
","","","","","","4643","images/apple2.png","","","memory_trial","2","maybe_old","","","","","","",""
"html-keyboard-response","130","638969","0.0-15.0-0.44","1850","2","""event"",""trial"",""time""
""fullscreenenter"",""1"",""6463""
""blur"",""4"",""40010""
""focus"",""4"",""44345""
""fullscreenexit"",""4"",""48454""
""blur"",""4"",""67155""
""focus"",""4"",""94565""
","""event"",""trial"",""time""
""blur"",""4"",""40010""
""blur"",""4"",""67155""
","""event"",""trial"",""time""
""focus"",""4"",""44345""
""focus"",""4"",""94565""
","""event"",""trial"",""time""
""fullscreenenter"",""1"",""6463""
","""event"",""trial"",""time""
""fullscreenexit"",""4"",""48454""
","","","","","","null","<div style=""font-size:60px;"">+</div>","null","","fixation","","","","","","","","",""
"memory-trial","131","643431","0.0-15.0-1.44","1850","2","""event"",""trial"",""time""
""fullscreenenter"",""1"",""6463""
""blur"",""4"",""40010""
""focus"",""4"",""44345""
""fullscreenexit"",""4"",""48454""
""blur"",""4"",""67155""
""focus"",""4"",""94565""
","""event"",""trial"",""time""
""blur"",""4"",""40010""
""blur"",""4"",""67155""
","""event"",""trial"",""time""
""focus"",""4"",""44345""
""focus"",""4"",""94565""
","""event"",""trial"",""time""
""fullscreenenter"",""1"",""6463""
","""event"",""trial"",""time""
""fullscreenexit"",""4"",""48454""
","","","","","","3458.5","images/flower2.png","","","memory_trial","3","maybe_new","","","","","","",""
"html-keyboard-response","132","643933","0.0-15.0-0.45","1850","2","""event"",""trial"",""time""
""fullscreenenter"",""1"",""6463""
""blur"",""4"",""40010""
""focus"",""4"",""44345""
""fullscreenexit"",""4"",""48454""
""blur"",""4"",""67155""
""focus"",""4"",""94565""
","""event"",""trial"",""time""
""blur"",""4"",""40010""
""blur"",""4"",""67155""
","""event"",""trial"",""time""
""focus"",""4"",""44345""
""focus"",""4"",""94565""
","""event"",""trial"",""time""
""fullscreenenter"",""1"",""6463""
","""event"",""trial"",""time""
""fullscreenexit"",""4"",""48454""
","","","","","","null","<div style=""font-size:60px;"">+</div>","null","","fixation","","","","","","","","",""
"memory-trial","133","647119","0.0-15.0-1.45","1850","2","""event"",""trial"",""time""
""fullscreenenter"",""1"",""6463""
""blur"",""4"",""40010""
""focus"",""4"",""44345""
""fullscreenexit"",""4"",""48454""
""blur"",""4"",""67155""
""focus"",""4"",""94565""
","""event"",""trial"",""time""
""blur"",""4"",""40010""
""blur"",""4"",""67155""
","""event"",""trial"",""time""
""focus"",""4"",""44345""
""focus"",""4"",""94565""
","""event"",""trial"",""time""
""fullscreenenter"",""1"",""6463""
","""event"",""trial"",""time""
""fullscreenexit"",""4"",""48454""
","","","","","","2181","images/cactus4.png","","","memory_trial","2","maybe_old","","","","","","",""
"html-keyboard-response","134","647621","0.0-15.0-0.46","1850","2","""event"",""trial"",""time""
""fullscreenenter"",""1"",""6463""
""blur"",""4"",""40010""
""focus"",""4"",""44345""
""fullscreenexit"",""4"",""48454""
""blur"",""4"",""67155""
""focus"",""4"",""94565""
","""event"",""trial"",""time""
""blur"",""4"",""40010""
""blur"",""4"",""67155""
","""event"",""trial"",""time""
""focus"",""4"",""44345""
""focus"",""4"",""94565""
","""event"",""trial"",""time""
""fullscreenenter"",""1"",""6463""
","""event"",""trial"",""time""
""fullscreenexit"",""4"",""48454""
","","","","","","null","<div style=""font-size:60px;"">+</div>","null","","fixation","","","","","","","","",""
"memory-trial","135","651779","0.0-15.0-1.46","1850","2","""event"",""trial"",""time""
""fullscreenenter"",""1"",""6463""
""blur"",""4"",""40010""
""focus"",""4"",""44345""
""fullscreenexit"",""4"",""48454""
""blur"",""4"",""67155""
""focus"",""4"",""94565""
","""event"",""trial"",""time""
""blur"",""4"",""40010""
""blur"",""4"",""67155""
","""event"",""trial"",""time""
""focus"",""4"",""44345""
""focus"",""4"",""94565""
","""event"",""trial"",""time""
""fullscreenenter"",""1"",""6463""
","""event"",""trial"",""time""
""fullscreenexit"",""4"",""48454""
","","","","","","3154","images/goat5.png","","","memory_trial","3","maybe_new","","","","","","",""
"html-button-response","136","658279","0.0-15.0-2.46-0.46","1850","2","""event"",""trial"",""time""
""fullscreenenter"",""1"",""6463""
""blur"",""4"",""40010""
""focus"",""4"",""44345""
""fullscreenexit"",""4"",""48454""
""blur"",""4"",""67155""
""focus"",""4"",""94565""
","""event"",""trial"",""time""
""blur"",""4"",""40010""
""blur"",""4"",""67155""
","""event"",""trial"",""time""
""focus"",""4"",""44345""
""focus"",""4"",""94565""
","""event"",""trial"",""time""
""fullscreenenter"",""1"",""6463""
","""event"",""trial"",""time""
""fullscreenexit"",""4"",""48454""
","","","","","","6497.70000000298","<p> Take a break! </p><p> Click the button to continue. </p>","0","","break","","","","","","","","",""
"html-keyboard-response","137","658781","0.0-15.0-0.47","1850","2","""event"",""trial"",""time""
""fullscreenenter"",""1"",""6463""
""blur"",""4"",""40010""
""focus"",""4"",""44345""
""fullscreenexit"",""4"",""48454""
""blur"",""4"",""67155""
""focus"",""4"",""94565""
","""event"",""trial"",""time""
""blur"",""4"",""40010""
""blur"",""4"",""67155""
","""event"",""trial"",""time""
""focus"",""4"",""44345""
""focus"",""4"",""94565""
","""event"",""trial"",""time""
""fullscreenenter"",""1"",""6463""
","""event"",""trial"",""time""
""fullscreenexit"",""4"",""48454""
","","","","","","null","<div style=""font-size:60px;"">+</div>","null","","fixation","","","","","","","","",""
"memory-trial","138","663622","0.0-15.0-1.47","1850","2","""event"",""trial"",""time""
""fullscreenenter"",""1"",""6463""
""blur"",""4"",""40010""
""focus"",""4"",""44345""
""fullscreenexit"",""4"",""48454""
""blur"",""4"",""67155""
""focus"",""4"",""94565""
","""event"",""trial"",""time""
""blur"",""4"",""40010""
""blur"",""4"",""67155""
","""event"",""trial"",""time""
""focus"",""4"",""44345""
""focus"",""4"",""94565""
","""event"",""trial"",""time""
""fullscreenenter"",""1"",""6463""
","""event"",""trial"",""time""
""fullscreenexit"",""4"",""48454""
","","","","","","3835.9000000059605","images/sofa1.png","","","memory_trial","2","maybe_old","","","","","","",""
"html-keyboard-response","139","664126","0.0-15.0-0.48","1850","2","""event"",""trial"",""time""
""fullscreenenter"",""1"",""6463""
""blur"",""4"",""40010""
""focus"",""4"",""44345""
""fullscreenexit"",""4"",""48454""
""blur"",""4"",""67155""
""focus"",""4"",""94565""
","""event"",""trial"",""time""
""blur"",""4"",""40010""
""blur"",""4"",""67155""
","""event"",""trial"",""time""
""focus"",""4"",""44345""
""focus"",""4"",""94565""
","""event"",""trial"",""time""
""fullscreenenter"",""1"",""6463""
","""event"",""trial"",""time""
""fullscreenexit"",""4"",""48454""
","","","","","","null","<div style=""font-size:60px;"">+</div>","null","","fixation","","","","","","","","",""
"memory-trial","140","669685","0.0-15.0-1.48","1850","2","""event"",""trial"",""time""
""fullscreenenter"",""1"",""6463""
""blur"",""4"",""40010""
""focus"",""4"",""44345""
""fullscreenexit"",""4"",""48454""
""blur"",""4"",""67155""
""focus"",""4"",""94565""
","""event"",""trial"",""time""
""blur"",""4"",""40010""
""blur"",""4"",""67155""
","""event"",""trial"",""time""
""focus"",""4"",""44345""
""focus"",""4"",""94565""
","""event"",""trial"",""time""
""fullscreenenter"",""1"",""6463""
","""event"",""trial"",""time""
""fullscreenexit"",""4"",""48454""
","","","","","","4554.5999999940395","images/cactus5.png","","","memory_trial","3","maybe_new","","","","","","",""
"html-keyboard-response","141","670187","0.0-15.0-0.49","1850","2","""event"",""trial"",""time""
""fullscreenenter"",""1"",""6463""
""blur"",""4"",""40010""
""focus"",""4"",""44345""
""fullscreenexit"",""4"",""48454""
""blur"",""4"",""67155""
""focus"",""4"",""94565""
","""event"",""trial"",""time""
""blur"",""4"",""40010""
""blur"",""4"",""67155""
","""event"",""trial"",""time""
""focus"",""4"",""44345""
""focus"",""4"",""94565""
","""event"",""trial"",""time""
""fullscreenenter"",""1"",""6463""
