"trial_type","trial_index","time_elapsed","internal_node_id","subject_id","task_version","interactions","blur_events","focus_events","fullscreenenter_events","fullscreenexit_events","success","timeout","failed_images","failed_audio","failed_video","rt","stimulus","response","button_pressed","task_part","key_press","answer","correct","left_choice","middle_choice","right_choice","choice_positions","option_selected","block"
"pavlovia","0","3","0.0-0.0","1918","2","""event"",""trial"",""time""
""fullscreenenter"",""1"",""1619""
","
","
","""event"",""trial"",""time""
""fullscreenenter"",""1"",""1619""
","
","","","","","","","","","","","","","","","","","","",""
"fullscreen","1","2581","0.0-1.0","1918","2","""event"",""trial"",""time""
""fullscreenenter"",""1"",""1619""
","
","
","""event"",""trial"",""time""
""fullscreenenter"",""1"",""1619""
","
","true","","","","","","","","","","","","","","","","","",""
"preload","2","3775","0.0-2.0","1918","2","""event"",""trial"",""time""
""fullscreenenter"",""1"",""1619""
","
","
","""event"",""trial"",""time""
""fullscreenenter"",""1"",""1619""
","
","true","false","[]","[]","[]","","","","","","","","","","","","","",""
"audio-keyboard-response","3","5101","0.0-3.0","1918","2","""event"",""trial"",""time""
""fullscreenenter"",""1"",""1619""
","
","
","""event"",""trial"",""time""
""fullscreenenter"",""1"",""1619""
","
","","","","","","1322.666666666667","audio/beep_loop.wav"," ","","","","","","","","","","",""
"audio-button-response","4","6382","0.0-4.0","1918","2","""event"",""trial"",""time""
""fullscreenenter"",""1"",""1619""
","
","
","""event"",""trial"",""time""
""fullscreenenter"",""1"",""1619""
","
","","","","","","1280","audio/turtle.wav","3","","","","","","","","","","",""
"audio-button-response","5","8252","0.0-5.0","1918","2","""event"",""trial"",""time""
""fullscreenenter"",""1"",""1619""
","
","
","""event"",""trial"",""time""
""fullscreenenter"",""1"",""1619""
","
","","","","","","864","audio/shark.wav","2","","","","","","","","","","",""
"preload","6","15312","0.0-6.0","1918","2","""event"",""trial"",""time""
""fullscreenenter"",""1"",""1619""
","
","
","""event"",""trial"",""time""
""fullscreenenter"",""1"",""1619""
","
","true","false","[]","[]","[]","","","","","","","","","","","","","",""
"learning-instructions","7","20934","0.0-7.0-0.0","1918","2","""event"",""trial"",""time""
""fullscreenenter"",""1"",""1619""
","
","
","""event"",""trial"",""time""
""fullscreenenter"",""1"",""1619""
","
","","","","","","814.8000000119209","<p> Welcome back! </p><p> Last week, you had to make choices about lots of different items.  </p>","","0","instructions","","","","","","","","",""
"learning-instructions","8","25720","0.0-7.0-0.1","1918","2","""event"",""trial"",""time""
""fullscreenenter"",""1"",""1619""
","
","
","""event"",""trial"",""time""
""fullscreenenter"",""1"",""1619""
","
","","","","","","487.69999998807907","<p> Today, we are going to ask you to try to remember all the items. </p>","","0","instructions","","","","","","","","",""
"learning-instructions","9","36336","0.0-7.0-0.2","1918","2","""event"",""trial"",""time""
""fullscreenenter"",""1"",""1619""
","
","
","""event"",""trial"",""time""
""fullscreenenter"",""1"",""1619""
","
","","","","","","478.90000000596046","<p> On every trial, you will see an image. </p><p> The image may be an OLD image you saw during the games last week or it may be a NEW image that was not presented. </p>","","0","instructions","","","","","","","","",""
"learning-instructions","10","45314","0.0-7.0-0.3","1918","2","""event"",""trial"",""time""
""fullscreenenter"",""1"",""1619""
","
","
","""event"",""trial"",""time""
""fullscreenenter"",""1"",""1619""
","
","","","","","","480","<p> You need to select whether the image is:  </p><p>  'Definitely old', 'Maybe old', 'Maybe new', or 'Definitely new.'  </p><div class=""mem-choice-instructions-grid""><div class=""choice-option"" id=""choice-option-1"" ><img src=""images/definitely_old_1.png"" id=""choice-option-img-1"" class=""choice-option-img"" stage=""1""></div><div class=""choice-option"" id=""choice-option-2"" ><img src=""images/maybe_old_1.png"" id=""choice-option-img-2"" class=""choice-option-img"" stage=""1""></div><div class=""choice-option"" id=""choice-option-3"" ><img src=""images/maybe_new_1.png"" id=""choice-option-img-3"" class=""choice-option-img"" stage=""1""></div><div class=""choice-option"" id=""choice-option-4"" > <img src=""images/definitely_new_1.png"" id=""choice-option-img-4"" class=""choice-option-img"" stage=""1""></div></div>","","0","instructions","","","","","","","","",""
"learning-instructions","11","66141","0.0-7.0-0.4","1918","2","""event"",""trial"",""time""
""fullscreenenter"",""1"",""1619""
","
","
","""event"",""trial"",""time""
""fullscreenenter"",""1"",""1619""
","
","","","","","","14133.699999988079","<p> You should use the 1, 2, 3, and 4 keys to make your responses.  </p><div class=""mem-choice-instructions-grid""><div class=""choice-option"" id=""choice-option-1"" ><img src=""images/definitely_old.png"" id=""choice-option-img-1"" class=""choice-option-img"" stage=""1""></div><div class=""choice-option"" id=""choice-option-2"" ><img src=""images/maybe_old.png"" id=""choice-option-img-2"" class=""choice-option-img"" stage=""1""></div><div class=""choice-option"" id=""choice-option-3"" ><img src=""images/maybe_new.png"" id=""choice-option-img-3"" class=""choice-option-img"" stage=""1""></div><div class=""choice-option"" id=""choice-option-4"" > <img src=""images/definitely_new.png"" id=""choice-option-img-4"" class=""choice-option-img"" stage=""1""></div></div>","","0","instructions","","","","","","","","",""
"learning-instructions","12","73596","0.0-7.0-0.5","1918","2","""event"",""trial"",""time""
""fullscreenenter"",""1"",""1619""
","
","
","""event"",""trial"",""time""
""fullscreenenter"",""1"",""1619""
","
","","","","","","699.9000000059605","<p> You will have 10 seconds to make each response.  </p><p>  Make sure to respond before time runs out! </p>","","0","instructions","","","","","","","","",""
"learning-instructions","13","81815","0.0-7.0-0.6","1918","2","""event"",""trial"",""time""
""fullscreenenter"",""1"",""1619""
","
","
","""event"",""trial"",""time""
""fullscreenenter"",""1"",""1619""
","
","","","","","","636.8000000119209","<p> Today, you will see each image ONCE only.  </p><p>  That means none of the images will repeat. </p>","","0","instructions","","","","","","","","",""
"learning-instructions","14","150999","0.0-7.0-0.7","1918","2","""event"",""trial"",""time""
""fullscreenenter"",""1"",""1619""
","
","
","""event"",""trial"",""time""
""fullscreenenter"",""1"",""1619""
","
","","","","","","56513","<p> Before you play the real game, it is time to practice. </p><p>  Just like in the real game, some of the images in the practice will be ones you have seen before. </p><p>  Others will be entirely new. </p>","","0","instructions","","","","","","","","",""
"html-button-response","15","191050","0.0-8.0","1918","2","""event"",""trial"",""time""
""fullscreenenter"",""1"",""1619""
","
","
","""event"",""trial"",""time""
""fullscreenenter"",""1"",""1619""
","
","","","","","","39947.70000001788","<p> Ready to practice? </p><p> Remember, use the 1, 2, 3, and 4 keys to make your responses. </p>","0","","instructions","","","","","","","","",""
"html-keyboard-response","16","191654","0.0-9.0-0.0","1918","2","""event"",""trial"",""time""
""fullscreenenter"",""1"",""1619""
","
","
","""event"",""trial"",""time""
""fullscreenenter"",""1"",""1619""
","
","","","","","","null","<div style=""font-size:60px;"">+</div>","null","","fixation","","","","","","","","",""
"memory-trial","17","196886","0.0-9.0-1.0","1918","2","""event"",""trial"",""time""
""fullscreenenter"",""1"",""1619""
","
","
","""event"",""trial"",""time""
""fullscreenenter"",""1"",""1619""
","
","","","","","","4226.5","images/ball1.png","","","practice","3","maybe_new","","","","","","",""
"html-keyboard-response","18","197393","0.0-9.0-0.1","1918","2","""event"",""trial"",""time""
""fullscreenenter"",""1"",""1619""
","
","
","""event"",""trial"",""time""
""fullscreenenter"",""1"",""1619""
","
","","","","","","null","<div style=""font-size:60px;"">+</div>","null","","fixation","","","","","","","","",""
"memory-trial","19","200817","0.0-9.0-1.1","1918","2","""event"",""trial"",""time""
""fullscreenenter"",""1"",""1619""
","
","
","""event"",""trial"",""time""
""fullscreenenter"",""1"",""1619""
","
","","","","","","2417","images/racket3.png","","","practice","1","definitely_old","","","","","","",""
"html-keyboard-response","20","201318","0.0-9.0-0.2","1918","2","""event"",""trial"",""time""
""fullscreenenter"",""1"",""1619""
","
","
","""event"",""trial"",""time""
""fullscreenenter"",""1"",""1619""
","
","","","","","","null","<div style=""font-size:60px;"">+</div>","null","","fixation","","","","","","","","",""
"memory-trial","21","203900","0.0-9.0-1.2","1918","2","""event"",""trial"",""time""
""fullscreenenter"",""1"",""1619""
","
","
","""event"",""trial"",""time""
""fullscreenenter"",""1"",""1619""
","
","","","","","","1577.4000000059605","images/racket2.png","","","practice","1","definitely_old","","","","","","",""
"html-keyboard-response","22","204401","0.0-9.0-0.3","1918","2","""event"",""trial"",""time""
""fullscreenenter"",""1"",""1619""
","
","
","""event"",""trial"",""time""
""fullscreenenter"",""1"",""1619""
","
","","","","","","null","<div style=""font-size:60px;"">+</div>","null","","fixation","","","","","","","","",""
"memory-trial","23","207217","0.0-9.0-1.3","1918","2","""event"",""trial"",""time""
""fullscreenenter"",""1"",""1619""
","
","
","""event"",""trial"",""time""
""fullscreenenter"",""1"",""1619""
","
","","","","","","1809.5999999940395","images/ball3.png","","","practice","4","definitely_new","","","","","","",""
"html-keyboard-response","24","207723","0.0-9.0-0.4","1918","2","""event"",""trial"",""time""
""fullscreenenter"",""1"",""1619""
","
","
","""event"",""trial"",""time""
""fullscreenenter"",""1"",""1619""
","
","","","","","","null","<div style=""font-size:60px;"">+</div>","null","","fixation","","","","","","","","",""
"memory-trial","25","209951","0.0-9.0-1.4","1918","2","""event"",""trial"",""time""
""fullscreenenter"",""1"",""1619""
","
","
","""event"",""trial"",""time""
""fullscreenenter"",""1"",""1619""
","
","","","","","","1221.9000000059605","images/ball2.png","","","practice","2","maybe_old","","","","","","",""
"html-keyboard-response","26","210454","0.0-9.0-0.5","1918","2","""event"",""trial"",""time""
""fullscreenenter"",""1"",""1619""
","
","
","""event"",""trial"",""time""
""fullscreenenter"",""1"",""1619""
","
","","","","","","null","<div style=""font-size:60px;"">+</div>","null","","fixation","","","","","","","","",""
"memory-trial","27","212801","0.0-9.0-1.5","1918","2","""event"",""trial"",""time""
""fullscreenenter"",""1"",""1619""
","
","
","""event"",""trial"",""time""
""fullscreenenter"",""1"",""1619""
","
","","","","","","1343.1000000238419","images/racket1.png","","","practice","3","maybe_new","","","","","","",""
"html-keyboard-response","28","213302","0.0-9.0-0.6","1918","2","""event"",""trial"",""time""
""fullscreenenter"",""1"",""1619""
","
","
","""event"",""trial"",""time""
""fullscreenenter"",""1"",""1619""
","
","","","","","","null","<div style=""font-size:60px;"">+</div>","null","","fixation","","","","","","","","",""
"memory-trial","29","216449","0.0-9.0-1.6","1918","2","""event"",""trial"",""time""
""fullscreenenter"",""1"",""1619""
","
","
","""event"",""trial"",""time""
""fullscreenenter"",""1"",""1619""
","
","","","","","","2142.0999999940395","images/racket4.png","","","practice","2","maybe_old","","","","","","",""
"html-keyboard-response","30","216950","0.0-9.0-0.7","1918","2","""event"",""trial"",""time""
""fullscreenenter"",""1"",""1619""
","
","
","""event"",""trial"",""time""
""fullscreenenter"",""1"",""1619""
","
","","","","","","null","<div style=""font-size:60px;"">+</div>","null","","fixation","","","","","","","","",""
"memory-trial","31","219521","0.0-9.0-1.7","1918","2","""event"",""trial"",""time""
""fullscreenenter"",""1"",""1619""
","
","
","""event"",""trial"",""time""
""fullscreenenter"",""1"",""1619""
","
","","","","","","1564.8999999761581","images/ball4.png","","","practice","3","maybe_new","","","","","","",""
"learning-instructions","32","229289","0.0-10.0-0.0","1918","2","""event"",""trial"",""time""
""fullscreenenter"",""1"",""1619""
","
","
","""event"",""trial"",""time""
""fullscreenenter"",""1"",""1619""
","
","","","","","","1760.5","<p> Great! You have completed the practice. </p><p> Before you start, we're going to ask you a few questions about how the game works.  </p>","","0","instructions","","","","","","","","",""
"preload","33","234128","0.0-11.0","1918","2","""event"",""trial"",""time""
""fullscreenenter"",""1"",""1619""
","
","
","""event"",""trial"",""time""
""fullscreenenter"",""1"",""1619""
","
","true","false","[]","[]","[]","","","","","","","","","","","","","",""
"comp-q","34","241638","0.0-12.0-0.0","1918","2","""event"",""trial"",""time""
""fullscreenenter"",""1"",""1619""
","
","
","""event"",""trial"",""time""
""fullscreenenter"",""1"",""1619""
","
","","","","","","1682.5","<p> <b> True or False? </b> </p><p> In this game, you will only see each image once. </p>","","0","comp_question","","","true","","","","","",""
"comp-q","35","248907","0.0-12.0-1.0","1918","2","""event"",""trial"",""time""
""fullscreenenter"",""1"",""1619""
","
","
","""event"",""trial"",""time""
""fullscreenenter"",""1"",""1619""
","
","","","","","","930.3999999761581","<p> <b> That's right! </b> You will see many different images <i> one time each </i> in this game. </p>","","0","comp_answer","","","","","","","","",""
"comp-q","36","255342","0.0-12.0-0.1","1918","2","""event"",""trial"",""time""
""fullscreenenter"",""1"",""1619""
","
","
","""event"",""trial"",""time""
""fullscreenenter"",""1"",""1619""
","
","","","","","","633.1999999880791","<p> <b> True or False? </b> </p><p> You should use the mouse and click to make your response. </p>","","1","comp_question","","","true","","","","","",""
"comp-q","37","267326","0.0-12.0-1.1","1918","2","""event"",""trial"",""time""
""fullscreenenter"",""1"",""1619""
","
","
","""event"",""trial"",""time""
""fullscreenenter"",""1"",""1619""
","
","","","","","","4639.9000000059605","<p><b> That's right! </b> You should use the '1', '2', '3', and '4' keys to make your response. </p>","","0","comp_answer","","","","","","","","",""
"comp-q","38","274299","0.0-12.0-0.2","1918","2","""event"",""trial"",""time""
""fullscreenenter"",""1"",""1619""
","
","
","""event"",""trial"",""time""
""fullscreenenter"",""1"",""1619""
","
","","","","","","978.3999999761581","<p> <b> True or False? </b> </p><p> You will have as much time as you want to make each choice. </p>","","1","comp_question","","","true","","","","","",""
"comp-q","39","285832","0.0-12.0-1.2","1918","2","""event"",""trial"",""time""
""fullscreenenter"",""1"",""1619""
","
","
","""event"",""trial"",""time""
""fullscreenenter"",""1"",""1619""
","
","","","","","","6144","<p> <b> That's right! </b> You will only have 10 seconds to make each choice. </p>","","0","comp_answer","","","","","","","","",""
"learning-instructions","40","296187","0.0-13.0","1918","2","""event"",""trial"",""time""
""fullscreenenter"",""1"",""1619""
","
","
","""event"",""trial"",""time""
""fullscreenenter"",""1"",""1619""
","
","","","","","","1688","<p> Great! You are now ready to begin the game. </p><p> Remember, use the 1, 2, 3, and 4 keys to make your responses. </p>","","0","instructions","","","","","","","","",""
"preload","41","300366","0.0-14.0","1918","2","""event"",""trial"",""time""
""fullscreenenter"",""1"",""1619""
","
","
","""event"",""trial"",""time""
""fullscreenenter"",""1"",""1619""
","
","true","false","[]","[]","[]","","","","","","","","","","","","","",""
"html-keyboard-response","42","300868","0.0-15.0-0.0","1918","2","""event"",""trial"",""time""
""fullscreenenter"",""1"",""1619""
","
","
","""event"",""trial"",""time""
""fullscreenenter"",""1"",""1619""
","
","","","","","","null","<div style=""font-size:60px;"">+</div>","null","","fixation","","","","","","","","",""
"memory-trial","43","304360","0.0-15.0-1.0","1918","2","""event"",""trial"",""time""
""fullscreenenter"",""1"",""1619""
","
","
","""event"",""trial"",""time""
""fullscreenenter"",""1"",""1619""
","
","","","","","","2485","images/banana1.png","","","memory_trial","4","definitely_new","","","","","","",""
"html-keyboard-response","44","304864","0.0-15.0-0.1","1918","2","""event"",""trial"",""time""
""fullscreenenter"",""1"",""1619""
","
","
","""event"",""trial"",""time""
""fullscreenenter"",""1"",""1619""
","
","","","","","","null","<div style=""font-size:60px;"">+</div>","null","","fixation","","","","","","","","",""
"memory-trial","45","307524","0.0-15.0-1.1","1918","2","""event"",""trial"",""time""
""fullscreenenter"",""1"",""1619""
","
","
","""event"",""trial"",""time""
""fullscreenenter"",""1"",""1619""
","
","","","","","","1654.4000000059605","images/sofa3.png","","","memory_trial","1","definitely_old","","","","","","",""
"html-keyboard-response","46","308030","0.0-15.0-0.2","1918","2","""event"",""trial"",""time""
""fullscreenenter"",""1"",""1619""
","
","
","""event"",""trial"",""time""
""fullscreenenter"",""1"",""1619""
","
","","","","","","null","<div style=""font-size:60px;"">+</div>","null","","fixation","","","","","","","","",""
"memory-trial","47","310242","0.0-15.0-1.2","1918","2","""event"",""trial"",""time""
""fullscreenenter"",""1"",""1619""
","
","
","""event"",""trial"",""time""
""fullscreenenter"",""1"",""1619""
","
","","","","","","1205.5","images/bush3.png","","","memory_trial","4","definitely_new","","","","","","",""
"html-keyboard-response","48","310746","0.0-15.0-0.3","1918","2","""event"",""trial"",""time""
""fullscreenenter"",""1"",""1619""
","
","
","""event"",""trial"",""time""
""fullscreenenter"",""1"",""1619""
","
","","","","","","null","<div style=""font-size:60px;"">+</div>","null","","fixation","","","","","","","","",""
"memory-trial","49","312948","0.0-15.0-1.3","1918","2","""event"",""trial"",""time""
""fullscreenenter"",""1"",""1619""
","
","
","""event"",""trial"",""time""
""fullscreenenter"",""1"",""1619""
","
","","","","","","1196.5","images/boat4.png","","","memory_trial","4","definitely_new","","","","","","",""
"html-keyboard-response","50","313452","0.0-15.0-0.4","1918","2","""event"",""trial"",""time""
""fullscreenenter"",""1"",""1619""
","
","
","""event"",""trial"",""time""
""fullscreenenter"",""1"",""1619""
","
","","","","","","null","<div style=""font-size:60px;"">+</div>","null","","fixation","","","","","","","","",""
"memory-trial","51","315721","0.0-15.0-1.4","1918","2","""event"",""trial"",""time""
""fullscreenenter"",""1"",""1619""
","
","
","""event"",""trial"",""time""
""fullscreenenter"",""1"",""1619""
","
","","","","","","1261.699999988079","images/chair4.png","","","memory_trial","4","definitely_new","","","","","","",""
"html-keyboard-response","52","316223","0.0-15.0-0.5","1918","2","""event"",""trial"",""time""
""fullscreenenter"",""1"",""1619""
","
","
","""event"",""trial"",""time""
""fullscreenenter"",""1"",""1619""
","
","","","","","","null","<div style=""font-size:60px;"">+</div>","null","","fixation","","","","","","","","",""
"memory-trial","53","318464","0.0-15.0-1.5","1918","2","""event"",""trial"",""time""
""fullscreenenter"",""1"",""1619""
","
","
","""event"",""trial"",""time""
""fullscreenenter"",""1"",""1619""
","
","","","","","","1236.699999988079","images/straw2.png","","","memory_trial","1","definitely_old","","","","","","",""
"html-keyboard-response","54","318966","0.0-15.0-0.6","1918","2","""event"",""trial"",""time""
""fullscreenenter"",""1"",""1619""
","
","
","""event"",""trial"",""time""
""fullscreenenter"",""1"",""1619""
","
","","","","","","null","<div style=""font-size:60px;"">+</div>","null","","fixation","","","","","","","","",""
"memory-trial","55","320985","0.0-15.0-1.6","1918","2","""event"",""trial"",""time""
""fullscreenenter"",""1"",""1619""
","
","
","""event"",""trial"",""time""
""fullscreenenter"",""1"",""1619""
","
","","","","","","1015.4000000059605","images/apple5.png","","","memory_trial","1","definitely_old","","","","","","",""
"html-keyboard-response","56","321489","0.0-15.0-0.7","1918","2","""event"",""trial"",""time""
""fullscreenenter"",""1"",""1619""
","
","
","""event"",""trial"",""time""
""fullscreenenter"",""1"",""1619""
","
","","","","","","null","<div style=""font-size:60px;"">+</div>","null","","fixation","","","","","","","","",""
"memory-trial","57","323432","0.0-15.0-1.7","1918","2","""event"",""trial"",""time""
""fullscreenenter"",""1"",""1619""
","
","
","""event"",""trial"",""time""
""fullscreenenter"",""1"",""1619""
","
","","","","","","937.7000000178814","images/sheep5.png","","","memory_trial","1","definitely_old","","","","","","",""
"html-keyboard-response","58","323937","0.0-15.0-0.8","1918","2","""event"",""trial"",""time""
""fullscreenenter"",""1"",""1619""
","
","
","""event"",""trial"",""time""
""fullscreenenter"",""1"",""1619""
","
","","","","","","null","<div style=""font-size:60px;"">+</div>","null","","fixation","","","","","","","","",""
"memory-trial","59","325912","0.0-15.0-1.8","1918","2","""event"",""trial"",""time""
""fullscreenenter"",""1"",""1619""
","
","
","""event"",""trial"",""time""
""fullscreenenter"",""1"",""1619""
","
","","","","","","968.4000000059605","images/feline5.png","","","memory_trial","4","definitely_new","","","","","","",""
"html-keyboard-response","60","326416","0.0-15.0-0.9","1918","2","""event"",""trial"",""time""
""fullscreenenter"",""1"",""1619""
","
","
","""event"",""trial"",""time""
""fullscreenenter"",""1"",""1619""
","
","","","","","","null","<div style=""font-size:60px;"">+</div>","null","","fixation","","","","","","","","",""
"memory-trial","61","328175","0.0-15.0-1.9","1918","2","""event"",""trial"",""time""
""fullscreenenter"",""1"",""1619""
","
","
","""event"",""trial"",""time""
""fullscreenenter"",""1"",""1619""
","
","","","","","","755","images/sheep3.png","","","memory_trial","1","definitely_old","","","","","","",""
"html-keyboard-response","62","328680","0.0-15.0-0.10","1918","2","""event"",""trial"",""time""
""fullscreenenter"",""1"",""1619""
","
","
","""event"",""trial"",""time""
""fullscreenenter"",""1"",""1619""
","
","","","","","","null","<div style=""font-size:60px;"">+</div>","null","","fixation","","","","","","","","",""
"memory-trial","63","330824","0.0-15.0-1.10","1918","2","""event"",""trial"",""time""
""fullscreenenter"",""1"",""1619""
","
","
","""event"",""trial"",""time""
""fullscreenenter"",""1"",""1619""
","
","","","","","","1140.800000011921","images/cow2.png","","","memory_trial","4","definitely_new","","","","","","",""
"html-keyboard-response","64","331325","0.0-15.0-0.11","1918","2","""event"",""trial"",""time""
""fullscreenenter"",""1"",""1619""
","
","
","""event"",""trial"",""time""
""fullscreenenter"",""1"",""1619""
","
","","","","","","null","<div style=""font-size:60px;"">+</div>","null","","fixation","","","","","","","","",""
"memory-trial","65","333363","0.0-15.0-1.11","1918","2","""event"",""trial"",""time""
""fullscreenenter"",""1"",""1619""
","
","
","""event"",""trial"",""time""
""fullscreenenter"",""1"",""1619""
","
","","","","","","1034.5","images/bush5.png","","","memory_trial","4","definitely_new","","","","","","",""
"html-keyboard-response","66","333864","0.0-15.0-0.12","1918","2","""event"",""trial"",""time""
""fullscreenenter"",""1"",""1619""
","
","
","""event"",""trial"",""time""
""fullscreenenter"",""1"",""1619""
","
","","","","","","null","<div style=""font-size:60px;"">+</div>","null","","fixation","","","","","","","","",""
"memory-trial","67","335882","0.0-15.0-1.12","1918","2","""event"",""trial"",""time""
""fullscreenenter"",""1"",""1619""
","
","
","""event"",""trial"",""time""
""fullscreenenter"",""1"",""1619""
","
","","","","","","1014.7999999821186","images/rodent2.png","","","memory_trial","1","definitely_old","","","","","","",""
"html-keyboard-response","68","336387","0.0-15.0-0.13","1918","2","""event"",""trial"",""time""
""fullscreenenter"",""1"",""1619""
","
","
","""event"",""trial"",""time""
""fullscreenenter"",""1"",""1619""
","
","","","","","","null","<div style=""font-size:60px;"">+</div>","null","","fixation","","","","","","","","",""
"memory-trial","69","339997","0.0-15.0-1.13","1918","2","""event"",""trial"",""time""
""fullscreenenter"",""1"",""1619""
","
","
","""event"",""trial"",""time""
""fullscreenenter"",""1"",""1619""
","
","","","","","","2607.9000000059605","images/flower5.png","","","memory_trial","3","maybe_new","","","","","","",""
"html-keyboard-response","70","340499","0.0-15.0-0.14","1918","2","""event"",""trial"",""time""
""fullscreenenter"",""1"",""1619""
","
","
","""event"",""trial"",""time""
""fullscreenenter"",""1"",""1619""
","
","","","","","","null","<div style=""font-size:60px;"">+</div>","null","","fixation","","","","","","","","",""
"memory-trial","71","345192","0.0-15.0-1.14","1918","2","""event"",""trial"",""time""
""fullscreenenter"",""1"",""1619""
","
","
","""event"",""trial"",""time""
""fullscreenenter"",""1"",""1619""
","
","","","","","","3687.5","images/dog2.png","","","memory_trial","2","maybe_old","","","","","","",""
"html-keyboard-response","72","345693","0.0-15.0-0.15","1918","2","""event"",""trial"",""time""
""fullscreenenter"",""1"",""1619""
","
","
","""event"",""trial"",""time""
""fullscreenenter"",""1"",""1619""
","
","","","","","","null","<div style=""font-size:60px;"">+</div>","null","","fixation","","","","","","","","",""
"memory-trial","73","347827","0.0-15.0-1.15","1918","2","""event"",""trial"",""time""
""fullscreenenter"",""1"",""1619""
","
","
","""event"",""trial"",""time""
""fullscreenenter"",""1"",""1619""
","
","","","","","","1128.0999999940395","images/bed5.png","","","memory_trial","4","definitely_new","","","","","","",""
"html-keyboard-response","74","348328","0.0-15.0-0.16","1918","2","""event"",""trial"",""time""
""fullscreenenter"",""1"",""1619""
","
","
","""event"",""trial"",""time""
""fullscreenenter"",""1"",""1619""
","
","","","","","","null","<div style=""font-size:60px;"">+</div>","null","","fixation","","","","","","","","",""
"memory-trial","75","351352","0.0-15.0-1.16","1918","2","""event"",""trial"",""time""
""fullscreenenter"",""1"",""1619""
","
","
","""event"",""trial"",""time""
""fullscreenenter"",""1"",""1619""
","
","","","","","","2017.7999999821186","images/rabbit1.png","","","memory_trial","3","maybe_new","","","","","","",""
"html-keyboard-response","76","351853","0.0-15.0-0.17","1918","2","""event"",""trial"",""time""
""fullscreenenter"",""1"",""1619""
","
","
","""event"",""trial"",""time""
""fullscreenenter"",""1"",""1619""
","
","","","","","","null","<div style=""font-size:60px;"">+</div>","null","","fixation","","","","","","","","",""
"memory-trial","77","354168","0.0-15.0-1.17","1918","2","""event"",""trial"",""time""
""fullscreenenter"",""1"",""1619""
","
","
","""event"",""trial"",""time""
""fullscreenenter"",""1"",""1619""
","
","","","","","","1311.7999999821186","images/dog1.png","","","memory_trial","1","definitely_old","","","","","","",""
"html-keyboard-response","78","354669","0.0-15.0-0.18","1918","2","""event"",""trial"",""time""
""fullscreenenter"",""1"",""1619""
","
","
","""event"",""trial"",""time""
""fullscreenenter"",""1"",""1619""
","
","","","","","","null","<div style=""font-size:60px;"">+</div>","null","","fixation","","","","","","","","",""
"memory-trial","79","356600","0.0-15.0-1.18","1918","2","""event"",""trial"",""time""
""fullscreenenter"",""1"",""1619""
","
","
","""event"",""trial"",""time""
""fullscreenenter"",""1"",""1619""
","
","","","","","","925.3000000119209","images/cow3.png","","","memory_trial","1","definitely_old","","","","","","",""
"html-keyboard-response","80","357101","0.0-15.0-0.19","1918","2","""event"",""trial"",""time""
""fullscreenenter"",""1"",""1619""
","
","
","""event"",""trial"",""time""
""fullscreenenter"",""1"",""1619""
","
","","","","","","null","<div style=""font-size:60px;"">+</div>","null","","fixation","","","","","","","","",""
"memory-trial","81","358974","0.0-15.0-1.19","1918","2","""event"",""trial"",""time""
""fullscreenenter"",""1"",""1619""
","
","
","""event"",""trial"",""time""
""fullscreenenter"",""1"",""1619""
","
","","","","","","867.4000000059605","images/truck3.png","","","memory_trial","1","definitely_old","","","","","","",""
"html-keyboard-response","82","359475","0.0-15.0-0.20","1918","2","""event"",""trial"",""time""
""fullscreenenter"",""1"",""1619""
","
","
","""event"",""trial"",""time""
""fullscreenenter"",""1"",""1619""
","
","","","","","","null","<div style=""font-size:60px;"">+</div>","null","","fixation","","","","","","","","",""
"memory-trial","83","361534","0.0-15.0-1.20","1918","2","""event"",""trial"",""time""
""fullscreenenter"",""1"",""1619""
","
","
","""event"",""trial"",""time""
""fullscreenenter"",""1"",""1619""
","
","","","","","","1055.2000000178814","images/feline4.png","","","memory_trial","4","definitely_new","","","","","","",""
"html-keyboard-response","84","362035","0.0-15.0-0.21","1918","2","""event"",""trial"",""time""
""fullscreenenter"",""1"",""1619""
","
","
","""event"",""trial"",""time""
""fullscreenenter"",""1"",""1619""
","
","","","","","","null","<div style=""font-size:60px;"">+</div>","null","","fixation","","","","","","","","",""
"memory-trial","85","365188","0.0-15.0-1.21","1918","2","""event"",""trial"",""time""
""fullscreenenter"",""1"",""1619""
","
","
","""event"",""trial"",""time""
""fullscreenenter"",""1"",""1619""
","
","","","","","","2148.9000000059605","images/flower4.png","","","memory_trial","1","definitely_old","","","","","","",""
"html-keyboard-response","86","365694","0.0-15.0-0.22","1918","2","""event"",""trial"",""time""
""fullscreenenter"",""1"",""1619""
","
","
","""event"",""trial"",""time""
""fullscreenenter"",""1"",""1619""
","
","","","","","","null","<div style=""font-size:60px;"">+</div>","null","","fixation","","","","","","","","",""
"memory-trial","87","367709","0.0-15.0-1.22","1918","2","""event"",""trial"",""time""
""fullscreenenter"",""1"",""1619""
","
","
","""event"",""trial"",""time""
""fullscreenenter"",""1"",""1619""
","
","","","","","","1011.1999999880791","images/truck5.png","","","memory_trial","4","definitely_new","","","","","","",""
"html-keyboard-response","88","368211","0.0-15.0-0.23","1918","2","""event"",""trial"",""time""
""fullscreenenter"",""1"",""1619""
","
","
","""event"",""trial"",""time""
""fullscreenenter"",""1"",""1619""
","
","","","","","","null","<div style=""font-size:60px;"">+</div>","null","","fixation","","","","","","","","",""
"memory-trial","89","370638","0.0-15.0-1.23","1918","2","""event"",""trial"",""time""
""fullscreenenter"",""1"",""1619""
","
","
","""event"",""trial"",""time""
""fullscreenenter"",""1"",""1619""
","
","","","","","","1423.9000000059605","images/flower1.png","","","memory_trial","2","maybe_old","","","","","","",""
"html-keyboard-response","90","371139","0.0-15.0-0.24","1918","2","""event"",""trial"",""time""
""fullscreenenter"",""1"",""1619""
","
","
","""event"",""trial"",""time""
""fullscreenenter"",""1"",""1619""
","
","","","","","","null","<div style=""font-size:60px;"">+</div>","null","","fixation","","","","","","","","",""
"memory-trial","91","374766","0.0-15.0-1.24","1918","2","""event"",""trial"",""time""
""fullscreenenter"",""1"",""1619""
","
","
","""event"",""trial"",""time""
""fullscreenenter"",""1"",""1619""
","
","","","","","","2621.5","images/bed1.png","","","memory_trial","3","maybe_new","","","","","","",""
"html-keyboard-response","92","375268","0.0-15.0-0.25","1918","2","""event"",""trial"",""time""
""fullscreenenter"",""1"",""1619""
","
","
","""event"",""trial"",""time""
""fullscreenenter"",""1"",""1619""
","
","","","","","","null","<div style=""font-size:60px;"">+</div>","null","","fixation","","","","","","","","",""
"memory-trial","93","377518","0.0-15.0-1.25","1918","2","""event"",""trial"",""time""
""fullscreenenter"",""1"",""1619""
","
","
","""event"",""trial"",""time""
""fullscreenenter"",""1"",""1619""
","
","","","","","","1244.300000011921","images/flower3.png","","","memory_trial","2","maybe_old","","","","","","",""
"html-keyboard-response","94","378019","0.0-15.0-0.26","1918","2","""event"",""trial"",""time""
""fullscreenenter"",""1"",""1619""
","
","
","""event"",""trial"",""time""
""fullscreenenter"",""1"",""1619""
","
","","","","","","null","<div style=""font-size:60px;"">+</div>","null","","fixation","","","","","","","","",""
"memory-trial","95","380152","0.0-15.0-1.26","1918","2","""event"",""trial"",""time""
""fullscreenenter"",""1"",""1619""
","
","
","""event"",""trial"",""time""
""fullscreenenter"",""1"",""1619""
","
","","","","","","1126.5","images/plane5.png","","","memory_trial","4","definitely_new","","","","","","",""
"html-keyboard-response","96","380654","0.0-15.0-0.27","1918","2","""event"",""trial"",""time""
""fullscreenenter"",""1"",""1619""
","
","
","""event"",""trial"",""time""
""fullscreenenter"",""1"",""1619""
","
","","","","","","null","<div style=""font-size:60px;"">+</div>","null","","fixation","","","","","","","","",""
"memory-trial","97","383551","0.0-15.0-1.27","1918","2","""event"",""trial"",""time""
""fullscreenenter"",""1"",""1619""
","
","
","""event"",""trial"",""time""
""fullscreenenter"",""1"",""1619""
","
","","","","","","1891.8999999761581","images/table3.png","","","memory_trial","4","definitely_new","","","","","","",""
"html-keyboard-response","98","384056","0.0-15.0-0.28","1918","2","""event"",""trial"",""time""
""fullscreenenter"",""1"",""1619""
","
","
","""event"",""trial"",""time""
""fullscreenenter"",""1"",""1619""
","
","","","","","","null","<div style=""font-size:60px;"">+</div>","null","","fixation","","","","","","","","",""
"memory-trial","99","386761","0.0-15.0-1.28","1918","2","""event"",""trial"",""time""
""fullscreenenter"",""1"",""1619""
","
","
","""event"",""trial"",""time""
""fullscreenenter"",""1"",""1619""
","
","","","","","","1700.9000000059605","images/straw4.png","","","memory_trial","2","maybe_old","","","","","","",""
"html-keyboard-response","100","387262","0.0-15.0-0.29","1918","2","""event"",""trial"",""time""
""fullscreenenter"",""1"",""1619""
","
","
","""event"",""trial"",""time""
""fullscreenenter"",""1"",""1619""
","
","","","","","","null","<div style=""font-size:60px;"">+</div>","null","","fixation","","","","","","","","",""
"memory-trial","101","389102","0.0-15.0-1.29","1918","2","""event"",""trial"",""time""
""fullscreenenter"",""1"",""1619""
","
","
","""event"",""trial"",""time""
""fullscreenenter"",""1"",""1619""
","
","","","","","","832.4000000059605","images/bush2.png","","","memory_trial","4","definitely_new","","","","","","",""
"html-keyboard-response","102","389603","0.0-15.0-0.30","1918","2","""event"",""trial"",""time""
""fullscreenenter"",""1"",""1619""
","
","
","""event"",""trial"",""time""
""fullscreenenter"",""1"",""1619""
","
","","","","","","null","<div style=""font-size:60px;"">+</div>","null","","fixation","","","","","","","","",""
"memory-trial","103","392280","0.0-15.0-1.30","1918","2","""event"",""trial"",""time""
""fullscreenenter"",""1"",""1619""
","
","
","""event"",""trial"",""time""
""fullscreenenter"",""1"",""1619""
","
","","","","","","1671.4000000059605","images/orange1.png","","","memory_trial","3","maybe_new","","","","","","",""
"html-keyboard-response","104","392782","0.0-15.0-0.31","1918","2","""event"",""trial"",""time""
""fullscreenenter"",""1"",""1619""
","
","
","""event"",""trial"",""time""
""fullscreenenter"",""1"",""1619""
","
","","","","","","null","<div style=""font-size:60px;"">+</div>","null","","fixation","","","","","","","","",""
"memory-trial","105","394947","0.0-15.0-1.31","1918","2","""event"",""trial"",""time""
""fullscreenenter"",""1"",""1619""
","
","
","""event"",""trial"",""time""
""fullscreenenter"",""1"",""1619""
","
","","","","","","1161.8999999761581","images/horse4.png","","","memory_trial","4","definitely_new","","","","","","",""
"html-keyboard-response","106","395448","0.0-15.0-0.32","1918","2","""event"",""trial"",""time""
""fullscreenenter"",""1"",""1619""
","
","
","""event"",""trial"",""time""
""fullscreenenter"",""1"",""1619""
","
","","","","","","null","<div style=""font-size:60px;"">+</div>","null","","fixation","","","","","","","","",""
"memory-trial","107","397820","0.0-15.0-1.32","1918","2","""event"",""trial"",""time""
""fullscreenenter"",""1"",""1619""
","
","
","""event"",""trial"",""time""
""fullscreenenter"",""1"",""1619""
","
","","","","","","1364","images/tree3.png","","","memory_trial","4","definitely_new","","","","","","",""
"html-keyboard-response","108","398323","0.0-15.0-0.33","1918","2","""event"",""trial"",""time""
""fullscreenenter"",""1"",""1619""
","
","
","""event"",""trial"",""time""
""fullscreenenter"",""1"",""1619""
","
","","","","","","null","<div style=""font-size:60px;"">+</div>","null","","fixation","","","","","","","","",""
"memory-trial","109","400569","0.0-15.0-1.33","1918","2","""event"",""trial"",""time""
""fullscreenenter"",""1"",""1619""
","
","
","""event"",""trial"",""time""
""fullscreenenter"",""1"",""1619""
","
","","","","","","1239.6000000238419","images/plane3.png","","","memory_trial","4","definitely_new","","","","","","",""
"html-keyboard-response","110","401070","0.0-15.0-0.34","1918","2","""event"",""trial"",""time""
""fullscreenenter"",""1"",""1619""
","
","
","""event"",""trial"",""time""
""fullscreenenter"",""1"",""1619""
","
","","","","","","null","<div style=""font-size:60px;"">+</div>","null","","fixation","","","","","","","","",""
"memory-trial","111","403278","0.0-15.0-1.34","1918","2","""event"",""trial"",""time""
""fullscreenenter"",""1"",""1619""
","
","
","""event"",""trial"",""time""
""fullscreenenter"",""1"",""1619""
","
","","","","","","1200.4000000059605","images/straw1.png","","","memory_trial","1","definitely_old","","","","","","",""
"html-keyboard-response","112","403781","0.0-15.0-0.35","1918","2","""event"",""trial"",""time""
""fullscreenenter"",""1"",""1619""
","
","
","""event"",""trial"",""time""
""fullscreenenter"",""1"",""1619""
","
","","","","","","null","<div style=""font-size:60px;"">+</div>","null","","fixation","","","","","","","","",""
"memory-trial","113","406377","0.0-15.0-1.35","1918","2","""event"",""trial"",""time""
""fullscreenenter"",""1"",""1619""
","
","
","""event"",""trial"",""time""
""fullscreenenter"",""1"",""1619""
","
","","","","","","1591.800000011921","images/sofa1.png","","","memory_trial","3","maybe_new","","","","","","",""
"html-keyboard-response","114","406878","0.0-15.0-0.36","1918","2","""event"",""trial"",""time""
""fullscreenenter"",""1"",""1619""
","
","
","""event"",""trial"",""time""
""fullscreenenter"",""1"",""1619""
","
","","","","","","null","<div style=""font-size:60px;"">+</div>","null","","fixation","","","","","","","","",""
"memory-trial","115","409294","0.0-15.0-1.36","1918","2","""event"",""trial"",""time""
""fullscreenenter"",""1"",""1619""
","
","
","""event"",""trial"",""time""
""fullscreenenter"",""1"",""1619""
","
","","","","","","1412.8999999761581","images/tree1.png","","","memory_trial","1","definitely_old","","","","","","",""
"html-keyboard-response","116","409795","0.0-15.0-0.37","1918","2","""event"",""trial"",""time""
""fullscreenenter"",""1"",""1619""
","
","
","""event"",""trial"",""time""
""fullscreenenter"",""1"",""1619""
","
","","","","","","null","<div style=""font-size:60px;"">+</div>","null","","fixation","","","","","","","","",""
"memory-trial","117","412153","0.0-15.0-1.37","1918","2","""event"",""trial"",""time""
""fullscreenenter"",""1"",""1619""
","
","
","""event"",""trial"",""time""
""fullscreenenter"",""1"",""1619""
","
","","","","","","1352.7000000178814","images/chair3.png","","","memory_trial","2","maybe_old","","","","","","",""
"html-keyboard-response","118","412654","0.0-15.0-0.38","1918","2","""event"",""trial"",""time""
""fullscreenenter"",""1"",""1619""
","
","
","""event"",""trial"",""time""
""fullscreenenter"",""1"",""1619""
","
","","","","","","null","<div style=""font-size:60px;"">+</div>","null","","fixation","","","","","","","","",""
"memory-trial","119","415112","0.0-15.0-1.38","1918","2","""event"",""trial"",""time""
""fullscreenenter"",""1"",""1619""
","
","
","""event"",""trial"",""time""
""fullscreenenter"",""1"",""1619""
","
","","","","","","1453.2999999821186","images/apple1.png","","","memory_trial","1","definitely_old","","","","","","",""
"html-keyboard-response","120","415614","0.0-15.0-0.39","1918","2","""event"",""trial"",""time""
""fullscreenenter"",""1"",""1619""
","
","
","""event"",""trial"",""time""
""fullscreenenter"",""1"",""1619""
","
","","","","","","null","<div style=""font-size:60px;"">+</div>","null","","fixation","","","","","","","","",""
"memory-trial","121","418014","0.0-15.0-1.39","1918","2","""event"",""trial"",""time""
""fullscreenenter"",""1"",""1619""
","
","
","""event"",""trial"",""time""
""fullscreenenter"",""1"",""1619""
","
","","","","","","1396","images/train5.png","","","memory_trial","1","definitely_old","","","","","","",""
"html-keyboard-response","122","418515","0.0-15.0-0.40","1918","2","""event"",""trial"",""time""
""fullscreenenter"",""1"",""1619""
","
","
","""event"",""trial"",""time""
""fullscreenenter"",""1"",""1619""
","
","","","","","","null","<div style=""font-size:60px;"">+</div>","null","","fixation","","","","","","","","",""
"memory-trial","123","420417","0.0-15.0-1.40","1918","2","""event"",""trial"",""time""
""fullscreenenter"",""1"",""1619""
","
","
","""event"",""trial"",""time""
""fullscreenenter"",""1"",""1619""
","
","","","","","","899","images/goat1.png","","","memory_trial","4","definitely_new","","","","","","",""
"html-keyboard-response","124","420921","0.0-15.0-0.41","1918","2","""event"",""trial"",""time""
""fullscreenenter"",""1"",""1619""
","
","
","""event"",""trial"",""time""
""fullscreenenter"",""1"",""1619""
","
","","","","","","null","<div style=""font-size:60px;"">+</div>","null","","fixation","","","","","","","","",""
"memory-trial","125","422910","0.0-15.0-1.41","1918","2","""event"",""trial"",""time""
""fullscreenenter"",""1"",""1619""
","
","
","""event"",""trial"",""time""
""fullscreenenter"",""1"",""1619""
","
","","","","","","985.5999999940395","images/chair2.png","","","memory_trial","1","definitely_old","","","","","","",""
"html-keyboard-response","126","423411","0.0-15.0-0.42","1918","2","""event"",""trial"",""time""
""fullscreenenter"",""1"",""1619""
","
","
","""event"",""trial"",""time""
""fullscreenenter"",""1"",""1619""
","
","","","","","","null","<div style=""font-size:60px;"">+</div>","null","","fixation","","","","","","","","",""
"memory-trial","127","426046","0.0-15.0-1.42","1918","2","""event"",""trial"",""time""
""fullscreenenter"",""1"",""1619""
","
","
","""event"",""trial"",""time""
""fullscreenenter"",""1"",""1619""
","
","","","","","","1629.699999988079","images/orange2.png","","","memory_trial","2","maybe_old","","","","","","",""
"html-keyboard-response","128","426547","0.0-15.0-0.43","1918","2","""event"",""trial"",""time""
""fullscreenenter"",""1"",""1619""
","
","
","""event"",""trial"",""time""
""fullscreenenter"",""1"",""1619""
","
","","","","","","null","<div style=""font-size:60px;"">+</div>","null","","fixation","","","","","","","","",""
"memory-trial","129","428788","0.0-15.0-1.43","1918","2","""event"",""trial"",""time""
""fullscreenenter"",""1"",""1619""
","
","
","""event"",""trial"",""time""
""fullscreenenter"",""1"",""1619""
","
","","","","","","1234.800000011921","images/truck2.png","","","memory_trial","3","maybe_new","","","","","","",""
"html-keyboard-response","130","429289","0.0-15.0-0.44","1918","2","""event"",""trial"",""time""
""fullscreenenter"",""1"",""1619""
","
","
","""event"",""trial"",""time""
""fullscreenenter"",""1"",""1619""
","
","","","","","","null","<div style=""font-size:60px;"">+</div>","null","","fixation","","","","","","","","",""
"memory-trial","131","431636","0.0-15.0-1.44","1918","2","""event"",""trial"",""time""
""fullscreenenter"",""1"",""1619""
","
","
","""event"",""trial"",""time""
""fullscreenenter"",""1"",""1619""
","
","","","","","","1344","images/flower2.png","","","memory_trial","3","maybe_new","","","","","","",""
"html-keyboard-response","132","432142","0.0-15.0-0.45","1918","2","""event"",""trial"",""time""
""fullscreenenter"",""1"",""1619""
","
","
","""event"",""trial"",""time""
""fullscreenenter"",""1"",""1619""
","
","","","","","","null","<div style=""font-size:60px;"">+</div>","null","","fixation","","","","","","","","",""
"memory-trial","133","434196","0.0-15.0-1.45","1918","2","""event"",""trial"",""time""
""fullscreenenter"",""1"",""1619""
","
","
","""event"",""trial"",""time""
""fullscreenenter"",""1"",""1619""
","
","","","","","","1051.199999988079","images/goat2.png","","","memory_trial","4","definitely_new","","","","","","",""
"html-keyboard-response","134","434701","0.0-15.0-0.46","1918","2","""event"",""trial"",""time""
""fullscreenenter"",""1"",""1619""
","
","
","""event"",""trial"",""time""
""fullscreenenter"",""1"",""1619""
","
","","","","","","null","<div style=""font-size:60px;"">+</div>","null","","fixation","","","","","","","","",""
"memory-trial","135","437054","0.0-15.0-1.46","1918","2","""event"",""trial"",""time""
""fullscreenenter"",""1"",""1619""
","
","
","""event"",""trial"",""time""
""fullscreenenter"",""1"",""1619""
","
","","","","","","1350.7999999821186","images/dog4.png","","","memory_trial","4","definitely_new","","","","","","",""
"html-button-response","136","438949","0.0-15.0-2.46-0.46","1918","2","""event"",""trial"",""time""
""fullscreenenter"",""1"",""1619""
","
","
","""event"",""trial"",""time""
""fullscreenenter"",""1"",""1619""
","
","","","","","","1893.4000000059605","<p> Take a break! </p><p> Click the button to continue. </p>","0","","break","","","","","","","","",""
"html-keyboard-response","137","439452","0.0-15.0-0.47","1918","2","""event"",""trial"",""time""
""fullscreenenter"",""1"",""1619""
","
","
","""event"",""trial"",""time""
""fullscreenenter"",""1"",""1619""
","
","","","","","","null","<div style=""font-size:60px;"">+</div>","null","","fixation","","","","","","","","",""
"memory-trial","138","442894","0.0-15.0-1.47","1918","2","""event"",""trial"",""time""
""fullscreenenter"",""1"",""1619""
","
","
","""event"",""trial"",""time""
""fullscreenenter"",""1"",""1619""
","
","","","","","","2435.399999976158","images/cow1.png","","","memory_trial","2","maybe_old","","","","","","",""
"html-keyboard-response","139","443396","0.0-15.0-0.48","1918","2","""event"",""trial"",""time""
""fullscreenenter"",""1"",""1619""
","
","
","""event"",""trial"",""time""
""fullscreenenter"",""1"",""1619""
","
","","","","","","null","<div style=""font-size:60px;"">+</div>","null","","fixation","","","","","","","","",""
"memory-trial","140","445438","0.0-15.0-1.48","1918","2","""event"",""trial"",""time""
""fullscreenenter"",""1"",""1619""
","
","
","""event"",""trial"",""time""
""fullscreenenter"",""1"",""1619""
","
","","","","","","1036.6000000238419","images/tree4.png","","","memory_trial","4","definitely_new","","","","","","",""
"html-keyboard-response","141","445939","0.0-15.0-0.49","1918","2","""event"",""trial"",""time""
""fullscreenenter"",""1"",""1619""
","
","
","""event"",""trial"",""time""
""fullscreenenter"",""1"",""1619""
","
","","","","","","null","<div style=""font-size:60px;"">+</div>","null","","fixation","","","","","","","","",""
"memory-trial","142","448004","0.0-15.0-1.49","1918","2","""event"",""trial"",""time""
""fullscreenenter"",""1"",""1619""
","
","
","""event"",""trial"",""time""
""fullscreenenter"",""1"",""1619""
","
","","","","","","1059","images/horse2.png","","","memory_trial","1","definitely_old","","","","","","",""
"html-keyboard-response","143","448505","0.0-15.0-0.50","1918","2","""event"",""trial"",""time""
""fullscreenenter"",""1"",""1619""
","
","
","""event"",""trial"",""time""
""fullscreenenter"",""1"",""1619""
","
","","","","","","null","<div style=""font-size:60px;"">+</div>","null","","fixation","","","","","","","","",""
"memory-trial","144","450537","0.0-15.0-1.50","1918","2","""event"",""trial"",""time""
""fullscreenenter"",""1"",""1619""
","
","
","""event"",""trial"",""time""
""fullscreenenter"",""1"",""1619""
","
","","","","","","1027.7000000178814","images/banana2.png","","","memory_trial","1","definitely_old","","","","","","",""
"html-keyboard-response","145","451038","0.0-15.0-0.51","1918","2","""event"",""trial"",""time""
""fullscreenenter"",""1"",""1619""
","
","
","""event"",""trial"",""time""
""fullscreenenter"",""1"",""1619""
","
","","","","","","null","<div style=""font-size:60px;"">+</div>","null","","fixation","","","","","","","","",""
"memory-trial","146","452798","0.0-15.0-1.51","1918","2","""event"",""trial"",""time""
""fullscreenenter"",""1"",""1619""
","
","
","""event"",""trial"",""time""
""fullscreenenter"",""1"",""1619""
","
","","","","","","756.2999999821186","images/cactus4.png","","","memory_trial","4","definitely_new","","","","","","",""
"html-keyboard-response","147","453300","0.0-15.0-0.52","1918","2","""event"",""trial"",""time""
""fullscreenenter"",""1"",""1619""
","
","
","""event"",""trial"",""time""
""fullscreenenter"",""1"",""1619""
","
","","","","","","null","<div style=""font-size:60px;"">+</div>","null","","fixation","","","","","","","","",""
"memory-trial","148","456036","0.0-15.0-1.52","1918","2","""event"",""trial"",""time""
""fullscreenenter"",""1"",""1619""
","
","
","""event"",""trial"",""time""
""fullscreenenter"",""1"",""1619""
","
","","","","","","1733.5","images/cow5.png","","","memory_trial","3","maybe_new","","","","","","",""
"html-keyboard-response","149","456537","0.0-15.0-0.53","1918","2","""event"",""trial"",""time""
""fullscreenenter"",""1"",""1619""
","
","
","""event"",""trial"",""time""
""fullscreenenter"",""1"",""1619""
","
","","","","","","null","<div style=""font-size:60px;"">+</div>","null","","fixation","","","","","","","","",""
"memory-trial","150","459305","0.0-15.0-1.53","1918","2","""event"",""trial"",""time""
""fullscreenenter"",""1"",""1619""
","
","
","""event"",""trial"",""time""
""fullscreenenter"",""1"",""1619""
","
","","","","","","1764.9000000059605","images/rodent1.png","","","memory_trial","1","definitely_old","","","","","","",""
"html-keyboard-response","151","459806","0.0-15.0-0.54","1918","2","""event"",""trial"",""time""
""fullscreenenter"",""1"",""1619""
","
","
","""event"",""trial"",""time""
""fullscreenenter"",""1"",""1619""
","
","","","","","","null","<div style=""font-size:60px;"">+</div>","null","","fixation","","","","","","","","",""
"memory-trial","152","461839","0.0-15.0-1.54","1918","2","""event"",""trial"",""time""
""fullscreenenter"",""1"",""1619""
","
","
","""event"",""trial"",""time""
""fullscreenenter"",""1"",""1619""
","
","","","","","","1027.5","images/train3.png","","","memory_trial","4","definitely_new","","","","","","",""
"html-keyboard-response","153","462340","0.0-15.0-0.55","1918","2","""event"",""trial"",""time""
""fullscreenenter"",""1"",""1619""
","
","
","""event"",""trial"",""time""
""fullscreenenter"",""1"",""1619""
","
","","","","","","null","<div style=""font-size:60px;"">+</div>","null","","fixation","","","","","","","","",""
"memory-trial","154","464167","0.0-15.0-1.55","1918","2","""event"",""trial"",""time""
""fullscreenenter"",""1"",""1619""
","
","
","""event"",""trial"",""time""
""fullscreenenter"",""1"",""1619""
","
","","","","","","822.1000000238419","images/bush1.png","","","memory_trial","4","definitely_new","","","","","","",""
"html-keyboard-response","155","464671","0.0-15.0-0.56","1918","2","""event"",""trial"",""time""
""fullscreenenter"",""1"",""1619""
","
","
","""event"",""trial"",""time""
""fullscreenenter"",""1"",""1619""
","
","","","","","","null","<div style=""font-size:60px;"">+</div>","null","","fixation","","","","","","","","",""
"memory-trial","156","467637","0.0-15.0-1.56","1918","2","""event"",""trial"",""time""
""fullscreenenter"",""1"",""1619""
","
","
","""event"",""trial"",""time""
""fullscreenenter"",""1"",""1619""
","
","","","","","","1959.5999999940395","images/train4.png","","","memory_trial","2","maybe_old","","","","","","",""
"html-keyboard-response","157","468143","0.0-15.0-0.57","1918","2","""event"",""trial"",""time""
""fullscreenenter"",""1"",""1619""
","
","
","""event"",""trial"",""time""
""fullscreenenter"",""1"",""1619""
","
","","","","","","null","<div style=""font-size:60px;"">+</div>","null","","fixation","","","","","","","","",""
"memory-trial","158","470094","0.0-15.0-1.57","1918","2","""event"",""trial"",""time""
""fullscreenenter"",""1"",""1619""
","
","
","""event"",""trial"",""time""
""fullscreenenter"",""1"",""1619""
","
","","","","","","945.5999999940395","images/chair5.png","","","memory_trial","2","maybe_old","","","","","","",""
"html-keyboard-response","159","470599","0.0-15.0-0.58","1918","2","""event"",""trial"",""time""
""fullscreenenter"",""1"",""1619""
","
","
","""event"",""trial"",""time""
""fullscreenenter"",""1"",""1619""
","
","","","","","","null","<div style=""font-size:60px;"">+</div>","null","","fixation","","","","","","","","",""
"memory-trial","160","472777","0.0-15.0-1.58","1918","2","""event"",""trial"",""time""
""fullscreenenter"",""1"",""1619""
","
","
","""event"",""trial"",""time""
""fullscreenenter"",""1"",""1619""
","
","","","","","","1171.7000000178814","images/cow4.png","","","memory_trial","2","maybe_old","","","","","","",""
"html-keyboard-response","161","473281","0.0-15.0-0.59","1918","2","""event"",""trial"",""time""
""fullscreenenter"",""1"",""1619""
","
","
","""event"",""trial"",""time""
""fullscreenenter"",""1"",""1619""
","
","","","","","","null","<div style=""font-size:60px;"">+</div>","null","","fixation","","","","","","","","",""
"memory-trial","162","475241","0.0-15.0-1.59","1918","2","""event"",""trial"",""time""
""fullscreenenter"",""1"",""1619""
","
","
","""event"",""trial"",""time""
""fullscreenenter"",""1"",""1619""
","
","","","","","","954.2000000178814","images/rodent4.png","","","memory_trial","1","definitely_old","","","","","","",""
"html-keyboard-response","163","475743","0.0-15.0-0.60","1918","2","""event"",""trial"",""time""
""fullscreenenter"",""1"",""1619""
","
","
","""event"",""trial"",""time""
""fullscreenenter"",""1"",""1619""
","
","","","","","","null","<div style=""font-size:60px;"">+</div>","null","","fixation","","","","","","","","",""
"memory-trial","164","477775","0.0-15.0-1.60","1918","2","""event"",""trial"",""time""
""fullscreenenter"",""1"",""1619""
","
","
","""event"",""trial"",""time""
""fullscreenenter"",""1"",""1619""
","
","","","","","","1029.5","images/horse1.png","","","memory_trial","4","definitely_new","","","","","","",""
"html-keyboard-response","165","478278","0.0-15.0-0.61","1918","2","""event"",""trial"",""time""
""fullscreenenter"",""1"",""1619""
","
","
","""event"",""trial"",""time""
""fullscreenenter"",""1"",""1619""
","
","","","","","","null","<div style=""font-size:60px;"">+</div>","null","","fixation","","","","","","","","",""
"memory-trial","166","480340","0.0-15.0-1.61","1918","2","""event"",""trial"",""time""
""fullscreenenter"",""1"",""1619""
","
","
","""event"",""trial"",""time""
""fullscreenenter"",""1"",""1619""
","
","","","","","","1056.7999999821186","images/dog5.png","","","memory_trial","4","definitely_new","","","","","","",""
"html-keyboard-response","167","480841","0.0-15.0-0.62","1918","2","""event"",""trial"",""time""
""fullscreenenter"",""1"",""1619""
","
","
","""event"",""trial"",""time""
""fullscreenenter"",""1"",""1619""
","
","","","","","","null","<div style=""font-size:60px;"">+</div>","null","","fixation","","","","","","","","",""
"memory-trial","168","482548","0.0-15.0-1.62","1918","2","""event"",""trial"",""time""
""fullscreenenter"",""1"",""1619""
","
","
","""event"",""trial"",""time""
""fullscreenenter"",""1"",""1619""
","
","","","","","","699.8000000119209","images/boat2.png","","","memory_trial","4","definitely_new","","","","","","",""
"html-keyboard-response","169","483049","0.0-15.0-0.63","1918","2","""event"",""trial"",""time""
""fullscreenenter"",""1"",""1619""
","
","
","""event"",""trial"",""time""
""fullscreenenter"",""1"",""1619""
","
","","","","","","null","<div style=""font-size:60px;"">+</div>","null","","fixation","","","","","","","","",""
"memory-trial","170","485082","0.0-15.0-1.63","1918","2","""event"",""trial"",""time""
""fullscreenenter"",""1"",""1619""
","
","
","""event"",""trial"",""time""
""fullscreenenter"",""1"",""1619""
","
","","","","","","1028.699999988079","images/apple2.png","","","memory_trial","4","definitely_new","","","","","","",""
"html-keyboard-response","171","485583","0.0-15.0-0.64","1918","2","""event"",""trial"",""time""
""fullscreenenter"",""1"",""1619""
","
","
","""event"",""trial"",""time""
""fullscreenenter"",""1"",""1619""
","
","","","","","","null","<div style=""font-size:60px;"">+</div>","null","","fixation","","","","","","","","",""
"memory-trial","172","487551","0.0-15.0-1.64","1918","2","""event"",""trial"",""time""
""fullscreenenter"",""1"",""1619""
","
","
","""event"",""trial"",""time""
""fullscreenenter"",""1"",""1619""
","
","","","","","","962.1999999880791","images/banana3.png","","","memory_trial","2","maybe_old","","","","","","",""
"html-keyboard-response","173","488052","0.0-15.0-0.65","1918","2","""event"",""trial"",""time""
""fullscreenenter"",""1"",""1619""
","
","
","""event"",""trial"",""time""
""fullscreenenter"",""1"",""1619""
","
","","","","","","null","<div style=""font-size:60px;"">+</div>","null","","fixation","","","","","","","","",""
"memory-trial","174","491068","0.0-15.0-1.65","1918","2","""event"",""trial"",""time""
""fullscreenenter"",""1"",""1619""
","
","
","""event"",""trial"",""time""
""fullscreenenter"",""1"",""1619""
","
","","","","","","2010.6000000238419","images/truck1.png","","","memory_trial","3","maybe_new","","","","","","",""
"html-keyboard-response","175","491574","0.0-15.0-0.66","1918","2","""event"",""trial"",""time""
""fullscreenenter"",""1"",""1619""
","
","
","""event"",""trial"",""time""
""fullscreenenter"",""1"",""1619""
","
","","","","","","null","<div style=""font-size:60px;"">+</div>","null","","fixation","","","","","","","","",""
"memory-trial","176","493407","0.0-15.0-1.66","1918","2","""event"",""trial"",""time""
""fullscreenenter"",""1"",""1619""
","
","
","""event"",""trial"",""time""
""fullscreenenter"",""1"",""1619""
","
","","","","","","829.0999999940395","images/sofa2.png","","","memory_trial","1","definitely_old","","","","","","",""
"html-keyboard-response","177","493908","0.0-15.0-0.67","1918","2","""event"",""trial"",""time""
""fullscreenenter"",""1"",""1619""
","
","
","""event"",""trial"",""time""
""fullscreenenter"",""1"",""1619""
","
","","","","","","null","<div style=""font-size:60px;"">+</div>","null","","fixation","","","","","","","","",""
"memory-trial","178","495822","0.0-15.0-1.67","1918","2","""event"",""trial"",""time""
""fullscreenenter"",""1"",""1619""
","
","
","""event"",""trial"",""time""
""fullscreenenter"",""1"",""1619""
","
","","","","","","910.5","images/plane1.png","","","memory_trial","4","definitely_new","","","","","","",""
"html-keyboard-response","179","496324","0.0-15.0-0.68","1918","2","""event"",""trial"",""time""
""fullscreenenter"",""1"",""1619""
","
","
","""event"",""trial"",""time""
""fullscreenenter"",""1"",""1619""
","
","","","","","","null","<div style=""font-size:60px;"">+</div>","null","","fixation","","","","","","","","",""
"memory-trial","180","498772","0.0-15.0-1.68","1918","2","""event"",""trial"",""time""
""fullscreenenter"",""1"",""1619""
","
","
","""event"",""trial"",""time""
""fullscreenenter"",""1"",""1619""
","
","","","","","","1441.4000000059605","images/rabbit3.png","","","memory_trial","2","maybe_old","","","","","","",""
"html-keyboard-response","181","499274","0.0-15.0-0.69","1918","2","""event"",""trial"",""time""
""fullscreenenter"",""1"",""1619""
","
","
","""event"",""trial"",""time""
""fullscreenenter"",""1"",""1619""
","
","","","","","","null","<div style=""font-size:60px;"">+</div>","null","","fixation","","","","","","","","",""
"memory-trial","182","501372","0.0-15.0-1.69","1918","2","""event"",""trial"",""time""
""fullscreenenter"",""1"",""1619""
","
","
","""event"",""trial"",""time""
""fullscreenenter"",""1"",""1619""
","
","","","","","","1092.300000011921","images/table5.png","","","memory_trial","1","definitely_old","","","","","","",""
"html-keyboard-response","183","501876","0.0-15.0-0.70","1918","2","""event"",""trial"",""time""
""fullscreenenter"",""1"",""1619""
","
","
","""event"",""trial"",""time""
""fullscreenenter"",""1"",""1619""
","
","","","","","","null","<div style=""font-size:60px;"">+</div>","null","","fixation","","","","","","","","",""
"memory-trial","184","504111","0.0-15.0-1.70","1918","2","""event"",""trial"",""time""
""fullscreenenter"",""1"",""1619""
","
","
","""event"",""trial"",""time""
""fullscreenenter"",""1"",""1619""
","
","","","","","","1229.1000000238419","images/sofa5.png","","","memory_trial","1","definitely_old","","","","","","",""
"html-keyboard-response","185","504612","0.0-15.0-0.71","1918","2","""event"",""trial"",""time""
""fullscreenenter"",""1"",""1619""
","
","
","""event"",""trial"",""time""
""fullscreenenter"",""1"",""1619""
","
","","","","","","null","<div style=""font-size:60px;"">+</div>","null","","fixation","","","","","","","","",""
"memory-trial","186","507594","0.0-15.0-1.71","1918","2","""event"",""trial"",""time""
""fullscreenenter"",""1"",""1619""
","
","
","""event"",""trial"",""time""
""fullscreenenter"",""1"",""1619""
","
","","","","","","1979.2000000178814","images/orange5.png","","","memory_trial","4","definitely_new","","","","","","",""
"html-keyboard-response","187","508095","0.0-15.0-0.72","1918","2","""event"",""trial"",""time""
""fullscreenenter"",""1"",""1619""
","
","
","""event"",""trial"",""time""
""fullscreenenter"",""1"",""1619""
","
","","","","","","null","<div style=""font-size:60px;"">+</div>","null","","fixation","","","","","","","","",""
"memory-trial","188","509679","0.0-15.0-1.72","1918","2","""event"",""trial"",""time""
""fullscreenenter"",""1"",""1619""
","
","
","""event"",""trial"",""time""
""fullscreenenter"",""1"",""1619""
","
","","","","","","580.5999999940395","images/bush4.png","","","memory_trial","4","definitely_new","","","","","","",""
"html-keyboard-response","189","510180","0.0-15.0-0.73","1918","2","""event"",""trial"",""time""
""fullscreenenter"",""1"",""1619""
","
","
","""event"",""trial"",""time""
""fullscreenenter"",""1"",""1619""
","
","","","","","","null","<div style=""font-size:60px;"">+</div>","null","","fixation","","","","","","","","",""
"memory-trial","190","512276","0.0-15.0-1.73","1918","2","""event"",""trial"",""time""
""fullscreenenter"",""1"",""1619""
","
","
","""event"",""trial"",""time""
""fullscreenenter"",""1"",""1619""
","
","","","","","","1089.199999988079","images/tree5.png","","","memory_trial","3","maybe_new","","","","","","",""
"html-keyboard-response","191","512778","0.0-15.0-0.74","1918","2","""event"",""trial"",""time""
""fullscreenenter"",""1"",""1619""
","
","
","""event"",""trial"",""time""
""fullscreenenter"",""1"",""1619""
","
","","","","","","null","<div style=""font-size:60px;"">+</div>","null","","fixation","","","","","","","","",""
"memory-trial","192","514586","0.0-15.0-1.74","1918","2","""event"",""trial"",""time""
""fullscreenenter"",""1"",""1619""
","
","
","""event"",""trial"",""time""
""fullscreenenter"",""1"",""1619""
","
","","","","","","805.9000000059605","images/goat3.png","","","memory_trial","4","definitely_new","","","","","","",""
"html-keyboard-response","193","515087","0.0-15.0-0.75","1918","2","""event"",""trial"",""time""
""fullscreenenter"",""1"",""1619""
","
","
","""event"",""trial"",""time""
""fullscreenenter"",""1"",""1619""
","
","","","","","","null","<div style=""font-size:60px;"">+</div>","null","","fixation","","","","","","","","",""
"memory-trial","194","517210","0.0-15.0-1.75","1918","2","""event"",""trial"",""time""
""fullscreenenter"",""1"",""1619""
","
","
","""event"",""trial"",""time""
""fullscreenenter"",""1"",""1619""
","
","","","","","","1117","images/horse3.png","","","memory_trial","3","maybe_new","","","","","","",""
"html-keyboard-response","195","517711","0.0-15.0-0.76","1918","2","""event"",""trial"",""time""
""fullscreenenter"",""1"",""1619""
","
","
","""event"",""trial"",""time""
""fullscreenenter"",""1"",""1619""
","
","","","","","","null","<div style=""font-size:60px;"">+</div>","null","","fixation","","","","","","","","",""
"memory-trial","196","519978","0.0-15.0-1.76","1918","2","""event"",""trial"",""time""
""fullscreenenter"",""1"",""1619""
","
","
","""event"",""trial"",""time""
""fullscreenenter"",""1"",""1619""
","
","","","","","","1262.800000011921","images/goat5.png","","","memory_trial","4","definitely_new","","","","","","",""
"html-keyboard-response","197","520479","0.0-15.0-0.77","1918","2","""event"",""trial"",""time""
""fullscreenenter"",""1"",""1619""
","
","
","""event"",""trial"",""time""
""fullscreenenter"",""1"",""1619""
","
","","","","","","null","<div style=""font-size:60px;"">+</div>","null","","fixation","","","","","","","","",""
"memory-trial","198","522660","0.0-15.0-1.77","1918","2","""event"",""trial"",""time""
""fullscreenenter"",""1"",""1619""
","
","
","""event"",""trial"",""time""
""fullscreenenter"",""1"",""1619""
","
","","","","","","1177.2999999821186","images/chair1.png","","","memory_trial","2","maybe_old","","","","","","",""
"html-keyboard-response","199","523162","0.0-15.0-0.78","1918","2","""event"",""trial"",""time""
""fullscreenenter"",""1"",""1619""
","
","
","""event"",""trial"",""time""
""fullscreenenter"",""1"",""1619""
","
","","","","","","null","<div style=""font-size:60px;"">+</div>","null","","fixation","","","","","","","","",""
"memory-trial","200","525257","0.0-15.0-1.78","1918","2","""event"",""trial"",""time""
""fullscreenenter"",""1"",""1619""
","
","
","""event"",""trial"",""time""
""fullscreenenter"",""1"",""1619""
","
","","","","","","1090.300000011921","images/rodent5.png","","","memory_trial","4","definitely_new","","","","","","",""
"html-keyboard-response","201","525759","0.0-15.0-0.79","1918","2","""event"",""trial"",""time""
""fullscreenenter"",""1"",""1619""
","
","
","""event"",""trial"",""time""
""fullscreenenter"",""1"",""1619""
","
","","","","","","null","<div style=""font-size:60px;"">+</div>","null","","fixation","","","","","","","","",""
"memory-trial","202","527525","0.0-15.0-1.79","1918","2","""event"",""trial"",""time""
""fullscreenenter"",""1"",""1619""
","
","
","""event"",""trial"",""time""
""fullscreenenter"",""1"",""1619""
","
","","","","","","761.0999999940395","images/truck4.png","","","memory_trial","4","definitely_new","","","","","","",""
"html-keyboard-response","203","528026","0.0-15.0-0.80","1918","2","""event"",""trial"",""time""
""fullscreenenter"",""1"",""1619""
","
","
","""event"",""trial"",""time""
""fullscreenenter"",""1"",""1619""
","
","","","","","","null","<div style=""font-size:60px;"">+</div>","null","","fixation","","","","","","","","",""
"memory-trial","204","530335","0.0-15.0-1.80","1918","2","""event"",""trial"",""time""
""fullscreenenter"",""1"",""1619""
","
","
","""event"",""trial"",""time""
""fullscreenenter"",""1"",""1619""
","
","","","","","","1303","images/banana5.png","","","memory_trial","1","definitely_old","","","","","","",""
"html-keyboard-response","205","530837","0.0-15.0-0.81","1918","2","""event"",""trial"",""time""
""fullscreenenter"",""1"",""1619""
","
","
","""event"",""trial"",""time""
""fullscreenenter"",""1"",""1619""
","
","","","","","","null","<div style=""font-size:60px;"">+</div>","null","","fixation","","","","","","","","",""
"memory-trial","206","534084","0.0-15.0-1.81","1918","2","""event"",""trial"",""time""
""fullscreenenter"",""1"",""1619""
","
","
","""event"",""trial"",""time""
""fullscreenenter"",""1"",""1619""
","
","","","","","","2242.2999999821186","images/cactus2.png","","","memory_trial","3","maybe_new","","","","","","",""
"html-keyboard-response","207","534586","0.0-15.0-0.82","1918","2","""event"",""trial"",""time""
""fullscreenenter"",""1"",""1619""
","
","
","""event"",""trial"",""time""
""fullscreenenter"",""1"",""1619""
","
","","","","","","null","<div style=""font-size:60px;"">+</div>","null","","fixation","","","","","","","","",""
"memory-trial","208","537279","0.0-15.0-1.82","1918","2","""event"",""trial"",""time""
""fullscreenenter"",""1"",""1619""
","
","
","""event"",""trial"",""time""
""fullscreenenter"",""1"",""1619""
","
","","","","","","1686.9000000059605","images/banana4.png","","","memory_trial","3","maybe_new","","","","","","",""
"html-keyboard-response","209","537781","0.0-15.0-0.83","1918","2","""event"",""trial"",""time""
""fullscreenenter"",""1"",""1619""
","
","
","""event"",""trial"",""time""
""fullscreenenter"",""1"",""1619""
","
","","","","","","null","<div style=""font-size:60px;"">+</div>","null","","fixation","","","","","","","","",""
"memory-trial","210","539973","0.0-15.0-1.83","1918","2","""event"",""trial"",""time""
""fullscreenenter"",""1"",""1619""
","
","
","""event"",""trial"",""time""
""fullscreenenter"",""1"",""1619""
","
","","","","","","1187","images/sheep4.png","","","memory_trial","1","definitely_old","","","","","","",""
"html-keyboard-response","211","540474","0.0-15.0-0.84","1918","2","""event"",""trial"",""time""
""fullscreenenter"",""1"",""1619""
","
","
","""event"",""trial"",""time""
""fullscreenenter"",""1"",""1619""
","
","","","","","","null","<div style=""font-size:60px;"">+</div>","null","","fixation","","","","","","","","",""
"memory-trial","212","542149","0.0-15.0-1.84","1918","2","""event"",""trial"",""time""
""fullscreenenter"",""1"",""1619""
","
","
","""event"",""trial"",""time""
""fullscreenenter"",""1"",""1619""
","
","","","","","","672.5999999940395","images/plane2.png","","","memory_trial","4","definitely_new","","","","","","",""
"html-keyboard-response","213","542650","0.0-15.0-0.85","1918","2","""event"",""trial"",""time""
""fullscreenenter"",""1"",""1619""
","
","
","""event"",""trial"",""time""
""fullscreenenter"",""1"",""1619""
","
","","","","","","null","<div style=""font-size:60px;"">+</div>","null","","fixation","","","","","","","","",""
"memory-trial","214","545098","0.0-15.0-1.85","1918","2","""event"",""trial"",""time""
""fullscreenenter"",""1"",""1619""
","
","
","""event"",""trial"",""time""
""fullscreenenter"",""1"",""1619""
","
","","","","","","1441.9000000059605","images/feline3.png","","","memory_trial","4","definitely_new","","","","","","",""
"html-keyboard-response","215","545599","0.0-15.0-0.86","1918","2","""event"",""trial"",""time""
""fullscreenenter"",""1"",""1619""
","
","
","""event"",""trial"",""time""
""fullscreenenter"",""1"",""1619""
","
","","","","","","null","<div style=""font-size:60px;"">+</div>","null","","fixation","","","","","","","","",""
"memory-trial","216","547610","0.0-15.0-1.86","1918","2","""event"",""trial"",""time""
""fullscreenenter"",""1"",""1619""
","
","
","""event"",""trial"",""time""
""fullscreenenter"",""1"",""1619""
","
","","","","","","1006.4000000059605","images/train1.png","","","memory_trial","4","definitely_new","","","","","","",""
"html-keyboard-response","217","548111","0.0-15.0-0.87","1918","2","""event"",""trial"",""time""
""fullscreenenter"",""1"",""1619""
","
","
","""event"",""trial"",""time""
""fullscreenenter"",""1"",""1619""
","
","","","","","","null","<div style=""font-size:60px;"">+</div>","null","","fixation","","","","","","","","",""
"memory-trial","218","551072","0.0-15.0-1.87","1918","2","""event"",""trial"",""time""
""fullscreenenter"",""1"",""1619""
","
","
","""event"",""trial"",""time""
""fullscreenenter"",""1"",""1619""
","
","","","","","","1958","images/bed3.png","","","memory_trial","3","maybe_new","","","","","","",""
"html-keyboard-response","219","551573","0.0-15.0-0.88","1918","2","""event"",""trial"",""time""
""fullscreenenter"",""1"",""1619""
","
","
","""event"",""trial"",""time""
""fullscreenenter"",""1"",""1619""
","
","","","","","","null","<div style=""font-size:60px;"">+</div>","null","","fixation","","","","","","","","",""
"memory-trial","220","555391","0.0-15.0-1.88","1918","2","""event"",""trial"",""time""
""fullscreenenter"",""1"",""1619""
","
","
","""event"",""trial"",""time""
""fullscreenenter"",""1"",""1619""
","
","","","","","","2811.9000000059605","images/train2.png","","","memory_trial","3","maybe_new","","","","","","",""
"html-keyboard-response","221","555893","0.0-15.0-0.89","1918","2","""event"",""trial"",""time""
""fullscreenenter"",""1"",""1619""
","
","
","""event"",""trial"",""time""
""fullscreenenter"",""1"",""1619""
","
","","","","","","null","<div style=""font-size:60px;"">+</div>","null","","fixation","","","","","","","","",""
"memory-trial","222","557647","0.0-15.0-1.89","1918","2","""event"",""trial"",""time""
""fullscreenenter"",""1"",""1619""
","
","
","""event"",""trial"",""time""
""fullscreenenter"",""1"",""1619""
","
","","","","","","750.7999999821186","images/plane4.png","","","memory_trial","4","definitely_new","","","","","","",""
"html-keyboard-response","223","558149","0.0-15.0-0.90","1918","2","""event"",""trial"",""time""
""fullscreenenter"",""1"",""1619""
","
","
","""event"",""trial"",""time""
""fullscreenenter"",""1"",""1619""
","
","","","","","","null","<div style=""font-size:60px;"">+</div>","null","","fixation","","","","","","","","",""
"memory-trial","224","560248","0.0-15.0-1.90","1918","2","""event"",""trial"",""time""
""fullscreenenter"",""1"",""1619""
","
","
","""event"",""trial"",""time""
""fullscreenenter"",""1"",""1619""
","
","","","","","","1094.300000011921","images/cactus1.png","","","memory_trial","3","maybe_new","","","","","","",""
"html-keyboard-response","225","560752","0.0-15.0-0.91","1918","2","""event"",""trial"",""time""
""fullscreenenter"",""1"",""1619""
","
","
","""event"",""trial"",""time""
""fullscreenenter"",""1"",""1619""
","
","","","","","","null","<div style=""font-size:60px;"">+</div>","null","","fixation","","","","","","","","",""
"memory-trial","226","562640","0.0-15.0-1.91","1918","2","""event"",""trial"",""time""
""fullscreenenter"",""1"",""1619""
","
","
","""event"",""trial"",""time""
""fullscreenenter"",""1"",""1619""
","
","","","","","","883.1999999880791","images/apple3.png","","","memory_trial","4","definitely_new","","","","","","",""
"html-keyboard-response","227","563141","0.0-15.0-0.92","1918","2","""event"",""trial"",""time""
""fullscreenenter"",""1"",""1619""
","
","
","""event"",""trial"",""time""
""fullscreenenter"",""1"",""1619""
","
","","","","","","null","<div style=""font-size:60px;"">+</div>","null","","fixation","","","","","","","","",""
"memory-trial","228","564997","0.0-15.0-1.92","1918","2","""event"",""trial"",""time""
""fullscreenenter"",""1"",""1619""
","
","
","""event"",""trial"",""time""
""fullscreenenter"",""1"",""1619""
","
","","","","","","853.7999999821186","images/sofa4.png","","","memory_trial","4","definitely_new","","","","","","",""
"html-keyboard-response","229","565501","0.0-15.0-0.93","1918","2","""event"",""trial"",""time""
""fullscreenenter"",""1"",""1619""
","
","
","""event"",""trial"",""time""
""fullscreenenter"",""1"",""1619""
","
","","","","","","null","<div style=""font-size:60px;"">+</div>","null","","fixation","","","","","","","","",""
"memory-trial","230","567541","0.0-15.0-1.93","1918","2","""event"",""trial"",""time""
""fullscreenenter"",""1"",""1619""
","
","
","""event"",""trial"",""time""
""fullscreenenter"",""1"",""1619""
","
","","","","","","1035.699999988079","images/cactus5.png","","","memory_trial","1","definitely_old","","","","","","",""
"html-keyboard-response","231","568042","0.0-15.0-0.94","1918","2","""event"",""trial"",""time""
""fullscreenenter"",""1"",""1619""
","
","
","""event"",""trial"",""time""
""fullscreenenter"",""1"",""1619""
","
","","","","","","null","<div style=""font-size:60px;"">+</div>","null","","fixation","","","","","","","","",""
"memory-trial","232","570501","0.0-15.0-1.94","1918","2","""event"",""trial"",""time""
""fullscreenenter"",""1"",""1619""
","
","
","""event"",""trial"",""time""
""fullscreenenter"",""1"",""1619""
","
","","","","","","1451.9000000059605","images/rodent3.png","","","memory_trial","2","maybe_old","","","","","","",""
"html-keyboard-response","233","571002","0.0-15.0-0.95","1918","2","""event"",""trial"",""time""
""fullscreenenter"",""1"",""1619""
","
","
","""event"",""trial"",""time""
""fullscreenenter"",""1"",""1619""
","
","","","","","","null","<div style=""font-size:60px;"">+</div>","null","","fixation","","","","","","","","",""
"memory-trial","234","573840","0.0-15.0-1.95","1918","2","""event"",""trial"",""time""
""fullscreenenter"",""1"",""1619""
","
","
","""event"",""trial"",""time""
""fullscreenenter"",""1"",""1619""
","
","","","","","","1835.300000011921","images/straw3.png","","","memory_trial","3","maybe_new","","","","","","",""
"html-keyboard-response","235","574345","0.0-15.0-0.96","1918","2","""event"",""trial"",""time""
""fullscreenenter"",""1"",""1619""
","
","
","""event"",""trial"",""time""
""fullscreenenter"",""1"",""1619""
","
","","","","","","null","<div style=""font-size:60px;"">+</div>","null","","fixation","","","","","","","","",""
"memory-trial","236","577173","0.0-15.0-1.96","1918","2","""event"",""trial"",""time""
""fullscreenenter"",""1"",""1619""
","
","
","""event"",""trial"",""time""
""fullscreenenter"",""1"",""1619""
","
","","","","","","1824.5","images/rabbit5.png","","","memory_trial","2","maybe_old","","","","","","",""
"html-keyboard-response","237","577674","0.0-15.0-0.97","1918","2","""event"",""trial"",""time""
""fullscreenenter"",""1"",""1619""
","
","
","""event"",""trial"",""time""
""fullscreenenter"",""1"",""1619""
","
","","","","","","null","<div style=""font-size:60px;"">+</div>","null","","fixation","","","","","","","","",""
"memory-trial","238","580027","0.0-15.0-1.97","1918","2","""event"",""trial"",""time""
""fullscreenenter"",""1"",""1619""
","
","
","""event"",""trial"",""time""
""fullscreenenter"",""1"",""1619""
","
","","","","","","1346.9000000059605","images/apple4.png","","","memory_trial","1","definitely_old","","","","","","",""
"html-keyboard-response","239","580528","0.0-15.0-0.98","1918","2","""event"",""trial"",""time""
""fullscreenenter"",""1"",""1619""
","
","
","""event"",""trial"",""time""
""fullscreenenter"",""1"",""1619""
","
","","","","","","null","<div style=""font-size:60px;"">+</div>","null","","fixation","","","","","","","","",""
"memory-trial","240","582399","0.0-15.0-1.98","1918","2","""event"",""trial"",""time""
""fullscreenenter"",""1"",""1619""
","
","
","""event"",""trial"",""time""
""fullscreenenter"",""1"",""1619""
","
","","","","","","868.4000000059605","images/table1.png","","","memory_trial","4","definitely_new","","","","","","",""
"html-keyboard-response","241","582901","0.0-15.0-0.99","1918","2","""event"",""trial"",""time""
""fullscreenenter"",""1"",""1619""
","
","
","""event"",""trial"",""time""
""fullscreenenter"",""1"",""1619""
","
","","","","","","null","<div style=""font-size:60px;"">+</div>","null","","fixation","","","","","","","","",""
"memory-trial","242","585066","0.0-15.0-1.99","1918","2","""event"",""trial"",""time""
""fullscreenenter"",""1"",""1619""
","
","
","""event"",""trial"",""time""
""fullscreenenter"",""1"",""1619""
","
","","","","","","1162","images/boat5.png","","","memory_trial","1","definitely_old","","","","","","",""
"html-keyboard-response","243","585568","0.0-15.0-0.100","1918","2","""event"",""trial"",""time""
""fullscreenenter"",""1"",""1619""
","
","
","""event"",""trial"",""time""
""fullscreenenter"",""1"",""1619""
","
","","","","","","null","<div style=""font-size:60px;"">+</div>","null","","fixation","","","","","","","","",""
"memory-trial","244","587450","0.0-15.0-1.100","1918","2","""event"",""trial"",""time""
""fullscreenenter"",""1"",""1619""
","
","
","""event"",""trial"",""time""
""fullscreenenter"",""1"",""1619""
","
","","","","","","879.9000000059605","images/boat3.png","","","memory_trial","1","definitely_old","","","","","","",""
"html-keyboard-response","245","587952","0.0-15.0-0.101","1918","2","""event"",""trial"",""time""
""fullscreenenter"",""1"",""1619""
","
","
","""event"",""trial"",""time""
""fullscreenenter"",""1"",""1619""
","
","","","","","","null","<div style=""font-size:60px;"">+</div>","null","","fixation","","","","","","","","",""
"memory-trial","246","589792","0.0-15.0-1.101","1918","2","""event"",""trial"",""time""
""fullscreenenter"",""1"",""1619""
","
","
","""event"",""trial"",""time""
""fullscreenenter"",""1"",""1619""
","
","","","","","","834.3999999761581","images/table4.png","","","memory_trial","1","definitely_old","","","","","","",""
"html-button-response","247","591552","0.0-15.0-2.101-0.101","1918","2","""event"",""trial"",""time""
""fullscreenenter"",""1"",""1619""
","
","
","""event"",""trial"",""time""
""fullscreenenter"",""1"",""1619""
","
","","","","","","1759.699999988079","<p> Take a break! </p><p> Click the button to continue. </p>","0","","break","","","","","","","","",""
"html-keyboard-response","248","592053","0.0-15.0-0.102","1918","2","""event"",""trial"",""time""
""fullscreenenter"",""1"",""1619""
","
","
","""event"",""trial"",""time""
""fullscreenenter"",""1"",""1619""
","
","","","","","","null","<div style=""font-size:60px;"">+</div>","null","","fixation","","","","","","","","",""
"memory-trial","249","594272","0.0-15.0-1.102","1918","2","""event"",""trial"",""time""
""fullscreenenter"",""1"",""1619""
","
","
","""event"",""trial"",""time""
""fullscreenenter"",""1"",""1619""
","
","","","","","","1214.3999999761581","images/dog3.png","","","memory_trial","1","definitely_old","","","","","","",""
"html-keyboard-response","250","594773","0.0-15.0-0.103","1918","2","""event"",""trial"",""time""
""fullscreenenter"",""1"",""1619""
","
","
","""event"",""trial"",""time""
""fullscreenenter"",""1"",""1619""
","
","","","","","","null","<div style=""font-size:60px;"">+</div>","null","","fixation","","","","","","","","",""
"memory-trial","251","596799","0.0-15.0-1.103","1918","2","""event"",""trial"",""time""
""fullscreenenter"",""1"",""1619""
","
","
","""event"",""trial"",""time""
""fullscreenenter"",""1"",""1619""
","
","","","","","","1019.7000000178814","images/rabbit2.png","","","memory_trial","1","definitely_old","","","","","","",""
"html-keyboard-response","252","597301","0.0-15.0-0.104","1918","2","""event"",""trial"",""time""
""fullscreenenter"",""1"",""1619""
","
","
","""event"",""trial"",""time""
""fullscreenenter"",""1"",""1619""
","
","","","","","","null","<div style=""font-size:60px;"">+</div>","null","","fixation","","","","","","","","",""
"memory-trial","253","599456","0.0-15.0-1.104","1918","2","""event"",""trial"",""time""
""fullscreenenter"",""1"",""1619""
","
","
","""event"",""trial"",""time""
""fullscreenenter"",""1"",""1619""
","
","","","","","","1148.8999999761581","images/bed4.png","","","memory_trial","4","definitely_new","","","","","","",""
"html-keyboard-response","254","599957","0.0-15.0-0.105","1918","2","""event"",""trial"",""time""
""fullscreenenter"",""1"",""1619""
","
","
","""event"",""trial"",""time""
""fullscreenenter"",""1"",""1619""
","
","","","","","","null","<div style=""font-size:60px;"">+</div>","null","","fixation","","","","","","","","",""
"memory-trial","255","601781","0.0-15.0-1.105","1918","2","""event"",""trial"",""time""
""fullscreenenter"",""1"",""1619""
","
","
","""event"",""trial"",""time""
""fullscreenenter"",""1"",""1619""
","
","","","","","","820.4000000059605","images/tree2.png","","","memory_trial","1","definitely_old","","","","","","",""
"html-keyboard-response","256","602283","0.0-15.0-0.106","1918","2","""event"",""trial"",""time""
""fullscreenenter"",""1"",""1619""
","
","
","""event"",""trial"",""time""
""fullscreenenter"",""1"",""1619""
","
","","","","","","null","<div style=""font-size:60px;"">+</div>","null","","fixation","","","","","","","","",""
"memory-trial","257","605589","0.0-15.0-1.106","1918","2","""event"",""trial"",""time""
""fullscreenenter"",""1"",""1619""
","
","
","""event"",""trial"",""time""
""fullscreenenter"",""1"",""1619""
","
","","","","","","2303.5999999940395","images/rabbit4.png","","","memory_trial","3","maybe_new","","","","","","",""
"html-keyboard-response","258","606091","0.0-15.0-0.107","1918","2","""event"",""trial"",""time""
""fullscreenenter"",""1"",""1619""
","
","
","""event"",""trial"",""time""
""fullscreenenter"",""1"",""1619""
","
","","","","","","null","<div style=""font-size:60px;"">+</div>","null","","fixation","","","","","","","","",""
"memory-trial","259","608560","0.0-15.0-1.107","1918","2","""event"",""trial"",""time""
""fullscreenenter"",""1"",""1619""
","
","
","""event"",""trial"",""time""
""fullscreenenter"",""1"",""1619""
","
","","","","","","1462.300000011921","images/boat1.png","","","memory_trial","3","maybe_new","","","","","","",""
"html-keyboard-response","260","609061","0.0-15.0-0.108","1918","2","""event"",""trial"",""time""
""fullscreenenter"",""1"",""1619""
","
","
","""event"",""trial"",""time""
""fullscreenenter"",""1"",""1619""
","
","","","","","","null","<div style=""font-size:60px;"">+</div>","null","","fixation","","","","","","","","",""
"memory-trial","261","610981","0.0-15.0-1.108","1918","2","""event"",""trial"",""time""
""fullscreenenter"",""1"",""1619""
","
","
","""event"",""trial"",""time""
""fullscreenenter"",""1"",""1619""
","
","","","","","","914.3000000119209","images/feline2.png","","","memory_trial","4","definitely_new","","","","","","",""
"html-keyboard-response","262","611483","0.0-15.0-0.109","1918","2","""event"",""trial"",""time""
""fullscreenenter"",""1"",""1619""
","
","
","""event"",""trial"",""time""
""fullscreenenter"",""1"",""1619""
","
","","","","","","null","<div style=""font-size:60px;"">+</div>","null","","fixation","","","","","","","","",""
"memory-trial","263","614256","0.0-15.0-1.109","1918","2","""event"",""trial"",""time""
""fullscreenenter"",""1"",""1619""
","
","
","""event"",""trial"",""time""
""fullscreenenter"",""1"",""1619""
","
","","","","","","1770","images/horse5.png","","","memory_trial","1","definitely_old","","","","","","",""
"html-keyboard-response","264","614757","0.0-15.0-0.110","1918","2","""event"",""trial"",""time""
""fullscreenenter"",""1"",""1619""
","
","
","""event"",""trial"",""time""
""fullscreenenter"",""1"",""1619""
","
","","","","","","null","<div style=""font-size:60px;"">+</div>","null","","fixation","","","","","","","","",""
"memory-trial","265","617195","0.0-15.0-1.110","1918","2","""event"",""trial"",""time""
""fullscreenenter"",""1"",""1619""
","
","
","""event"",""trial"",""time""
""fullscreenenter"",""1"",""1619""
","
","","","","","","1435.0999999940395","images/straw5.png","","","memory_trial","4","definitely_new","","","","","","",""
"html-keyboard-response","266","617696","0.0-15.0-0.111","1918","2","""event"",""trial"",""time""
""fullscreenenter"",""1"",""1619""
","
","
","""event"",""trial"",""time""
""fullscreenenter"",""1"",""1619""
","
","","","","","","null","<div style=""font-size:60px;"">+</div>","null","","fixation","","","","","","","","",""
"memory-trial","267","620394","0.0-15.0-1.111","1918","2","""event"",""trial"",""time""
""fullscreenenter"",""1"",""1619""
","
","
","""event"",""trial"",""time""
""fullscreenenter"",""1"",""1619""
","
","","","","","","1694.5","images/orange3.png","","","memory_trial","3","maybe_new","","","","","","",""
"html-keyboard-response","268","620900","0.0-15.0-0.112","1918","2","""event"",""trial"",""time""
""fullscreenenter"",""1"",""1619""
","
","
","""event"",""trial"",""time""
""fullscreenenter"",""1"",""1619""
","
","","","","","","null","<div style=""font-size:60px;"">+</div>","null","","fixation","","","","","","","","",""
"memory-trial","269","622934","0.0-15.0-1.112","1918","2","""event"",""trial"",""time""
""fullscreenenter"",""1"",""1619""
","
","
","""event"",""trial"",""time""
""fullscreenenter"",""1"",""1619""
","
","","","","","","1028.4000000059605","images/goat4.png","","","memory_trial","4","definitely_new","","","","","","",""
"html-keyboard-response","270","623435","0.0-15.0-0.113","1918","2","""event"",""trial"",""time""
""fullscreenenter"",""1"",""1619""
","
","
","""event"",""trial"",""time""
""fullscreenenter"",""1"",""1619""
","
","","","","","","null","<div style=""font-size:60px;"">+</div>","null","","fixation","","","","","","","","",""
"memory-trial","271","625411","0.0-15.0-1.113","1918","2","""event"",""trial"",""time""
""fullscreenenter"",""1"",""1619""
","
","
","""event"",""trial"",""time""
""fullscreenenter"",""1"",""1619""
","
","","","","","","972.8000000119209","images/sheep1.png","","","memory_trial","4","definitely_new","","","","","","",""
"html-keyboard-response","272","625915","0.0-15.0-0.114","1918","2","""event"",""trial"",""time""
""fullscreenenter"",""1"",""1619""
","
","
","""event"",""trial"",""time""
""fullscreenenter"",""1"",""1619""
","
","","","","","","null","<div style=""font-size:60px;"">+</div>","null","","fixation","","","","","","","","",""
"memory-trial","273","627680","0.0-15.0-1.114","1918","2","""event"",""trial"",""time""
""fullscreenenter"",""1"",""1619""
","
","
","""event"",""trial"",""time""
""fullscreenenter"",""1"",""1619""
","
","","","","","","760.1999999880791","images/feline1.png","","","memory_trial","4","definitely_new","","","","","","",""
"html-keyboard-response","274","628182","0.0-15.0-0.115","1918","2","""event"",""trial"",""time""
""fullscreenenter"",""1"",""1619""
","
","
","""event"",""trial"",""time""
""fullscreenenter"",""1"",""1619""
","
","","","","","","null","<div style=""font-size:60px;"">+</div>","null","","fixation","","","","","","","","",""
"memory-trial","275","630037","0.0-15.0-1.115","1918","2","""event"",""trial"",""time""
""fullscreenenter"",""1"",""1619""
","
","
","""event"",""trial"",""time""
""fullscreenenter"",""1"",""1619""
","
","","","","","","852.0999999940395","images/orange4.png","","","memory_trial","4","definitely_new","","","","","","",""
"html-keyboard-response","276","630539","0.0-15.0-0.116","1918","2","""event"",""trial"",""time""
""fullscreenenter"",""1"",""1619""
","
","
","""event"",""trial"",""time""
""fullscreenenter"",""1"",""1619""
","
","","","","","","null","<div style=""font-size:60px;"">+</div>","null","","fixation","","","","","","","","",""
"memory-trial","277","633424","0.0-15.0-1.116","1918","2","""event"",""trial"",""time""
""fullscreenenter"",""1"",""1619""
","
","
","""event"",""trial"",""time""
""fullscreenenter"",""1"",""1619""
","
","","","","","","1881.2999999821186","images/cactus3.png","","","memory_trial","2","maybe_old","","","","","","",""
"html-keyboard-response","278","633926","0.0-15.0-0.117","1918","2","""event"",""trial"",""time""
""fullscreenenter"",""1"",""1619""
","
","
","""event"",""trial"",""time""
""fullscreenenter"",""1"",""1619""
","
","","","","","","null","<div style=""font-size:60px;"">+</div>","null","","fixation","","","","","","","","",""
"memory-trial","279","635739","0.0-15.0-1.117","1918","2","""event"",""trial"",""time""
""fullscreenenter"",""1"",""1619""
","
","
","""event"",""trial"",""time""
""fullscreenenter"",""1"",""1619""
","
","","","","","","805.5999999940395","images/bed2.png","","","memory_trial","4","definitely_new","","","","","","",""
"html-keyboard-response","280","636240","0.0-15.0-0.118","1918","2","""event"",""trial"",""time""
""fullscreenenter"",""1"",""1619""
","
","
","""event"",""trial"",""time""
""fullscreenenter"",""1"",""1619""
","
","","","","","","null","<div style=""font-size:60px;"">+</div>","null","","fixation","","","","","","","","",""
"memory-trial","281","638038","0.0-15.0-1.118","1918","2","""event"",""trial"",""time""
""fullscreenenter"",""1"",""1619""
","
","
","""event"",""trial"",""time""
""fullscreenenter"",""1"",""1619""
","
","","","","","","793.8999999761581","images/table2.png","","","memory_trial","1","definitely_old","","","","","","",""
"html-keyboard-response","282","638539","0.0-15.0-0.119","1918","2","""event"",""trial"",""time""
""fullscreenenter"",""1"",""1619""
","
","
","""event"",""trial"",""time""
""fullscreenenter"",""1"",""1619""
","
","","","","","","null","<div style=""font-size:60px;"">+</div>","null","","fixation","","","","","","","","",""
"memory-trial","283","640619","0.0-15.0-1.119","1918","2","""event"",""trial"",""time""
""fullscreenenter"",""1"",""1619""
","
","
","""event"",""trial"",""time""
""fullscreenenter"",""1"",""1619""
","
","","","","","","1073.800000011921","images/sheep2.png","","","memory_trial","4","definitely_new","","","","","","",""
"preload","284","653033","0.0-16.0","1918","2","""event"",""trial"",""time""
""fullscreenenter"",""1"",""1619""
","
","
","""event"",""trial"",""time""
""fullscreenenter"",""1"",""1619""
","
","true","false","[]","[]","[]","","","","","","","","","","","","","",""
"learning-instructions","285","658149","0.0-17.0-0.0-0.0-0.0","1918","2","""event"",""trial"",""time""
""fullscreenenter"",""1"",""1619""
","
","
","""event"",""trial"",""time""
""fullscreenenter"",""1"",""1619""
","
","","","","","","2075.800000011921","<p> We're now going to ask you to water your plants again. </p>","","0","instructions","","","","","","","","",""
"learning-instructions","286","664929","0.0-17.0-0.0-0.0-0.1","1918","2","""event"",""trial"",""time""
""fullscreenenter"",""1"",""1619""
","
","
","""event"",""trial"",""time""
""fullscreenenter"",""1"",""1619""
","
","","","","","","909.5999999940395","<p> On each trial, you will see a plant. Select the watering can that you think will make the plant grow. </p>","","0","instructions","","","","","","","","",""
"learning-instructions","287","672960","0.0-17.0-0.0-0.0-0.2","1918","2","""event"",""trial"",""time""
""fullscreenenter"",""1"",""1619""
","
","
","""event"",""trial"",""time""
""fullscreenenter"",""1"",""1619""
","
","","","","","","972.2000000178814","<p> To make your selection, think about what you learned last week. You will NOT receive any feedback about your choice. </p>","","0","instructions","","","","","","","","",""
"learning-instructions","288","684860","0.0-17.0-0.0-0.0-0.3","1918","2","""event"",""trial"",""time""
""fullscreenenter"",""1"",""1619""
","
","
","""event"",""trial"",""time""
""fullscreenenter"",""1"",""1619""
","
","","","","","","2781.800000011921","<p> You should use the 1 key to select the watering can on the left, the 2 key to select the watering can in the middle, and the 3 key to select the watering can on the right. </p><br><div class=""choice-mem-instructions-grid""> <div class=""choice-mem-option""><img src=""images/plants_choice1.png"" class=""choice-mem-option-img"" stage=""instructions"" position=""0"" ><div class=""choice-mem-option-text""> Press ""1."" </div></div><div class=""choice-mem-option""><img src=""images/plants_choice2.png"" class=""choice-mem-option-img"" stage=""instructions"" position=""1"" ><div class=""choice-mem-option-text""> Press ""2."" </div></div><div class=""choice-mem-option""><img src=""images/plants_choice3.png"" class=""choice-mem-option-img"" stage=""instructions"" position=""2"" ><div class=""choice-mem-option-text""> Press ""3."" </div></div></div>","","0","instructions","","","","","","","","",""
"learning-instructions","289","691682","0.0-17.0-0.0-0.0-0.4","1918","2","""event"",""trial"",""time""
""fullscreenenter"",""1"",""1619""
","
","
","""event"",""trial"",""time""
""fullscreenenter"",""1"",""1619""
","
","","","","","","553.5","<p> You will have 10 seconds to make each selection. Try to respond before time runs out! </p>","","0","instructions","","","","","","","","",""
"learning-instructions","290","694181","0.0-17.0-0.0-1.0","1918","2","""event"",""trial"",""time""
""fullscreenenter"",""1"",""1619""
","
","
","""event"",""trial"",""time""
""fullscreenenter"",""1"",""1619""
","
","","","","","","439.5","<p> You are now ready to begin the game. </p>","","0","instructions","","","","","","","","",""
"html-keyboard-response","291","694786","0.0-17.0-0.0-2.0-0.0","1918","2","""event"",""trial"",""time""
""fullscreenenter"",""1"",""1619""
","
","
","""event"",""trial"",""time""
""fullscreenenter"",""1"",""1619""
","
","","","","","","null","<div style=""font-size:60px;"">+</div>","null","","fixation","","","","","","","","",""
"choice-memory-trial","292","698445","0.0-17.0-0.0-2.0-1.0","1918","2","""event"",""trial"",""time""
""fullscreenenter"",""1"",""1619""
","
","
","""event"",""trial"",""time""
""fullscreenenter"",""1"",""1619""
","
