"trial_type","trial_index","time_elapsed","internal_node_id","subject_id","task_version","interactions","blur_events","focus_events","fullscreenenter_events","fullscreenexit_events","success","timeout","failed_images","failed_audio","failed_video","rt","stimulus","response","button_pressed","task_part","key_press","answer","correct","left_choice","middle_choice","right_choice","choice_positions","option_selected","block"
"pavlovia","0","3","0.0-0.0","1692","2","""event"",""trial"",""time""
""fullscreenenter"",""1"",""7610""
","
","
","""event"",""trial"",""time""
""fullscreenenter"",""1"",""7610""
","
","","","","","","","","","","","","","","","","","","",""
"fullscreen","1","8603","0.0-1.0","1692","2","""event"",""trial"",""time""
""fullscreenenter"",""1"",""7610""
","
","
","""event"",""trial"",""time""
""fullscreenenter"",""1"",""7610""
","
","true","","","","","","","","","","","","","","","","","",""
"preload","2","9564","0.0-2.0","1692","2","""event"",""trial"",""time""
""fullscreenenter"",""1"",""7610""
","
","
","""event"",""trial"",""time""
""fullscreenenter"",""1"",""7610""
","
","true","false","[]","[]","[]","","","","","","","","","","","","","",""
"audio-keyboard-response","3","11009","0.0-3.0","1692","2","""event"",""trial"",""time""
""fullscreenenter"",""1"",""7610""
","
","
","""event"",""trial"",""time""
""fullscreenenter"",""1"",""7610""
","
","","","","","","1445.333333333333","audio/beep_loop.wav"," ","","","","","","","","","","",""
"audio-button-response","4","12514","0.0-4.0","1692","2","""event"",""trial"",""time""
""fullscreenenter"",""1"",""7610""
","
","
","""event"",""trial"",""time""
""fullscreenenter"",""1"",""7610""
","
","","","","","","1504","audio/turtle.wav","3","","","","","","","","","","",""
"audio-button-response","5","14603","0.0-5.0","1692","2","""event"",""trial"",""time""
""fullscreenenter"",""1"",""7610""
","
","
","""event"",""trial"",""time""
""fullscreenenter"",""1"",""7610""
","
","","","","","","1088","audio/shark.wav","2","","","","","","","","","","",""
"preload","6","19563","0.0-6.0","1692","2","""event"",""trial"",""time""
""fullscreenenter"",""1"",""7610""
","
","
","""event"",""trial"",""time""
""fullscreenenter"",""1"",""7610""
","
","true","false","[]","[]","[]","","","","","","","","","","","","","",""
"learning-instructions","7","26021","0.0-7.0-0.0","1692","2","""event"",""trial"",""time""
""fullscreenenter"",""1"",""7610""
","
","
","""event"",""trial"",""time""
""fullscreenenter"",""1"",""7610""
","
","","","","","","1651.5999999977648","<p> Welcome back! </p><p> Last week, you had to make choices about lots of different items.  </p>","","0","instructions","","","","","","","","",""
"learning-instructions","8","31896","0.0-7.0-0.1","1692","2","""event"",""trial"",""time""
""fullscreenenter"",""1"",""7610""
","
","
","""event"",""trial"",""time""
""fullscreenenter"",""1"",""7610""
","
","","","","","","1580.699999999255","<p> Today, we are going to ask you to try to remember all the items. </p>","","0","instructions","","","","","","","","",""
"learning-instructions","9","42709","0.0-7.0-0.2","1692","2","""event"",""trial"",""time""
""fullscreenenter"",""1"",""7610""
","
","
","""event"",""trial"",""time""
""fullscreenenter"",""1"",""7610""
","
","","","","","","681.5","<p> On every trial, you will see an image. </p><p> The image may be an OLD image you saw during the games last week or it may be a NEW image that was not presented. </p>","","0","instructions","","","","","","","","",""
"learning-instructions","10","52239","0.0-7.0-0.3","1692","2","""event"",""trial"",""time""
""fullscreenenter"",""1"",""7610""
","
","
","""event"",""trial"",""time""
""fullscreenenter"",""1"",""7610""
","
","","","","","","1032.7000000029802","<p> You need to select whether the image is:  </p><p>  'Definitely old', 'Maybe old', 'Maybe new', or 'Definitely new.'  </p><div class=""mem-choice-instructions-grid""><div class=""choice-option"" id=""choice-option-1"" ><img src=""images/definitely_old_1.png"" id=""choice-option-img-1"" class=""choice-option-img"" stage=""1""></div><div class=""choice-option"" id=""choice-option-2"" ><img src=""images/maybe_old_1.png"" id=""choice-option-img-2"" class=""choice-option-img"" stage=""1""></div><div class=""choice-option"" id=""choice-option-3"" ><img src=""images/maybe_new_1.png"" id=""choice-option-img-3"" class=""choice-option-img"" stage=""1""></div><div class=""choice-option"" id=""choice-option-4"" > <img src=""images/definitely_new_1.png"" id=""choice-option-img-4"" class=""choice-option-img"" stage=""1""></div></div>","","0","instructions","","","","","","","","",""
"learning-instructions","11","59586","0.0-7.0-0.4","1692","2","""event"",""trial"",""time""
""fullscreenenter"",""1"",""7610""
","
","
","""event"",""trial"",""time""
""fullscreenenter"",""1"",""7610""
","
","","","","","","661.6999999992549","<p> You should use the 1, 2, 3, and 4 keys to make your responses.  </p><div class=""mem-choice-instructions-grid""><div class=""choice-option"" id=""choice-option-1"" ><img src=""images/definitely_old.png"" id=""choice-option-img-1"" class=""choice-option-img"" stage=""1""></div><div class=""choice-option"" id=""choice-option-2"" ><img src=""images/maybe_old.png"" id=""choice-option-img-2"" class=""choice-option-img"" stage=""1""></div><div class=""choice-option"" id=""choice-option-3"" ><img src=""images/maybe_new.png"" id=""choice-option-img-3"" class=""choice-option-img"" stage=""1""></div><div class=""choice-option"" id=""choice-option-4"" > <img src=""images/definitely_new.png"" id=""choice-option-img-4"" class=""choice-option-img"" stage=""1""></div></div>","","0","instructions","","","","","","","","",""
"learning-instructions","12","67429","0.0-7.0-0.5","1692","2","""event"",""trial"",""time""
""fullscreenenter"",""1"",""7610""
","
","
","""event"",""trial"",""time""
""fullscreenenter"",""1"",""7610""
","
","","","","","","1081.5","<p> You will have 10 seconds to make each response.  </p><p>  Make sure to respond before time runs out! </p>","","0","instructions","","","","","","","","",""
"learning-instructions","13","75394","0.0-7.0-0.6","1692","2","""event"",""trial"",""time""
""fullscreenenter"",""1"",""7610""
","
","
","""event"",""trial"",""time""
""fullscreenenter"",""1"",""7610""
","
","","","","","","385.0999999977648","<p> Today, you will see each image ONCE only.  </p><p>  That means none of the images will repeat. </p>","","0","instructions","","","","","","","","",""
"learning-instructions","14","88726","0.0-7.0-0.7","1692","2","""event"",""trial"",""time""
""fullscreenenter"",""1"",""7610""
","
","
","""event"",""trial"",""time""
""fullscreenenter"",""1"",""7610""
","
","","","","","","666.6999999992549","<p> Before you play the real game, it is time to practice. </p><p>  Just like in the real game, some of the images in the practice will be ones you have seen before. </p><p>  Others will be entirely new. </p>","","0","instructions","","","","","","","","",""
"html-button-response","15","90642","0.0-8.0","1692","2","""event"",""trial"",""time""
""fullscreenenter"",""1"",""7610""
","
","
","""event"",""trial"",""time""
""fullscreenenter"",""1"",""7610""
","
","","","","","","1814.199999999255","<p> Ready to practice? </p><p> Remember, use the 1, 2, 3, and 4 keys to make your responses. </p>","0","","instructions","","","","","","","","",""
"html-keyboard-response","16","91245","0.0-9.0-0.0","1692","2","""event"",""trial"",""time""
""fullscreenenter"",""1"",""7610""
","
","
","""event"",""trial"",""time""
""fullscreenenter"",""1"",""7610""
","
","","","","","","null","<div style=""font-size:60px;"">+</div>","null","","fixation","","","","","","","","",""
"memory-trial","17","93515","0.0-9.0-1.0","1692","2","""event"",""trial"",""time""
""fullscreenenter"",""1"",""7610""
","
","
","""event"",""trial"",""time""
""fullscreenenter"",""1"",""7610""
","
","","","","","","1263","images/racket2.png","","","practice","1","definitely_old","","","","","","",""
"html-keyboard-response","18","94016","0.0-9.0-0.1","1692","2","""event"",""trial"",""time""
""fullscreenenter"",""1"",""7610""
","
","
","""event"",""trial"",""time""
""fullscreenenter"",""1"",""7610""
","
","","","","","","null","<div style=""font-size:60px;"">+</div>","null","","fixation","","","","","","","","",""
"memory-trial","19","96566","0.0-9.0-1.1","1692","2","""event"",""trial"",""time""
""fullscreenenter"",""1"",""7610""
","
","
","""event"",""trial"",""time""
""fullscreenenter"",""1"",""7610""
","
","","","","","","1543.699999999255","images/racket1.png","","","practice","2","maybe_old","","","","","","",""
"html-keyboard-response","20","97067","0.0-9.0-0.2","1692","2","""event"",""trial"",""time""
""fullscreenenter"",""1"",""7610""
","
","
","""event"",""trial"",""time""
""fullscreenenter"",""1"",""7610""
","
","","","","","","null","<div style=""font-size:60px;"">+</div>","null","","fixation","","","","","","","","",""
"memory-trial","21","99435","0.0-9.0-1.2","1692","2","""event"",""trial"",""time""
""fullscreenenter"",""1"",""7610""
","
","
","""event"",""trial"",""time""
""fullscreenenter"",""1"",""7610""
","
","","","","","","1362.699999999255","images/ball3.png","","","practice","3","maybe_new","","","","","","",""
"html-keyboard-response","22","99937","0.0-9.0-0.3","1692","2","""event"",""trial"",""time""
""fullscreenenter"",""1"",""7610""
","
","
","""event"",""trial"",""time""
""fullscreenenter"",""1"",""7610""
","
","","","","","","null","<div style=""font-size:60px;"">+</div>","null","","fixation","","","","","","","","",""
"memory-trial","23","102951","0.0-9.0-1.3","1692","2","""event"",""trial"",""time""
""fullscreenenter"",""1"",""7610""
","
","
","""event"",""trial"",""time""
""fullscreenenter"",""1"",""7610""
","
","","","","","","2008.2999999970198","images/ball4.png","","","practice","2","maybe_old","","","","","","",""
"html-keyboard-response","24","103452","0.0-9.0-0.4","1692","2","""event"",""trial"",""time""
""fullscreenenter"",""1"",""7610""
","
","
","""event"",""trial"",""time""
""fullscreenenter"",""1"",""7610""
","
","","","","","","null","<div style=""font-size:60px;"">+</div>","null","","fixation","","","","","","","","",""
"memory-trial","25","106155","0.0-9.0-1.4","1692","2","""event"",""trial"",""time""
""fullscreenenter"",""1"",""7610""
","
","
","""event"",""trial"",""time""
""fullscreenenter"",""1"",""7610""
","
","","","","","","1696.7000000029802","images/racket4.png","","","practice","3","maybe_new","","","","","","",""
"html-keyboard-response","26","106656","0.0-9.0-0.5","1692","2","""event"",""trial"",""time""
""fullscreenenter"",""1"",""7610""
","
","
","""event"",""trial"",""time""
""fullscreenenter"",""1"",""7610""
","
","","","","","","null","<div style=""font-size:60px;"">+</div>","null","","fixation","","","","","","","","",""
"memory-trial","27","109409","0.0-9.0-1.5","1692","2","""event"",""trial"",""time""
""fullscreenenter"",""1"",""7610""
","
","
","""event"",""trial"",""time""
""fullscreenenter"",""1"",""7610""
","
","","","","","","1748.699999999255","images/ball1.png","","","practice","2","maybe_old","","","","","","",""
"html-keyboard-response","28","109911","0.0-9.0-0.6","1692","2","""event"",""trial"",""time""
""fullscreenenter"",""1"",""7610""
","
","
","""event"",""trial"",""time""
""fullscreenenter"",""1"",""7610""
","
","","","","","","null","<div style=""font-size:60px;"">+</div>","null","","fixation","","","","","","","","",""
"memory-trial","29","112301","0.0-9.0-1.6","1692","2","""event"",""trial"",""time""
""fullscreenenter"",""1"",""7610""
","
","
","""event"",""trial"",""time""
""fullscreenenter"",""1"",""7610""
","
","","","","","","1384.7000000029802","images/ball2.png","","","practice","2","maybe_old","","","","","","",""
"html-keyboard-response","30","112806","0.0-9.0-0.7","1692","2","""event"",""trial"",""time""
""fullscreenenter"",""1"",""7610""
","
","
","""event"",""trial"",""time""
""fullscreenenter"",""1"",""7610""
","
","","","","","","null","<div style=""font-size:60px;"">+</div>","null","","fixation","","","","","","","","",""
"memory-trial","31","114979","0.0-9.0-1.7","1692","2","""event"",""trial"",""time""
""fullscreenenter"",""1"",""7610""
","
","
","""event"",""trial"",""time""
""fullscreenenter"",""1"",""7610""
","
","","","","","","1167.0999999977648","images/racket3.png","","","practice","3","maybe_new","","","","","","",""
"learning-instructions","32","124264","0.0-10.0-0.0","1692","2","""event"",""trial"",""time""
""fullscreenenter"",""1"",""7610""
","
","
","""event"",""trial"",""time""
""fullscreenenter"",""1"",""7610""
","
","","","","","","1334.6000000014901","<p> Great! You have completed the practice. </p><p> Before you start, we're going to ask you a few questions about how the game works.  </p>","","0","instructions","","","","","","","","",""
"preload","33","126862","0.0-11.0","1692","2","""event"",""trial"",""time""
""fullscreenenter"",""1"",""7610""
","
","
","""event"",""trial"",""time""
""fullscreenenter"",""1"",""7610""
","
","true","false","[]","[]","[]","","","","","","","","","","","","","",""
"comp-q","34","134783","0.0-12.0-0.0","1692","2","""event"",""trial"",""time""
""fullscreenenter"",""1"",""7610""
","
","
","""event"",""trial"",""time""
""fullscreenenter"",""1"",""7610""
","
","","","","","","2093.39999999851","<p> <b> True or False? </b> </p><p> In this game, you will only see each image once. </p>","","0","comp_question","","","true","","","","","",""
"comp-q","35","143042","0.0-12.0-1.0","1692","2","""event"",""trial"",""time""
""fullscreenenter"",""1"",""7610""
","
","
","""event"",""trial"",""time""
""fullscreenenter"",""1"",""7610""
","
","","","","","","1920.7000000029802","<p> <b> That's right! </b> You will see many different images <i> one time each </i> in this game. </p>","","0","comp_answer","","","","","","","","",""
"comp-q","36","149646","0.0-12.0-0.1","1692","2","""event"",""trial"",""time""
""fullscreenenter"",""1"",""7610""
","
","
","""event"",""trial"",""time""
""fullscreenenter"",""1"",""7610""
","
","","","","","","806.6999999992549","<p> <b> True or False? </b> </p><p> You should use the mouse and click to make your response. </p>","","1","comp_question","","","true","","","","","",""
"comp-q","37","158405","0.0-12.0-1.1","1692","2","""event"",""trial"",""time""
""fullscreenenter"",""1"",""7610""
","
","
","""event"",""trial"",""time""
""fullscreenenter"",""1"",""7610""
","
","","","","","","1417","<p><b> That's right! </b> You should use the '1', '2', '3', and '4' keys to make your response. </p>","","0","comp_answer","","","","","","","","",""
"comp-q","38","166325","0.0-12.0-0.2","1692","2","""event"",""trial"",""time""
""fullscreenenter"",""1"",""7610""
","
","
","""event"",""trial"",""time""
""fullscreenenter"",""1"",""7610""
","
","","","","","","1923.300000000745","<p> <b> True or False? </b> </p><p> You will have as much time as you want to make each choice. </p>","","1","comp_question","","","true","","","","","",""
"comp-q","39","174683","0.0-12.0-1.2","1692","2","""event"",""trial"",""time""
""fullscreenenter"",""1"",""7610""
","
","
","""event"",""trial"",""time""
""fullscreenenter"",""1"",""7610""
","
","","","","","","2975.400000002235","<p> <b> That's right! </b> You will only have 10 seconds to make each choice. </p>","","0","comp_answer","","","","","","","","",""
"learning-instructions","40","186277","0.0-13.0","1692","2","""event"",""trial"",""time""
""fullscreenenter"",""1"",""7610""
","
","
","""event"",""trial"",""time""
""fullscreenenter"",""1"",""7610""
","
","","","","","","2931.300000000745","<p> Great! You are now ready to begin the game. </p><p> Remember, use the 1, 2, 3, and 4 keys to make your responses. </p>","","0","instructions","","","","","","","","",""
"preload","41","192645","0.0-14.0","1692","2","""event"",""trial"",""time""
""fullscreenenter"",""1"",""7610""
","
","
","""event"",""trial"",""time""
""fullscreenenter"",""1"",""7610""
","
","true","false","[]","[]","[]","","","","","","","","","","","","","",""
"html-keyboard-response","42","193149","0.0-15.0-0.0","1692","2","""event"",""trial"",""time""
""fullscreenenter"",""1"",""7610""
","
","
","""event"",""trial"",""time""
""fullscreenenter"",""1"",""7610""
","
","","","","","","null","<div style=""font-size:60px;"">+</div>","null","","fixation","","","","","","","","",""
"memory-trial","43","195420","0.0-15.0-1.0","1692","2","""event"",""trial"",""time""
""fullscreenenter"",""1"",""7610""
","
","
","""event"",""trial"",""time""
""fullscreenenter"",""1"",""7610""
","
","","","","","","1264.800000000745","images/apple2.png","","","memory_trial","3","maybe_new","","","","","","",""
"html-keyboard-response","44","195926","0.0-15.0-0.1","1692","2","""event"",""trial"",""time""
""fullscreenenter"",""1"",""7610""
","
","
","""event"",""trial"",""time""
""fullscreenenter"",""1"",""7610""
","
","","","","","","null","<div style=""font-size:60px;"">+</div>","null","","fixation","","","","","","","","",""
"memory-trial","45","198380","0.0-15.0-1.1","1692","2","""event"",""trial"",""time""
""fullscreenenter"",""1"",""7610""
","
","
","""event"",""trial"",""time""
""fullscreenenter"",""1"",""7610""
","
","","","","","","1448.4000000022352","images/bed2.png","","","memory_trial","1","definitely_old","","","","","","",""
"html-keyboard-response","46","198885","0.0-15.0-0.2","1692","2","""event"",""trial"",""time""
""fullscreenenter"",""1"",""7610""
","
","
","""event"",""trial"",""time""
""fullscreenenter"",""1"",""7610""
","
","","","","","","null","<div style=""font-size:60px;"">+</div>","null","","fixation","","","","","","","","",""
"memory-trial","47","201399","0.0-15.0-1.2","1692","2","""event"",""trial"",""time""
""fullscreenenter"",""1"",""7610""
","
","
","""event"",""trial"",""time""
""fullscreenenter"",""1"",""7610""
","
","","","","","","1511.699999999255","images/rodent3.png","","","memory_trial","4","definitely_new","","","","","","",""
"html-keyboard-response","48","201900","0.0-15.0-0.3","1692","2","""event"",""trial"",""time""
""fullscreenenter"",""1"",""7610""
","
","
","""event"",""trial"",""time""
""fullscreenenter"",""1"",""7610""
","
","","","","","","null","<div style=""font-size:60px;"">+</div>","null","","fixation","","","","","","","","",""
"memory-trial","49","203949","0.0-15.0-1.3","1692","2","""event"",""trial"",""time""
""fullscreenenter"",""1"",""7610""
","
","
","""event"",""trial"",""time""
""fullscreenenter"",""1"",""7610""
","
","","","","","","1045.300000000745","images/plane2.png","","","memory_trial","4","definitely_new","","","","","","",""
"html-keyboard-response","50","204450","0.0-15.0-0.4","1692","2","""event"",""trial"",""time""
""fullscreenenter"",""1"",""7610""
","
","
","""event"",""trial"",""time""
""fullscreenenter"",""1"",""7610""
","
","","","","","","null","<div style=""font-size:60px;"">+</div>","null","","fixation","","","","","","","","",""
"memory-trial","51","206906","0.0-15.0-1.4","1692","2","""event"",""trial"",""time""
""fullscreenenter"",""1"",""7610""
","
","
","""event"",""trial"",""time""
""fullscreenenter"",""1"",""7610""
","
","","","","","","1449.6000000014901","images/horse1.png","","","memory_trial","4","definitely_new","","","","","","",""
"html-keyboard-response","52","207409","0.0-15.0-0.5","1692","2","""event"",""trial"",""time""
""fullscreenenter"",""1"",""7610""
","
","
","""event"",""trial"",""time""
""fullscreenenter"",""1"",""7610""
","
","","","","","","null","<div style=""font-size:60px;"">+</div>","null","","fixation","","","","","","","","",""
"memory-trial","53","209821","0.0-15.0-1.5","1692","2","""event"",""trial"",""time""
""fullscreenenter"",""1"",""7610""
","
","
","""event"",""trial"",""time""
""fullscreenenter"",""1"",""7610""
","
","","","","","","1408.699999999255","images/horse5.png","","","memory_trial","3","maybe_new","","","","","","",""
"html-keyboard-response","54","210325","0.0-15.0-0.6","1692","2","""event"",""trial"",""time""
""fullscreenenter"",""1"",""7610""
","
","
","""event"",""trial"",""time""
""fullscreenenter"",""1"",""7610""
","
","","","","","","null","<div style=""font-size:60px;"">+</div>","null","","fixation","","","","","","","","",""
"memory-trial","55","212486","0.0-15.0-1.6","1692","2","""event"",""trial"",""time""
""fullscreenenter"",""1"",""7610""
","
","
","""event"",""trial"",""time""
""fullscreenenter"",""1"",""7610""
","
","","","","","","1155.0999999977648","images/apple3.png","","","memory_trial","3","maybe_new","","","","","","",""
"html-keyboard-response","56","212992","0.0-15.0-0.7","1692","2","""event"",""trial"",""time""
""fullscreenenter"",""1"",""7610""
","
","
","""event"",""trial"",""time""
""fullscreenenter"",""1"",""7610""
","
","","","","","","null","<div style=""font-size:60px;"">+</div>","null","","fixation","","","","","","","","",""
"memory-trial","57","215277","0.0-15.0-1.7","1692","2","""event"",""trial"",""time""
""fullscreenenter"",""1"",""7610""
","
","
","""event"",""trial"",""time""
""fullscreenenter"",""1"",""7610""
","
","","","","","","1280.300000000745","images/tree1.png","","","memory_trial","1","definitely_old","","","","","","",""
"html-keyboard-response","58","215783","0.0-15.0-0.8","1692","2","""event"",""trial"",""time""
""fullscreenenter"",""1"",""7610""
","
","
","""event"",""trial"",""time""
""fullscreenenter"",""1"",""7610""
","
","","","","","","null","<div style=""font-size:60px;"">+</div>","null","","fixation","","","","","","","","",""
"memory-trial","59","217933","0.0-15.0-1.8","1692","2","""event"",""trial"",""time""
""fullscreenenter"",""1"",""7610""
","
","
","""event"",""trial"",""time""
""fullscreenenter"",""1"",""7610""
","
","","","","","","1145.300000000745","images/bush1.png","","","memory_trial","1","definitely_old","","","","","","",""
"html-keyboard-response","60","218434","0.0-15.0-0.9","1692","2","""event"",""trial"",""time""
""fullscreenenter"",""1"",""7610""
","
","
","""event"",""trial"",""time""
""fullscreenenter"",""1"",""7610""
","
","","","","","","null","<div style=""font-size:60px;"">+</div>","null","","fixation","","","","","","","","",""
"memory-trial","61","220908","0.0-15.0-1.9","1692","2","""event"",""trial"",""time""
""fullscreenenter"",""1"",""7610""
","
","
","""event"",""trial"",""time""
""fullscreenenter"",""1"",""7610""
","
","","","","","","1467.4000000022352","images/sofa2.png","","","memory_trial","3","maybe_new","","","","","","",""
"html-keyboard-response","62","221410","0.0-15.0-0.10","1692","2","""event"",""trial"",""time""
""fullscreenenter"",""1"",""7610""
","
","
","""event"",""trial"",""time""
""fullscreenenter"",""1"",""7610""
","
","","","","","","null","<div style=""font-size:60px;"">+</div>","null","","fixation","","","","","","","","",""
"memory-trial","63","223906","0.0-15.0-1.10","1692","2","""event"",""trial"",""time""
""fullscreenenter"",""1"",""7610""
","
","
","""event"",""trial"",""time""
""fullscreenenter"",""1"",""7610""
","
","","","","","","1490.0999999977648","images/feline1.png","","","memory_trial","1","definitely_old","","","","","","",""
"html-keyboard-response","64","224408","0.0-15.0-0.11","1692","2","""event"",""trial"",""time""
""fullscreenenter"",""1"",""7610""
","
","
","""event"",""trial"",""time""
""fullscreenenter"",""1"",""7610""
","
","","","","","","null","<div style=""font-size:60px;"">+</div>","null","","fixation","","","","","","","","",""
"memory-trial","65","226925","0.0-15.0-1.11","1692","2","""event"",""trial"",""time""
""fullscreenenter"",""1"",""7610""
","
","
","""event"",""trial"",""time""
""fullscreenenter"",""1"",""7610""
","
","","","","","","1512.199999999255","images/feline3.png","","","memory_trial","3","maybe_new","","","","","","",""
"html-keyboard-response","66","227426","0.0-15.0-0.12","1692","2","""event"",""trial"",""time""
""fullscreenenter"",""1"",""7610""
","
","
","""event"",""trial"",""time""
""fullscreenenter"",""1"",""7610""
","
","","","","","","null","<div style=""font-size:60px;"">+</div>","null","","fixation","","","","","","","","",""
"memory-trial","67","229661","0.0-15.0-1.12","1692","2","""event"",""trial"",""time""
""fullscreenenter"",""1"",""7610""
","
","
","""event"",""trial"",""time""
""fullscreenenter"",""1"",""7610""
","
","","","","","","1232.699999999255","images/bush5.png","","","memory_trial","3","maybe_new","","","","","","",""
"html-keyboard-response","68","230162","0.0-15.0-0.13","1692","2","""event"",""trial"",""time""
""fullscreenenter"",""1"",""7610""
","
","
","""event"",""trial"",""time""
""fullscreenenter"",""1"",""7610""
","
","","","","","","null","<div style=""font-size:60px;"">+</div>","null","","fixation","","","","","","","","",""
"memory-trial","69","232248","0.0-15.0-1.13","1692","2","""event"",""trial"",""time""
""fullscreenenter"",""1"",""7610""
","
","
","""event"",""trial"",""time""
""fullscreenenter"",""1"",""7610""
","
","","","","","","1081","images/train4.png","","","memory_trial","1","definitely_old","","","","","","",""
"html-keyboard-response","70","232749","0.0-15.0-0.14","1692","2","""event"",""trial"",""time""
""fullscreenenter"",""1"",""7610""
","
","
","""event"",""trial"",""time""
""fullscreenenter"",""1"",""7610""
","
","","","","","","null","<div style=""font-size:60px;"">+</div>","null","","fixation","","","","","","","","",""
"memory-trial","71","234732","0.0-15.0-1.14","1692","2","""event"",""trial"",""time""
""fullscreenenter"",""1"",""7610""
","
","
","""event"",""trial"",""time""
""fullscreenenter"",""1"",""7610""
","
","","","","","","982.1000000014901","images/bed4.png","","","memory_trial","1","definitely_old","","","","","","",""
"html-keyboard-response","72","235234","0.0-15.0-0.15","1692","2","""event"",""trial"",""time""
""fullscreenenter"",""1"",""7610""
","
","
","""event"",""trial"",""time""
""fullscreenenter"",""1"",""7610""
","
","","","","","","null","<div style=""font-size:60px;"">+</div>","null","","fixation","","","","","","","","",""
"memory-trial","73","237683","0.0-15.0-1.15","1692","2","""event"",""trial"",""time""
""fullscreenenter"",""1"",""7610""
","
","
","""event"",""trial"",""time""
""fullscreenenter"",""1"",""7610""
","
","","","","","","1444.300000000745","images/sheep2.png","","","memory_trial","3","maybe_new","","","","","","",""
"html-keyboard-response","74","238184","0.0-15.0-0.16","1692","2","""event"",""trial"",""time""
""fullscreenenter"",""1"",""7610""
","
","
","""event"",""trial"",""time""
""fullscreenenter"",""1"",""7610""
","
","","","","","","null","<div style=""font-size:60px;"">+</div>","null","","fixation","","","","","","","","",""
"memory-trial","75","240520","0.0-15.0-1.16","1692","2","""event"",""trial"",""time""
""fullscreenenter"",""1"",""7610""
","
","
","""event"",""trial"",""time""
""fullscreenenter"",""1"",""7610""
","
","","","","","","1330.199999999255","images/cactus2.png","","","memory_trial","3","maybe_new","","","","","","",""
"html-keyboard-response","76","241021","0.0-15.0-0.17","1692","2","""event"",""trial"",""time""
""fullscreenenter"",""1"",""7610""
","
","
","""event"",""trial"",""time""
""fullscreenenter"",""1"",""7610""
","
","","","","","","null","<div style=""font-size:60px;"">+</div>","null","","fixation","","","","","","","","",""
"memory-trial","77","243043","0.0-15.0-1.17","1692","2","""event"",""trial"",""time""
""fullscreenenter"",""1"",""7610""
","
","
","""event"",""trial"",""time""
""fullscreenenter"",""1"",""7610""
","
","","","","","","1019.3000000007451","images/goat5.png","","","memory_trial","1","definitely_old","","","","","","",""
"html-keyboard-response","78","243544","0.0-15.0-0.18","1692","2","""event"",""trial"",""time""
""fullscreenenter"",""1"",""7610""
","
","
","""event"",""trial"",""time""
""fullscreenenter"",""1"",""7610""
","
","","","","","","null","<div style=""font-size:60px;"">+</div>","null","","fixation","","","","","","","","",""
"memory-trial","79","245549","0.0-15.0-1.18","1692","2","""event"",""trial"",""time""
""fullscreenenter"",""1"",""7610""
","
","
","""event"",""trial"",""time""
""fullscreenenter"",""1"",""7610""
","
","","","","","","999.0999999977648","images/truck4.png","","","memory_trial","1","definitely_old","","","","","","",""
"html-keyboard-response","80","246051","0.0-15.0-0.19","1692","2","""event"",""trial"",""time""
""fullscreenenter"",""1"",""7610""
","
","
","""event"",""trial"",""time""
""fullscreenenter"",""1"",""7610""
","
","","","","","","null","<div style=""font-size:60px;"">+</div>","null","","fixation","","","","","","","","",""
"memory-trial","81","249112","0.0-15.0-1.19","1692","2","""event"",""trial"",""time""
""fullscreenenter"",""1"",""7610""
","
","
","""event"",""trial"",""time""
""fullscreenenter"",""1"",""7610""
","
","","","","","","2054.89999999851","images/sofa4.png","","","memory_trial","1","definitely_old","","","","","","",""
"html-keyboard-response","82","249613","0.0-15.0-0.20","1692","2","""event"",""trial"",""time""
""fullscreenenter"",""1"",""7610""
","
","
","""event"",""trial"",""time""
""fullscreenenter"",""1"",""7610""
","
","","","","","","null","<div style=""font-size:60px;"">+</div>","null","","fixation","","","","","","","","",""
"memory-trial","83","252280","0.0-15.0-1.20","1692","2","""event"",""trial"",""time""
""fullscreenenter"",""1"",""7610""
","
","
","""event"",""trial"",""time""
""fullscreenenter"",""1"",""7610""
","
","","","","","","1662.1000000014901","images/dog1.png","","","memory_trial","2","maybe_old","","","","","","",""
"html-keyboard-response","84","252783","0.0-15.0-0.21","1692","2","""event"",""trial"",""time""
""fullscreenenter"",""1"",""7610""
","
","
","""event"",""trial"",""time""
""fullscreenenter"",""1"",""7610""
","
","","","","","","null","<div style=""font-size:60px;"">+</div>","null","","fixation","","","","","","","","",""
"memory-trial","85","254789","0.0-15.0-1.21","1692","2","""event"",""trial"",""time""
""fullscreenenter"",""1"",""7610""
","
","
","""event"",""trial"",""time""
""fullscreenenter"",""1"",""7610""
","
","","","","","","1005.3000000007451","images/truck3.png","","","memory_trial","3","maybe_new","","","","","","",""
"html-keyboard-response","86","255291","0.0-15.0-0.22","1692","2","""event"",""trial"",""time""
""fullscreenenter"",""1"",""7610""
","
","
","""event"",""trial"",""time""
""fullscreenenter"",""1"",""7610""
","
","","","","","","null","<div style=""font-size:60px;"">+</div>","null","","fixation","","","","","","","","",""
"memory-trial","87","257923","0.0-15.0-1.22","1692","2","""event"",""trial"",""time""
""fullscreenenter"",""1"",""7610""
","
","
","""event"",""trial"",""time""
""fullscreenenter"",""1"",""7610""
","
","","","","","","1628.300000000745","images/table5.png","","","memory_trial","4","definitely_new","","","","","","",""
"html-keyboard-response","88","258424","0.0-15.0-0.23","1692","2","""event"",""trial"",""time""
""fullscreenenter"",""1"",""7610""
","
","
","""event"",""trial"",""time""
""fullscreenenter"",""1"",""7610""
","
","","","","","","null","<div style=""font-size:60px;"">+</div>","null","","fixation","","","","","","","","",""
"memory-trial","89","260797","0.0-15.0-1.23","1692","2","""event"",""trial"",""time""
""fullscreenenter"",""1"",""7610""
","
","
","""event"",""trial"",""time""
""fullscreenenter"",""1"",""7610""
","
","","","","","","1369.5999999977648","images/rabbit3.png","","","memory_trial","3","maybe_new","","","","","","",""
"html-keyboard-response","90","261299","0.0-15.0-0.24","1692","2","""event"",""trial"",""time""
""fullscreenenter"",""1"",""7610""
","
","
","""event"",""trial"",""time""
""fullscreenenter"",""1"",""7610""
","
","","","","","","null","<div style=""font-size:60px;"">+</div>","null","","fixation","","","","","","","","",""
"memory-trial","91","263603","0.0-15.0-1.24","1692","2","""event"",""trial"",""time""
""fullscreenenter"",""1"",""7610""
","
","
","""event"",""trial"",""time""
""fullscreenenter"",""1"",""7610""
","
","","","","","","1297.6000000014901","images/flower4.png","","","memory_trial","4","definitely_new","","","","","","",""
"html-keyboard-response","92","264107","0.0-15.0-0.25","1692","2","""event"",""trial"",""time""
""fullscreenenter"",""1"",""7610""
","
","
","""event"",""trial"",""time""
""fullscreenenter"",""1"",""7610""
","
","","","","","","null","<div style=""font-size:60px;"">+</div>","null","","fixation","","","","","","","","",""
"memory-trial","93","266371","0.0-15.0-1.25","1692","2","""event"",""trial"",""time""
""fullscreenenter"",""1"",""7610""
","
","
","""event"",""trial"",""time""
""fullscreenenter"",""1"",""7610""
","
","","","","","","1262","images/table3.png","","","memory_trial","3","maybe_new","","","","","","",""
"html-keyboard-response","94","266872","0.0-15.0-0.26","1692","2","""event"",""trial"",""time""
""fullscreenenter"",""1"",""7610""
","
","
","""event"",""trial"",""time""
""fullscreenenter"",""1"",""7610""
","
","","","","","","null","<div style=""font-size:60px;"">+</div>","null","","fixation","","","","","","","","",""
"memory-trial","95","268868","0.0-15.0-1.26","1692","2","""event"",""trial"",""time""
""fullscreenenter"",""1"",""7610""
","
","
","""event"",""trial"",""time""
""fullscreenenter"",""1"",""7610""
","
","","","","","","990.9000000022352","images/sofa5.png","","","memory_trial","3","maybe_new","","","","","","",""
"html-keyboard-response","96","269374","0.0-15.0-0.27","1692","2","""event"",""trial"",""time""
""fullscreenenter"",""1"",""7610""
","
","
","""event"",""trial"",""time""
""fullscreenenter"",""1"",""7610""
","
","","","","","","null","<div style=""font-size:60px;"">+</div>","null","","fixation","","","","","","","","",""
"memory-trial","97","271502","0.0-15.0-1.27","1692","2","""event"",""trial"",""time""
""fullscreenenter"",""1"",""7610""
","
","
","""event"",""trial"",""time""
""fullscreenenter"",""1"",""7610""
","
","","","","","","1123.0999999977648","images/goat1.png","","","memory_trial","3","maybe_new","","","","","","",""
"html-keyboard-response","98","272003","0.0-15.0-0.28","1692","2","""event"",""trial"",""time""
""fullscreenenter"",""1"",""7610""
","
","
","""event"",""trial"",""time""
""fullscreenenter"",""1"",""7610""
","
","","","","","","null","<div style=""font-size:60px;"">+</div>","null","","fixation","","","","","","","","",""
"memory-trial","99","274286","0.0-15.0-1.28","1692","2","""event"",""trial"",""time""
""fullscreenenter"",""1"",""7610""
","
","
","""event"",""trial"",""time""
""fullscreenenter"",""1"",""7610""
","
","","","","","","1277.0999999977648","images/truck5.png","","","memory_trial","4","definitely_new","","","","","","",""
"html-keyboard-response","100","274787","0.0-15.0-0.29","1692","2","""event"",""trial"",""time""
""fullscreenenter"",""1"",""7610""
","
","
","""event"",""trial"",""time""
""fullscreenenter"",""1"",""7610""
","
","","","","","","null","<div style=""font-size:60px;"">+</div>","null","","fixation","","","","","","","","",""
"memory-trial","101","277022","0.0-15.0-1.29","1692","2","""event"",""trial"",""time""
""fullscreenenter"",""1"",""7610""
","
","
","""event"",""trial"",""time""
""fullscreenenter"",""1"",""7610""
","
","","","","","","1230.1000000014901","images/sheep3.png","","","memory_trial","1","definitely_old","","","","","","",""
"html-keyboard-response","102","277523","0.0-15.0-0.30","1692","2","""event"",""trial"",""time""
""fullscreenenter"",""1"",""7610""
","
","
","""event"",""trial"",""time""
""fullscreenenter"",""1"",""7610""
","
","","","","","","null","<div style=""font-size:60px;"">+</div>","null","","fixation","","","","","","","","",""
"memory-trial","103","280115","0.0-15.0-1.30","1692","2","""event"",""trial"",""time""
""fullscreenenter"",""1"",""7610""
","
","
","""event"",""trial"",""time""
""fullscreenenter"",""1"",""7610""
","
","","","","","","1586.4000000022352","images/boat5.png","","","memory_trial","4","definitely_new","","","","","","",""
"html-keyboard-response","104","280616","0.0-15.0-0.31","1692","2","""event"",""trial"",""time""
""fullscreenenter"",""1"",""7610""
","
","
","""event"",""trial"",""time""
""fullscreenenter"",""1"",""7610""
","
","","","","","","null","<div style=""font-size:60px;"">+</div>","null","","fixation","","","","","","","","",""
"memory-trial","105","283571","0.0-15.0-1.31","1692","2","""event"",""trial"",""time""
""fullscreenenter"",""1"",""7610""
","
","
","""event"",""trial"",""time""
""fullscreenenter"",""1"",""7610""
","
","","","","","","1951.8999999985099","images/cow1.png","","","memory_trial","2","maybe_old","","","","","","",""
"html-keyboard-response","106","284072","0.0-15.0-0.32","1692","2","""event"",""trial"",""time""
""fullscreenenter"",""1"",""7610""
","
","
","""event"",""trial"",""time""
""fullscreenenter"",""1"",""7610""
","
","","","","","","null","<div style=""font-size:60px;"">+</div>","null","","fixation","","","","","","","","",""
"memory-trial","107","286563","0.0-15.0-1.32","1692","2","""event"",""trial"",""time""
""fullscreenenter"",""1"",""7610""
","
","
","""event"",""trial"",""time""
""fullscreenenter"",""1"",""7610""
","
","","","","","","1483.800000000745","images/bed5.png","","","memory_trial","4","definitely_new","","","","","","",""
"html-keyboard-response","108","287064","0.0-15.0-0.33","1692","2","""event"",""trial"",""time""
""fullscreenenter"",""1"",""7610""
","
","
","""event"",""trial"",""time""
""fullscreenenter"",""1"",""7610""
","
","","","","","","null","<div style=""font-size:60px;"">+</div>","null","","fixation","","","","","","","","",""
"memory-trial","109","289139","0.0-15.0-1.33","1692","2","""event"",""trial"",""time""
""fullscreenenter"",""1"",""7610""
","
","
","""event"",""trial"",""time""
""fullscreenenter"",""1"",""7610""
","
","","","","","","1070.5999999977648","images/feline5.png","","","memory_trial","1","definitely_old","","","","","","",""
"html-keyboard-response","110","289642","0.0-15.0-0.34","1692","2","""event"",""trial"",""time""
""fullscreenenter"",""1"",""7610""
","
","
","""event"",""trial"",""time""
""fullscreenenter"",""1"",""7610""
","
","","","","","","null","<div style=""font-size:60px;"">+</div>","null","","fixation","","","","","","","","",""
"memory-trial","111","292179","0.0-15.0-1.34","1692","2","""event"",""trial"",""time""
""fullscreenenter"",""1"",""7610""
","
","
","""event"",""trial"",""time""
""fullscreenenter"",""1"",""7610""
","
","","","","","","1532.1000000014901","images/rabbit1.png","","","memory_trial","1","definitely_old","","","","","","",""
"html-keyboard-response","112","292680","0.0-15.0-0.35","1692","2","""event"",""trial"",""time""
""fullscreenenter"",""1"",""7610""
","
","
","""event"",""trial"",""time""
""fullscreenenter"",""1"",""7610""
","
","","","","","","null","<div style=""font-size:60px;"">+</div>","null","","fixation","","","","","","","","",""
"memory-trial","113","295977","0.0-15.0-1.35","1692","2","""event"",""trial"",""time""
""fullscreenenter"",""1"",""7610""
","
","
","""event"",""trial"",""time""
""fullscreenenter"",""1"",""7610""
","
","","","","","","2293.7999999970198","images/straw3.png","","","memory_trial","2","maybe_old","","","","","","",""
"html-keyboard-response","114","296478","0.0-15.0-0.36","1692","2","""event"",""trial"",""time""
""fullscreenenter"",""1"",""7610""
","
","
","""event"",""trial"",""time""
""fullscreenenter"",""1"",""7610""
","
","","","","","","null","<div style=""font-size:60px;"">+</div>","null","","fixation","","","","","","","","",""
"memory-trial","115","299086","0.0-15.0-1.36","1692","2","""event"",""trial"",""time""
""fullscreenenter"",""1"",""7610""
","
","
","""event"",""trial"",""time""
""fullscreenenter"",""1"",""7610""
","
","","","","","","1603.199999999255","images/boat1.png","","","memory_trial","2","maybe_old","","","","","","",""
"html-keyboard-response","116","299587","0.0-15.0-0.37","1692","2","""event"",""trial"",""time""
""fullscreenenter"",""1"",""7610""
","
","
","""event"",""trial"",""time""
""fullscreenenter"",""1"",""7610""
","
","","","","","","null","<div style=""font-size:60px;"">+</div>","null","","fixation","","","","","","","","",""
"memory-trial","117","301891","0.0-15.0-1.37","1692","2","""event"",""trial"",""time""
""fullscreenenter"",""1"",""7610""
","
","
","""event"",""trial"",""time""
""fullscreenenter"",""1"",""7610""
","
","","","","","","1299.0999999977648","images/boat2.png","","","memory_trial","1","definitely_old","","","","","","",""
"html-keyboard-response","118","302398","0.0-15.0-0.38","1692","2","""event"",""trial"",""time""
""fullscreenenter"",""1"",""7610""
","
","
","""event"",""trial"",""time""
""fullscreenenter"",""1"",""7610""
","
","","","","","","null","<div style=""font-size:60px;"">+</div>","null","","fixation","","","","","","","","",""
"memory-trial","119","304931","0.0-15.0-1.38","1692","2","""event"",""trial"",""time""
""fullscreenenter"",""1"",""7610""
","
","
","""event"",""trial"",""time""
""fullscreenenter"",""1"",""7610""
","
","","","","","","1527.300000000745","images/plane4.png","","","memory_trial","4","definitely_new","","","","","","",""
"html-keyboard-response","120","305432","0.0-15.0-0.39","1692","2","""event"",""trial"",""time""
""fullscreenenter"",""1"",""7610""
","
","
","""event"",""trial"",""time""
""fullscreenenter"",""1"",""7610""
","
","","","","","","null","<div style=""font-size:60px;"">+</div>","null","","fixation","","","","","","","","",""
"memory-trial","121","308211","0.0-15.0-1.39","1692","2","""event"",""trial"",""time""
""fullscreenenter"",""1"",""7610""
","
","
","""event"",""trial"",""time""
""fullscreenenter"",""1"",""7610""
","
","","","","","","1774.1000000014901","images/plane1.png","","","memory_trial","1","definitely_old","","","","","","",""
"html-keyboard-response","122","308712","0.0-15.0-0.40","1692","2","""event"",""trial"",""time""
""fullscreenenter"",""1"",""7610""
","
","
","""event"",""trial"",""time""
""fullscreenenter"",""1"",""7610""
","
","","","","","","null","<div style=""font-size:60px;"">+</div>","null","","fixation","","","","","","","","",""
"memory-trial","123","311300","0.0-15.0-1.40","1692","2","""event"",""trial"",""time""
""fullscreenenter"",""1"",""7610""
","
","
","""event"",""trial"",""time""
""fullscreenenter"",""1"",""7610""
","
","","","","","","1581.9000000022352","images/horse3.png","","","memory_trial","4","definitely_new","","","","","","",""
"html-keyboard-response","124","311800","0.0-15.0-0.41","1692","2","""event"",""trial"",""time""
""fullscreenenter"",""1"",""7610""
","
","
","""event"",""trial"",""time""
""fullscreenenter"",""1"",""7610""
","
","","","","","","null","<div style=""font-size:60px;"">+</div>","null","","fixation","","","","","","","","",""
"memory-trial","125","313854","0.0-15.0-1.41","1692","2","""event"",""trial"",""time""
""fullscreenenter"",""1"",""7610""
","
","
","""event"",""trial"",""time""
""fullscreenenter"",""1"",""7610""
","
","","","","","","1048","images/train5.png","","","memory_trial","4","definitely_new","","","","","","",""
"html-keyboard-response","126","314355","0.0-15.0-0.42","1692","2","""event"",""trial"",""time""
""fullscreenenter"",""1"",""7610""
","
","
","""event"",""trial"",""time""
""fullscreenenter"",""1"",""7610""
","
","","","","","","null","<div style=""font-size:60px;"">+</div>","null","","fixation","","","","","","","","",""
"memory-trial","127","316787","0.0-15.0-1.42","1692","2","""event"",""trial"",""time""
""fullscreenenter"",""1"",""7610""
","
","
","""event"",""trial"",""time""
""fullscreenenter"",""1"",""7610""
","
","","","","","","1428.6000000014901","images/tree2.png","","","memory_trial","4","definitely_new","","","","","","",""
"html-keyboard-response","128","317291","0.0-15.0-0.43","1692","2","""event"",""trial"",""time""
""fullscreenenter"",""1"",""7610""
","
","
","""event"",""trial"",""time""
""fullscreenenter"",""1"",""7610""
","
","","","","","","null","<div style=""font-size:60px;"">+</div>","null","","fixation","","","","","","","","",""
"memory-trial","129","319502","0.0-15.0-1.43","1692","2","""event"",""trial"",""time""
""fullscreenenter"",""1"",""7610""
","
","
","""event"",""trial"",""time""
""fullscreenenter"",""1"",""7610""
","
","","","","","","1208.6000000014901","images/dog4.png","","","memory_trial","1","definitely_old","","","","","","",""
"html-keyboard-response","130","320003","0.0-15.0-0.44","1692","2","""event"",""trial"",""time""
""fullscreenenter"",""1"",""7610""
","
","
","""event"",""trial"",""time""
""fullscreenenter"",""1"",""7610""
","
","","","","","","null","<div style=""font-size:60px;"">+</div>","null","","fixation","","","","","","","","",""
"memory-trial","131","323027","0.0-15.0-1.44","1692","2","""event"",""trial"",""time""
""fullscreenenter"",""1"",""7610""
","
","
","""event"",""trial"",""time""
""fullscreenenter"",""1"",""7610""
","
","","","","","","2017.199999999255","images/sheep1.png","","","memory_trial","3","maybe_new","","","","","","",""
"html-keyboard-response","132","323529","0.0-15.0-0.45","1692","2","""event"",""trial"",""time""
""fullscreenenter"",""1"",""7610""
","
","
","""event"",""trial"",""time""
""fullscreenenter"",""1"",""7610""
","
","","","","","","null","<div style=""font-size:60px;"">+</div>","null","","fixation","","","","","","","","",""
"memory-trial","133","325570","0.0-15.0-1.45","1692","2","""event"",""trial"",""time""
""fullscreenenter"",""1"",""7610""
","
","
","""event"",""trial"",""time""
""fullscreenenter"",""1"",""7610""
","
","","","","","","1035.2999999970198","images/plane5.png","","","memory_trial","3","maybe_new","","","","","","",""
"html-keyboard-response","134","326073","0.0-15.0-0.46","1692","2","""event"",""trial"",""time""
""fullscreenenter"",""1"",""7610""
","
","
","""event"",""trial"",""time""
""fullscreenenter"",""1"",""7610""
","
","","","","","","null","<div style=""font-size:60px;"">+</div>","null","","fixation","","","","","","","","",""
"memory-trial","135","328404","0.0-15.0-1.46","1692","2","""event"",""trial"",""time""
""fullscreenenter"",""1"",""7610""
","
","
","""event"",""trial"",""time""
""fullscreenenter"",""1"",""7610""
","
","","","","","","1325.3999999985099","images/straw4.png","","","memory_trial","2","maybe_old","","","","","","",""
"html-button-response","136","370888","0.0-15.0-2.46-0.46","1692","2","""event"",""trial"",""time""
""fullscreenenter"",""1"",""7610""
","
","
","""event"",""trial"",""time""
""fullscreenenter"",""1"",""7610""
","
","","","","","","42482.800000000745","<p> Take a break! </p><p> Click the button to continue. </p>","0","","break","","","","","","","","",""
"html-keyboard-response","137","371391","0.0-15.0-0.47","1692","2","""event"",""trial"",""time""
""fullscreenenter"",""1"",""7610""
","
","
","""event"",""trial"",""time""
""fullscreenenter"",""1"",""7610""
","
","","","","","","null","<div style=""font-size:60px;"">+</div>","null","","fixation","","","","","","","","",""
"memory-trial","138","373775","0.0-15.0-1.47","1692","2","""event"",""trial"",""time""
""fullscreenenter"",""1"",""7610""
","
","
","""event"",""trial"",""time""
""fullscreenenter"",""1"",""7610""
","
","","","","","","1378.3999999985099","images/flower2.png","","","memory_trial","2","maybe_old","","","","","","",""
"html-keyboard-response","139","374276","0.0-15.0-0.48","1692","2","""event"",""trial"",""time""
""fullscreenenter"",""1"",""7610""
","
","
","""event"",""trial"",""time""
""fullscreenenter"",""1"",""7610""
","
","","","","","","null","<div style=""font-size:60px;"">+</div>","null","","fixation","","","","","","","","",""
"memory-trial","140","376340","0.0-15.0-1.48","1692","2","""event"",""trial"",""time""
""fullscreenenter"",""1"",""7610""
","
","
","""event"",""trial"",""time""
""fullscreenenter"",""1"",""7610""
","
","","","","","","1061.5","images/feline4.png","","","memory_trial","1","definitely_old","","","","","","",""
"html-keyboard-response","141","376842","0.0-15.0-0.49","1692","2","""event"",""trial"",""time""
""fullscreenenter"",""1"",""7610""
","
","
","""event"",""trial"",""time""
""fullscreenenter"",""1"",""7610""
","
","","","","","","null","<div style=""font-size:60px;"">+</div>","null","","fixation","","","","","","","","",""
"memory-trial","142","379166","0.0-15.0-1.49","1692","2","""event"",""trial"",""time""
""fullscreenenter"",""1"",""7610""
","
","
","""event"",""trial"",""time""
""fullscreenenter"",""1"",""7610""
","
","","","","","","1318.7999999970198","images/sofa3.png","","","memory_trial","3","maybe_new","","","","","","",""
"html-keyboard-response","143","379668","0.0-15.0-0.50","1692","2","""event"",""trial"",""time""
""fullscreenenter"",""1"",""7610""
","
","
","""event"",""trial"",""time""
""fullscreenenter"",""1"",""7610""
","
","","","","","","null","<div style=""font-size:60px;"">+</div>","null","","fixation","","","","","","","","",""
"memory-trial","144","381711","0.0-15.0-1.50","1692","2","""event"",""trial"",""time""
""fullscreenenter"",""1"",""7610""
","
","
","""event"",""trial"",""time""
""fullscreenenter"",""1"",""7610""
","
","","","","","","1039.9000000022352","images/truck1.png","","","memory_trial","1","definitely_old","","","","","","",""
"html-keyboard-response","145","382215","0.0-15.0-0.51","1692","2","""event"",""trial"",""time""
""fullscreenenter"",""1"",""7610""
","
","
","""event"",""trial"",""time""
""fullscreenenter"",""1"",""7610""
","
","","","","","","null","<div style=""font-size:60px;"">+</div>","null","","fixation","","","","","","","","",""
"memory-trial","146","384383","0.0-15.0-1.51","1692","2","""event"",""trial"",""time""
""fullscreenenter"",""1"",""7610""
","
","
","""event"",""trial"",""time""
""fullscreenenter"",""1"",""7610""
","
","","","","","","1165.5","images/rodent2.png","","","memory_trial","3","maybe_new","","","","","","",""
"html-keyboard-response","147","384884","0.0-15.0-0.52","1692","2","""event"",""trial"",""time""
""fullscreenenter"",""1"",""7610""
","
","
","""event"",""trial"",""time""
""fullscreenenter"",""1"",""7610""
","
","","","","","","null","<div style=""font-size:60px;"">+</div>","null","","fixation","","","","","","","","",""
"memory-trial","148","387365","0.0-15.0-1.52","1692","2","""event"",""trial"",""time""
""fullscreenenter"",""1"",""7610""
","
","
","""event"",""trial"",""time""
""fullscreenenter"",""1"",""7610""
","
","","","","","","1474.199999999255","images/bush4.png","","","memory_trial","2","maybe_old","","","","","","",""
"html-keyboard-response","149","387866","0.0-15.0-0.53","1692","2","""event"",""trial"",""time""
""fullscreenenter"",""1"",""7610""
","
","
","""event"",""trial"",""time""
""fullscreenenter"",""1"",""7610""
","
","","","","","","null","<div style=""font-size:60px;"">+</div>","null","","fixation","","","","","","","","",""
"memory-trial","150","391263","0.0-15.0-1.53","1692","2","""event"",""trial"",""time""
""fullscreenenter"",""1"",""7610""
","
","
","""event"",""trial"",""time""
""fullscreenenter"",""1"",""7610""
","
","","","","","","2390.300000000745","images/banana4.png","","","memory_trial","3","maybe_new","","","","","","",""
"html-keyboard-response","151","391764","0.0-15.0-0.54","1692","2","""event"",""trial"",""time""
""fullscreenenter"",""1"",""7610""
","
","
","""event"",""trial"",""time""
""fullscreenenter"",""1"",""7610""
","
","","","","","","null","<div style=""font-size:60px;"">+</div>","null","","fixation","","","","","","","","",""
"memory-trial","152","394852","0.0-15.0-1.54","1692","2","""event"",""trial"",""time""
""fullscreenenter"",""1"",""7610""
","
","
","""event"",""trial"",""time""
""fullscreenenter"",""1"",""7610""
","
","","","","","","2084.89999999851","images/tree5.png","","","memory_trial","2","maybe_old","","","","","","",""
"html-keyboard-response","153","395354","0.0-15.0-0.55","1692","2","""event"",""trial"",""time""
""fullscreenenter"",""1"",""7610""
","
","
","""event"",""trial"",""time""
""fullscreenenter"",""1"",""7610""
","
","","","","","","null","<div style=""font-size:60px;"">+</div>","null","","fixation","","","","","","","","",""
"memory-trial","154","397626","0.0-15.0-1.55","1692","2","""event"",""trial"",""time""
""fullscreenenter"",""1"",""7610""
","
","
","""event"",""trial"",""time""
""fullscreenenter"",""1"",""7610""
","
","","","","","","1268.199999999255","images/rodent5.png","","","memory_trial","3","maybe_new","","","","","","",""
"html-keyboard-response","155","398127","0.0-15.0-0.56","1692","2","""event"",""trial"",""time""
""fullscreenenter"",""1"",""7610""
","
","
","""event"",""trial"",""time""
""fullscreenenter"",""1"",""7610""
","
","","","","","","null","<div style=""font-size:60px;"">+</div>","null","","fixation","","","","","","","","",""
"memory-trial","156","400431","0.0-15.0-1.56","1692","2","""event"",""trial"",""time""
""fullscreenenter"",""1"",""7610""
","
","
","""event"",""trial"",""time""
""fullscreenenter"",""1"",""7610""
","
","","","","","","1297.2000000029802","images/chair5.png","","","memory_trial","1","definitely_old","","","","","","",""
"html-keyboard-response","157","400933","0.0-15.0-0.57","1692","2","""event"",""trial"",""time""
""fullscreenenter"",""1"",""7610""
","
","
","""event"",""trial"",""time""
""fullscreenenter"",""1"",""7610""
","
","","","","","","null","<div style=""font-size:60px;"">+</div>","null","","fixation","","","","","","","","",""
"memory-trial","158","402997","0.0-15.0-1.57","1692","2","""event"",""trial"",""time""
""fullscreenenter"",""1"",""7610""
","
","
","""event"",""trial"",""time""
""fullscreenenter"",""1"",""7610""
","
","","","","","","1060.8999999985099","images/cactus4.png","","","memory_trial","1","definitely_old","","","","","","",""
"html-keyboard-response","159","403498","0.0-15.0-0.58","1692","2","""event"",""trial"",""time""
""fullscreenenter"",""1"",""7610""
","
","
","""event"",""trial"",""time""
""fullscreenenter"",""1"",""7610""
","
","","","","","","null","<div style=""font-size:60px;"">+</div>","null","","fixation","","","","","","","","",""
"memory-trial","160","406341","0.0-15.0-1.58","1692","2","""event"",""trial"",""time""
""fullscreenenter"",""1"",""7610""
","
","
","""event"",""trial"",""time""
""fullscreenenter"",""1"",""7610""
","
","","","","","","1840","images/banana3.png","","","memory_trial","2","maybe_old","","","","","","",""
"html-keyboard-response","161","406842","0.0-15.0-0.59","1692","2","""event"",""trial"",""time""
""fullscreenenter"",""1"",""7610""
","
","
","""event"",""trial"",""time""
""fullscreenenter"",""1"",""7610""
","
","","","","","","null","<div style=""font-size:60px;"">+</div>","null","","fixation","","","","","","","","",""
"memory-trial","162","409098","0.0-15.0-1.59","1692","2","""event"",""trial"",""time""
""fullscreenenter"",""1"",""7610""
","
","
","""event"",""trial"",""time""
""fullscreenenter"",""1"",""7610""
","
","","","","","","1254.2999999970198","images/cow5.png","","","memory_trial","1","definitely_old","","","","","","",""
"html-keyboard-response","163","409599","0.0-15.0-0.60","1692","2","""event"",""trial"",""time""
""fullscreenenter"",""1"",""7610""
","
","
","""event"",""trial"",""time""
""fullscreenenter"",""1"",""7610""
","
","","","","","","null","<div style=""font-size:60px;"">+</div>","null","","fixation","","","","","","","","",""
"memory-trial","164","412170","0.0-15.0-1.60","1692","2","""event"",""trial"",""time""
""fullscreenenter"",""1"",""7610""
","
","
","""event"",""trial"",""time""
""fullscreenenter"",""1"",""7610""
","
","","","","","","1563.6000000014901","images/straw1.png","","","memory_trial","2","maybe_old","","","","","","",""
"html-keyboard-response","165","412671","0.0-15.0-0.61","1692","2","""event"",""trial"",""time""
""fullscreenenter"",""1"",""7610""
","
","
","""event"",""trial"",""time""
""fullscreenenter"",""1"",""7610""
","
","","","","","","null","<div style=""font-size:60px;"">+</div>","null","","fixation","","","","","","","","",""
"memory-trial","166","414522","0.0-15.0-1.61","1692","2","""event"",""trial"",""time""
""fullscreenenter"",""1"",""7610""
","
","
","""event"",""trial"",""time""
""fullscreenenter"",""1"",""7610""
","
","","","","","","844.3999999985099","images/tree3.png","","","memory_trial","1","definitely_old","","","","","","",""
"html-keyboard-response","167","415023","0.0-15.0-0.62","1692","2","""event"",""trial"",""time""
""fullscreenenter"",""1"",""7610""
","
","
","""event"",""trial"",""time""
""fullscreenenter"",""1"",""7610""
","
","","","","","","null","<div style=""font-size:60px;"">+</div>","null","","fixation","","","","","","","","",""
"memory-trial","168","417173","0.0-15.0-1.62","1692","2","""event"",""trial"",""time""
""fullscreenenter"",""1"",""7610""
","
","
","""event"",""trial"",""time""
""fullscreenenter"",""1"",""7610""
","
","","","","","","1144.0999999977648","images/straw5.png","","","memory_trial","1","definitely_old","","","","","","",""
"html-keyboard-response","169","417674","0.0-15.0-0.63","1692","2","""event"",""trial"",""time""
""fullscreenenter"",""1"",""7610""
","
","
","""event"",""trial"",""time""
""fullscreenenter"",""1"",""7610""
","
","","","","","","null","<div style=""font-size:60px;"">+</div>","null","","fixation","","","","","","","","",""
"memory-trial","170","420432","0.0-15.0-1.63","1692","2","""event"",""trial"",""time""
""fullscreenenter"",""1"",""7610""
","
","
","""event"",""trial"",""time""
""fullscreenenter"",""1"",""7610""
","
","","","","","","1750.5","images/dog3.png","","","memory_trial","3","maybe_new","","","","","","",""
"html-keyboard-response","171","420937","0.0-15.0-0.64","1692","2","""event"",""trial"",""time""
""fullscreenenter"",""1"",""7610""
","
","
","""event"",""trial"",""time""
""fullscreenenter"",""1"",""7610""
","
","","","","","","null","<div style=""font-size:60px;"">+</div>","null","","fixation","","","","","","","","",""
"memory-trial","172","423632","0.0-15.0-1.64","1692","2","""event"",""trial"",""time""
""fullscreenenter"",""1"",""7610""
","
","
","""event"",""trial"",""time""
""fullscreenenter"",""1"",""7610""
","
","","","","","","1689.8999999985099","images/orange5.png","","","memory_trial","2","maybe_old","","","","","","",""
"html-keyboard-response","173","424133","0.0-15.0-0.65","1692","2","""event"",""trial"",""time""
""fullscreenenter"",""1"",""7610""
","
","
","""event"",""trial"",""time""
""fullscreenenter"",""1"",""7610""
","
","","","","","","null","<div style=""font-size:60px;"">+</div>","null","","fixation","","","","","","","","",""
"memory-trial","174","427690","0.0-15.0-1.65","1692","2","""event"",""trial"",""time""
""fullscreenenter"",""1"",""7610""
","
","
","""event"",""trial"",""time""
""fullscreenenter"",""1"",""7610""
","
","","","","","","2554.300000000745","images/feline2.png","","","memory_trial","3","maybe_new","","","","","","",""
"html-keyboard-response","175","428192","0.0-15.0-0.66","1692","2","""event"",""trial"",""time""
""fullscreenenter"",""1"",""7610""
","
","
","""event"",""trial"",""time""
""fullscreenenter"",""1"",""7610""
","
","","","","","","null","<div style=""font-size:60px;"">+</div>","null","","fixation","","","","","","","","",""
"memory-trial","176","430400","0.0-15.0-1.66","1692","2","""event"",""trial"",""time""
""fullscreenenter"",""1"",""7610""
","
","
","""event"",""trial"",""time""
""fullscreenenter"",""1"",""7610""
","
","","","","","","1205.5","images/rodent4.png","","","memory_trial","3","maybe_new","","","","","","",""
"html-keyboard-response","177","430906","0.0-15.0-0.67","1692","2","""event"",""trial"",""time""
""fullscreenenter"",""1"",""7610""
","
","
","""event"",""trial"",""time""
""fullscreenenter"",""1"",""7610""
","
","","","","","","null","<div style=""font-size:60px;"">+</div>","null","","fixation","","","","","","","","",""
"memory-trial","178","433375","0.0-15.0-1.67","1692","2","""event"",""trial"",""time""
""fullscreenenter"",""1"",""7610""
","
","
","""event"",""trial"",""time""
""fullscreenenter"",""1"",""7610""
","
","","","","","","1463","images/goat2.png","","","memory_trial","1","definitely_old","","","","","","",""
"html-keyboard-response","179","433877","0.0-15.0-0.68","1692","2","""event"",""trial"",""time""
""fullscreenenter"",""1"",""7610""
","
","
","""event"",""trial"",""time""
""fullscreenenter"",""1"",""7610""
","
","","","","","","null","<div style=""font-size:60px;"">+</div>","null","","fixation","","","","","","","","",""
"memory-trial","180","435642","0.0-15.0-1.68","1692","2","""event"",""trial"",""time""
""fullscreenenter"",""1"",""7610""
","
","
","""event"",""trial"",""time""
""fullscreenenter"",""1"",""7610""
","
","","","","","","763","images/sheep4.png","","","memory_trial","1","definitely_old","","","","","","",""
"html-keyboard-response","181","436144","0.0-15.0-0.69","1692","2","""event"",""trial"",""time""
""fullscreenenter"",""1"",""7610""
","
","
","""event"",""trial"",""time""
""fullscreenenter"",""1"",""7610""
","
","","","","","","null","<div style=""font-size:60px;"">+</div>","null","","fixation","","","","","","","","",""
"memory-trial","182","438351","0.0-15.0-1.69","1692","2","""event"",""trial"",""time""
""fullscreenenter"",""1"",""7610""
","
","
","""event"",""trial"",""time""
""fullscreenenter"",""1"",""7610""
","
","","","","","","1202.5999999977648","images/orange4.png","","","memory_trial","2","maybe_old","","","","","","",""
"html-keyboard-response","183","438853","0.0-15.0-0.70","1692","2","""event"",""trial"",""time""
""fullscreenenter"",""1"",""7610""
","
","
","""event"",""trial"",""time""
""fullscreenenter"",""1"",""7610""
","
","","","","","","null","<div style=""font-size:60px;"">+</div>","null","","fixation","","","","","","","","",""
"memory-trial","184","441237","0.0-15.0-1.70","1692","2","""event"",""trial"",""time""
""fullscreenenter"",""1"",""7610""
","
","
","""event"",""trial"",""time""
""fullscreenenter"",""1"",""7610""
","
","","","","","","1379.300000000745","images/truck2.png","","","memory_trial","1","definitely_old","","","","","","",""
"html-keyboard-response","185","441738","0.0-15.0-0.71","1692","2","""event"",""trial"",""time""
""fullscreenenter"",""1"",""7610""
","
","
","""event"",""trial"",""time""
""fullscreenenter"",""1"",""7610""
","
","","","","","","null","<div style=""font-size:60px;"">+</div>","null","","fixation","","","","","","","","",""
"memory-trial","186","443752","0.0-15.0-1.71","1692","2","""event"",""trial"",""time""
""fullscreenenter"",""1"",""7610""
","
","
","""event"",""trial"",""time""
""fullscreenenter"",""1"",""7610""
","
","","","","","","1011.6999999992549","images/chair1.png","","","memory_trial","1","definitely_old","","","","","","",""
"html-keyboard-response","187","444256","0.0-15.0-0.72","1692","2","""event"",""trial"",""time""
""fullscreenenter"",""1"",""7610""
","
","
","""event"",""trial"",""time""
""fullscreenenter"",""1"",""7610""
","
","","","","","","null","<div style=""font-size:60px;"">+</div>","null","","fixation","","","","","","","","",""
"memory-trial","188","446389","0.0-15.0-1.72","1692","2","""event"",""trial"",""time""
""fullscreenenter"",""1"",""7610""
","
","
","""event"",""trial"",""time""
""fullscreenenter"",""1"",""7610""
","
","","","","","","1128.199999999255","images/sheep5.png","","","memory_trial","1","definitely_old","","","","","","",""
"html-keyboard-response","189","446890","0.0-15.0-0.73","1692","2","""event"",""trial"",""time""
""fullscreenenter"",""1"",""7610""
","
","
","""event"",""trial"",""time""
""fullscreenenter"",""1"",""7610""
","
","","","","","","null","<div style=""font-size:60px;"">+</div>","null","","fixation","","","","","","","","",""
"memory-trial","190","449090","0.0-15.0-1.73","1692","2","""event"",""trial"",""time""
""fullscreenenter"",""1"",""7610""
","
","
","""event"",""trial"",""time""
""fullscreenenter"",""1"",""7610""
","
","","","","","","1194.199999999255","images/horse4.png","","","memory_trial","2","maybe_old","","","","","","",""
"html-keyboard-response","191","449594","0.0-15.0-0.74","1692","2","""event"",""trial"",""time""
""fullscreenenter"",""1"",""7610""
","
","
","""event"",""trial"",""time""
""fullscreenenter"",""1"",""7610""
","
","","","","","","null","<div style=""font-size:60px;"">+</div>","null","","fixation","","","","","","","","",""
"memory-trial","192","452160","0.0-15.0-1.74","1692","2","""event"",""trial"",""time""
""fullscreenenter"",""1"",""7610""
","
","
","""event"",""trial"",""time""
""fullscreenenter"",""1"",""7610""
","
","","","","","","1560","images/cactus3.png","","","memory_trial","4","definitely_new","","","","","","",""
"html-keyboard-response","193","452661","0.0-15.0-0.75","1692","2","""event"",""trial"",""time""
""fullscreenenter"",""1"",""7610""
","
","
","""event"",""trial"",""time""
""fullscreenenter"",""1"",""7610""
","
","","","","","","null","<div style=""font-size:60px;"">+</div>","null","","fixation","","","","","","","","",""
"memory-trial","194","454832","0.0-15.0-1.75","1692","2","""event"",""trial"",""time""
""fullscreenenter"",""1"",""7610""
","
","
","""event"",""trial"",""time""
""fullscreenenter"",""1"",""7610""
","
","","","","","","1168.6000000014901","images/boat4.png","","","memory_trial","1","definitely_old","","","","","","",""
"html-keyboard-response","195","455333","0.0-15.0-0.76","1692","2","""event"",""trial"",""time""
""fullscreenenter"",""1"",""7610""
","
","
","""event"",""trial"",""time""
""fullscreenenter"",""1"",""7610""
","
","","","","","","null","<div style=""font-size:60px;"">+</div>","null","","fixation","","","","","","","","",""
"memory-trial","196","457669","0.0-15.0-1.76","1692","2","""event"",""trial"",""time""
""fullscreenenter"",""1"",""7610""
","
","
","""event"",""trial"",""time""
""fullscreenenter"",""1"",""7610""
","
","","","","","","1333.800000000745","images/orange3.png","","","memory_trial","2","maybe_old","","","","","","",""
"html-keyboard-response","197","458170","0.0-15.0-0.77","1692","2","""event"",""trial"",""time""
""fullscreenenter"",""1"",""7610""
","
","
","""event"",""trial"",""time""
""fullscreenenter"",""1"",""7610""
","
","","","","","","null","<div style=""font-size:60px;"">+</div>","null","","fixation","","","","","","","","",""
"memory-trial","198","460480","0.0-15.0-1.77","1692","2","""event"",""trial"",""time""
""fullscreenenter"",""1"",""7610""
","
","
","""event"",""trial"",""time""
""fullscreenenter"",""1"",""7610""
","
","","","","","","1305","images/bed3.png","","","memory_trial","4","definitely_new","","","","","","",""
"html-keyboard-response","199","460985","0.0-15.0-0.78","1692","2","""event"",""trial"",""time""
""fullscreenenter"",""1"",""7610""
","
","
","""event"",""trial"",""time""
""fullscreenenter"",""1"",""7610""
","
","","","","","","null","<div style=""font-size:60px;"">+</div>","null","","fixation","","","","","","","","",""
"memory-trial","200","463136","0.0-15.0-1.78","1692","2","""event"",""trial"",""time""
""fullscreenenter"",""1"",""7610""
","
","
","""event"",""trial"",""time""
""fullscreenenter"",""1"",""7610""
","
","","","","","","1148.800000000745","images/rabbit5.png","","","memory_trial","2","maybe_old","","","","","","",""
"html-keyboard-response","201","463637","0.0-15.0-0.79","1692","2","""event"",""trial"",""time""
""fullscreenenter"",""1"",""7610""
","
","
","""event"",""trial"",""time""
""fullscreenenter"",""1"",""7610""
","
","","","","","","null","<div style=""font-size:60px;"">+</div>","null","","fixation","","","","","","","","",""
"memory-trial","202","465973","0.0-15.0-1.79","1692","2","""event"",""trial"",""time""
""fullscreenenter"",""1"",""7610""
","
","
","""event"",""trial"",""time""
""fullscreenenter"",""1"",""7610""
","
","","","","","","1333.199999999255","images/plane3.png","","","memory_trial","4","definitely_new","","","","","","",""
"html-keyboard-response","203","466475","0.0-15.0-0.80","1692","2","""event"",""trial"",""time""
""fullscreenenter"",""1"",""7610""
","
","
","""event"",""trial"",""time""
""fullscreenenter"",""1"",""7610""
","
","","","","","","null","<div style=""font-size:60px;"">+</div>","null","","fixation","","","","","","","","",""
"memory-trial","204","469381","0.0-15.0-1.80","1692","2","""event"",""trial"",""time""
""fullscreenenter"",""1"",""7610""
","
","
","""event"",""trial"",""time""
""fullscreenenter"",""1"",""7610""
","
","","","","","","1904","images/rabbit4.png","","","memory_trial","4","definitely_new","","","","","","",""
"html-keyboard-response","205","469883","0.0-15.0-0.81","1692","2","""event"",""trial"",""time""
""fullscreenenter"",""1"",""7610""
","
","
","""event"",""trial"",""time""
""fullscreenenter"",""1"",""7610""
","
","","","","","","null","<div style=""font-size:60px;"">+</div>","null","","fixation","","","","","","","","",""
"memory-trial","206","472132","0.0-15.0-1.81","1692","2","""event"",""trial"",""time""
""fullscreenenter"",""1"",""7610""
","
","
","""event"",""trial"",""time""
""fullscreenenter"",""1"",""7610""
","
","","","","","","1243.5","images/orange2.png","","","memory_trial","1","definitely_old","","","","","","",""
"html-keyboard-response","207","472635","0.0-15.0-0.82","1692","2","""event"",""trial"",""time""
""fullscreenenter"",""1"",""7610""
","
","
","""event"",""trial"",""time""
""fullscreenenter"",""1"",""7610""
","
","","","","","","null","<div style=""font-size:60px;"">+</div>","null","","fixation","","","","","","","","",""
"memory-trial","208","475243","0.0-15.0-1.82","1692","2","""event"",""trial"",""time""
""fullscreenenter"",""1"",""7610""
","
","
","""event"",""trial"",""time""
""fullscreenenter"",""1"",""7610""
","
","","","","","","1603.6000000014901","images/dog2.png","","","memory_trial","2","maybe_old","","","","","","",""
"html-keyboard-response","209","475744","0.0-15.0-0.83","1692","2","""event"",""trial"",""time""
""fullscreenenter"",""1"",""7610""
","
","
","""event"",""trial"",""time""
""fullscreenenter"",""1"",""7610""
","
","","","","","","null","<div style=""font-size:60px;"">+</div>","null","","fixation","","","","","","","","",""
"memory-trial","210","478704","0.0-15.0-1.83","1692","2","""event"",""trial"",""time""
""fullscreenenter"",""1"",""7610""
","
","
","""event"",""trial"",""time""
""fullscreenenter"",""1"",""7610""
","
","","","","","","1958","images/apple4.png","","","memory_trial","4","definitely_new","","","","","","",""
"html-keyboard-response","211","479208","0.0-15.0-0.84","1692","2","""event"",""trial"",""time""
""fullscreenenter"",""1"",""7610""
","
","
","""event"",""trial"",""time""
""fullscreenenter"",""1"",""7610""
","
","","","","","","null","<div style=""font-size:60px;"">+</div>","null","","fixation","","","","","","","","",""
"memory-trial","212","481686","0.0-15.0-1.84","1692","2","""event"",""trial"",""time""
""fullscreenenter"",""1"",""7610""
","
","
","""event"",""trial"",""time""
""fullscreenenter"",""1"",""7610""
","
","","","","","","1475.5","images/sofa1.png","","","memory_trial","3","maybe_new","","","","","","",""
"html-keyboard-response","213","482187","0.0-15.0-0.85","1692","2","""event"",""trial"",""time""
""fullscreenenter"",""1"",""7610""
","
","
","""event"",""trial"",""time""
""fullscreenenter"",""1"",""7610""
","
","","","","","","null","<div style=""font-size:60px;"">+</div>","null","","fixation","","","","","","","","",""
"memory-trial","214","484395","0.0-15.0-1.85","1692","2","""event"",""trial"",""time""
""fullscreenenter"",""1"",""7610""
","
","
","""event"",""trial"",""time""
""fullscreenenter"",""1"",""7610""
","
","","","","","","1201.5","images/goat3.png","","","memory_trial","3","maybe_new","","","","","","",""
"html-keyboard-response","215","484896","0.0-15.0-0.86","1692","2","""event"",""trial"",""time""
""fullscreenenter"",""1"",""7610""
","
","
","""event"",""trial"",""time""
""fullscreenenter"",""1"",""7610""
","
","","","","","","null","<div style=""font-size:60px;"">+</div>","null","","fixation","","","","","","","","",""
"memory-trial","216","487046","0.0-15.0-1.86","1692","2","""event"",""trial"",""time""
""fullscreenenter"",""1"",""7610""
","
","
","""event"",""trial"",""time""
""fullscreenenter"",""1"",""7610""
","
","","","","","","1146.5999999977648","images/train2.png","","","memory_trial","1","definitely_old","","","","","","",""
"html-keyboard-response","217","487547","0.0-15.0-0.87","1692","2","""event"",""trial"",""time""
""fullscreenenter"",""1"",""7610""
","
","
","""event"",""trial"",""time""
""fullscreenenter"",""1"",""7610""
","
","","","","","","null","<div style=""font-size:60px;"">+</div>","null","","fixation","","","","","","","","",""
"memory-trial","218","489637","0.0-15.0-1.87","1692","2","""event"",""trial"",""time""
""fullscreenenter"",""1"",""7610""
","
","
","""event"",""trial"",""time""
""fullscreenenter"",""1"",""7610""
","
","","","","","","1087.0999999977648","images/tree4.png","","","memory_trial","1","definitely_old","","","","","","",""
"html-keyboard-response","219","490139","0.0-15.0-0.88","1692","2","""event"",""trial"",""time""
""fullscreenenter"",""1"",""7610""
","
","
","""event"",""trial"",""time""
""fullscreenenter"",""1"",""7610""
","
","","","","","","null","<div style=""font-size:60px;"">+</div>","null","","fixation","","","","","","","","",""
"memory-trial","220","492427","0.0-15.0-1.88","1692","2","""event"",""trial"",""time""
""fullscreenenter"",""1"",""7610""
","
","
","""event"",""trial"",""time""
""fullscreenenter"",""1"",""7610""
","
","","","","","","1285.5","images/apple5.png","","","memory_trial","4","definitely_new","","","","","","",""
"html-keyboard-response","221","492928","0.0-15.0-0.89","1692","2","""event"",""trial"",""time""
""fullscreenenter"",""1"",""7610""
","
","
","""event"",""trial"",""time""
""fullscreenenter"",""1"",""7610""
","
","","","","","","null","<div style=""font-size:60px;"">+</div>","null","","fixation","","","","","","","","",""
"memory-trial","222","495254","0.0-15.0-1.89","1692","2","""event"",""trial"",""time""
""fullscreenenter"",""1"",""7610""
","
","
","""event"",""trial"",""time""
""fullscreenenter"",""1"",""7610""
","
","","","","","","1320.5999999977648","images/banana2.png","","","memory_trial","2","maybe_old","","","","","","",""
"html-keyboard-response","223","495755","0.0-15.0-0.90","1692","2","""event"",""trial"",""time""
""fullscreenenter"",""1"",""7610""
","
","
","""event"",""trial"",""time""
""fullscreenenter"",""1"",""7610""
","
","","","","","","null","<div style=""font-size:60px;"">+</div>","null","","fixation","","","","","","","","",""
"memory-trial","224","498390","0.0-15.0-1.90","1692","2","""event"",""trial"",""time""
""fullscreenenter"",""1"",""7610""
","
","
","""event"",""trial"",""time""
""fullscreenenter"",""1"",""7610""
","
","","","","","","1633.2999999970198","images/cow3.png","","","memory_trial","2","maybe_old","","","","","","",""
"html-keyboard-response","225","498891","0.0-15.0-0.91","1692","2","""event"",""trial"",""time""
""fullscreenenter"",""1"",""7610""
","
","
","""event"",""trial"",""time""
""fullscreenenter"",""1"",""7610""
","
","","","","","","null","<div style=""font-size:60px;"">+</div>","null","","fixation","","","","","","","","",""
"memory-trial","226","500987","0.0-15.0-1.91","1692","2","""event"",""trial"",""time""
""fullscreenenter"",""1"",""7610""
","
","
","""event"",""trial"",""time""
""fullscreenenter"",""1"",""7610""
","
","","","","","","1091.6000000014901","images/dog5.png","","","memory_trial","3","maybe_new","","","","","","",""
"html-keyboard-response","227","501488","0.0-15.0-0.92","1692","2","""event"",""trial"",""time""
""fullscreenenter"",""1"",""7610""
","
","
","""event"",""trial"",""time""
""fullscreenenter"",""1"",""7610""
","
","","","","","","null","<div style=""font-size:60px;"">+</div>","null","","fixation","","","","","","","","",""
"memory-trial","228","503526","0.0-15.0-1.92","1692","2","""event"",""trial"",""time""
""fullscreenenter"",""1"",""7610""
","
","
","""event"",""trial"",""time""
""fullscreenenter"",""1"",""7610""
","
","","","","","","1035.1000000014901","images/orange1.png","","","memory_trial","2","maybe_old","","","","","","",""
"html-keyboard-response","229","504027","0.0-15.0-0.93","1692","2","""event"",""trial"",""time""
""fullscreenenter"",""1"",""7610""
","
","
","""event"",""trial"",""time""
""fullscreenenter"",""1"",""7610""
","
","","","","","","null","<div style=""font-size:60px;"">+</div>","null","","fixation","","","","","","","","",""
"memory-trial","230","507014","0.0-15.0-1.93","1692","2","""event"",""trial"",""time""
""fullscreenenter"",""1"",""7610""
","
","
","""event"",""trial"",""time""
""fullscreenenter"",""1"",""7610""
","
","","","","","","1981.699999999255","images/banana5.png","","","memory_trial","1","definitely_old","","","","","","",""
"html-keyboard-response","231","507515","0.0-15.0-0.94","1692","2","""event"",""trial"",""time""
""fullscreenenter"",""1"",""7610""
","
","
","""event"",""trial"",""time""
""fullscreenenter"",""1"",""7610""
","
","","","","","","null","<div style=""font-size:60px;"">+</div>","null","","fixation","","","","","","","","",""
"memory-trial","232","509621","0.0-15.0-1.94","1692","2","""event"",""trial"",""time""
""fullscreenenter"",""1"",""7610""
","
","
","""event"",""trial"",""time""
""fullscreenenter"",""1"",""7610""
","
","","","","","","1100.8999999985099","images/bed1.png","","","memory_trial","1","definitely_old","","","","","","",""
"html-keyboard-response","233","510123","0.0-15.0-0.95","1692","2","""event"",""trial"",""time""
""fullscreenenter"",""1"",""7610""
","
","
","""event"",""trial"",""time""
""fullscreenenter"",""1"",""7610""
","
","","","","","","null","<div style=""font-size:60px;"">+</div>","null","","fixation","","","","","","","","",""
"memory-trial","234","512864","0.0-15.0-1.95","1692","2","""event"",""trial"",""time""
""fullscreenenter"",""1"",""7610""
","
","
","""event"",""trial"",""time""
""fullscreenenter"",""1"",""7610""
","
","","","","","","1738.1000000014901","images/cactus5.png","","","memory_trial","2","maybe_old","","","","","","",""
"html-keyboard-response","235","513366","0.0-15.0-0.96","1692","2","""event"",""trial"",""time""
""fullscreenenter"",""1"",""7610""
","
","
","""event"",""trial"",""time""
""fullscreenenter"",""1"",""7610""
","
","","","","","","null","<div style=""font-size:60px;"">+</div>","null","","fixation","","","","","","","","",""
"memory-trial","236","515595","0.0-15.0-1.96","1692","2","""event"",""trial"",""time""
""fullscreenenter"",""1"",""7610""
","
","
","""event"",""trial"",""time""
""fullscreenenter"",""1"",""7610""
","
","","","","","","1224.5","images/banana1.png","","","memory_trial","2","maybe_old","","","","","","",""
"html-keyboard-response","237","516097","0.0-15.0-0.97","1692","2","""event"",""trial"",""time""
""fullscreenenter"",""1"",""7610""
","
","
","""event"",""trial"",""time""
""fullscreenenter"",""1"",""7610""
","
","","","","","","null","<div style=""font-size:60px;"">+</div>","null","","fixation","","","","","","","","",""
"memory-trial","238","518316","0.0-15.0-1.97","1692","2","""event"",""trial"",""time""
""fullscreenenter"",""1"",""7610""
","
","
","""event"",""trial"",""time""
""fullscreenenter"",""1"",""7610""
","
","","","","","","1216.800000000745","images/chair4.png","","","memory_trial","3","maybe_new","","","","","","",""
"html-keyboard-response","239","518820","0.0-15.0-0.98","1692","2","""event"",""trial"",""time""
""fullscreenenter"",""1"",""7610""
","
","
","""event"",""trial"",""time""
""fullscreenenter"",""1"",""7610""
","
","","","","","","null","<div style=""font-size:60px;"">+</div>","null","","fixation","","","","","","","","",""
"memory-trial","240","520662","0.0-15.0-1.98","1692","2","""event"",""trial"",""time""
""fullscreenenter"",""1"",""7610""
","
","
","""event"",""trial"",""time""
""fullscreenenter"",""1"",""7610""
","
","","","","","","835","images/table4.png","","","memory_trial","3","maybe_new","","","","","","",""
"html-keyboard-response","241","521163","0.0-15.0-0.99","1692","2","""event"",""trial"",""time""
""fullscreenenter"",""1"",""7610""
","
","
","""event"",""trial"",""time""
""fullscreenenter"",""1"",""7610""
","
","","","","","","null","<div style=""font-size:60px;"">+</div>","null","","fixation","","","","","","","","",""
"memory-trial","242","522959","0.0-15.0-1.99","1692","2","""event"",""trial"",""time""
""fullscreenenter"",""1"",""7610""
","
","
","""event"",""trial"",""time""
""fullscreenenter"",""1"",""7610""
","
","","","","","","790.5","images/rodent1.png","","","memory_trial","3","maybe_new","","","","","","",""
"html-keyboard-response","243","523461","0.0-15.0-0.100","1692","2","""event"",""trial"",""time""
""fullscreenenter"",""1"",""7610""
","
","
","""event"",""trial"",""time""
""fullscreenenter"",""1"",""7610""
","
","","","","","","null","<div style=""font-size:60px;"">+</div>","null","","fixation","","","","","","","","",""
"memory-trial","244","526017","0.0-15.0-1.100","1692","2","""event"",""trial"",""time""
""fullscreenenter"",""1"",""7610""
","
","
","""event"",""trial"",""time""
""fullscreenenter"",""1"",""7610""
","
","","","","","","1550.800000000745","images/train3.png","","","memory_trial","2","maybe_old","","","","","","",""
"html-keyboard-response","245","526518","0.0-15.0-0.101","1692","2","""event"",""trial"",""time""
""fullscreenenter"",""1"",""7610""
","
","
","""event"",""trial"",""time""
""fullscreenenter"",""1"",""7610""
","
","","","","","","null","<div style=""font-size:60px;"">+</div>","null","","fixation","","","","","","","","",""
"memory-trial","246","529084","0.0-15.0-1.101","1692","2","""event"",""trial"",""time""
""fullscreenenter"",""1"",""7610""
","
","
","""event"",""trial"",""time""
""fullscreenenter"",""1"",""7610""
","
","","","","","","1559.4000000022352","images/boat3.png","","","memory_trial","1","definitely_old","","","","","","",""
"html-button-response","247","604198","0.0-15.0-2.101-0.101","1692","2","""event"",""trial"",""time""
""fullscreenenter"",""1"",""7610""
","
","
","""event"",""trial"",""time""
""fullscreenenter"",""1"",""7610""
","
","","","","","","75112","<p> Take a break! </p><p> Click the button to continue. </p>","0","","break","","","","","","","","",""
"html-keyboard-response","248","604702","0.0-15.0-0.102","1692","2","""event"",""trial"",""time""
""fullscreenenter"",""1"",""7610""
","
","
","""event"",""trial"",""time""
""fullscreenenter"",""1"",""7610""
","
","","","","","","null","<div style=""font-size:60px;"">+</div>","null","","fixation","","","","","","","","",""
"memory-trial","249","606893","0.0-15.0-1.102","1692","2","""event"",""trial"",""time""
""fullscreenenter"",""1"",""7610""
","
","
","""event"",""trial"",""time""
""fullscreenenter"",""1"",""7610""
","
","","","","","","1186.5","images/goat4.png","","","memory_trial","1","definitely_old","","","","","","",""
"html-keyboard-response","250","607394","0.0-15.0-0.103","1692","2","""event"",""trial"",""time""
""fullscreenenter"",""1"",""7610""
","
","
","""event"",""trial"",""time""
""fullscreenenter"",""1"",""7610""
","
","","","","","","null","<div style=""font-size:60px;"">+</div>","null","","fixation","","","","","","","","",""
"memory-trial","251","609746","0.0-15.0-1.103","1692","2","""event"",""trial"",""time""
""fullscreenenter"",""1"",""7610""
","
","
","""event"",""trial"",""time""
""fullscreenenter"",""1"",""7610""
","
","","","","","","1349.6000000014901","images/table2.png","","","memory_trial","3","maybe_new","","","","","","",""
"html-keyboard-response","252","610247","0.0-15.0-0.104","1692","2","""event"",""trial"",""time""
""fullscreenenter"",""1"",""7610""
","
","
","""event"",""trial"",""time""
""fullscreenenter"",""1"",""7610""
","
","","","","","","null","<div style=""font-size:60px;"">+</div>","null","","fixation","","","","","","","","",""
"memory-trial","253","612978","0.0-15.0-1.104","1692","2","""event"",""trial"",""time""
""fullscreenenter"",""1"",""7610""
","
","
","""event"",""trial"",""time""
""fullscreenenter"",""1"",""7610""
","
","","","","","","1727.199999999255","images/rabbit2.png","","","memory_trial","1","definitely_old","","","","","","",""
"html-keyboard-response","254","613483","0.0-15.0-0.105","1692","2","""event"",""trial"",""time""
""fullscreenenter"",""1"",""7610""
","
","
","""event"",""trial"",""time""
""fullscreenenter"",""1"",""7610""
","
","","","","","","null","<div style=""font-size:60px;"">+</div>","null","","fixation","","","","","","","","",""
"memory-trial","255","615933","0.0-15.0-1.105","1692","2","""event"",""trial"",""time""
""fullscreenenter"",""1"",""7610""
","
","
","""event"",""trial"",""time""
""fullscreenenter"",""1"",""7610""
","
","","","","","","1445.300000000745","images/cactus1.png","","","memory_trial","1","definitely_old","","","","","","",""
"html-keyboard-response","256","616436","0.0-15.0-0.106","1692","2","""event"",""trial"",""time""
""fullscreenenter"",""1"",""7610""
","
","
","""event"",""trial"",""time""
""fullscreenenter"",""1"",""7610""
","
","","","","","","null","<div style=""font-size:60px;"">+</div>","null","","fixation","","","","","","","","",""
"memory-trial","257","618621","0.0-15.0-1.106","1692","2","""event"",""trial"",""time""
""fullscreenenter"",""1"",""7610""
","
","
","""event"",""trial"",""time""
""fullscreenenter"",""1"",""7610""
","
","","","","","","1178.8999999985099","images/chair3.png","","","memory_trial","3","maybe_new","","","","","","",""
"html-keyboard-response","258","619122","0.0-15.0-0.107","1692","2","""event"",""trial"",""time""
""fullscreenenter"",""1"",""7610""
","
","
","""event"",""trial"",""time""
""fullscreenenter"",""1"",""7610""
","
","","","","","","null","<div style=""font-size:60px;"">+</div>","null","","fixation","","","","","","","","",""
"memory-trial","259","621234","0.0-15.0-1.107","1692","2","""event"",""trial"",""time""
""fullscreenenter"",""1"",""7610""
","
","
","""event"",""trial"",""time""
""fullscreenenter"",""1"",""7610""
","
","","","","","","1106.2000000029802","images/chair2.png","","","memory_trial","2","maybe_old","","","","","","",""
"html-keyboard-response","260","621735","0.0-15.0-0.108","1692","2","""event"",""trial"",""time""
""fullscreenenter"",""1"",""7610""
","
","
","""event"",""trial"",""time""
""fullscreenenter"",""1"",""7610""
","
","","","","","","null","<div style=""font-size:60px;"">+</div>","null","","fixation","","","","","","","","",""
"memory-trial","261","623949","0.0-15.0-1.108","1692","2","""event"",""trial"",""time""
""fullscreenenter"",""1"",""7610""
","
","
","""event"",""trial"",""time""
""fullscreenenter"",""1"",""7610""
","
","","","","","","1211.7999999970198","images/bush3.png","","","memory_trial","1","definitely_old","","","","","","",""
"html-keyboard-response","262","624452","0.0-15.0-0.109","1692","2","""event"",""trial"",""time""
""fullscreenenter"",""1"",""7610""
","
","
","""event"",""trial"",""time""
""fullscreenenter"",""1"",""7610""
","
","","","","","","null","<div style=""font-size:60px;"">+</div>","null","","fixation","","","","","","","","",""
"memory-trial","263","627037","0.0-15.0-1.109","1692","2","""event"",""trial"",""time""
""fullscreenenter"",""1"",""7610""
","
","
","""event"",""trial"",""time""
""fullscreenenter"",""1"",""7610""
","
","","","","","","1583.300000000745","images/horse2.png","","","memory_trial","4","definitely_new","","","","","","",""
"html-keyboard-response","264","627538","0.0-15.0-0.110","1692","2","""event"",""trial"",""time""
""fullscreenenter"",""1"",""7610""
","
","
","""event"",""trial"",""time""
""fullscreenenter"",""1"",""7610""
","
","","","","","","null","<div style=""font-size:60px;"">+</div>","null","","fixation","","","","","","","","",""
"memory-trial","265","629271","0.0-15.0-1.110","1692","2","""event"",""trial"",""time""
""fullscreenenter"",""1"",""7610""
","
","
","""event"",""trial"",""time""
""fullscreenenter"",""1"",""7610""
","
","","","","","","727.7000000029802","images/flower5.png","","","memory_trial","4","definitely_new","","","","","","",""
"html-keyboard-response","266","629773","0.0-15.0-0.111","1692","2","""event"",""trial"",""time""
""fullscreenenter"",""1"",""7610""
","
","
","""event"",""trial"",""time""
""fullscreenenter"",""1"",""7610""
","
","","","","","","null","<div style=""font-size:60px;"">+</div>","null","","fixation","","","","","","","","",""
"memory-trial","267","631719","0.0-15.0-1.111","1692","2","""event"",""trial"",""time""
""fullscreenenter"",""1"",""7610""
","
","
","""event"",""trial"",""time""
""fullscreenenter"",""1"",""7610""
","
","","","","","","942.1999999992549","images/flower3.png","","","memory_trial","4","definitely_new","","","","","","",""
"html-keyboard-response","268","632221","0.0-15.0-0.112","1692","2","""event"",""trial"",""time""
""fullscreenenter"",""1"",""7610""
","
","
","""event"",""trial"",""time""
""fullscreenenter"",""1"",""7610""
","
","","","","","","null","<div style=""font-size:60px;"">+</div>","null","","fixation","","","","","","","","",""
"memory-trial","269","634226","0.0-15.0-1.112","1692","2","""event"",""trial"",""time""
""fullscreenenter"",""1"",""7610""
","
","
","""event"",""trial"",""time""
""fullscreenenter"",""1"",""7610""
","
","","","","","","1003.1999999992549","images/table1.png","","","memory_trial","4","definitely_new","","","","","","",""
"html-keyboard-response","270","634729","0.0-15.0-0.113","1692","2","""event"",""trial"",""time""
""fullscreenenter"",""1"",""7610""
","
","
","""event"",""trial"",""time""
""fullscreenenter"",""1"",""7610""
","
","","","","","","null","<div style=""font-size:60px;"">+</div>","null","","fixation","","","","","","","","",""
"memory-trial","271","636796","0.0-15.0-1.113","1692","2","""event"",""trial"",""time""
""fullscreenenter"",""1"",""7610""
","
","
","""event"",""trial"",""time""
""fullscreenenter"",""1"",""7610""
","
","","","","","","1061.8999999985099","images/bush2.png","","","memory_trial","1","definitely_old","","","","","","",""
"html-keyboard-response","272","637302","0.0-15.0-0.114","1692","2","""event"",""trial"",""time""
""fullscreenenter"",""1"",""7610""
","
","
","""event"",""trial"",""time""
""fullscreenenter"",""1"",""7610""
","
","","","","","","null","<div style=""font-size:60px;"">+</div>","null","","fixation","","","","","","","","",""
"memory-trial","273","639314","0.0-15.0-1.114","1692","2","""event"",""trial"",""time""
""fullscreenenter"",""1"",""7610""
","
","
","""event"",""trial"",""time""
""fullscreenenter"",""1"",""7610""
","
","","","","","","1009.0999999977648","images/train1.png","","","memory_trial","1","definitely_old","","","","","","",""
"html-keyboard-response","274","639816","0.0-15.0-0.115","1692","2","""event"",""trial"",""time""
""fullscreenenter"",""1"",""7610""
","
","
","""event"",""trial"",""time""
""fullscreenenter"",""1"",""7610""
","
","","","","","","null","<div style=""font-size:60px;"">+</div>","null","","fixation","","","","","","","","",""
"memory-trial","275","642258","0.0-15.0-1.115","1692","2","""event"",""trial"",""time""
""fullscreenenter"",""1"",""7610""
","
","
","""event"",""trial"",""time""
""fullscreenenter"",""1"",""7610""
","
","","","","","","1439","images/flower1.png","","","memory_trial","2","maybe_old","","","","","","",""
"html-keyboard-response","276","642759","0.0-15.0-0.116","1692","2","""event"",""trial"",""time""
""fullscreenenter"",""1"",""7610""
","
","
","""event"",""trial"",""time""
""fullscreenenter"",""1"",""7610""
","
","","","","","","null","<div style=""font-size:60px;"">+</div>","null","","fixation","","","","","","","","",""
"memory-trial","277","645069","0.0-15.0-1.116","1692","2","""event"",""trial"",""time""
""fullscreenenter"",""1"",""7610""
","
","
","""event"",""trial"",""time""
""fullscreenenter"",""1"",""7610""
","
","","","","","","1303.300000000745","images/cow2.png","","","memory_trial","1","definitely_old","","","","","","",""
"html-keyboard-response","278","645575","0.0-15.0-0.117","1692","2","""event"",""trial"",""time""
""fullscreenenter"",""1"",""7610""
","
","
","""event"",""trial"",""time""
""fullscreenenter"",""1"",""7610""
","
","","","","","","null","<div style=""font-size:60px;"">+</div>","null","","fixation","","","","","","","","",""
"memory-trial","279","648472","0.0-15.0-1.117","1692","2","""event"",""trial"",""time""
""fullscreenenter"",""1"",""7610""
","
","
","""event"",""trial"",""time""
""fullscreenenter"",""1"",""7610""
","
","","","","","","1893.800000000745","images/cow4.png","","","memory_trial","2","maybe_old","","","","","","",""
"html-keyboard-response","280","648973","0.0-15.0-0.118","1692","2","""event"",""trial"",""time""
""fullscreenenter"",""1"",""7610""
","
","
","""event"",""trial"",""time""
""fullscreenenter"",""1"",""7610""
","
","","","","","","null","<div style=""font-size:60px;"">+</div>","null","","fixation","","","","","","","","",""
"memory-trial","281","651154","0.0-15.0-1.118","1692","2","""event"",""trial"",""time""
""fullscreenenter"",""1"",""7610""
","
","
","""event"",""trial"",""time""
""fullscreenenter"",""1"",""7610""
","
","","","","","","1176.800000000745","images/apple1.png","","","memory_trial","3","maybe_new","","","","","","",""
"html-keyboard-response","282","651656","0.0-15.0-0.119","1692","2","""event"",""trial"",""time""
""fullscreenenter"",""1"",""7610""
","
","
","""event"",""trial"",""time""
""fullscreenenter"",""1"",""7610""
","
","","","","","","null","<div style=""font-size:60px;"">+</div>","null","","fixation","","","","","","","","",""
"memory-trial","283","653728","0.0-15.0-1.119","1692","2","""event"",""trial"",""time""
""fullscreenenter"",""1"",""7610""
","
","
","""event"",""trial"",""time""
""fullscreenenter"",""1"",""7610""
","
","","","","","","1067.9000000022352","images/straw2.png","","","memory_trial","1","definitely_old","","","","","","",""
"preload","284","661772","0.0-16.0","1692","2","""event"",""trial"",""time""
""fullscreenenter"",""1"",""7610""
","
","
","""event"",""trial"",""time""
""fullscreenenter"",""1"",""7610""
","
","true","false","[]","[]","[]","","","","","","","","","","","","","",""
"learning-instructions","285","667060","0.0-17.0-0.0-0.0-0.0","1692","2","""event"",""trial"",""time""
""fullscreenenter"",""1"",""7610""
","
","
","""event"",""trial"",""time""
""fullscreenenter"",""1"",""7610""
","
","","","","","","1901.6000000014901","<p> We're now going to ask you to deliver furniture again. </p>","","0","instructions","","","","","","","","",""
"learning-instructions","286","674112","0.0-17.0-0.0-0.0-0.1","1692","2","""event"",""trial"",""time""
""fullscreenenter"",""1"",""7610""
","
","
","""event"",""trial"",""time""
""fullscreenenter"",""1"",""7610""
","
","","","","","","755.6000000014901","<p> On each trial, you will see a furniture item. Select the building where you think the furniture item belongs. </p>","","0","instructions","","","","","","","","",""
"learning-instructions","287","682828","0.0-17.0-0.0-0.0-0.2","1692","2","""event"",""trial"",""time""
""fullscreenenter"",""1"",""7610""
","
","
","""event"",""trial"",""time""
""fullscreenenter"",""1"",""7610""
","
","","","","","","1653.2999999970198","<p> To make your selection, think about what you learned last week. You will NOT receive any feedback about your choice. </p>","","0","instructions","","","","","","","","",""
"learning-instructions","288","691990","0.0-17.0-0.0-0.0-0.3","1692","2","""event"",""trial"",""time""
""fullscreenenter"",""1"",""7610""
","
","
","""event"",""trial"",""time""
""fullscreenenter"",""1"",""7610""
","
","","","","","","873.1999999992549","<p> You should use the 1 key to select the building on the left, the 2 key to select the building in the middle, and the 3 key to select the building on the right. </p><br><div class=""choice-mem-instructions-grid""> <div class=""choice-mem-option""><img src=""images/furniture_choice1.png"" class=""choice-mem-option-img"" stage=""instructions"" position=""0"" ><div class=""choice-mem-option-text""> Press ""1."" </div></div><div class=""choice-mem-option""><img src=""images/furniture_choice2.png"" class=""choice-mem-option-img"" stage=""instructions"" position=""1"" ><div class=""choice-mem-option-text""> Press ""2."" </div></div><div class=""choice-mem-option""><img src=""images/furniture_choice3.png"" class=""choice-mem-option-img"" stage=""instructions"" position=""2"" ><div class=""choice-mem-option-text""> Press ""3."" </div></div></div>","","0","instructions","","","","","","","","",""
"learning-instructions","289","699435","0.0-17.0-0.0-0.0-0.4","1692","2","""event"",""trial"",""time""
""fullscreenenter"",""1"",""7610""
","
","
","""event"",""trial"",""time""
""fullscreenenter"",""1"",""7610""
","
","","","","","","1176.8999999985099","<p> You will have 10 seconds to make each selection. Try to respond before time runs out! </p>","","0","instructions","","","","","","","","",""
"learning-instructions","290","702308","0.0-17.0-0.0-1.0","1692","2","""event"",""trial"",""time""
""fullscreenenter"",""1"",""7610""
","
","
","""event"",""trial"",""time""
""fullscreenenter"",""1"",""7610""
","
","","","","","","817.9000000022352","<p> You are now ready to begin the game. </p>","","0","instructions","","","","","","","","",""
"html-keyboard-response","291","702913","0.0-17.0-0.0-2.0-0.0","1692","2","""event"",""trial"",""time""
""fullscreenenter"",""1"",""7610""
","
","
","""event"",""trial"",""time""
""fullscreenenter"",""1"",""7610""
","
","","","","","","null","<div style=""font-size:60px;"">+</div>","null","","fixation","","","","","","","","",""
"choice-memory-trial","292","704886","0.0-17.0-0.0-2.0-1.0","1692","2","""event"",""trial"",""time""
""fullscreenenter"",""1"",""7610""
","
","
","""event"",""trial"",""time""
""fullscreenenter"",""1"",""7610""
","
