"trial_type","trial_index","time_elapsed","internal_node_id","subject_id","task_version","interactions","blur_events","focus_events","fullscreenenter_events","fullscreenexit_events","success","timeout","failed_images","failed_audio","failed_video","rt","stimulus","response","button_pressed","task_part","key_press","answer","correct","left_choice","middle_choice","right_choice","choice_positions","option_selected","block"
"pavlovia","0","5","0.0-0.0","1697","2","""event"",""trial"",""time""
""fullscreenenter"",""1"",""3313""
","
","
","""event"",""trial"",""time""
""fullscreenenter"",""1"",""3313""
","
","","","","","","","","","","","","","","","","","","",""
"fullscreen","1","4305","0.0-1.0","1697","2","""event"",""trial"",""time""
""fullscreenenter"",""1"",""3313""
","
","
","""event"",""trial"",""time""
""fullscreenenter"",""1"",""3313""
","
","true","","","","","","","","","","","","","","","","","",""
"preload","2","4977","0.0-2.0","1697","2","""event"",""trial"",""time""
""fullscreenenter"",""1"",""3313""
","
","
","""event"",""trial"",""time""
""fullscreenenter"",""1"",""3313""
","
","true","false","[]","[]","[]","","","","","","","","","","","","","",""
"audio-keyboard-response","3","8404","0.0-3.0","1697","2","""event"",""trial"",""time""
""fullscreenenter"",""1"",""3313""
","
","
","""event"",""trial"",""time""
""fullscreenenter"",""1"",""3313""
","
","","","","","","3424.943310657596","audio/beep_loop.wav"," ","","","","","","","","","","",""
"audio-button-response","4","11012","0.0-4.0","1697","2","""event"",""trial"",""time""
""fullscreenenter"",""1"",""3313""
","
","
","""event"",""trial"",""time""
""fullscreenenter"",""1"",""3313""
","
","","","","","","2606","audio/turtle.wav","3","","","","","","","","","","",""
"audio-button-response","5","13084","0.0-5.0","1697","2","""event"",""trial"",""time""
""fullscreenenter"",""1"",""3313""
","
","
","""event"",""trial"",""time""
""fullscreenenter"",""1"",""3313""
","
","","","","","","1068","audio/shark.wav","2","","","","","","","","","","",""
"preload","6","17870","0.0-6.0","1697","2","""event"",""trial"",""time""
""fullscreenenter"",""1"",""3313""
","
","
","""event"",""trial"",""time""
""fullscreenenter"",""1"",""3313""
","
","true","false","[]","[]","[]","","","","","","","","","","","","","",""
"learning-instructions","7","23938","0.0-7.0-0.0","1697","2","""event"",""trial"",""time""
""fullscreenenter"",""1"",""3313""
","
","
","""event"",""trial"",""time""
""fullscreenenter"",""1"",""3313""
","
","","","","","","1258","<p> Welcome back! </p><p> Last week, you had to make choices about lots of different items.  </p>","","0","instructions","","","","","","","","",""
"learning-instructions","8","28618","0.0-7.0-0.1","1697","2","""event"",""trial"",""time""
""fullscreenenter"",""1"",""3313""
","
","
","""event"",""trial"",""time""
""fullscreenenter"",""1"",""3313""
","
","","","","","","378.09999999403954","<p> Today, we are going to ask you to try to remember all the items. </p>","","0","instructions","","","","","","","","",""
"learning-instructions","9","40977","0.0-7.0-0.2","1697","2","""event"",""trial"",""time""
""fullscreenenter"",""1"",""3313""
","
","
","""event"",""trial"",""time""
""fullscreenenter"",""1"",""3313""
","
","","","","","","2223.2000000029802","<p> On every trial, you will see an image. </p><p> The image may be an OLD image you saw during the games last week or it may be a NEW image that was not presented. </p>","","0","instructions","","","","","","","","",""
"learning-instructions","10","53733","0.0-7.0-0.3","1697","2","""event"",""trial"",""time""
""fullscreenenter"",""1"",""3313""
","
","
","""event"",""trial"",""time""
""fullscreenenter"",""1"",""3313""
","
","","","","","","4255.9000000059605","<p> You need to select whether the image is:  </p><p>  'Definitely old', 'Maybe old', 'Maybe new', or 'Definitely new.'  </p><div class=""mem-choice-instructions-grid""><div class=""choice-option"" id=""choice-option-1"" ><img src=""images/definitely_old_1.png"" id=""choice-option-img-1"" class=""choice-option-img"" stage=""1""></div><div class=""choice-option"" id=""choice-option-2"" ><img src=""images/maybe_old_1.png"" id=""choice-option-img-2"" class=""choice-option-img"" stage=""1""></div><div class=""choice-option"" id=""choice-option-3"" ><img src=""images/maybe_new_1.png"" id=""choice-option-img-3"" class=""choice-option-img"" stage=""1""></div><div class=""choice-option"" id=""choice-option-4"" > <img src=""images/definitely_new_1.png"" id=""choice-option-img-4"" class=""choice-option-img"" stage=""1""></div></div>","","0","instructions","","","","","","","","",""
"learning-instructions","11","60831","0.0-7.0-0.4","1697","2","""event"",""trial"",""time""
""fullscreenenter"",""1"",""3313""
","
","
","""event"",""trial"",""time""
""fullscreenenter"",""1"",""3313""
","
","","","","","","405.5","<p> You should use the 1, 2, 3, and 4 keys to make your responses.  </p><div class=""mem-choice-instructions-grid""><div class=""choice-option"" id=""choice-option-1"" ><img src=""images/definitely_old.png"" id=""choice-option-img-1"" class=""choice-option-img"" stage=""1""></div><div class=""choice-option"" id=""choice-option-2"" ><img src=""images/maybe_old.png"" id=""choice-option-img-2"" class=""choice-option-img"" stage=""1""></div><div class=""choice-option"" id=""choice-option-3"" ><img src=""images/maybe_new.png"" id=""choice-option-img-3"" class=""choice-option-img"" stage=""1""></div><div class=""choice-option"" id=""choice-option-4"" > <img src=""images/definitely_new.png"" id=""choice-option-img-4"" class=""choice-option-img"" stage=""1""></div></div>","","0","instructions","","","","","","","","",""
"learning-instructions","12","68072","0.0-7.0-0.5","1697","2","""event"",""trial"",""time""
""fullscreenenter"",""1"",""3313""
","
","
","""event"",""trial"",""time""
""fullscreenenter"",""1"",""3313""
","
","","","","","","478.70000000298023","<p> You will have 10 seconds to make each response.  </p><p>  Make sure to respond before time runs out! </p>","","0","instructions","","","","","","","","",""
"learning-instructions","13","76144","0.0-7.0-0.6","1697","2","""event"",""trial"",""time""
""fullscreenenter"",""1"",""3313""
","
","
","""event"",""trial"",""time""
""fullscreenenter"",""1"",""3313""
","
","","","","","","492","<p> Today, you will see each image ONCE only.  </p><p>  That means none of the images will repeat. </p>","","0","instructions","","","","","","","","",""
"learning-instructions","14","94273","0.0-7.0-0.7","1697","2","""event"",""trial"",""time""
""fullscreenenter"",""1"",""3313""
","
","
","""event"",""trial"",""time""
""fullscreenenter"",""1"",""3313""
","
","","","","","","5460.9000000059605","<p> Before you play the real game, it is time to practice. </p><p>  Just like in the real game, some of the images in the practice will be ones you have seen before. </p><p>  Others will be entirely new. </p>","","0","instructions","","","","","","","","",""
"html-button-response","15","100210","0.0-8.0","1697","2","""event"",""trial"",""time""
""fullscreenenter"",""1"",""3313""
","
","
","""event"",""trial"",""time""
""fullscreenenter"",""1"",""3313""
","
","","","","","","5834","<p> Ready to practice? </p><p> Remember, use the 1, 2, 3, and 4 keys to make your responses. </p>","0","","instructions","","","","","","","","",""
"html-keyboard-response","16","100816","0.0-9.0-0.0","1697","2","""event"",""trial"",""time""
""fullscreenenter"",""1"",""3313""
","
","
","""event"",""trial"",""time""
""fullscreenenter"",""1"",""3313""
","
","","","","","","null","<div style=""font-size:60px;"">+</div>","null","","fixation","","","","","","","","",""
"memory-trial","17","104961","0.0-9.0-1.0","1697","2","""event"",""trial"",""time""
""fullscreenenter"",""1"",""3313""
","
","
","""event"",""trial"",""time""
""fullscreenenter"",""1"",""3313""
","
","","","","","","3137.9000000059605","images/ball3.png","","","practice","1","definitely_old","","","","","","",""
"html-keyboard-response","18","105466","0.0-9.0-0.1","1697","2","""event"",""trial"",""time""
""fullscreenenter"",""1"",""3313""
","
","
","""event"",""trial"",""time""
""fullscreenenter"",""1"",""3313""
","
","","","","","","null","<div style=""font-size:60px;"">+</div>","null","","fixation","","","","","","","","",""
"memory-trial","19","108659","0.0-9.0-1.1","1697","2","""event"",""trial"",""time""
""fullscreenenter"",""1"",""3313""
","
","
","""event"",""trial"",""time""
""fullscreenenter"",""1"",""3313""
","
","","","","","","2189.0999999940395","images/ball2.png","","","practice","1","definitely_old","","","","","","",""
"html-keyboard-response","20","109164","0.0-9.0-0.2","1697","2","""event"",""trial"",""time""
""fullscreenenter"",""1"",""3313""
","
","
","""event"",""trial"",""time""
""fullscreenenter"",""1"",""3313""
","
","","","","","","null","<div style=""font-size:60px;"">+</div>","null","","fixation","","","","","","","","",""
"memory-trial","21","112647","0.0-9.0-1.2","1697","2","""event"",""trial"",""time""
""fullscreenenter"",""1"",""3313""
","
","
","""event"",""trial"",""time""
""fullscreenenter"",""1"",""3313""
","
","","","","","","2477.5999999940395","images/ball1.png","","","practice","3","maybe_new","","","","","","",""
"html-keyboard-response","22","113150","0.0-9.0-0.3","1697","2","""event"",""trial"",""time""
""fullscreenenter"",""1"",""3313""
","
","
","""event"",""trial"",""time""
""fullscreenenter"",""1"",""3313""
","
","","","","","","null","<div style=""font-size:60px;"">+</div>","null","","fixation","","","","","","","","",""
"memory-trial","23","117361","0.0-9.0-1.3","1697","2","""event"",""trial"",""time""
""fullscreenenter"",""1"",""3313""
","
","
","""event"",""trial"",""time""
""fullscreenenter"",""1"",""3313""
","
","","","","","","3203.699999988079","images/racket3.png","","","practice","1","definitely_old","","","","","","",""
"html-keyboard-response","24","117864","0.0-9.0-0.4","1697","2","""event"",""trial"",""time""
""fullscreenenter"",""1"",""3313""
","
","
","""event"",""trial"",""time""
""fullscreenenter"",""1"",""3313""
","
","","","","","","null","<div style=""font-size:60px;"">+</div>","null","","fixation","","","","","","","","",""
"memory-trial","25","120221","0.0-9.0-1.4","1697","2","""event"",""trial"",""time""
""fullscreenenter"",""1"",""3313""
","
","
","""event"",""trial"",""time""
""fullscreenenter"",""1"",""3313""
","
","","","","","","1351.1000000089407","images/ball4.png","","","practice","4","definitely_new","","","","","","",""
"html-keyboard-response","26","120723","0.0-9.0-0.5","1697","2","""event"",""trial"",""time""
""fullscreenenter"",""1"",""3313""
","
","
","""event"",""trial"",""time""
""fullscreenenter"",""1"",""3313""
","
","","","","","","null","<div style=""font-size:60px;"">+</div>","null","","fixation","","","","","","","","",""
"memory-trial","27","122499","0.0-9.0-1.5","1697","2","""event"",""trial"",""time""
""fullscreenenter"",""1"",""3313""
","
","
","""event"",""trial"",""time""
""fullscreenenter"",""1"",""3313""
","
","","","","","","769.1000000089407","images/racket4.png","","","practice","1","definitely_old","","","","","","",""
"html-keyboard-response","28","123001","0.0-9.0-0.6","1697","2","""event"",""trial"",""time""
""fullscreenenter"",""1"",""3313""
","
","
","""event"",""trial"",""time""
""fullscreenenter"",""1"",""3313""
","
","","","","","","null","<div style=""font-size:60px;"">+</div>","null","","fixation","","","","","","","","",""
"memory-trial","29","124705","0.0-9.0-1.6","1697","2","""event"",""trial"",""time""
""fullscreenenter"",""1"",""3313""
","
","
","""event"",""trial"",""time""
""fullscreenenter"",""1"",""3313""
","
","","","","","","700.2000000029802","images/racket1.png","","","practice","1","definitely_old","","","","","","",""
"html-keyboard-response","30","125210","0.0-9.0-0.7","1697","2","""event"",""trial"",""time""
""fullscreenenter"",""1"",""3313""
","
","
","""event"",""trial"",""time""
""fullscreenenter"",""1"",""3313""
","
","","","","","","null","<div style=""font-size:60px;"">+</div>","null","","fixation","","","","","","","","",""
"memory-trial","31","126916","0.0-9.0-1.7","1697","2","""event"",""trial"",""time""
""fullscreenenter"",""1"",""3313""
","
","
","""event"",""trial"",""time""
""fullscreenenter"",""1"",""3313""
","
","","","","","","698.7999999970198","images/racket2.png","","","practice","2","maybe_old","","","","","","",""
"learning-instructions","32","135633","0.0-10.0-0.0","1697","2","""event"",""trial"",""time""
""fullscreenenter"",""1"",""3313""
","
","
","""event"",""trial"",""time""
""fullscreenenter"",""1"",""3313""
","
","","","","","","754.4000000059605","<p> Great! You have completed the practice. </p><p> Before you start, we're going to ask you a few questions about how the game works.  </p>","","0","instructions","","","","","","","","",""
"preload","33","138020","0.0-11.0","1697","2","""event"",""trial"",""time""
""fullscreenenter"",""1"",""3313""
","
","
","""event"",""trial"",""time""
""fullscreenenter"",""1"",""3313""
","
","true","false","[]","[]","[]","","","","","","","","","","","","","",""
"comp-q","34","145029","0.0-12.0-0.0","1697","2","""event"",""trial"",""time""
""fullscreenenter"",""1"",""3313""
","
","
","""event"",""trial"",""time""
""fullscreenenter"",""1"",""3313""
","
","","","","","","1181.4000000059605","<p> <b> True or False? </b> </p><p> In this game, you will only see each image once. </p>","","0","comp_question","","","true","","","","","",""
"comp-q","35","152260","0.0-12.0-1.0","1697","2","""event"",""trial"",""time""
""fullscreenenter"",""1"",""3313""
","
","
","""event"",""trial"",""time""
""fullscreenenter"",""1"",""3313""
","
","","","","","","894","<p> <b> That's right! </b> You will see many different images <i> one time each </i> in this game. </p>","","0","comp_answer","","","","","","","","",""
"comp-q","36","159939","0.0-12.0-0.1","1697","2","""event"",""trial"",""time""
""fullscreenenter"",""1"",""3313""
","
","
","""event"",""trial"",""time""
""fullscreenenter"",""1"",""3313""
","
","","","","","","1879.2000000029802","<p> <b> True or False? </b> </p><p> You should use the mouse and click to make your response. </p>","","1","comp_question","","","true","","","","","",""
"comp-q","37","168661","0.0-12.0-1.1","1697","2","""event"",""trial"",""time""
""fullscreenenter"",""1"",""3313""
","
","
","""event"",""trial"",""time""
""fullscreenenter"",""1"",""3313""
","
","","","","","","1372.199999988079","<p><b> That's right! </b> You should use the '1', '2', '3', and '4' keys to make your response. </p>","","0","comp_answer","","","","","","","","",""
"comp-q","38","175534","0.0-12.0-0.2","1697","2","""event"",""trial"",""time""
""fullscreenenter"",""1"",""3313""
","
","
","""event"",""trial"",""time""
""fullscreenenter"",""1"",""3313""
","
","","","","","","878.5","<p> <b> True or False? </b> </p><p> You will have as much time as you want to make each choice. </p>","","1","comp_question","","","true","","","","","",""
"comp-q","39","182843","0.0-12.0-1.2","1697","2","""event"",""trial"",""time""
""fullscreenenter"",""1"",""3313""
","
","
","""event"",""trial"",""time""
""fullscreenenter"",""1"",""3313""
","
","","","","","","1917.7000000029802","<p> <b> That's right! </b> You will only have 10 seconds to make each choice. </p>","","0","comp_answer","","","","","","","","",""
"learning-instructions","40","196404","0.0-13.0","1697","2","""event"",""trial"",""time""
""fullscreenenter"",""1"",""3313""
","
","
","""event"",""trial"",""time""
""fullscreenenter"",""1"",""3313""
","
","","","","","","4890.29999999702","<p> Great! You are now ready to begin the game. </p><p> Remember, use the 1, 2, 3, and 4 keys to make your responses. </p>","","0","instructions","","","","","","","","",""
"preload","41","201437","0.0-14.0","1697","2","""event"",""trial"",""time""
""fullscreenenter"",""1"",""3313""
","
","
","""event"",""trial"",""time""
""fullscreenenter"",""1"",""3313""
","
","true","false","[]","[]","[]","","","","","","","","","","","","","",""
"html-keyboard-response","42","201939","0.0-15.0-0.0","1697","2","""event"",""trial"",""time""
""fullscreenenter"",""1"",""3313""
","
","
","""event"",""trial"",""time""
""fullscreenenter"",""1"",""3313""
","
","","","","","","null","<div style=""font-size:60px;"">+</div>","null","","fixation","","","","","","","","",""
"memory-trial","43","206078","0.0-15.0-1.0","1697","2","""event"",""trial"",""time""
""fullscreenenter"",""1"",""3313""
","
","
","""event"",""trial"",""time""
""fullscreenenter"",""1"",""3313""
","
","","","","","","3131.6000000089407","images/orange4.png","","","memory_trial","1","definitely_old","","","","","","",""
"html-keyboard-response","44","206583","0.0-15.0-0.1","1697","2","""event"",""trial"",""time""
""fullscreenenter"",""1"",""3313""
","
","
","""event"",""trial"",""time""
""fullscreenenter"",""1"",""3313""
","
","","","","","","null","<div style=""font-size:60px;"">+</div>","null","","fixation","","","","","","","","",""
"memory-trial","45","207808","0.0-15.0-1.1","1697","2","""event"",""trial"",""time""
""fullscreenenter"",""1"",""3313""
","
","
","""event"",""trial"",""time""
""fullscreenenter"",""1"",""3313""
","
","","","","","","217.30000001192093","images/cow5.png","","","memory_trial","1","definitely_old","","","","","","",""
"html-keyboard-response","46","208313","0.0-15.0-0.2","1697","2","""event"",""trial"",""time""
""fullscreenenter"",""1"",""3313""
","
","
","""event"",""trial"",""time""
""fullscreenenter"",""1"",""3313""
","
","","","","","","null","<div style=""font-size:60px;"">+</div>","null","","fixation","","","","","","","","",""
"memory-trial","47","209765","0.0-15.0-1.2","1697","2","""event"",""trial"",""time""
""fullscreenenter"",""1"",""3313""
","
","
","""event"",""trial"",""time""
""fullscreenenter"",""1"",""3313""
","
","","","","","","445.59999999403954","images/sheep3.png","","","memory_trial","3","maybe_new","","","","","","",""
"html-keyboard-response","48","210269","0.0-15.0-0.3","1697","2","""event"",""trial"",""time""
""fullscreenenter"",""1"",""3313""
","
","
","""event"",""trial"",""time""
""fullscreenenter"",""1"",""3313""
","
","","","","","","null","<div style=""font-size:60px;"">+</div>","null","","fixation","","","","","","","","",""
"memory-trial","49","211808","0.0-15.0-1.3","1697","2","""event"",""trial"",""time""
""fullscreenenter"",""1"",""3313""
","
","
","""event"",""trial"",""time""
""fullscreenenter"",""1"",""3313""
","
","","","","","","534.7000000029802","images/bush5.png","","","memory_trial","1","definitely_old","","","","","","",""
"html-keyboard-response","50","212312","0.0-15.0-0.4","1697","2","""event"",""trial"",""time""
""fullscreenenter"",""1"",""3313""
","
","
","""event"",""trial"",""time""
""fullscreenenter"",""1"",""3313""
","
","","","","","","null","<div style=""font-size:60px;"">+</div>","null","","fixation","","","","","","","","",""
"memory-trial","51","214024","0.0-15.0-1.4","1697","2","""event"",""trial"",""time""
""fullscreenenter"",""1"",""3313""
","
","
","""event"",""trial"",""time""
""fullscreenenter"",""1"",""3313""
","
","","","","","","707.7999999970198","images/flower4.png","","","memory_trial","1","definitely_old","","","","","","",""
"html-keyboard-response","52","214530","0.0-15.0-0.5","1697","2","""event"",""trial"",""time""
""fullscreenenter"",""1"",""3313""
","
","
","""event"",""trial"",""time""
""fullscreenenter"",""1"",""3313""
","
","","","","","","null","<div style=""font-size:60px;"">+</div>","null","","fixation","","","","","","","","",""
"memory-trial","53","216307","0.0-15.0-1.5","1697","2","""event"",""trial"",""time""
""fullscreenenter"",""1"",""3313""
","
","
","""event"",""trial"",""time""
""fullscreenenter"",""1"",""3313""
","
","","","","","","770.5999999940395","images/train5.png","","","memory_trial","1","definitely_old","","","","","","",""
"html-keyboard-response","54","216811","0.0-15.0-0.6","1697","2","""event"",""trial"",""time""
""fullscreenenter"",""1"",""3313""
","
","
","""event"",""trial"",""time""
""fullscreenenter"",""1"",""3313""
","
","","","","","","null","<div style=""font-size:60px;"">+</div>","null","","fixation","","","","","","","","",""
"memory-trial","55","218634","0.0-15.0-1.6","1697","2","""event"",""trial"",""time""
""fullscreenenter"",""1"",""3313""
","
","
","""event"",""trial"",""time""
""fullscreenenter"",""1"",""3313""
","
","","","","","","818.2000000029802","images/chair4.png","","","memory_trial","3","maybe_new","","","","","","",""
"html-keyboard-response","56","219136","0.0-15.0-0.7","1697","2","""event"",""trial"",""time""
""fullscreenenter"",""1"",""3313""
","
","
","""event"",""trial"",""time""
""fullscreenenter"",""1"",""3313""
","
","","","","","","null","<div style=""font-size:60px;"">+</div>","null","","fixation","","","","","","","","",""
"memory-trial","57","221357","0.0-15.0-1.7","1697","2","""event"",""trial"",""time""
""fullscreenenter"",""1"",""3313""
","
","
","""event"",""trial"",""time""
""fullscreenenter"",""1"",""3313""
","
","","","","","","1215.699999988079","images/truck1.png","","","memory_trial","1","definitely_old","","","","","","",""
"html-keyboard-response","58","221862","0.0-15.0-0.8","1697","2","""event"",""trial"",""time""
""fullscreenenter"",""1"",""3313""
","
","
","""event"",""trial"",""time""
""fullscreenenter"",""1"",""3313""
","
","","","","","","null","<div style=""font-size:60px;"">+</div>","null","","fixation","","","","","","","","",""
"memory-trial","59","223451","0.0-15.0-1.8","1697","2","""event"",""trial"",""time""
""fullscreenenter"",""1"",""3313""
","
","
","""event"",""trial"",""time""
""fullscreenenter"",""1"",""3313""
","
","","","","","","581.7999999970198","images/orange2.png","","","memory_trial","4","definitely_new","","","","","","",""
"html-keyboard-response","60","223953","0.0-15.0-0.9","1697","2","""event"",""trial"",""time""
""fullscreenenter"",""1"",""3313""
","
","
","""event"",""trial"",""time""
""fullscreenenter"",""1"",""3313""
","
","","","","","","null","<div style=""font-size:60px;"">+</div>","null","","fixation","","","","","","","","",""
"memory-trial","61","225466","0.0-15.0-1.9","1697","2","""event"",""trial"",""time""
""fullscreenenter"",""1"",""3313""
","
","
","""event"",""trial"",""time""
""fullscreenenter"",""1"",""3313""
","
","","","","","","507.79999999701977","images/table1.png","","","memory_trial","3","maybe_new","","","","","","",""
"html-keyboard-response","62","225969","0.0-15.0-0.10","1697","2","""event"",""trial"",""time""
""fullscreenenter"",""1"",""3313""
","
","
","""event"",""trial"",""time""
""fullscreenenter"",""1"",""3313""
","
","","","","","","null","<div style=""font-size:60px;"">+</div>","null","","fixation","","","","","","","","",""
"memory-trial","63","228052","0.0-15.0-1.10","1697","2","""event"",""trial"",""time""
""fullscreenenter"",""1"",""3313""
","
","
","""event"",""trial"",""time""
""fullscreenenter"",""1"",""3313""
","
","","","","","","1077.5999999940395","images/plane5.png","","","memory_trial","1","definitely_old","","","","","","",""
"html-keyboard-response","64","228557","0.0-15.0-0.11","1697","2","""event"",""trial"",""time""
""fullscreenenter"",""1"",""3313""
","
","
","""event"",""trial"",""time""
""fullscreenenter"",""1"",""3313""
","
","","","","","","null","<div style=""font-size:60px;"">+</div>","null","","fixation","","","","","","","","",""
"memory-trial","65","230071","0.0-15.0-1.11","1697","2","""event"",""trial"",""time""
""fullscreenenter"",""1"",""3313""
","
","
","""event"",""trial"",""time""
""fullscreenenter"",""1"",""3313""
","
","","","","","","508","images/dog5.png","","","memory_trial","4","definitely_new","","","","","","",""
"html-keyboard-response","66","230574","0.0-15.0-0.12","1697","2","""event"",""trial"",""time""
""fullscreenenter"",""1"",""3313""
","
","
","""event"",""trial"",""time""
""fullscreenenter"",""1"",""3313""
","
","","","","","","null","<div style=""font-size:60px;"">+</div>","null","","fixation","","","","","","","","",""
"memory-trial","67","232469","0.0-15.0-1.12","1697","2","""event"",""trial"",""time""
""fullscreenenter"",""1"",""3313""
","
","
","""event"",""trial"",""time""
""fullscreenenter"",""1"",""3313""
","
","","","","","","893","images/rodent4.png","","","memory_trial","1","definitely_old","","","","","","",""
"html-keyboard-response","68","232974","0.0-15.0-0.13","1697","2","""event"",""trial"",""time""
""fullscreenenter"",""1"",""3313""
","
","
","""event"",""trial"",""time""
""fullscreenenter"",""1"",""3313""
","
","","","","","","null","<div style=""font-size:60px;"">+</div>","null","","fixation","","","","","","","","",""
"memory-trial","69","234728","0.0-15.0-1.13","1697","2","""event"",""trial"",""time""
""fullscreenenter"",""1"",""3313""
","
","
","""event"",""trial"",""time""
""fullscreenenter"",""1"",""3313""
","
","","","","","","751.5","images/feline4.png","","","memory_trial","1","definitely_old","","","","","","",""
"html-keyboard-response","70","235232","0.0-15.0-0.14","1697","2","""event"",""trial"",""time""
""fullscreenenter"",""1"",""3313""
","
","
","""event"",""trial"",""time""
""fullscreenenter"",""1"",""3313""
","
","","","","","","null","<div style=""font-size:60px;"">+</div>","null","","fixation","","","","","","","","",""
"memory-trial","71","236962","0.0-15.0-1.14","1697","2","""event"",""trial"",""time""
""fullscreenenter"",""1"",""3313""
","
","
","""event"",""trial"",""time""
""fullscreenenter"",""1"",""3313""
","
","","","","","","728","images/dog3.png","","","memory_trial","1","definitely_old","","","","","","",""
"html-keyboard-response","72","237467","0.0-15.0-0.15","1697","2","""event"",""trial"",""time""
""fullscreenenter"",""1"",""3313""
","
","
","""event"",""trial"",""time""
""fullscreenenter"",""1"",""3313""
","
","","","","","","null","<div style=""font-size:60px;"">+</div>","null","","fixation","","","","","","","","",""
"memory-trial","73","239122","0.0-15.0-1.15","1697","2","""event"",""trial"",""time""
""fullscreenenter"",""1"",""3313""
","
","
","""event"",""trial"",""time""
""fullscreenenter"",""1"",""3313""
","
","","","","","","648.4000000059605","images/cactus3.png","","","memory_trial","4","definitely_new","","","","","","",""
"html-keyboard-response","74","239627","0.0-15.0-0.16","1697","2","""event"",""trial"",""time""
""fullscreenenter"",""1"",""3313""
","
","
","""event"",""trial"",""time""
""fullscreenenter"",""1"",""3313""
","
","","","","","","null","<div style=""font-size:60px;"">+</div>","null","","fixation","","","","","","","","",""
"memory-trial","75","241653","0.0-15.0-1.16","1697","2","""event"",""trial"",""time""
""fullscreenenter"",""1"",""3313""
","
","
","""event"",""trial"",""time""
""fullscreenenter"",""1"",""3313""
","
","","","","","","1022.2999999970198","images/horse1.png","","","memory_trial","4","definitely_new","","","","","","",""
"html-keyboard-response","76","242157","0.0-15.0-0.17","1697","2","""event"",""trial"",""time""
""fullscreenenter"",""1"",""3313""
","
","
","""event"",""trial"",""time""
""fullscreenenter"",""1"",""3313""
","
","","","","","","null","<div style=""font-size:60px;"">+</div>","null","","fixation","","","","","","","","",""
"memory-trial","77","243940","0.0-15.0-1.17","1697","2","""event"",""trial"",""time""
""fullscreenenter"",""1"",""3313""
","
","
","""event"",""trial"",""time""
""fullscreenenter"",""1"",""3313""
","
","","","","","","780","images/feline5.png","","","memory_trial","4","definitely_new","","","","","","",""
"html-keyboard-response","78","244445","0.0-15.0-0.18","1697","2","""event"",""trial"",""time""
""fullscreenenter"",""1"",""3313""
","
","
","""event"",""trial"",""time""
""fullscreenenter"",""1"",""3313""
","
","","","","","","null","<div style=""font-size:60px;"">+</div>","null","","fixation","","","","","","","","",""
"memory-trial","79","246233","0.0-15.0-1.18","1697","2","""event"",""trial"",""time""
""fullscreenenter"",""1"",""3313""
","
","
","""event"",""trial"",""time""
""fullscreenenter"",""1"",""3313""
","
","","","","","","784.7999999970198","images/sheep2.png","","","memory_trial","4","definitely_new","","","","","","",""
"html-keyboard-response","80","246738","0.0-15.0-0.19","1697","2","""event"",""trial"",""time""
""fullscreenenter"",""1"",""3313""
","
","
","""event"",""trial"",""time""
""fullscreenenter"",""1"",""3313""
","
","","","","","","null","<div style=""font-size:60px;"">+</div>","null","","fixation","","","","","","","","",""
"memory-trial","81","248389","0.0-15.0-1.19","1697","2","""event"",""trial"",""time""
""fullscreenenter"",""1"",""3313""
","
","
","""event"",""trial"",""time""
""fullscreenenter"",""1"",""3313""
","
","","","","","","644.6999999880791","images/tree1.png","","","memory_trial","1","definitely_old","","","","","","",""
"html-keyboard-response","82","248892","0.0-15.0-0.20","1697","2","""event"",""trial"",""time""
""fullscreenenter"",""1"",""3313""
","
","
","""event"",""trial"",""time""
""fullscreenenter"",""1"",""3313""
","
","","","","","","null","<div style=""font-size:60px;"">+</div>","null","","fixation","","","","","","","","",""
"memory-trial","83","250448","0.0-15.0-1.20","1697","2","""event"",""trial"",""time""
""fullscreenenter"",""1"",""3313""
","
","
","""event"",""trial"",""time""
""fullscreenenter"",""1"",""3313""
","
","","","","","","549.3999999910593","images/sheep1.png","","","memory_trial","1","definitely_old","","","","","","",""
"html-keyboard-response","84","250953","0.0-15.0-0.21","1697","2","""event"",""trial"",""time""
""fullscreenenter"",""1"",""3313""
","
","
","""event"",""trial"",""time""
""fullscreenenter"",""1"",""3313""
","
","","","","","","null","<div style=""font-size:60px;"">+</div>","null","","fixation","","","","","","","","",""
"memory-trial","85","252485","0.0-15.0-1.21","1697","2","""event"",""trial"",""time""
""fullscreenenter"",""1"",""3313""
","
","
","""event"",""trial"",""time""
""fullscreenenter"",""1"",""3313""
","
","","","","","","526.5999999940395","images/goat3.png","","","memory_trial","4","definitely_new","","","","","","",""
"html-keyboard-response","86","252990","0.0-15.0-0.22","1697","2","""event"",""trial"",""time""
""fullscreenenter"",""1"",""3313""
","
","
","""event"",""trial"",""time""
""fullscreenenter"",""1"",""3313""
","
","","","","","","null","<div style=""font-size:60px;"">+</div>","null","","fixation","","","","","","","","",""
"memory-trial","87","254577","0.0-15.0-1.22","1697","2","""event"",""trial"",""time""
""fullscreenenter"",""1"",""3313""
","
","
","""event"",""trial"",""time""
""fullscreenenter"",""1"",""3313""
","
","","","","","","582.5","images/cactus4.png","","","memory_trial","4","definitely_new","","","","","","",""
"html-keyboard-response","88","255082","0.0-15.0-0.23","1697","2","""event"",""trial"",""time""
""fullscreenenter"",""1"",""3313""
","
","
","""event"",""trial"",""time""
""fullscreenenter"",""1"",""3313""
","
","","","","","","null","<div style=""font-size:60px;"">+</div>","null","","fixation","","","","","","","","",""
"memory-trial","89","256143","0.0-15.0-1.23","1697","2","""event"",""trial"",""time""
""fullscreenenter"",""1"",""3313""
","
","
","""event"",""trial"",""time""
""fullscreenenter"",""1"",""3313""
","
","","","","","","55.900000005960464","images/dog2.png","","","memory_trial","4","definitely_new","","","","","","",""
"html-keyboard-response","90","256647","0.0-15.0-0.24","1697","2","""event"",""trial"",""time""
""fullscreenenter"",""1"",""3313""
","
","
","""event"",""trial"",""time""
""fullscreenenter"",""1"",""3313""
","
","","","","","","null","<div style=""font-size:60px;"">+</div>","null","","fixation","","","","","","","","",""
"memory-trial","91","257774","0.0-15.0-1.24","1697","2","""event"",""trial"",""time""
""fullscreenenter"",""1"",""3313""
","
","
","""event"",""trial"",""time""
""fullscreenenter"",""1"",""3313""
","
","","","","","","123.20000000298023","images/cow3.png","","","memory_trial","4","definitely_new","","","","","","",""
"html-keyboard-response","92","258279","0.0-15.0-0.25","1697","2","""event"",""trial"",""time""
""fullscreenenter"",""1"",""3313""
","
","
","""event"",""trial"",""time""
""fullscreenenter"",""1"",""3313""
","
","","","","","","null","<div style=""font-size:60px;"">+</div>","null","","fixation","","","","","","","","",""
"memory-trial","93","259345","0.0-15.0-1.25","1697","2","""event"",""trial"",""time""
""fullscreenenter"",""1"",""3313""
","
","
","""event"",""trial"",""time""
""fullscreenenter"",""1"",""3313""
","
","","","","","","63.19999998807907","images/train2.png","","","memory_trial","1","definitely_old","","","","","","",""
"html-keyboard-response","94","259848","0.0-15.0-0.26","1697","2","""event"",""trial"",""time""
""fullscreenenter"",""1"",""3313""
","
","
","""event"",""trial"",""time""
""fullscreenenter"",""1"",""3313""
","
","","","","","","null","<div style=""font-size:60px;"">+</div>","null","","fixation","","","","","","","","",""
"memory-trial","95","261042","0.0-15.0-1.26","1697","2","""event"",""trial"",""time""
""fullscreenenter"",""1"",""3313""
","
","
","""event"",""trial"",""time""
""fullscreenenter"",""1"",""3313""
","
","","","","","","188.09999999403954","images/horse3.png","","","memory_trial","4","definitely_new","","","","","","",""
"html-keyboard-response","96","261547","0.0-15.0-0.27","1697","2","""event"",""trial"",""time""
""fullscreenenter"",""1"",""3313""
","
","
","""event"",""trial"",""time""
""fullscreenenter"",""1"",""3313""
","
","","","","","","null","<div style=""font-size:60px;"">+</div>","null","","fixation","","","","","","","","",""
"memory-trial","97","263166","0.0-15.0-1.27","1697","2","""event"",""trial"",""time""
""fullscreenenter"",""1"",""3313""
","
","
","""event"",""trial"",""time""
""fullscreenenter"",""1"",""3313""
","
","","","","","","615.7999999970198","images/banana4.png","","","memory_trial","4","definitely_new","","","","","","",""
"html-keyboard-response","98","263671","0.0-15.0-0.28","1697","2","""event"",""trial"",""time""
""fullscreenenter"",""1"",""3313""
","
","
","""event"",""trial"",""time""
""fullscreenenter"",""1"",""3313""
","
","","","","","","null","<div style=""font-size:60px;"">+</div>","null","","fixation","","","","","","","","",""
"memory-trial","99","264695","0.0-15.0-1.28","1697","2","""event"",""trial"",""time""
""fullscreenenter"",""1"",""3313""
","
","
","""event"",""trial"",""time""
""fullscreenenter"",""1"",""3313""
","
","","","","","","19","images/sofa5.png","","","memory_trial","2","maybe_old","","","","","","",""
"html-keyboard-response","100","265201","0.0-15.0-0.29","1697","2","""event"",""trial"",""time""
""fullscreenenter"",""1"",""3313""
","
","
","""event"",""trial"",""time""
""fullscreenenter"",""1"",""3313""
","
","","","","","","null","<div style=""font-size:60px;"">+</div>","null","","fixation","","","","","","","","",""
"memory-trial","101","266253","0.0-15.0-1.29","1697","2","""event"",""trial"",""time""
""fullscreenenter"",""1"",""3313""
","
","
","""event"",""trial"",""time""
""fullscreenenter"",""1"",""3313""
","
","","","","","","48.30000001192093","images/dog4.png","","","memory_trial","4","definitely_new","","","","","","",""
"html-keyboard-response","102","266758","0.0-15.0-0.30","1697","2","""event"",""trial"",""time""
""fullscreenenter"",""1"",""3313""
","
","
","""event"",""trial"",""time""
""fullscreenenter"",""1"",""3313""
","
","","","","","","null","<div style=""font-size:60px;"">+</div>","null","","fixation","","","","","","","","",""
"memory-trial","103","267828","0.0-15.0-1.30","1697","2","""event"",""trial"",""time""
""fullscreenenter"",""1"",""3313""
","
","
","""event"",""trial"",""time""
""fullscreenenter"",""1"",""3313""
","
","","","","","","65.8999999910593","images/flower3.png","","","memory_trial","4","definitely_new","","","","","","",""
"html-keyboard-response","104","268329","0.0-15.0-0.31","1697","2","""event"",""trial"",""time""
""fullscreenenter"",""1"",""3313""
","
","
","""event"",""trial"",""time""
""fullscreenenter"",""1"",""3313""
","
","","","","","","null","<div style=""font-size:60px;"">+</div>","null","","fixation","","","","","","","","",""
"memory-trial","105","269449","0.0-15.0-1.31","1697","2","""event"",""trial"",""time""
""fullscreenenter"",""1"",""3313""
","
","
","""event"",""trial"",""time""
""fullscreenenter"",""1"",""3313""
","
","","","","","","116.20000000298023","images/apple3.png","","","memory_trial","1","definitely_old","","","","","","",""
"html-keyboard-response","106","269950","0.0-15.0-0.32","1697","2","""event"",""trial"",""time""
""fullscreenenter"",""1"",""3313""
","
","
","""event"",""trial"",""time""
""fullscreenenter"",""1"",""3313""
","
","","","","","","null","<div style=""font-size:60px;"">+</div>","null","","fixation","","","","","","","","",""
"memory-trial","107","271128","0.0-15.0-1.32","1697","2","""event"",""trial"",""time""
""fullscreenenter"",""1"",""3313""
","
","
","""event"",""trial"",""time""
""fullscreenenter"",""1"",""3313""
","
","","","","","","173.19999998807907","images/truck2.png","","","memory_trial","3","maybe_new","","","","","","",""
"html-keyboard-response","108","271634","0.0-15.0-0.33","1697","2","""event"",""trial"",""time""
""fullscreenenter"",""1"",""3313""
","
","
","""event"",""trial"",""time""
""fullscreenenter"",""1"",""3313""
","
","","","","","","null","<div style=""font-size:60px;"">+</div>","null","","fixation","","","","","","","","",""
"memory-trial","109","272956","0.0-15.0-1.33","1697","2","""event"",""trial"",""time""
""fullscreenenter"",""1"",""3313""
","
","
","""event"",""trial"",""time""
""fullscreenenter"",""1"",""3313""
","
","","","","","","315.8999999910593","images/apple4.png","","","memory_trial","3","maybe_new","","","","","","",""
"html-keyboard-response","110","273457","0.0-15.0-0.34","1697","2","""event"",""trial"",""time""
""fullscreenenter"",""1"",""3313""
","
","
","""event"",""trial"",""time""
""fullscreenenter"",""1"",""3313""
","
","","","","","","null","<div style=""font-size:60px;"">+</div>","null","","fixation","","","","","","","","",""
"memory-trial","111","274654","0.0-15.0-1.34","1697","2","""event"",""trial"",""time""
""fullscreenenter"",""1"",""3313""
","
","
","""event"",""trial"",""time""
""fullscreenenter"",""1"",""3313""
","
","","","","","","188.8999999910593","images/bush3.png","","","memory_trial","4","definitely_new","","","","","","",""
"html-keyboard-response","112","275157","0.0-15.0-0.35","1697","2","""event"",""trial"",""time""
""fullscreenenter"",""1"",""3313""
","
","
","""event"",""trial"",""time""
""fullscreenenter"",""1"",""3313""
","
","","","","","","null","<div style=""font-size:60px;"">+</div>","null","","fixation","","","","","","","","",""
"memory-trial","113","276402","0.0-15.0-1.35","1697","2","""event"",""trial"",""time""
""fullscreenenter"",""1"",""3313""
","
","
","""event"",""trial"",""time""
""fullscreenenter"",""1"",""3313""
","
","","","","","","240.59999999403954","images/sofa3.png","","","memory_trial","3","maybe_new","","","","","","",""
"html-keyboard-response","114","276908","0.0-15.0-0.36","1697","2","""event"",""trial"",""time""
""fullscreenenter"",""1"",""3313""
","
","
","""event"",""trial"",""time""
""fullscreenenter"",""1"",""3313""
","
","","","","","","null","<div style=""font-size:60px;"">+</div>","null","","fixation","","","","","","","","",""
"memory-trial","115","277918","0.0-15.0-1.36","1697","2","""event"",""trial"",""time""
""fullscreenenter"",""1"",""3313""
","
","
","""event"",""trial"",""time""
""fullscreenenter"",""1"",""3313""
","
","","","","","","6.299999997019768","images/rabbit3.png","","","memory_trial","1","definitely_old","","","","","","",""
"html-keyboard-response","116","278424","0.0-15.0-0.37","1697","2","""event"",""trial"",""time""
""fullscreenenter"",""1"",""3313""
","
","
","""event"",""trial"",""time""
""fullscreenenter"",""1"",""3313""
","
","","","","","","null","<div style=""font-size:60px;"">+</div>","null","","fixation","","","","","","","","",""
"memory-trial","117","279463","0.0-15.0-1.37","1697","2","""event"",""trial"",""time""
""fullscreenenter"",""1"",""3313""
","
","
","""event"",""trial"",""time""
""fullscreenenter"",""1"",""3313""
","
","","","","","","35.20000000298023","images/plane3.png","","","memory_trial","1","definitely_old","","","","","","",""
"html-keyboard-response","118","279969","0.0-15.0-0.38","1697","2","""event"",""trial"",""time""
""fullscreenenter"",""1"",""3313""
","
","
","""event"",""trial"",""time""
""fullscreenenter"",""1"",""3313""
","
","","","","","","null","<div style=""font-size:60px;"">+</div>","null","","fixation","","","","","","","","",""
"memory-trial","119","280979","0.0-15.0-1.38","1697","2","""event"",""trial"",""time""
""fullscreenenter"",""1"",""3313""
","
","
","""event"",""trial"",""time""
""fullscreenenter"",""1"",""3313""
","
","","","","","","5.5999999940395355","images/goat4.png","","","memory_trial","2","maybe_old","","","","","","",""
"html-keyboard-response","120","281484","0.0-15.0-0.39","1697","2","""event"",""trial"",""time""
""fullscreenenter"",""1"",""3313""
","
","
","""event"",""trial"",""time""
""fullscreenenter"",""1"",""3313""
","
","","","","","","null","<div style=""font-size:60px;"">+</div>","null","","fixation","","","","","","","","",""
"memory-trial","121","282497","0.0-15.0-1.39","1697","2","""event"",""trial"",""time""
""fullscreenenter"",""1"",""3313""
","
","
","""event"",""trial"",""time""
""fullscreenenter"",""1"",""3313""
","
","","","","","","8.299999997019768","images/bed4.png","","","memory_trial","2","maybe_old","","","","","","",""
"html-keyboard-response","122","283000","0.0-15.0-0.40","1697","2","""event"",""trial"",""time""
""fullscreenenter"",""1"",""3313""
","
","
","""event"",""trial"",""time""
""fullscreenenter"",""1"",""3313""
","
","","","","","","null","<div style=""font-size:60px;"">+</div>","null","","fixation","","","","","","","","",""
"memory-trial","123","284150","0.0-15.0-1.40","1697","2","""event"",""trial"",""time""
""fullscreenenter"",""1"",""3313""
","
","
","""event"",""trial"",""time""
""fullscreenenter"",""1"",""3313""
","
","","","","","","146.20000000298023","images/feline2.png","","","memory_trial","1","definitely_old","","","","","","",""
"html-keyboard-response","124","284655","0.0-15.0-0.41","1697","2","""event"",""trial"",""time""
""fullscreenenter"",""1"",""3313""
","
","
","""event"",""trial"",""time""
""fullscreenenter"",""1"",""3313""
","
","","","","","","null","<div style=""font-size:60px;"">+</div>","null","","fixation","","","","","","","","",""
"memory-trial","125","285711","0.0-15.0-1.41","1697","2","""event"",""trial"",""time""
""fullscreenenter"",""1"",""3313""
","
","
","""event"",""trial"",""time""
""fullscreenenter"",""1"",""3313""
","
","","","","","","50.70000000298023","images/tree2.png","","","memory_trial","3","maybe_new","","","","","","",""
"html-keyboard-response","126","286214","0.0-15.0-0.42","1697","2","""event"",""trial"",""time""
""fullscreenenter"",""1"",""3313""
","
","
","""event"",""trial"",""time""
""fullscreenenter"",""1"",""3313""
","
","","","","","","null","<div style=""font-size:60px;"">+</div>","null","","fixation","","","","","","","","",""
"memory-trial","127","287286","0.0-15.0-1.42","1697","2","""event"",""trial"",""time""
""fullscreenenter"",""1"",""3313""
","
","
","""event"",""trial"",""time""
""fullscreenenter"",""1"",""3313""
","
","","","","","","68.30000001192093","images/flower5.png","","","memory_trial","3","maybe_new","","","","","","",""
"html-keyboard-response","128","287790","0.0-15.0-0.43","1697","2","""event"",""trial"",""time""
""fullscreenenter"",""1"",""3313""
","
","
","""event"",""trial"",""time""
""fullscreenenter"",""1"",""3313""
","
","","","","","","null","<div style=""font-size:60px;"">+</div>","null","","fixation","","","","","","","","",""
"memory-trial","129","288854","0.0-15.0-1.43","1697","2","""event"",""trial"",""time""
""fullscreenenter"",""1"",""3313""
","
","
","""event"",""trial"",""time""
""fullscreenenter"",""1"",""3313""
","
","","","","","","59.900000005960464","images/banana3.png","","","memory_trial","3","maybe_new","","","","","","",""
"html-keyboard-response","130","289359","0.0-15.0-0.44","1697","2","""event"",""trial"",""time""
""fullscreenenter"",""1"",""3313""
","
","
","""event"",""trial"",""time""
""fullscreenenter"",""1"",""3313""
","
","","","","","","null","<div style=""font-size:60px;"">+</div>","null","","fixation","","","","","","","","",""
"memory-trial","131","290485","0.0-15.0-1.44","1697","2","""event"",""trial"",""time""
""fullscreenenter"",""1"",""3313""
","
","
","""event"",""trial"",""time""
""fullscreenenter"",""1"",""3313""
","
","","","","","","123.5","images/sheep4.png","","","memory_trial","4","definitely_new","","","","","","",""
"html-keyboard-response","132","290989","0.0-15.0-0.45","1697","2","""event"",""trial"",""time""
""fullscreenenter"",""1"",""3313""
","
","
","""event"",""trial"",""time""
""fullscreenenter"",""1"",""3313""
","
","","","","","","null","<div style=""font-size:60px;"">+</div>","null","","fixation","","","","","","","","",""
"memory-trial","133","292204","0.0-15.0-1.45","1697","2","""event"",""trial"",""time""
""fullscreenenter"",""1"",""3313""
","
","
","""event"",""trial"",""time""
""fullscreenenter"",""1"",""3313""
","
","","","","","","210.5","images/chair1.png","","","memory_trial","3","maybe_new","","","","","","",""
"html-keyboard-response","134","292709","0.0-15.0-0.46","1697","2","""event"",""trial"",""time""
""fullscreenenter"",""1"",""3313""
","
","
","""event"",""trial"",""time""
""fullscreenenter"",""1"",""3313""
","
","","","","","","null","<div style=""font-size:60px;"">+</div>","null","","fixation","","","","","","","","",""
"memory-trial","135","293795","0.0-15.0-1.46","1697","2","""event"",""trial"",""time""
""fullscreenenter"",""1"",""3313""
","
","
","""event"",""trial"",""time""
""fullscreenenter"",""1"",""3313""
","
","","","","","","83.29999999701977","images/apple1.png","","","memory_trial","3","maybe_new","","","","","","",""
"html-button-response","136","302213","0.0-15.0-2.46-0.46","1697","2","""event"",""trial"",""time""
""fullscreenenter"",""1"",""3313""
","
","
","""event"",""trial"",""time""
""fullscreenenter"",""1"",""3313""
","
","","","","","","8414.79999999702","<p> Take a break! </p><p> Click the button to continue. </p>","0","","break","","","","","","","","",""
"html-keyboard-response","137","302718","0.0-15.0-0.47","1697","2","""event"",""trial"",""time""
""fullscreenenter"",""1"",""3313""
","
","
","""event"",""trial"",""time""
""fullscreenenter"",""1"",""3313""
","
","","","","","","null","<div style=""font-size:60px;"">+</div>","null","","fixation","","","","","","","","",""
"memory-trial","138","304584","0.0-15.0-1.47","1697","2","""event"",""trial"",""time""
""fullscreenenter"",""1"",""3313""
","
","
","""event"",""trial"",""time""
""fullscreenenter"",""1"",""3313""
","
","","","","","","862.3999999910593","images/banana1.png","","","memory_trial","1","definitely_old","","","","","","",""
"html-keyboard-response","139","305085","0.0-15.0-0.48","1697","2","""event"",""trial"",""time""
""fullscreenenter"",""1"",""3313""
","
","
","""event"",""trial"",""time""
""fullscreenenter"",""1"",""3313""
","
","","","","","","null","<div style=""font-size:60px;"">+</div>","null","","fixation","","","","","","","","",""
"memory-trial","140","306255","0.0-15.0-1.48","1697","2","""event"",""trial"",""time""
""fullscreenenter"",""1"",""3313""
","
","
","""event"",""trial"",""time""
""fullscreenenter"",""1"",""3313""
","
","","","","","","167","images/goat1.png","","","memory_trial","4","definitely_new","","","","","","",""
"html-keyboard-response","141","306759","0.0-15.0-0.49","1697","2","""event"",""trial"",""time""
""fullscreenenter"",""1"",""3313""
","
","
","""event"",""trial"",""time""
""fullscreenenter"",""1"",""3313""
","
","","","","","","null","<div style=""font-size:60px;"">+</div>","null","","fixation","","","","","","","","",""
"memory-trial","142","307823","0.0-15.0-1.49","1697","2","""event"",""trial"",""time""
""fullscreenenter"",""1"",""3313""
","
","
","""event"",""trial"",""time""
""fullscreenenter"",""1"",""3313""
","
","","","","","","60.70000000298023","images/chair2.png","","","memory_trial","3","maybe_new","","","","","","",""
"html-keyboard-response","143","308327","0.0-15.0-0.50","1697","2","""event"",""trial"",""time""
""fullscreenenter"",""1"",""3313""
","
","
","""event"",""trial"",""time""
""fullscreenenter"",""1"",""3313""
","
","","","","","","null","<div style=""font-size:60px;"">+</div>","null","","fixation","","","","","","","","",""
"memory-trial","144","310232","0.0-15.0-1.50","1697","2","""event"",""trial"",""time""
""fullscreenenter"",""1"",""3313""
","
","
","""event"",""trial"",""time""
""fullscreenenter"",""1"",""3313""
","
","","","","","","902.2999999970198","images/boat3.png","","","memory_trial","1","definitely_old","","","","","","",""
"html-keyboard-response","145","310736","0.0-15.0-0.51","1697","2","""event"",""trial"",""time""
""fullscreenenter"",""1"",""3313""
","
","
","""event"",""trial"",""time""
""fullscreenenter"",""1"",""3313""
","
","","","","","","null","<div style=""font-size:60px;"">+</div>","null","","fixation","","","","","","","","",""
"memory-trial","146","311802","0.0-15.0-1.51","1697","2","""event"",""trial"",""time""
""fullscreenenter"",""1"",""3313""
","
","
","""event"",""trial"",""time""
""fullscreenenter"",""1"",""3313""
","
","","","","","","59.79999999701977","images/plane2.png","","","memory_trial","1","definitely_old","","","","","","",""
"html-keyboard-response","147","312303","0.0-15.0-0.52","1697","2","""event"",""trial"",""time""
""fullscreenenter"",""1"",""3313""
","
","
","""event"",""trial"",""time""
""fullscreenenter"",""1"",""3313""
","
","","","","","","null","<div style=""font-size:60px;"">+</div>","null","","fixation","","","","","","","","",""
"memory-trial","148","313412","0.0-15.0-1.52","1697","2","""event"",""trial"",""time""
""fullscreenenter"",""1"",""3313""
","
","
","""event"",""trial"",""time""
""fullscreenenter"",""1"",""3313""
","
","","","","","","102.30000001192093","images/boat1.png","","","memory_trial","1","definitely_old","","","","","","",""
"html-keyboard-response","149","313914","0.0-15.0-0.53","1697","2","""event"",""trial"",""time""
""fullscreenenter"",""1"",""3313""
","
","
","""event"",""trial"",""time""
""fullscreenenter"",""1"",""3313""
","
","","","","","","null","<div style=""font-size:60px;"">+</div>","null","","fixation","","","","","","","","",""
"memory-trial","150","315247","0.0-15.0-1.53","1697","2","""event"",""trial"",""time""
""fullscreenenter"",""1"",""3313""
","
","
","""event"",""trial"",""time""
""fullscreenenter"",""1"",""3313""
","
","","","","","","329.6000000089407","images/bed5.png","","","memory_trial","1","definitely_old","","","","","","",""
"html-keyboard-response","151","315751","0.0-15.0-0.54","1697","2","""event"",""trial"",""time""
""fullscreenenter"",""1"",""3313""
","
","
","""event"",""trial"",""time""
""fullscreenenter"",""1"",""3313""
","
","","","","","","null","<div style=""font-size:60px;"">+</div>","null","","fixation","","","","","","","","",""
"memory-trial","152","317354","0.0-15.0-1.54","1697","2","""event"",""trial"",""time""
""fullscreenenter"",""1"",""3313""
","
","
","""event"",""trial"",""time""
""fullscreenenter"",""1"",""3313""
","
","","","","","","598.5999999940395","images/train4.png","","","memory_trial","1","definitely_old","","","","","","",""
"html-keyboard-response","153","317859","0.0-15.0-0.55","1697","2","""event"",""trial"",""time""
""fullscreenenter"",""1"",""3313""
","
","
","""event"",""trial"",""time""
""fullscreenenter"",""1"",""3313""
","
","","","","","","null","<div style=""font-size:60px;"">+</div>","null","","fixation","","","","","","","","",""
"memory-trial","154","319706","0.0-15.0-1.55","1697","2","""event"",""trial"",""time""
""fullscreenenter"",""1"",""3313""
","
","
","""event"",""trial"",""time""
""fullscreenenter"",""1"",""3313""
","
","","","","","","843","images/train1.png","","","memory_trial","1","definitely_old","","","","","","",""
"html-keyboard-response","155","320210","0.0-15.0-0.56","1697","2","""event"",""trial"",""time""
""fullscreenenter"",""1"",""3313""
","
","
","""event"",""trial"",""time""
""fullscreenenter"",""1"",""3313""
","
","","","","","","null","<div style=""font-size:60px;"">+</div>","null","","fixation","","","","","","","","",""
"memory-trial","156","322004","0.0-15.0-1.56","1697","2","""event"",""trial"",""time""
""fullscreenenter"",""1"",""3313""
","
","
","""event"",""trial"",""time""
""fullscreenenter"",""1"",""3313""
","
","","","","","","791.8999999910593","images/rodent2.png","","","memory_trial","1","definitely_old","","","","","","",""
"html-keyboard-response","157","322510","0.0-15.0-0.57","1697","2","""event"",""trial"",""time""
""fullscreenenter"",""1"",""3313""
","
","
","""event"",""trial"",""time""
""fullscreenenter"",""1"",""3313""
","
","","","","","","null","<div style=""font-size:60px;"">+</div>","null","","fixation","","","","","","","","",""
"memory-trial","158","323548","0.0-15.0-1.57","1697","2","""event"",""trial"",""time""
""fullscreenenter"",""1"",""3313""
","
","
","""event"",""trial"",""time""
""fullscreenenter"",""1"",""3313""
","
","","","","","","34.1000000089407","images/orange5.png","","","memory_trial","1","definitely_old","","","","","","",""
"html-keyboard-response","159","324050","0.0-15.0-0.58","1697","2","""event"",""trial"",""time""
""fullscreenenter"",""1"",""3313""
","
","
","""event"",""trial"",""time""
""fullscreenenter"",""1"",""3313""
","
","","","","","","null","<div style=""font-size:60px;"">+</div>","null","","fixation","","","","","","","","",""
"memory-trial","160","325053","0.0-15.0-1.58","1697","2","""event"",""trial"",""time""
""fullscreenenter"",""1"",""3313""
","
","
","""event"",""trial"",""time""
""fullscreenenter"",""1"",""3313""
","
","","","","","","0.29999999701976776","images/flower2.png","","","memory_trial","1","definitely_old","","","","","","",""
"html-keyboard-response","161","325557","0.0-15.0-0.59","1697","2","""event"",""trial"",""time""
""fullscreenenter"",""1"",""3313""
","
","
","""event"",""trial"",""time""
""fullscreenenter"",""1"",""3313""
","
","","","","","","null","<div style=""font-size:60px;"">+</div>","null","","fixation","","","","","","","","",""
"memory-trial","162","326579","0.0-15.0-1.59","1697","2","""event"",""trial"",""time""
""fullscreenenter"",""1"",""3313""
","
","
","""event"",""trial"",""time""
""fullscreenenter"",""1"",""3313""
","
","","","","","","17.299999997019768","images/boat2.png","","","memory_trial","4","definitely_new","","","","","","",""
"html-keyboard-response","163","327084","0.0-15.0-0.60","1697","2","""event"",""trial"",""time""
""fullscreenenter"",""1"",""3313""
","
","
","""event"",""trial"",""time""
""fullscreenenter"",""1"",""3313""
","
","","","","","","null","<div style=""font-size:60px;"">+</div>","null","","fixation","","","","","","","","",""
"memory-trial","164","328189","0.0-15.0-1.60","1697","2","""event"",""trial"",""time""
""fullscreenenter"",""1"",""3313""
","
","
","""event"",""trial"",""time""
""fullscreenenter"",""1"",""3313""
","
","","","","","","99.09999999403954","images/chair3.png","","","memory_trial","1","definitely_old","","","","","","",""
"html-keyboard-response","165","328692","0.0-15.0-0.61","1697","2","""event"",""trial"",""time""
""fullscreenenter"",""1"",""3313""
","
","
","""event"",""trial"",""time""
""fullscreenenter"",""1"",""3313""
","
","","","","","","null","<div style=""font-size:60px;"">+</div>","null","","fixation","","","","","","","","",""
"memory-trial","166","329758","0.0-15.0-1.61","1697","2","""event"",""trial"",""time""
""fullscreenenter"",""1"",""3313""
","
","
","""event"",""trial"",""time""
""fullscreenenter"",""1"",""3313""
","
","","","","","","63","images/cow2.png","","","memory_trial","1","definitely_old","","","","","","",""
"html-keyboard-response","167","330260","0.0-15.0-0.62","1697","2","""event"",""trial"",""time""
""fullscreenenter"",""1"",""3313""
","
","
","""event"",""trial"",""time""
""fullscreenenter"",""1"",""3313""
","
","","","","","","null","<div style=""font-size:60px;"">+</div>","null","","fixation","","","","","","","","",""
"memory-trial","168","331270","0.0-15.0-1.62","1697","2","""event"",""trial"",""time""
""fullscreenenter"",""1"",""3313""
","
","
","""event"",""trial"",""time""
""fullscreenenter"",""1"",""3313""
","
","","","","","","5.200000002980232","images/sofa1.png","","","memory_trial","3","maybe_new","","","","","","",""
"html-keyboard-response","169","331775","0.0-15.0-0.63","1697","2","""event"",""trial"",""time""
""fullscreenenter"",""1"",""3313""
","
","
","""event"",""trial"",""time""
""fullscreenenter"",""1"",""3313""
","
","","","","","","null","<div style=""font-size:60px;"">+</div>","null","","fixation","","","","","","","","",""
"memory-trial","170","332890","0.0-15.0-1.63","1697","2","""event"",""trial"",""time""
""fullscreenenter"",""1"",""3313""
","
","
","""event"",""trial"",""time""
""fullscreenenter"",""1"",""3313""
","
","","","","","","108.1000000089407","images/bush1.png","","","memory_trial","4","definitely_new","","","","","","",""
"html-keyboard-response","171","333394","0.0-15.0-0.64","1697","2","""event"",""trial"",""time""
""fullscreenenter"",""1"",""3313""
","
","
","""event"",""trial"",""time""
""fullscreenenter"",""1"",""3313""
","
","","","","","","null","<div style=""font-size:60px;"">+</div>","null","","fixation","","","","","","","","",""
"memory-trial","172","334474","0.0-15.0-1.64","1697","2","""event"",""trial"",""time""
""fullscreenenter"",""1"",""3313""
","
","
","""event"",""trial"",""time""
""fullscreenenter"",""1"",""3313""
","
","","","","","","77.59999999403954","images/straw5.png","","","memory_trial","1","definitely_old","","","","","","",""
"html-keyboard-response","173","334979","0.0-15.0-0.65","1697","2","""event"",""trial"",""time""
""fullscreenenter"",""1"",""3313""
","
","
","""event"",""trial"",""time""
""fullscreenenter"",""1"",""3313""
","
","","","","","","null","<div style=""font-size:60px;"">+</div>","null","","fixation","","","","","","","","",""
"memory-trial","174","336042","0.0-15.0-1.65","1697","2","""event"",""trial"",""time""
""fullscreenenter"",""1"",""3313""
","
","
","""event"",""trial"",""time""
""fullscreenenter"",""1"",""3313""
","
","","","","","","58.70000000298023","images/table2.png","","","memory_trial","4","definitely_new","","","","","","",""
"html-keyboard-response","175","336545","0.0-15.0-0.66","1697","2","""event"",""trial"",""time""
""fullscreenenter"",""1"",""3313""
","
","
","""event"",""trial"",""time""
""fullscreenenter"",""1"",""3313""
","
","","","","","","null","<div style=""font-size:60px;"">+</div>","null","","fixation","","","","","","","","",""
"memory-trial","176","337615","0.0-15.0-1.66","1697","2","""event"",""trial"",""time""
""fullscreenenter"",""1"",""3313""
","
","
","""event"",""trial"",""time""
""fullscreenenter"",""1"",""3313""
","
","","","","","","64.69999998807907","images/straw2.png","","","memory_trial","2","maybe_old","","","","","","",""
"html-keyboard-response","177","338120","0.0-15.0-0.67","1697","2","""event"",""trial"",""time""
""fullscreenenter"",""1"",""3313""
","
","
","""event"",""trial"",""time""
""fullscreenenter"",""1"",""3313""
","
","","","","","","null","<div style=""font-size:60px;"">+</div>","null","","fixation","","","","","","","","",""
"memory-trial","178","339394","0.0-15.0-1.67","1697","2","""event"",""trial"",""time""
""fullscreenenter"",""1"",""3313""
","
","
","""event"",""trial"",""time""
""fullscreenenter"",""1"",""3313""
","
","","","","","","271.30000001192093","images/bush2.png","","","memory_trial","1","definitely_old","","","","","","",""
"html-keyboard-response","179","339896","0.0-15.0-0.68","1697","2","""event"",""trial"",""time""
""fullscreenenter"",""1"",""3313""
","
","
","""event"",""trial"",""time""
""fullscreenenter"",""1"",""3313""
","
","","","","","","null","<div style=""font-size:60px;"">+</div>","null","","fixation","","","","","","","","",""
"memory-trial","180","340959","0.0-15.0-1.68","1697","2","""event"",""trial"",""time""
""fullscreenenter"",""1"",""3313""
","
","
","""event"",""trial"",""time""
""fullscreenenter"",""1"",""3313""
","
","","","","","","58.79999999701977","images/cactus1.png","","","memory_trial","3","maybe_new","","","","","","",""
"html-keyboard-response","181","341464","0.0-15.0-0.69","1697","2","""event"",""trial"",""time""
""fullscreenenter"",""1"",""3313""
","
","
","""event"",""trial"",""time""
""fullscreenenter"",""1"",""3313""
","
","","","","","","null","<div style=""font-size:60px;"">+</div>","null","","fixation","","","","","","","","",""
"memory-trial","182","342578","0.0-15.0-1.69","1697","2","""event"",""trial"",""time""
""fullscreenenter"",""1"",""3313""
","
","
","""event"",""trial"",""time""
""fullscreenenter"",""1"",""3313""
","
","","","","","","107.20000000298023","images/cactus5.png","","","memory_trial","4","definitely_new","","","","","","",""
"html-keyboard-response","183","343083","0.0-15.0-0.70","1697","2","""event"",""trial"",""time""
""fullscreenenter"",""1"",""3313""
","
","
","""event"",""trial"",""time""
""fullscreenenter"",""1"",""3313""
","
","","","","","","null","<div style=""font-size:60px;"">+</div>","null","","fixation","","","","","","","","",""
"memory-trial","184","344358","0.0-15.0-1.70","1697","2","""event"",""trial"",""time""
""fullscreenenter"",""1"",""3313""
","
","
","""event"",""trial"",""time""
""fullscreenenter"",""1"",""3313""
","
","","","","","","272.20000000298023","images/horse4.png","","","memory_trial","4","definitely_new","","","","","","",""
"html-keyboard-response","185","344860","0.0-15.0-0.71","1697","2","""event"",""trial"",""time""
""fullscreenenter"",""1"",""3313""
","
","
","""event"",""trial"",""time""
""fullscreenenter"",""1"",""3313""
","
","","","","","","null","<div style=""font-size:60px;"">+</div>","null","","fixation","","","","","","","","",""
"memory-trial","186","346595","0.0-15.0-1.71","1697","2","""event"",""trial"",""time""
""fullscreenenter"",""1"",""3313""
","
","
","""event"",""trial"",""time""
""fullscreenenter"",""1"",""3313""
","
","","","","","","732.7000000029802","images/table4.png","","","memory_trial","1","definitely_old","","","","","","",""
"html-keyboard-response","187","347100","0.0-15.0-0.72","1697","2","""event"",""trial"",""time""
""fullscreenenter"",""1"",""3313""
","
","
","""event"",""trial"",""time""
""fullscreenenter"",""1"",""3313""
","
","","","","","","null","<div style=""font-size:60px;"">+</div>","null","","fixation","","","","","","","","",""
"memory-trial","188","349730","0.0-15.0-1.72","1697","2","""event"",""trial"",""time""
""fullscreenenter"",""1"",""3313""
","
","
","""event"",""trial"",""time""
""fullscreenenter"",""1"",""3313""
","
","","","","","","1625.1000000089407","images/straw4.png","","","memory_trial","1","definitely_old","","","","","","",""
"html-keyboard-response","189","350235","0.0-15.0-0.73","1697","2","""event"",""trial"",""time""
""fullscreenenter"",""1"",""3313""
","
","
","""event"",""trial"",""time""
""fullscreenenter"",""1"",""3313""
","
","","","","","","null","<div style=""font-size:60px;"">+</div>","null","","fixation","","","","","","","","",""
"memory-trial","190","351298","0.0-15.0-1.73","1697","2","""event"",""trial"",""time""
""fullscreenenter"",""1"",""3313""
","
","
","""event"",""trial"",""time""
""fullscreenenter"",""1"",""3313""
","
","","","","","","57.5","images/goat5.png","","","memory_trial","3","maybe_new","","","","","","",""
"html-keyboard-response","191","351803","0.0-15.0-0.74","1697","2","""event"",""trial"",""time""
""fullscreenenter"",""1"",""3313""
","
","
","""event"",""trial"",""time""
""fullscreenenter"",""1"",""3313""
","
","","","","","","null","<div style=""font-size:60px;"">+</div>","null","","fixation","","","","","","","","",""
"memory-trial","192","352894","0.0-15.0-1.74","1697","2","""event"",""trial"",""time""
""fullscreenenter"",""1"",""3313""
","
","
","""event"",""trial"",""time""
""fullscreenenter"",""1"",""3313""
","
","","","","","","85.09999999403954","images/goat2.png","","","memory_trial","1","definitely_old","","","","","","",""
"html-keyboard-response","193","353398","0.0-15.0-0.75","1697","2","""event"",""trial"",""time""
""fullscreenenter"",""1"",""3313""
","
","
","""event"",""trial"",""time""
""fullscreenenter"",""1"",""3313""
","
","","","","","","null","<div style=""font-size:60px;"">+</div>","null","","fixation","","","","","","","","",""
"memory-trial","194","354707","0.0-15.0-1.75","1697","2","""event"",""trial"",""time""
""fullscreenenter"",""1"",""3313""
","
","
","""event"",""trial"",""time""
""fullscreenenter"",""1"",""3313""
","
","","","","","","305.20000000298023","images/rodent5.png","","","memory_trial","4","definitely_new","","","","","","",""
"html-keyboard-response","195","355210","0.0-15.0-0.76","1697","2","""event"",""trial"",""time""
""fullscreenenter"",""1"",""3313""
","
","
","""event"",""trial"",""time""
""fullscreenenter"",""1"",""3313""
","
","","","","","","null","<div style=""font-size:60px;"">+</div>","null","","fixation","","","","","","","","",""
"memory-trial","196","356743","0.0-15.0-1.76","1697","2","""event"",""trial"",""time""
""fullscreenenter"",""1"",""3313""
","
","
","""event"",""trial"",""time""
""fullscreenenter"",""1"",""3313""
","
","","","","","","530.7000000029802","images/sheep5.png","","","memory_trial","1","definitely_old","","","","","","",""
"html-keyboard-response","197","357248","0.0-15.0-0.77","1697","2","""event"",""trial"",""time""
""fullscreenenter"",""1"",""3313""
","
","
","""event"",""trial"",""time""
""fullscreenenter"",""1"",""3313""
","
","","","","","","null","<div style=""font-size:60px;"">+</div>","null","","fixation","","","","","","","","",""
"memory-trial","198","358479","0.0-15.0-1.77","1697","2","""event"",""trial"",""time""
""fullscreenenter"",""1"",""3313""
","
","
","""event"",""trial"",""time""
""fullscreenenter"",""1"",""3313""
","
","","","","","","225.79999999701977","images/sofa4.png","","","memory_trial","4","definitely_new","","","","","","",""
"html-keyboard-response","199","358984","0.0-15.0-0.78","1697","2","""event"",""trial"",""time""
""fullscreenenter"",""1"",""3313""
","
","
","""event"",""trial"",""time""
""fullscreenenter"",""1"",""3313""
","
","","","","","","null","<div style=""font-size:60px;"">+</div>","null","","fixation","","","","","","","","",""
"memory-trial","200","360139","0.0-15.0-1.78","1697","2","""event"",""trial"",""time""
""fullscreenenter"",""1"",""3313""
","
","
","""event"",""trial"",""time""
""fullscreenenter"",""1"",""3313""
","
","","","","","","151.69999998807907","images/tree3.png","","","memory_trial","1","definitely_old","","","","","","",""
"html-keyboard-response","201","360642","0.0-15.0-0.79","1697","2","""event"",""trial"",""time""
""fullscreenenter"",""1"",""3313""
","
","
","""event"",""trial"",""time""
""fullscreenenter"",""1"",""3313""
","
","","","","","","null","<div style=""font-size:60px;"">+</div>","null","","fixation","","","","","","","","",""
"memory-trial","202","361794","0.0-15.0-1.79","1697","2","""event"",""trial"",""time""
""fullscreenenter"",""1"",""3313""
","
","
","""event"",""trial"",""time""
""fullscreenenter"",""1"",""3313""
","
","","","","","","149.80000001192093","images/tree4.png","","","memory_trial","1","definitely_old","","","","","","",""
"html-keyboard-response","203","362298","0.0-15.0-0.80","1697","2","""event"",""trial"",""time""
""fullscreenenter"",""1"",""3313""
","
","
","""event"",""trial"",""time""
""fullscreenenter"",""1"",""3313""
","
","","","","","","null","<div style=""font-size:60px;"">+</div>","null","","fixation","","","","","","","","",""
"memory-trial","204","363524","0.0-15.0-1.80","1697","2","""event"",""trial"",""time""
""fullscreenenter"",""1"",""3313""
","
","
","""event"",""trial"",""time""
""fullscreenenter"",""1"",""3313""
","
","","","","","","220.79999999701977","images/tree5.png","","","memory_trial","1","definitely_old","","","","","","",""
"html-keyboard-response","205","364026","0.0-15.0-0.81","1697","2","""event"",""trial"",""time""
""fullscreenenter"",""1"",""3313""
","
","
","""event"",""trial"",""time""
""fullscreenenter"",""1"",""3313""
","
","","","","","","null","<div style=""font-size:60px;"">+</div>","null","","fixation","","","","","","","","",""
"memory-trial","206","365228","0.0-15.0-1.81","1697","2","""event"",""trial"",""time""
""fullscreenenter"",""1"",""3313""
","
","
","""event"",""trial"",""time""
""fullscreenenter"",""1"",""3313""
","
","","","","","","197","images/boat4.png","","","memory_trial","4","definitely_new","","","","","","",""
"html-keyboard-response","207","365729","0.0-15.0-0.82","1697","2","""event"",""trial"",""time""
""fullscreenenter"",""1"",""3313""
","
","
","""event"",""trial"",""time""
""fullscreenenter"",""1"",""3313""
","
","","","","","","null","<div style=""font-size:60px;"">+</div>","null","","fixation","","","","","","","","",""
"memory-trial","208","367188","0.0-15.0-1.82","1697","2","""event"",""trial"",""time""
""fullscreenenter"",""1"",""3313""
","
","
","""event"",""trial"",""time""
""fullscreenenter"",""1"",""3313""
","
","","","","","","455.90000000596046","images/sofa2.png","","","memory_trial","2","maybe_old","","","","","","",""
"html-keyboard-response","209","367691","0.0-15.0-0.83","1697","2","""event"",""trial"",""time""
""fullscreenenter"",""1"",""3313""
","
","
","""event"",""trial"",""time""
""fullscreenenter"",""1"",""3313""
","
","","","","","","null","<div style=""font-size:60px;"">+</div>","null","","fixation","","","","","","","","",""
"memory-trial","210","369033","0.0-15.0-1.83","1697","2","""event"",""trial"",""time""
""fullscreenenter"",""1"",""3313""
","
","
","""event"",""trial"",""time""
""fullscreenenter"",""1"",""3313""
","
","","","","","","338.80000001192093","images/cactus2.png","","","memory_trial","3","maybe_new","","","","","","",""
"html-keyboard-response","211","369537","0.0-15.0-0.84","1697","2","""event"",""trial"",""time""
""fullscreenenter"",""1"",""3313""
","
","
","""event"",""trial"",""time""
""fullscreenenter"",""1"",""3313""
","
","","","","","","null","<div style=""font-size:60px;"">+</div>","null","","fixation","","","","","","","","",""
"memory-trial","212","370754","0.0-15.0-1.84","1697","2","""event"",""trial"",""time""
""fullscreenenter"",""1"",""3313""
","
","
","""event"",""trial"",""time""
""fullscreenenter"",""1"",""3313""
","
","","","","","","214.20000000298023","images/bed3.png","","","memory_trial","4","definitely_new","","","","","","",""
"html-keyboard-response","213","371256","0.0-15.0-0.85","1697","2","""event"",""trial"",""time""
""fullscreenenter"",""1"",""3313""
","
","
","""event"",""trial"",""time""
""fullscreenenter"",""1"",""3313""
","
","","","","","","null","<div style=""font-size:60px;"">+</div>","null","","fixation","","","","","","","","",""
"memory-trial","214","372330","0.0-15.0-1.85","1697","2","""event"",""trial"",""time""
""fullscreenenter"",""1"",""3313""
","
","
","""event"",""trial"",""time""
""fullscreenenter"",""1"",""3313""
","
","","","","","","70.29999999701977","images/dog1.png","","","memory_trial","1","definitely_old","","","","","","",""
"html-keyboard-response","215","372833","0.0-15.0-0.86","1697","2","""event"",""trial"",""time""
""fullscreenenter"",""1"",""3313""
","
","
","""event"",""trial"",""time""
""fullscreenenter"",""1"",""3313""
","
","","","","","","null","<div style=""font-size:60px;"">+</div>","null","","fixation","","","","","","","","",""
"memory-trial","216","374034","0.0-15.0-1.86","1697","2","""event"",""trial"",""time""
""fullscreenenter"",""1"",""3313""
","
","
","""event"",""trial"",""time""
""fullscreenenter"",""1"",""3313""
","
","","","","","","196.79999999701977","images/banana2.png","","","memory_trial","1","definitely_old","","","","","","",""
"html-keyboard-response","217","374536","0.0-15.0-0.87","1697","2","""event"",""trial"",""time""
""fullscreenenter"",""1"",""3313""
","
","
","""event"",""trial"",""time""
""fullscreenenter"",""1"",""3313""
","
","","","","","","null","<div style=""font-size:60px;"">+</div>","null","","fixation","","","","","","","","",""
"memory-trial","218","375709","0.0-15.0-1.87","1697","2","""event"",""trial"",""time""
""fullscreenenter"",""1"",""3313""
","
","
","""event"",""trial"",""time""
""fullscreenenter"",""1"",""3313""
","
","","","","","","165.5","images/orange3.png","","","memory_trial","4","definitely_new","","","","","","",""
"html-keyboard-response","219","376213","0.0-15.0-0.88","1697","2","""event"",""trial"",""time""
""fullscreenenter"",""1"",""3313""
","
","
","""event"",""trial"",""time""
""fullscreenenter"",""1"",""3313""
","
","","","","","","null","<div style=""font-size:60px;"">+</div>","null","","fixation","","","","","","","","",""
"memory-trial","220","377421","0.0-15.0-1.88","1697","2","""event"",""trial"",""time""
""fullscreenenter"",""1"",""3313""
","
","
","""event"",""trial"",""time""
""fullscreenenter"",""1"",""3313""
","
","","","","","","204.5","images/truck5.png","","","memory_trial","3","maybe_new","","","","","","",""
"html-keyboard-response","221","377922","0.0-15.0-0.89","1697","2","""event"",""trial"",""time""
""fullscreenenter"",""1"",""3313""
","
","
","""event"",""trial"",""time""
""fullscreenenter"",""1"",""3313""
","
","","","","","","null","<div style=""font-size:60px;"">+</div>","null","","fixation","","","","","","","","",""
"memory-trial","222","379011","0.0-15.0-1.89","1697","2","""event"",""trial"",""time""
""fullscreenenter"",""1"",""3313""
","
","
","""event"",""trial"",""time""
""fullscreenenter"",""1"",""3313""
","
","","","","","","86.29999999701977","images/orange1.png","","","memory_trial","3","maybe_new","","","","","","",""
"html-keyboard-response","223","379516","0.0-15.0-0.90","1697","2","""event"",""trial"",""time""
""fullscreenenter"",""1"",""3313""
","
","
","""event"",""trial"",""time""
""fullscreenenter"",""1"",""3313""
","
","","","","","","null","<div style=""font-size:60px;"">+</div>","null","","fixation","","","","","","","","",""
"memory-trial","224","380526","0.0-15.0-1.90","1697","2","""event"",""trial"",""time""
""fullscreenenter"",""1"",""3313""
","
","
","""event"",""trial"",""time""
""fullscreenenter"",""1"",""3313""
","
","","","","","","6.700000002980232","images/truck4.png","","","memory_trial","3","maybe_new","","","","","","",""
"html-keyboard-response","225","381027","0.0-15.0-0.91","1697","2","""event"",""trial"",""time""
""fullscreenenter"",""1"",""3313""
","
","
","""event"",""trial"",""time""
""fullscreenenter"",""1"",""3313""
","
","","","","","","null","<div style=""font-size:60px;"">+</div>","null","","fixation","","","","","","","","",""
"memory-trial","226","382071","0.0-15.0-1.91","1697","2","""event"",""trial"",""time""
""fullscreenenter"",""1"",""3313""
","
","
","""event"",""trial"",""time""
""fullscreenenter"",""1"",""3313""
","
","","","","","","36.3999999910593","images/bed2.png","","","memory_trial","4","definitely_new","","","","","","",""
"html-keyboard-response","227","382576","0.0-15.0-0.92","1697","2","""event"",""trial"",""time""
""fullscreenenter"",""1"",""3313""
","
","
","""event"",""trial"",""time""
""fullscreenenter"",""1"",""3313""
","
","","","","","","null","<div style=""font-size:60px;"">+</div>","null","","fixation","","","","","","","","",""
"memory-trial","228","383743","0.0-15.0-1.92","1697","2","""event"",""trial"",""time""
""fullscreenenter"",""1"",""3313""
","
","
","""event"",""trial"",""time""
""fullscreenenter"",""1"",""3313""
","
","","","","","","164.20000000298023","images/horse2.png","","","memory_trial","4","definitely_new","","","","","","",""
"html-keyboard-response","229","384245","0.0-15.0-0.93","1697","2","""event"",""trial"",""time""
""fullscreenenter"",""1"",""3313""
","
","
","""event"",""trial"",""time""
""fullscreenenter"",""1"",""3313""
","
","","","","","","null","<div style=""font-size:60px;"">+</div>","null","","fixation","","","","","","","","",""
"memory-trial","230","385548","0.0-15.0-1.93","1697","2","""event"",""trial"",""time""
""fullscreenenter"",""1"",""3313""
","
","
","""event"",""trial"",""time""
""fullscreenenter"",""1"",""3313""
","
","","","","","","300","images/plane4.png","","","memory_trial","4","definitely_new","","","","","","",""
"html-keyboard-response","231","386053","0.0-15.0-0.94","1697","2","""event"",""trial"",""time""
""fullscreenenter"",""1"",""3313""
","
","
","""event"",""trial"",""time""
""fullscreenenter"",""1"",""3313""
","
","","","","","","null","<div style=""font-size:60px;"">+</div>","null","","fixation","","","","","","","","",""
"memory-trial","232","387301","0.0-15.0-1.94","1697","2","""event"",""trial"",""time""
""fullscreenenter"",""1"",""3313""
","
","
","""event"",""trial"",""time""
""fullscreenenter"",""1"",""3313""
","
","","","","","","241.29999999701977","images/rabbit1.png","","","memory_trial","1","definitely_old","","","","","","",""
"html-keyboard-response","233","387806","0.0-15.0-0.95","1697","2","""event"",""trial"",""time""
""fullscreenenter"",""1"",""3313""
","
","
","""event"",""trial"",""time""
""fullscreenenter"",""1"",""3313""
","
","","","","","","null","<div style=""font-size:60px;"">+</div>","null","","fixation","","","","","","","","",""
"memory-trial","234","389089","0.0-15.0-1.95","1697","2","""event"",""trial"",""time""
""fullscreenenter"",""1"",""3313""
","
","
","""event"",""trial"",""time""
""fullscreenenter"",""1"",""3313""
","
","","","","","","278.20000000298023","images/rabbit5.png","","","memory_trial","1","definitely_old","","","","","","",""
"html-keyboard-response","235","389594","0.0-15.0-0.96","1697","2","""event"",""trial"",""time""
""fullscreenenter"",""1"",""3313""
","
","
","""event"",""trial"",""time""
""fullscreenenter"",""1"",""3313""
","
","","","","","","null","<div style=""font-size:60px;"">+</div>","null","","fixation","","","","","","","","",""
"memory-trial","236","390657","0.0-15.0-1.96","1697","2","""event"",""trial"",""time""
""fullscreenenter"",""1"",""3313""
","
","
","""event"",""trial"",""time""
""fullscreenenter"",""1"",""3313""
","
","","","","","","60.79999999701977","images/straw3.png","","","memory_trial","3","maybe_new","","","","","","",""
"html-keyboard-response","237","391162","0.0-15.0-0.97","1697","2","""event"",""trial"",""time""
""fullscreenenter"",""1"",""3313""
","
","
","""event"",""trial"",""time""
""fullscreenenter"",""1"",""3313""
","
","","","","","","null","<div style=""font-size:60px;"">+</div>","null","","fixation","","","","","","","","",""
"memory-trial","238","392186","0.0-15.0-1.97","1697","2","""event"",""trial"",""time""
""fullscreenenter"",""1"",""3313""
","
","
","""event"",""trial"",""time""
""fullscreenenter"",""1"",""3313""
","
","","","","","","21.599999994039536","images/table3.png","","","memory_trial","2","maybe_old","","","","","","",""
"html-keyboard-response","239","392689","0.0-15.0-0.98","1697","2","""event"",""trial"",""time""
""fullscreenenter"",""1"",""3313""
","
","
","""event"",""trial"",""time""
""fullscreenenter"",""1"",""3313""
","
","","","","","","null","<div style=""font-size:60px;"">+</div>","null","","fixation","","","","","","","","",""
"memory-trial","240","393751","0.0-15.0-1.98","1697","2","""event"",""trial"",""time""
""fullscreenenter"",""1"",""3313""
","
","
","""event"",""trial"",""time""
""fullscreenenter"",""1"",""3313""
","
","","","","","","54.70000000298023","images/plane1.png","","","memory_trial","2","maybe_old","","","","","","",""
"html-keyboard-response","241","394252","0.0-15.0-0.99","1697","2","""event"",""trial"",""time""
""fullscreenenter"",""1"",""3313""
","
","
","""event"",""trial"",""time""
""fullscreenenter"",""1"",""3313""
","
","","","","","","null","<div style=""font-size:60px;"">+</div>","null","","fixation","","","","","","","","",""
"memory-trial","242","395575","0.0-15.0-1.99","1697","2","""event"",""trial"",""time""
""fullscreenenter"",""1"",""3313""
","
","
","""event"",""trial"",""time""
""fullscreenenter"",""1"",""3313""
","
","","","","","","318.5","images/cow1.png","","","memory_trial","3","maybe_new","","","","","","",""
"html-keyboard-response","243","396079","0.0-15.0-0.100","1697","2","""event"",""trial"",""time""
""fullscreenenter"",""1"",""3313""
","
","
","""event"",""trial"",""time""
""fullscreenenter"",""1"",""3313""
","
","","","","","","null","<div style=""font-size:60px;"">+</div>","null","","fixation","","","","","","","","",""
"memory-trial","244","398018","0.0-15.0-1.100","1697","2","""event"",""trial"",""time""
""fullscreenenter"",""1"",""3313""
","
","
","""event"",""trial"",""time""
""fullscreenenter"",""1"",""3313""
","
","","","","","","934","images/horse5.png","","","memory_trial","3","maybe_new","","","","","","",""
"html-keyboard-response","245","398519","0.0-15.0-0.101","1697","2","""event"",""trial"",""time""
""fullscreenenter"",""1"",""3313""
","
","
","""event"",""trial"",""time""
""fullscreenenter"",""1"",""3313""
","
","","","","","","null","<div style=""font-size:60px;"">+</div>","null","","fixation","","","","","","","","",""
"memory-trial","246","400351","0.0-15.0-1.101","1697","2","""event"",""trial"",""time""
""fullscreenenter"",""1"",""3313""
","
","
","""event"",""trial"",""time""
""fullscreenenter"",""1"",""3313""
","
","","","","","","824.2999999970198","images/feline1.png","","","memory_trial","1","definitely_old","","","","","","",""
"html-button-response","247","409952","0.0-15.0-2.101-0.101","1697","2","""event"",""trial"",""time""
""fullscreenenter"",""1"",""3313""
","
","
","""event"",""trial"",""time""
""fullscreenenter"",""1"",""3313""
","
","","","","","","9599.09999999404","<p> Take a break! </p><p> Click the button to continue. </p>","0","","break","","","","","","","","",""
"html-keyboard-response","248","410458","0.0-15.0-0.102","1697","2","""event"",""trial"",""time""
""fullscreenenter"",""1"",""3313""
","
","
","""event"",""trial"",""time""
""fullscreenenter"",""1"",""3313""
","
","","","","","","null","<div style=""font-size:60px;"">+</div>","null","","fixation","","","","","","","","",""
"memory-trial","249","412525","0.0-15.0-1.102","1697","2","""event"",""trial"",""time""
""fullscreenenter"",""1"",""3313""
","
","
","""event"",""trial"",""time""
""fullscreenenter"",""1"",""3313""
","
","","","","","","1062.7999999970198","images/chair5.png","","","memory_trial","3","maybe_new","","","","","","",""
"html-keyboard-response","250","413027","0.0-15.0-0.103","1697","2","""event"",""trial"",""time""
""fullscreenenter"",""1"",""3313""
","
","
","""event"",""trial"",""time""
""fullscreenenter"",""1"",""3313""
","
","","","","","","null","<div style=""font-size:60px;"">+</div>","null","","fixation","","","","","","","","",""
"memory-trial","251","414104","0.0-15.0-1.103","1697","2","""event"",""trial"",""time""
""fullscreenenter"",""1"",""3313""
","
","
","""event"",""trial"",""time""
""fullscreenenter"",""1"",""3313""
","
","","","","","","75","images/apple2.png","","","memory_trial","4","definitely_new","","","","","","",""
"html-keyboard-response","252","414609","0.0-15.0-0.104","1697","2","""event"",""trial"",""time""
""fullscreenenter"",""1"",""3313""
","
","
","""event"",""trial"",""time""
""fullscreenenter"",""1"",""3313""
","
","","","","","","null","<div style=""font-size:60px;"">+</div>","null","","fixation","","","","","","","","",""
"memory-trial","253","415823","0.0-15.0-1.104","1697","2","""event"",""trial"",""time""
""fullscreenenter"",""1"",""3313""
","
","
","""event"",""trial"",""time""
""fullscreenenter"",""1"",""3313""
","
","","","","","","211.80000001192093","images/table5.png","","","memory_trial","3","maybe_new","","","","","","",""
"html-keyboard-response","254","416325","0.0-15.0-0.105","1697","2","""event"",""trial"",""time""
""fullscreenenter"",""1"",""3313""
","
","
","""event"",""trial"",""time""
""fullscreenenter"",""1"",""3313""
","
","","","","","","null","<div style=""font-size:60px;"">+</div>","null","","fixation","","","","","","","","",""
"memory-trial","255","417673","0.0-15.0-1.105","1697","2","""event"",""trial"",""time""
""fullscreenenter"",""1"",""3313""
","
","
","""event"",""trial"",""time""
""fullscreenenter"",""1"",""3313""
","
","","","","","","343.6000000089407","images/banana5.png","","","memory_trial","4","definitely_new","","","","","","",""
"html-keyboard-response","256","418178","0.0-15.0-0.106","1697","2","""event"",""trial"",""time""
""fullscreenenter"",""1"",""3313""
","
","
","""event"",""trial"",""time""
""fullscreenenter"",""1"",""3313""
","
","","","","","","null","<div style=""font-size:60px;"">+</div>","null","","fixation","","","","","","","","",""
"memory-trial","257","419218","0.0-15.0-1.106","1697","2","""event"",""trial"",""time""
""fullscreenenter"",""1"",""3313""
","
","
","""event"",""trial"",""time""
""fullscreenenter"",""1"",""3313""
","
","","","","","","37.70000000298023","images/rabbit2.png","","","memory_trial","1","definitely_old","","","","","","",""
"html-keyboard-response","258","419723","0.0-15.0-0.107","1697","2","""event"",""trial"",""time""
""fullscreenenter"",""1"",""3313""
","
","
","""event"",""trial"",""time""
""fullscreenenter"",""1"",""3313""
","
","","","","","","null","<div style=""font-size:60px;"">+</div>","null","","fixation","","","","","","","","",""
"memory-trial","259","420739","0.0-15.0-1.107","1697","2","""event"",""trial"",""time""
""fullscreenenter"",""1"",""3313""
","
","
","""event"",""trial"",""time""
""fullscreenenter"",""1"",""3313""
","
","","","","","","12.900000005960464","images/train3.png","","","memory_trial","1","definitely_old","","","","","","",""
"html-keyboard-response","260","421244","0.0-15.0-0.108","1697","2","""event"",""trial"",""time""
""fullscreenenter"",""1"",""3313""
","
","
","""event"",""trial"",""time""
""fullscreenenter"",""1"",""3313""
","
","","","","","","null","<div style=""font-size:60px;"">+</div>","null","","fixation","","","","","","","","",""
"memory-trial","261","422485","0.0-15.0-1.108","1697","2","""event"",""trial"",""time""
""fullscreenenter"",""1"",""3313""
","
","
","""event"",""trial"",""time""
""fullscreenenter"",""1"",""3313""
","
","","","","","","237.5","images/truck3.png","","","memory_trial","1","definitely_old","","","","","","",""
"html-keyboard-response","262","422991","0.0-15.0-0.109","1697","2","""event"",""trial"",""time""
""fullscreenenter"",""1"",""3313""
","
","
","""event"",""trial"",""time""
""fullscreenenter"",""1"",""3313""
","
","","","","","","null","<div style=""font-size:60px;"">+</div>","null","","fixation","","","","","","","","",""
"memory-trial","263","424959","0.0-15.0-1.109","1697","2","""event"",""trial"",""time""
""fullscreenenter"",""1"",""3313""
","
","
","""event"",""trial"",""time""
""fullscreenenter"",""1"",""3313""
","
","","","","","","962.3999999910593","images/rodent3.png","","","memory_trial","2","maybe_old","","","","","","",""
"html-keyboard-response","264","425464","0.0-15.0-0.110","1697","2","""event"",""trial"",""time""
""fullscreenenter"",""1"",""3313""
","
","
","""event"",""trial"",""time""
""fullscreenenter"",""1"",""3313""
","
","","","","","","null","<div style=""font-size:60px;"">+</div>","null","","fixation","","","","","","","","",""
"memory-trial","265","427185","0.0-15.0-1.110","1697","2","""event"",""trial"",""time""
""fullscreenenter"",""1"",""3313""
","
","
","""event"",""trial"",""time""
""fullscreenenter"",""1"",""3313""
","
","","","","","","716.7000000029802","images/cow4.png","","","memory_trial","3","maybe_new","","","","","","",""
"html-keyboard-response","266","427688","0.0-15.0-0.111","1697","2","""event"",""trial"",""time""
""fullscreenenter"",""1"",""3313""
","
","
","""event"",""trial"",""time""
""fullscreenenter"",""1"",""3313""
","
","","","","","","null","<div style=""font-size:60px;"">+</div>","null","","fixation","","","","","","","","",""
"memory-trial","267","429000","0.0-15.0-1.111","1697","2","""event"",""trial"",""time""
""fullscreenenter"",""1"",""3313""
","
","
","""event"",""trial"",""time""
""fullscreenenter"",""1"",""3313""
","
","","","","","","305.29999999701977","images/feline3.png","","","memory_trial","3","maybe_new","","","","","","",""
"html-keyboard-response","268","429505","0.0-15.0-0.112","1697","2","""event"",""trial"",""time""
""fullscreenenter"",""1"",""3313""
","
","
","""event"",""trial"",""time""
""fullscreenenter"",""1"",""3313""
","
","","","","","","null","<div style=""font-size:60px;"">+</div>","null","","fixation","","","","","","","","",""
"memory-trial","269","430561","0.0-15.0-1.112","1697","2","""event"",""trial"",""time""
""fullscreenenter"",""1"",""3313""
","
","
","""event"",""trial"",""time""
""fullscreenenter"",""1"",""3313""
","
","","","","","","52.6000000089407","images/straw1.png","","","memory_trial","1","definitely_old","","","","","","",""
"html-keyboard-response","270","431064","0.0-15.0-0.113","1697","2","""event"",""trial"",""time""
""fullscreenenter"",""1"",""3313""
","
","
","""event"",""trial"",""time""
""fullscreenenter"",""1"",""3313""
","
","","","","","","null","<div style=""font-size:60px;"">+</div>","null","","fixation","","","","","","","","",""
"memory-trial","271","437426","0.0-15.0-1.113","1697","2","""event"",""trial"",""time""
""fullscreenenter"",""1"",""3313""
","
","
","""event"",""trial"",""time""
""fullscreenenter"",""1"",""3313""
","
","","","","","","5358.29999999702","images/flower1.png","","","memory_trial","4","definitely_new","","","","","","",""
"html-keyboard-response","272","437929","0.0-15.0-0.114","1697","2","""event"",""trial"",""time""
""fullscreenenter"",""1"",""3313""
","
","
","""event"",""trial"",""time""
""fullscreenenter"",""1"",""3313""
","
","","","","","","null","<div style=""font-size:60px;"">+</div>","null","","fixation","","","","","","","","",""
"memory-trial","273","439423","0.0-15.0-1.114","1697","2","""event"",""trial"",""time""
""fullscreenenter"",""1"",""3313""
","
","
","""event"",""trial"",""time""
""fullscreenenter"",""1"",""3313""
","
","","","","","","490.5","images/apple5.png","","","memory_trial","2","maybe_old","","","","","","",""
"html-keyboard-response","274","439925","0.0-15.0-0.115","1697","2","""event"",""trial"",""time""
""fullscreenenter"",""1"",""3313""
","
","
","""event"",""trial"",""time""
""fullscreenenter"",""1"",""3313""
","
","","","","","","null","<div style=""font-size:60px;"">+</div>","null","","fixation","","","","","","","","",""
"memory-trial","275","440982","0.0-15.0-1.115","1697","2","""event"",""trial"",""time""
""fullscreenenter"",""1"",""3313""
","
","
","""event"",""trial"",""time""
""fullscreenenter"",""1"",""3313""
","
","","","","","","50.79999999701977","images/boat5.png","","","memory_trial","1","definitely_old","","","","","","",""
"html-keyboard-response","276","441487","0.0-15.0-0.116","1697","2","""event"",""trial"",""time""
""fullscreenenter"",""1"",""3313""
","
","
","""event"",""trial"",""time""
""fullscreenenter"",""1"",""3313""
","
","","","","","","null","<div style=""font-size:60px;"">+</div>","null","","fixation","","","","","","","","",""
"memory-trial","277","443100","0.0-15.0-1.116","1697","2","""event"",""trial"",""time""
""fullscreenenter"",""1"",""3313""
","
","
","""event"",""trial"",""time""
""fullscreenenter"",""1"",""3313""
","
","","","","","","607.1000000089407","images/bush4.png","","","memory_trial","4","definitely_new","","","","","","",""
"html-keyboard-response","278","443606","0.0-15.0-0.117","1697","2","""event"",""trial"",""time""
""fullscreenenter"",""1"",""3313""
","
","
","""event"",""trial"",""time""
""fullscreenenter"",""1"",""3313""
","
","","","","","","null","<div style=""font-size:60px;"">+</div>","null","","fixation","","","","","","","","",""
"memory-trial","279","445108","0.0-15.0-1.117","1697","2","""event"",""trial"",""time""
""fullscreenenter"",""1"",""3313""
","
","
","""event"",""trial"",""time""
""fullscreenenter"",""1"",""3313""
","
","","","","","","495.5","images/bed1.png","","","memory_trial","2","maybe_old","","","","","","",""
"html-keyboard-response","280","445614","0.0-15.0-0.118","1697","2","""event"",""trial"",""time""
""fullscreenenter"",""1"",""3313""
","
","
","""event"",""trial"",""time""
""fullscreenenter"",""1"",""3313""
","
","","","","","","null","<div style=""font-size:60px;"">+</div>","null","","fixation","","","","","","","","",""
"memory-trial","281","446897","0.0-15.0-1.118","1697","2","""event"",""trial"",""time""
""fullscreenenter"",""1"",""3313""
","
","
","""event"",""trial"",""time""
""fullscreenenter"",""1"",""3313""
","
","","","","","","279.40000000596046","images/rodent1.png","","","memory_trial","4","definitely_new","","","","","","",""
"html-keyboard-response","282","447402","0.0-15.0-0.119","1697","2","""event"",""trial"",""time""
""fullscreenenter"",""1"",""3313""
","
","
","""event"",""trial"",""time""
""fullscreenenter"",""1"",""3313""
","
","","","","","","null","<div style=""font-size:60px;"">+</div>","null","","fixation","","","","","","","","",""
"memory-trial","283","448790","0.0-15.0-1.119","1697","2","""event"",""trial"",""time""
""fullscreenenter"",""1"",""3313""
","
","
","""event"",""trial"",""time""
""fullscreenenter"",""1"",""3313""
","
","","","","","","383.1000000089407","images/rabbit4.png","","","memory_trial","2","maybe_old","","","","","","",""
"preload","284","452604","0.0-16.0","1697","2","""event"",""trial"",""time""
""fullscreenenter"",""1"",""3313""
","
","
","""event"",""trial"",""time""
""fullscreenenter"",""1"",""3313""
","
","true","false","[]","[]","[]","","","","","","","","","","","","","",""
"learning-instructions","285","457841","0.0-17.0-0.0-0.0-0.0","1697","2","""event"",""trial"",""time""
""fullscreenenter"",""1"",""3313""
","
","
","""event"",""trial"",""time""
""fullscreenenter"",""1"",""3313""
","
","","","","","","2123.7000000029802","<p> We're now going to ask you to water your plants again. </p>","","0","instructions","","","","","","","","",""
"learning-instructions","286","465565","0.0-17.0-0.0-0.0-0.1","1697","2","""event"",""trial"",""time""
""fullscreenenter"",""1"",""3313""
","
","
","""event"",""trial"",""time""
""fullscreenenter"",""1"",""3313""
","
","","","","","","1848.2000000029802","<p> On each trial, you will see a plant. Select the watering can that you think will make the plant grow. </p>","","0","instructions","","","","","","","","",""
"learning-instructions","287","475137","0.0-17.0-0.0-0.0-0.2","1697","2","""event"",""trial"",""time""
""fullscreenenter"",""1"",""3313""
","
","
","""event"",""trial"",""time""
""fullscreenenter"",""1"",""3313""
","
","","","","","","2508.7999999970198","<p> To make your selection, think about what you learned last week. You will NOT receive any feedback about your choice. </p>","","0","instructions","","","","","","","","",""
"learning-instructions","288","484937","0.0-17.0-0.0-0.0-0.3","1697","2","""event"",""trial"",""time""
""fullscreenenter"",""1"",""3313""
","
","
","""event"",""trial"",""time""
""fullscreenenter"",""1"",""3313""
","
","","","","","","680.7999999970198","<p> You should use the 1 key to select the watering can on the left, the 2 key to select the watering can in the middle, and the 3 key to select the watering can on the right. </p><br><div class=""choice-mem-instructions-grid""> <div class=""choice-mem-option""><img src=""images/plants_choice1.png"" class=""choice-mem-option-img"" stage=""instructions"" position=""0"" ><div class=""choice-mem-option-text""> Press ""1."" </div></div><div class=""choice-mem-option""><img src=""images/plants_choice2.png"" class=""choice-mem-option-img"" stage=""instructions"" position=""1"" ><div class=""choice-mem-option-text""> Press ""2."" </div></div><div class=""choice-mem-option""><img src=""images/plants_choice3.png"" class=""choice-mem-option-img"" stage=""instructions"" position=""2"" ><div class=""choice-mem-option-text""> Press ""3."" </div></div></div>","","0","instructions","","","","","","","","",""
"learning-instructions","289","493382","0.0-17.0-0.0-0.0-0.4","1697","2","""event"",""trial"",""time""
""fullscreenenter"",""1"",""3313""
","
","
","""event"",""trial"",""time""
""fullscreenenter"",""1"",""3313""
","
","","","","","","2177.6000000089407","<p> You will have 10 seconds to make each selection. Try to respond before time runs out! </p>","","0","instructions","","","","","","","","",""
"learning-instructions","290","495991","0.0-17.0-0.0-1.0","1697","2","""event"",""trial"",""time""
""fullscreenenter"",""1"",""3313""
","
","
","""event"",""trial"",""time""
""fullscreenenter"",""1"",""3313""
","
","","","","","","555.0999999940395","<p> You are now ready to begin the game. </p>","","0","instructions","","","","","","","","",""
"html-keyboard-response","291","496596","0.0-17.0-0.0-2.0-0.0","1697","2","""event"",""trial"",""time""
""fullscreenenter"",""1"",""3313""
","
","
","""event"",""trial"",""time""
""fullscreenenter"",""1"",""3313""
","
","","","","","","null","<div style=""font-size:60px;"">+</div>","null","","fixation","","","","","","","","",""
"choice-memory-trial","292","498208","0.0-17.0-0.0-2.0-1.0","1697","2","""event"",""trial"",""time""
""fullscreenenter"",""1"",""3313""
","
","
","""event"",""trial"",""time""
""fullscreenenter"",""1"",""3313""
","
