"trial_type","trial_index","time_elapsed","internal_node_id","subject_id","task_version","interactions","blur_events","focus_events","fullscreenenter_events","fullscreenexit_events","success","timeout","failed_images","failed_audio","failed_video","rt","stimulus","response","button_pressed","task_part","key_press","answer","correct","left_choice","middle_choice","right_choice","choice_positions","option_selected","block"
"pavlovia","0","6","0.0-0.0","1691","2","""event"",""trial"",""time""
""fullscreenenter"",""1"",""3770""
","
","
","""event"",""trial"",""time""
""fullscreenenter"",""1"",""3770""
","
","","","","","","","","","","","","","","","","","","",""
"fullscreen","1","4698","0.0-1.0","1691","2","""event"",""trial"",""time""
""fullscreenenter"",""1"",""3770""
","
","
","""event"",""trial"",""time""
""fullscreenenter"",""1"",""3770""
","
","true","","","","","","","","","","","","","","","","","",""
"preload","2","5467","0.0-2.0","1691","2","""event"",""trial"",""time""
""fullscreenenter"",""1"",""3770""
","
","
","""event"",""trial"",""time""
""fullscreenenter"",""1"",""3770""
","
","true","false","[]","[]","[]","","","","","","","","","","","","","",""
"audio-keyboard-response","3","13586","0.0-3.0","1691","2","""event"",""trial"",""time""
""fullscreenenter"",""1"",""3770""
","
","
","""event"",""trial"",""time""
""fullscreenenter"",""1"",""3770""
","
","","","","","","8117.333333333333","audio/beep_loop.wav"," ","","","","","","","","","","",""
"audio-button-response","4","15601","0.0-4.0","1691","2","""event"",""trial"",""time""
""fullscreenenter"",""1"",""3770""
","
","
","""event"",""trial"",""time""
""fullscreenenter"",""1"",""3770""
","
","","","","","","2011","audio/turtle.wav","3","","","","","","","","","","",""
"audio-button-response","5","17849","0.0-5.0","1691","2","""event"",""trial"",""time""
""fullscreenenter"",""1"",""3770""
","
","
","""event"",""trial"",""time""
""fullscreenenter"",""1"",""3770""
","
","","","","","","1243","audio/shark.wav","2","","","","","","","","","","",""
"preload","6","20503","0.0-6.0","1691","2","""event"",""trial"",""time""
""fullscreenenter"",""1"",""3770""
","
","
","""event"",""trial"",""time""
""fullscreenenter"",""1"",""3770""
","
","true","false","[]","[]","[]","","","","","","","","","","","","","",""
"learning-instructions","7","29896","0.0-7.0-0.0","1691","2","""event"",""trial"",""time""
""fullscreenenter"",""1"",""3770""
","
","
","""event"",""trial"",""time""
""fullscreenenter"",""1"",""3770""
","
","","","","","","4585","<p> Welcome back! </p><p> Last week, you had to make choices about lots of different items.  </p>","","0","instructions","","","","","","","","",""
"learning-instructions","8","38111","0.0-7.0-0.1","1691","2","""event"",""trial"",""time""
""fullscreenenter"",""1"",""3770""
","
","
","""event"",""trial"",""time""
""fullscreenenter"",""1"",""3770""
","
","","","","","","3915.899999976158","<p> Today, we are going to ask you to try to remember all the items. </p>","","0","instructions","","","","","","","","",""
"learning-instructions","9","50886","0.0-7.0-0.2","1691","2","""event"",""trial"",""time""
""fullscreenenter"",""1"",""3770""
","
","
","""event"",""trial"",""time""
""fullscreenenter"",""1"",""3770""
","
","","","","","","2643","<p> On every trial, you will see an image. </p><p> The image may be an OLD image you saw during the games last week or it may be a NEW image that was not presented. </p>","","0","instructions","","","","","","","","",""
"learning-instructions","10","72858","0.0-7.0-0.3","1691","2","""event"",""trial"",""time""
""fullscreenenter"",""1"",""3770""
","
","
","""event"",""trial"",""time""
""fullscreenenter"",""1"",""3770""
","
","","","","","","13473.300000011921","<p> You need to select whether the image is:  </p><p>  'Definitely old', 'Maybe old', 'Maybe new', or 'Definitely new.'  </p><div class=""mem-choice-instructions-grid""><div class=""choice-option"" id=""choice-option-1"" ><img src=""images/definitely_old_1.png"" id=""choice-option-img-1"" class=""choice-option-img"" stage=""1""></div><div class=""choice-option"" id=""choice-option-2"" ><img src=""images/maybe_old_1.png"" id=""choice-option-img-2"" class=""choice-option-img"" stage=""1""></div><div class=""choice-option"" id=""choice-option-3"" ><img src=""images/maybe_new_1.png"" id=""choice-option-img-3"" class=""choice-option-img"" stage=""1""></div><div class=""choice-option"" id=""choice-option-4"" > <img src=""images/definitely_new_1.png"" id=""choice-option-img-4"" class=""choice-option-img"" stage=""1""></div></div>","","0","instructions","","","","","","","","",""
"learning-instructions","11","80955","0.0-7.0-0.4","1691","2","""event"",""trial"",""time""
""fullscreenenter"",""1"",""3770""
","
","
","""event"",""trial"",""time""
""fullscreenenter"",""1"",""3770""
","
","","","","","","1405.800000011921","<p> You should use the 1, 2, 3, and 4 keys to make your responses.  </p><div class=""mem-choice-instructions-grid""><div class=""choice-option"" id=""choice-option-1"" ><img src=""images/definitely_old.png"" id=""choice-option-img-1"" class=""choice-option-img"" stage=""1""></div><div class=""choice-option"" id=""choice-option-2"" ><img src=""images/maybe_old.png"" id=""choice-option-img-2"" class=""choice-option-img"" stage=""1""></div><div class=""choice-option"" id=""choice-option-3"" ><img src=""images/maybe_new.png"" id=""choice-option-img-3"" class=""choice-option-img"" stage=""1""></div><div class=""choice-option"" id=""choice-option-4"" > <img src=""images/definitely_new.png"" id=""choice-option-img-4"" class=""choice-option-img"" stage=""1""></div></div>","","0","instructions","","","","","","","","",""
"learning-instructions","12","88830","0.0-7.0-0.5","1691","2","""event"",""trial"",""time""
""fullscreenenter"",""1"",""3770""
","
","
","""event"",""trial"",""time""
""fullscreenenter"",""1"",""3770""
","
","","","","","","1116.5","<p> You will have 10 seconds to make each response.  </p><p>  Make sure to respond before time runs out! </p>","","0","instructions","","","","","","","","",""
"learning-instructions","13","98436","0.0-7.0-0.6","1691","2","""event"",""trial"",""time""
""fullscreenenter"",""1"",""3770""
","
","
","""event"",""trial"",""time""
""fullscreenenter"",""1"",""3770""
","
","","","","","","2024.699999988079","<p> Today, you will see each image ONCE only.  </p><p>  That means none of the images will repeat. </p>","","0","instructions","","","","","","","","",""
"learning-instructions","14","112130","0.0-7.0-0.7","1691","2","""event"",""trial"",""time""
""fullscreenenter"",""1"",""3770""
","
","
","""event"",""trial"",""time""
""fullscreenenter"",""1"",""3770""
","
","","","","","","1025.800000011921","<p> Before you play the real game, it is time to practice. </p><p>  Just like in the real game, some of the images in the practice will be ones you have seen before. </p><p>  Others will be entirely new. </p>","","0","instructions","","","","","","","","",""
"html-button-response","15","114416","0.0-8.0","1691","2","""event"",""trial"",""time""
""fullscreenenter"",""1"",""3770""
","
","
","""event"",""trial"",""time""
""fullscreenenter"",""1"",""3770""
","
","","","","","","2180.300000011921","<p> Ready to practice? </p><p> Remember, use the 1, 2, 3, and 4 keys to make your responses. </p>","0","","instructions","","","","","","","","",""
"html-keyboard-response","16","115019","0.0-9.0-0.0","1691","2","""event"",""trial"",""time""
""fullscreenenter"",""1"",""3770""
","
","
","""event"",""trial"",""time""
""fullscreenenter"",""1"",""3770""
","
","","","","","","null","<div style=""font-size:60px;"">+</div>","null","","fixation","","","","","","","","",""
"memory-trial","17","125026","0.0-9.0-1.0","1691","2","""event"",""trial"",""time""
""fullscreenenter"",""1"",""3770""
","
","
","""event"",""trial"",""time""
""fullscreenenter"",""1"",""3770""
","
","","","","","","9197.400000035763","images/racket4.png","","","practice","1","definitely_old","","","","","","",""
"html-keyboard-response","18","125527","0.0-9.0-0.1","1691","2","""event"",""trial"",""time""
""fullscreenenter"",""1"",""3770""
","
","
","""event"",""trial"",""time""
""fullscreenenter"",""1"",""3770""
","
","","","","","","null","<div style=""font-size:60px;"">+</div>","null","","fixation","","","","","","","","",""
"memory-trial","19","131537","0.0-9.0-1.1","1691","2","""event"",""trial"",""time""
""fullscreenenter"",""1"",""3770""
","
","
","""event"",""trial"",""time""
""fullscreenenter"",""1"",""3770""
","
","","","","","","5004","images/racket3.png","","","practice","4","definitely_new","","","","","","",""
"html-keyboard-response","20","132041","0.0-9.0-0.2","1691","2","""event"",""trial"",""time""
""fullscreenenter"",""1"",""3770""
","
","
","""event"",""trial"",""time""
""fullscreenenter"",""1"",""3770""
","
","","","","","","null","<div style=""font-size:60px;"">+</div>","null","","fixation","","","","","","","","",""
"memory-trial","21","135807","0.0-9.0-1.2","1691","2","""event"",""trial"",""time""
""fullscreenenter"",""1"",""3770""
","
","
","""event"",""trial"",""time""
""fullscreenenter"",""1"",""3770""
","
","","","","","","2760.600000023842","images/racket2.png","","","practice","3","maybe_new","","","","","","",""
"html-keyboard-response","22","136311","0.0-9.0-0.3","1691","2","""event"",""trial"",""time""
""fullscreenenter"",""1"",""3770""
","
","
","""event"",""trial"",""time""
""fullscreenenter"",""1"",""3770""
","
","","","","","","null","<div style=""font-size:60px;"">+</div>","null","","fixation","","","","","","","","",""
"memory-trial","23","141594","0.0-9.0-1.3","1691","2","""event"",""trial"",""time""
""fullscreenenter"",""1"",""3770""
","
","
","""event"",""trial"",""time""
""fullscreenenter"",""1"",""3770""
","
","","","","","","4276.300000011921","images/racket1.png","","","practice","4","definitely_new","","","","","","",""
"html-keyboard-response","24","142096","0.0-9.0-0.4","1691","2","""event"",""trial"",""time""
""fullscreenenter"",""1"",""3770""
","
","
","""event"",""trial"",""time""
""fullscreenenter"",""1"",""3770""
","
","","","","","","null","<div style=""font-size:60px;"">+</div>","null","","fixation","","","","","","","","",""
"memory-trial","25","147610","0.0-9.0-1.4","1691","2","""event"",""trial"",""time""
""fullscreenenter"",""1"",""3770""
","
","
","""event"",""trial"",""time""
""fullscreenenter"",""1"",""3770""
","
","","","","","","4510.200000047684","images/ball2.png","","","practice","4","definitely_new","","","","","","",""
"html-keyboard-response","26","148113","0.0-9.0-0.5","1691","2","""event"",""trial"",""time""
""fullscreenenter"",""1"",""3770""
","
","
","""event"",""trial"",""time""
""fullscreenenter"",""1"",""3770""
","
","","","","","","null","<div style=""font-size:60px;"">+</div>","null","","fixation","","","","","","","","",""
"memory-trial","27","150767","0.0-9.0-1.5","1691","2","""event"",""trial"",""time""
""fullscreenenter"",""1"",""3770""
","
","
","""event"",""trial"",""time""
""fullscreenenter"",""1"",""3770""
","
","","","","","","1648.5","images/ball4.png","","","practice","4","definitely_new","","","","","","",""
"html-keyboard-response","28","151271","0.0-9.0-0.6","1691","2","""event"",""trial"",""time""
""fullscreenenter"",""1"",""3770""
","
","
","""event"",""trial"",""time""
""fullscreenenter"",""1"",""3770""
","
","","","","","","null","<div style=""font-size:60px;"">+</div>","null","","fixation","","","","","","","","",""
"memory-trial","29","155647","0.0-9.0-1.6","1691","2","""event"",""trial"",""time""
""fullscreenenter"",""1"",""3770""
","
","
","""event"",""trial"",""time""
""fullscreenenter"",""1"",""3770""
","
","","","","","","3368.100000023842","images/ball1.png","","","practice","3","maybe_new","","","","","","",""
"html-keyboard-response","30","156154","0.0-9.0-0.7","1691","2","""event"",""trial"",""time""
""fullscreenenter"",""1"",""3770""
","
","
","""event"",""trial"",""time""
""fullscreenenter"",""1"",""3770""
","
","","","","","","null","<div style=""font-size:60px;"">+</div>","null","","fixation","","","","","","","","",""
"memory-trial","31","159108","0.0-9.0-1.7","1691","2","""event"",""trial"",""time""
""fullscreenenter"",""1"",""3770""
","
","
","""event"",""trial"",""time""
""fullscreenenter"",""1"",""3770""
","
","","","","","","1948.800000011921","images/ball3.png","","","practice","3","maybe_new","","","","","","",""
"learning-instructions","32","169272","0.0-10.0-0.0","1691","2","""event"",""trial"",""time""
""fullscreenenter"",""1"",""3770""
","
","
","""event"",""trial"",""time""
""fullscreenenter"",""1"",""3770""
","
","","","","","","2168","<p> Great! You have completed the practice. </p><p> Before you start, we're going to ask you a few questions about how the game works.  </p>","","0","instructions","","","","","","","","",""
"preload","33","170671","0.0-11.0","1691","2","""event"",""trial"",""time""
""fullscreenenter"",""1"",""3770""
","
","
","""event"",""trial"",""time""
""fullscreenenter"",""1"",""3770""
","
","true","false","[]","[]","[]","","","","","","","","","","","","","",""
"comp-q","34","178206","0.0-12.0-0.0","1691","2","""event"",""trial"",""time""
""fullscreenenter"",""1"",""3770""
","
","
","""event"",""trial"",""time""
""fullscreenenter"",""1"",""3770""
","
","","","","","","1704.699999988079","<p> <b> True or False? </b> </p><p> In this game, you will only see each image once. </p>","","0","comp_question","","","true","","","","","",""
"comp-q","35","185741","0.0-12.0-1.0","1691","2","""event"",""trial"",""time""
""fullscreenenter"",""1"",""3770""
","
","
","""event"",""trial"",""time""
""fullscreenenter"",""1"",""3770""
","
","","","","","","1198.4000000357628","<p> <b> That's right! </b> You will see many different images <i> one time each </i> in this game. </p>","","0","comp_answer","","","","","","","","",""
"comp-q","36","198132","0.0-12.0-0.1","1691","2","""event"",""trial"",""time""
""fullscreenenter"",""1"",""3770""
","
","
","""event"",""trial"",""time""
""fullscreenenter"",""1"",""3770""
","
","","","","","","6591.699999988079","<p> <b> True or False? </b> </p><p> You should use the mouse and click to make your response. </p>","","0","comp_question","","","false","","","","","",""
"comp-q","37","206737","0.0-12.0-1.1","1691","2","""event"",""trial"",""time""
""fullscreenenter"",""1"",""3770""
","
","
","""event"",""trial"",""time""
""fullscreenenter"",""1"",""3770""
","
","","","","","","1650.699999988079","<p><b> Incorrect. </b> You should use the '1', '2', '3', and '4' keys to make your response. </p>","","0","comp_answer","","","","","","","","",""
"comp-q","38","214080","0.0-12.0-0.2","1691","2","""event"",""trial"",""time""
""fullscreenenter"",""1"",""3770""
","
","
","""event"",""trial"",""time""
""fullscreenenter"",""1"",""3770""
","
","","","","","","1346.0999999642372","<p> <b> True or False? </b> </p><p> You will have as much time as you want to make each choice. </p>","","1","comp_question","","","true","","","","","",""
"comp-q","39","220634","0.0-12.0-1.2","1691","2","""event"",""trial"",""time""
""fullscreenenter"",""1"",""3770""
","
","
","""event"",""trial"",""time""
""fullscreenenter"",""1"",""3770""
","
","","","","","","1163.1000000238419","<p> <b> That's right! </b> You will only have 10 seconds to make each choice. </p>","","0","comp_answer","","","","","","","","",""
"learning-instructions","40","232766","0.0-13.0","1691","2","""event"",""trial"",""time""
""fullscreenenter"",""1"",""3770""
","
","
","""event"",""trial"",""time""
""fullscreenenter"",""1"",""3770""
","
","","","","","","3461.600000023842","<p> Great! You are now ready to begin the game. </p><p> Remember, use the 1, 2, 3, and 4 keys to make your responses. </p>","","0","instructions","","","","","","","","",""
"preload","41","235187","0.0-14.0","1691","2","""event"",""trial"",""time""
""fullscreenenter"",""1"",""3770""
","
","
","""event"",""trial"",""time""
""fullscreenenter"",""1"",""3770""
","
","true","false","[]","[]","[]","","","","","","","","","","","","","",""
"html-keyboard-response","42","235688","0.0-15.0-0.0","1691","2","""event"",""trial"",""time""
""fullscreenenter"",""1"",""3770""
","
","
","""event"",""trial"",""time""
""fullscreenenter"",""1"",""3770""
","
","","","","","","null","<div style=""font-size:60px;"">+</div>","null","","fixation","","","","","","","","",""
"memory-trial","43","240813","0.0-15.0-1.0","1691","2","""event"",""trial"",""time""
""fullscreenenter"",""1"",""3770""
","
","
","""event"",""trial"",""time""
""fullscreenenter"",""1"",""3770""
","
","","","","","","4118.399999976158","images/boat1.png","","","memory_trial","1","definitely_old","","","","","","",""
"html-keyboard-response","44","241319","0.0-15.0-0.1","1691","2","""event"",""trial"",""time""
""fullscreenenter"",""1"",""3770""
","
","
","""event"",""trial"",""time""
""fullscreenenter"",""1"",""3770""
","
","","","","","","null","<div style=""font-size:60px;"">+</div>","null","","fixation","","","","","","","","",""
"memory-trial","45","244837","0.0-15.0-1.1","1691","2","""event"",""trial"",""time""
""fullscreenenter"",""1"",""3770""
","
","
","""event"",""trial"",""time""
""fullscreenenter"",""1"",""3770""
","
","","","","","","2513.600000023842","images/dog3.png","","","memory_trial","1","definitely_old","","","","","","",""
"html-keyboard-response","46","245342","0.0-15.0-0.2","1691","2","""event"",""trial"",""time""
""fullscreenenter"",""1"",""3770""
","
","
","""event"",""trial"",""time""
""fullscreenenter"",""1"",""3770""
","
","","","","","","null","<div style=""font-size:60px;"">+</div>","null","","fixation","","","","","","","","",""
"memory-trial","47","250621","0.0-15.0-1.2","1691","2","""event"",""trial"",""time""
""fullscreenenter"",""1"",""3770""
","
","
","""event"",""trial"",""time""
""fullscreenenter"",""1"",""3770""
","
","","","","","","4273","images/sheep5.png","","","memory_trial","3","maybe_new","","","","","","",""
"html-keyboard-response","48","251127","0.0-15.0-0.3","1691","2","""event"",""trial"",""time""
""fullscreenenter"",""1"",""3770""
","
","
","""event"",""trial"",""time""
""fullscreenenter"",""1"",""3770""
","
","","","","","","null","<div style=""font-size:60px;"">+</div>","null","","fixation","","","","","","","","",""
"memory-trial","49","258550","0.0-15.0-1.3","1691","2","""event"",""trial"",""time""
""fullscreenenter"",""1"",""3770""
","
","
","""event"",""trial"",""time""
""fullscreenenter"",""1"",""3770""
","
","","","","","","6414.100000023842","images/flower2.png","","","memory_trial","1","definitely_old","","","","","","",""
"html-keyboard-response","50","259055","0.0-15.0-0.4","1691","2","""event"",""trial"",""time""
""fullscreenenter"",""1"",""3770""
","
","
","""event"",""trial"",""time""
""fullscreenenter"",""1"",""3770""
","
","","","","","","null","<div style=""font-size:60px;"">+</div>","null","","fixation","","","","","","","","",""
"memory-trial","51","261650","0.0-15.0-1.4","1691","2","""event"",""trial"",""time""
""fullscreenenter"",""1"",""3770""
","
","
","""event"",""trial"",""time""
""fullscreenenter"",""1"",""3770""
","
","","","","","","1588.699999988079","images/straw3.png","","","memory_trial","1","definitely_old","","","","","","",""
"html-keyboard-response","52","262156","0.0-15.0-0.5","1691","2","""event"",""trial"",""time""
""fullscreenenter"",""1"",""3770""
","
","
","""event"",""trial"",""time""
""fullscreenenter"",""1"",""3770""
","
","","","","","","null","<div style=""font-size:60px;"">+</div>","null","","fixation","","","","","","","","",""
"memory-trial","53","265164","0.0-15.0-1.5","1691","2","""event"",""trial"",""time""
""fullscreenenter"",""1"",""3770""
","
","
","""event"",""trial"",""time""
""fullscreenenter"",""1"",""3770""
","
","","","","","","2001.4000000357628","images/rodent1.png","","","memory_trial","1","definitely_old","","","","","","",""
"html-keyboard-response","54","265671","0.0-15.0-0.6","1691","2","""event"",""trial"",""time""
""fullscreenenter"",""1"",""3770""
","
","
","""event"",""trial"",""time""
""fullscreenenter"",""1"",""3770""
","
","","","","","","null","<div style=""font-size:60px;"">+</div>","null","","fixation","","","","","","","","",""
"memory-trial","55","268330","0.0-15.0-1.6","1691","2","""event"",""trial"",""time""
""fullscreenenter"",""1"",""3770""
","
","
","""event"",""trial"",""time""
""fullscreenenter"",""1"",""3770""
","
","","","","","","1654.8999999761581","images/goat2.png","","","memory_trial","1","definitely_old","","","","","","",""
"html-keyboard-response","56","268833","0.0-15.0-0.7","1691","2","""event"",""trial"",""time""
""fullscreenenter"",""1"",""3770""
","
","
","""event"",""trial"",""time""
""fullscreenenter"",""1"",""3770""
","
","","","","","","null","<div style=""font-size:60px;"">+</div>","null","","fixation","","","","","","","","",""
"memory-trial","57","272567","0.0-15.0-1.7","1691","2","""event"",""trial"",""time""
""fullscreenenter"",""1"",""3770""
","
","
","""event"",""trial"",""time""
""fullscreenenter"",""1"",""3770""
","
","","","","","","2727.699999988079","images/tree3.png","","","memory_trial","4","definitely_new","","","","","","",""
"html-keyboard-response","58","273068","0.0-15.0-0.8","1691","2","""event"",""trial"",""time""
""fullscreenenter"",""1"",""3770""
","
","
","""event"",""trial"",""time""
""fullscreenenter"",""1"",""3770""
","
","","","","","","null","<div style=""font-size:60px;"">+</div>","null","","fixation","","","","","","","","",""
"memory-trial","59","278786","0.0-15.0-1.8","1691","2","""event"",""trial"",""time""
""fullscreenenter"",""1"",""3770""
","
","
","""event"",""trial"",""time""
""fullscreenenter"",""1"",""3770""
","
","","","","","","4711","images/bed4.png","","","memory_trial","2","maybe_old","","","","","","",""
"html-keyboard-response","60","279292","0.0-15.0-0.9","1691","2","""event"",""trial"",""time""
""fullscreenenter"",""1"",""3770""
","
","
","""event"",""trial"",""time""
""fullscreenenter"",""1"",""3770""
","
","","","","","","null","<div style=""font-size:60px;"">+</div>","null","","fixation","","","","","","","","",""
"memory-trial","61","281799","0.0-15.0-1.9","1691","2","""event"",""trial"",""time""
""fullscreenenter"",""1"",""3770""
","
","
","""event"",""trial"",""time""
""fullscreenenter"",""1"",""3770""
","
","","","","","","1500","images/horse4.png","","","memory_trial","1","definitely_old","","","","","","",""
"html-keyboard-response","62","282305","0.0-15.0-0.10","1691","2","""event"",""trial"",""time""
""fullscreenenter"",""1"",""3770""
","
","
","""event"",""trial"",""time""
""fullscreenenter"",""1"",""3770""
","
","","","","","","null","<div style=""font-size:60px;"">+</div>","null","","fixation","","","","","","","","",""
"memory-trial","63","284620","0.0-15.0-1.10","1691","2","""event"",""trial"",""time""
""fullscreenenter"",""1"",""3770""
","
","
","""event"",""trial"",""time""
""fullscreenenter"",""1"",""3770""
","
","","","","","","1310","images/bed1.png","","","memory_trial","1","definitely_old","","","","","","",""
"html-keyboard-response","64","285126","0.0-15.0-0.11","1691","2","""event"",""trial"",""time""
""fullscreenenter"",""1"",""3770""
","
","
","""event"",""trial"",""time""
""fullscreenenter"",""1"",""3770""
","
","","","","","","null","<div style=""font-size:60px;"">+</div>","null","","fixation","","","","","","","","",""
"memory-trial","65","287505","0.0-15.0-1.11","1691","2","""event"",""trial"",""time""
""fullscreenenter"",""1"",""3770""
","
","
","""event"",""trial"",""time""
""fullscreenenter"",""1"",""3770""
","
","","","","","","1374.4000000357628","images/boat4.png","","","memory_trial","1","definitely_old","","","","","","",""
"html-keyboard-response","66","288007","0.0-15.0-0.12","1691","2","""event"",""trial"",""time""
""fullscreenenter"",""1"",""3770""
","
","
","""event"",""trial"",""time""
""fullscreenenter"",""1"",""3770""
","
","","","","","","null","<div style=""font-size:60px;"">+</div>","null","","fixation","","","","","","","","",""
"memory-trial","67","291207","0.0-15.0-1.12","1691","2","""event"",""trial"",""time""
""fullscreenenter"",""1"",""3770""
","
","
","""event"",""trial"",""time""
""fullscreenenter"",""1"",""3770""
","
","","","","","","2195","images/orange3.png","","","memory_trial","1","definitely_old","","","","","","",""
"html-keyboard-response","68","291708","0.0-15.0-0.13","1691","2","""event"",""trial"",""time""
""fullscreenenter"",""1"",""3770""
","
","
","""event"",""trial"",""time""
""fullscreenenter"",""1"",""3770""
","
","","","","","","null","<div style=""font-size:60px;"">+</div>","null","","fixation","","","","","","","","",""
"memory-trial","69","295180","0.0-15.0-1.13","1691","2","""event"",""trial"",""time""
""fullscreenenter"",""1"",""3770""
","
","
","""event"",""trial"",""time""
""fullscreenenter"",""1"",""3770""
","
","","","","","","2469.300000011921","images/sofa4.png","","","memory_trial","2","maybe_old","","","","","","",""
"html-keyboard-response","70","295681","0.0-15.0-0.14","1691","2","""event"",""trial"",""time""
""fullscreenenter"",""1"",""3770""
","
","
","""event"",""trial"",""time""
""fullscreenenter"",""1"",""3770""
","
","","","","","","null","<div style=""font-size:60px;"">+</div>","null","","fixation","","","","","","","","",""
"memory-trial","71","299708","0.0-15.0-1.14","1691","2","""event"",""trial"",""time""
""fullscreenenter"",""1"",""3770""
","
","
","""event"",""trial"",""time""
""fullscreenenter"",""1"",""3770""
","
","","","","","","3018.800000011921","images/cactus3.png","","","memory_trial","4","definitely_new","","","","","","",""
"html-keyboard-response","72","300214","0.0-15.0-0.15","1691","2","""event"",""trial"",""time""
""fullscreenenter"",""1"",""3770""
","
","
","""event"",""trial"",""time""
""fullscreenenter"",""1"",""3770""
","
","","","","","","null","<div style=""font-size:60px;"">+</div>","null","","fixation","","","","","","","","",""
"memory-trial","73","303457","0.0-15.0-1.15","1691","2","""event"",""trial"",""time""
""fullscreenenter"",""1"",""3770""
","
","
","""event"",""trial"",""time""
""fullscreenenter"",""1"",""3770""
","
","","","","","","2235.7000000476837","images/rodent3.png","","","memory_trial","4","definitely_new","","","","","","",""
"html-keyboard-response","74","303958","0.0-15.0-0.16","1691","2","""event"",""trial"",""time""
""fullscreenenter"",""1"",""3770""
","
","
","""event"",""trial"",""time""
""fullscreenenter"",""1"",""3770""
","
","","","","","","null","<div style=""font-size:60px;"">+</div>","null","","fixation","","","","","","","","",""
"memory-trial","75","306430","0.0-15.0-1.16","1691","2","""event"",""trial"",""time""
""fullscreenenter"",""1"",""3770""
","
","
","""event"",""trial"",""time""
""fullscreenenter"",""1"",""3770""
","
","","","","","","1460.699999988079","images/train3.png","","","memory_trial","1","definitely_old","","","","","","",""
"html-keyboard-response","76","306934","0.0-15.0-0.17","1691","2","""event"",""trial"",""time""
""fullscreenenter"",""1"",""3770""
","
","
","""event"",""trial"",""time""
""fullscreenenter"",""1"",""3770""
","
","","","","","","null","<div style=""font-size:60px;"">+</div>","null","","fixation","","","","","","","","",""
"memory-trial","77","309547","0.0-15.0-1.17","1691","2","""event"",""trial"",""time""
""fullscreenenter"",""1"",""3770""
","
","
","""event"",""trial"",""time""
""fullscreenenter"",""1"",""3770""
","
","","","","","","1610.0999999642372","images/orange2.png","","","memory_trial","1","definitely_old","","","","","","",""
"html-keyboard-response","78","310049","0.0-15.0-0.18","1691","2","""event"",""trial"",""time""
""fullscreenenter"",""1"",""3770""
","
","
","""event"",""trial"",""time""
""fullscreenenter"",""1"",""3770""
","
","","","","","","null","<div style=""font-size:60px;"">+</div>","null","","fixation","","","","","","","","",""
"memory-trial","79","312070","0.0-15.0-1.18","1691","2","""event"",""trial"",""time""
""fullscreenenter"",""1"",""3770""
","
","
","""event"",""trial"",""time""
""fullscreenenter"",""1"",""3770""
","
","","","","","","1017.6999999880791","images/orange1.png","","","memory_trial","1","definitely_old","","","","","","",""
"html-keyboard-response","80","312572","0.0-15.0-0.19","1691","2","""event"",""trial"",""time""
""fullscreenenter"",""1"",""3770""
","
","
","""event"",""trial"",""time""
""fullscreenenter"",""1"",""3770""
","
","","","","","","null","<div style=""font-size:60px;"">+</div>","null","","fixation","","","","","","","","",""
"memory-trial","81","315526","0.0-15.0-1.19","1691","2","""event"",""trial"",""time""
""fullscreenenter"",""1"",""3770""
","
","
","""event"",""trial"",""time""
""fullscreenenter"",""1"",""3770""
","
","","","","","","1949.2999999523163","images/plane3.png","","","memory_trial","4","definitely_new","","","","","","",""
"html-keyboard-response","82","316027","0.0-15.0-0.20","1691","2","""event"",""trial"",""time""
""fullscreenenter"",""1"",""3770""
","
","
","""event"",""trial"",""time""
""fullscreenenter"",""1"",""3770""
","
","","","","","","null","<div style=""font-size:60px;"">+</div>","null","","fixation","","","","","","","","",""
"memory-trial","83","319041","0.0-15.0-1.20","1691","2","""event"",""trial"",""time""
""fullscreenenter"",""1"",""3770""
","
","
","""event"",""trial"",""time""
""fullscreenenter"",""1"",""3770""
","
","","","","","","2008","images/straw1.png","","","memory_trial","1","definitely_old","","","","","","",""
"html-keyboard-response","84","319542","0.0-15.0-0.21","1691","2","""event"",""trial"",""time""
""fullscreenenter"",""1"",""3770""
","
","
","""event"",""trial"",""time""
""fullscreenenter"",""1"",""3770""
","
","","","","","","null","<div style=""font-size:60px;"">+</div>","null","","fixation","","","","","","","","",""
"memory-trial","85","321937","0.0-15.0-1.21","1691","2","""event"",""trial"",""time""
""fullscreenenter"",""1"",""3770""
","
","
","""event"",""trial"",""time""
""fullscreenenter"",""1"",""3770""
","
","","","","","","1388.199999988079","images/tree4.png","","","memory_trial","1","definitely_old","","","","","","",""
"html-keyboard-response","86","322438","0.0-15.0-0.22","1691","2","""event"",""trial"",""time""
""fullscreenenter"",""1"",""3770""
","
","
","""event"",""trial"",""time""
""fullscreenenter"",""1"",""3770""
","
","","","","","","null","<div style=""font-size:60px;"">+</div>","null","","fixation","","","","","","","","",""
"memory-trial","87","326864","0.0-15.0-1.22","1691","2","""event"",""trial"",""time""
""fullscreenenter"",""1"",""3770""
","
","
","""event"",""trial"",""time""
""fullscreenenter"",""1"",""3770""
","
","","","","","","3420.400000035763","images/feline2.png","","","memory_trial","4","definitely_new","","","","","","",""
"html-keyboard-response","88","327366","0.0-15.0-0.23","1691","2","""event"",""trial"",""time""
""fullscreenenter"",""1"",""3770""
","
","
","""event"",""trial"",""time""
""fullscreenenter"",""1"",""3770""
","
","","","","","","null","<div style=""font-size:60px;"">+</div>","null","","fixation","","","","","","","","",""
"memory-trial","89","331904","0.0-15.0-1.23","1691","2","""event"",""trial"",""time""
""fullscreenenter"",""1"",""3770""
","
","
","""event"",""trial"",""time""
""fullscreenenter"",""1"",""3770""
","
","","","","","","3530.400000035763","images/cow5.png","","","memory_trial","3","maybe_new","","","","","","",""
"html-keyboard-response","90","332411","0.0-15.0-0.24","1691","2","""event"",""trial"",""time""
""fullscreenenter"",""1"",""3770""
","
","
","""event"",""trial"",""time""
""fullscreenenter"",""1"",""3770""
","
","","","","","","null","<div style=""font-size:60px;"">+</div>","null","","fixation","","","","","","","","",""
"memory-trial","91","335307","0.0-15.0-1.24","1691","2","""event"",""trial"",""time""
""fullscreenenter"",""1"",""3770""
","
","
","""event"",""trial"",""time""
""fullscreenenter"",""1"",""3770""
","
","","","","","","1891.3999999761581","images/plane2.png","","","memory_trial","4","definitely_new","","","","","","",""
"html-keyboard-response","92","335809","0.0-15.0-0.25","1691","2","""event"",""trial"",""time""
""fullscreenenter"",""1"",""3770""
","
","
","""event"",""trial"",""time""
""fullscreenenter"",""1"",""3770""
","
","","","","","","null","<div style=""font-size:60px;"">+</div>","null","","fixation","","","","","","","","",""
"memory-trial","93","338150","0.0-15.0-1.25","1691","2","""event"",""trial"",""time""
""fullscreenenter"",""1"",""3770""
","
","
","""event"",""trial"",""time""
""fullscreenenter"",""1"",""3770""
","
","","","","","","1337.699999988079","images/chair2.png","","","memory_trial","4","definitely_new","","","","","","",""
"html-keyboard-response","94","338651","0.0-15.0-0.26","1691","2","""event"",""trial"",""time""
""fullscreenenter"",""1"",""3770""
","
","
","""event"",""trial"",""time""
""fullscreenenter"",""1"",""3770""
","
","","","","","","null","<div style=""font-size:60px;"">+</div>","null","","fixation","","","","","","","","",""
"memory-trial","95","340614","0.0-15.0-1.26","1691","2","""event"",""trial"",""time""
""fullscreenenter"",""1"",""3770""
","
","
","""event"",""trial"",""time""
""fullscreenenter"",""1"",""3770""
","
","","","","","","956.1000000238419","images/apple3.png","","","memory_trial","4","definitely_new","","","","","","",""
"html-keyboard-response","96","341115","0.0-15.0-0.27","1691","2","""event"",""trial"",""time""
""fullscreenenter"",""1"",""3770""
","
","
","""event"",""trial"",""time""
""fullscreenenter"",""1"",""3770""
","
","","","","","","null","<div style=""font-size:60px;"">+</div>","null","","fixation","","","","","","","","",""
"memory-trial","97","345630","0.0-15.0-1.27","1691","2","""event"",""trial"",""time""
""fullscreenenter"",""1"",""3770""
","
","
","""event"",""trial"",""time""
""fullscreenenter"",""1"",""3770""
","
","","","","","","3509.5","images/bush1.png","","","memory_trial","3","maybe_new","","","","","","",""
"html-keyboard-response","98","346134","0.0-15.0-0.28","1691","2","""event"",""trial"",""time""
""fullscreenenter"",""1"",""3770""
","
","
","""event"",""trial"",""time""
""fullscreenenter"",""1"",""3770""
","
","","","","","","null","<div style=""font-size:60px;"">+</div>","null","","fixation","","","","","","","","",""
"memory-trial","99","349440","0.0-15.0-1.28","1691","2","""event"",""trial"",""time""
""fullscreenenter"",""1"",""3770""
","
","
","""event"",""trial"",""time""
""fullscreenenter"",""1"",""3770""
","
","","","","","","2298.899999976158","images/banana3.png","","","memory_trial","4","definitely_new","","","","","","",""
"html-keyboard-response","100","349944","0.0-15.0-0.29","1691","2","""event"",""trial"",""time""
""fullscreenenter"",""1"",""3770""
","
","
","""event"",""trial"",""time""
""fullscreenenter"",""1"",""3770""
","
","","","","","","null","<div style=""font-size:60px;"">+</div>","null","","fixation","","","","","","","","",""
"memory-trial","101","352266","0.0-15.0-1.29","1691","2","""event"",""trial"",""time""
""fullscreenenter"",""1"",""3770""
","
","
","""event"",""trial"",""time""
""fullscreenenter"",""1"",""3770""
","
","","","","","","1314.6000000238419","images/dog1.png","","","memory_trial","4","definitely_new","","","","","","",""
"html-keyboard-response","102","352768","0.0-15.0-0.30","1691","2","""event"",""trial"",""time""
""fullscreenenter"",""1"",""3770""
","
","
","""event"",""trial"",""time""
""fullscreenenter"",""1"",""3770""
","
","","","","","","null","<div style=""font-size:60px;"">+</div>","null","","fixation","","","","","","","","",""
"memory-trial","103","354960","0.0-15.0-1.30","1691","2","""event"",""trial"",""time""
""fullscreenenter"",""1"",""3770""
","
","
","""event"",""trial"",""time""
""fullscreenenter"",""1"",""3770""
","
","","","","","","1188.199999988079","images/banana1.png","","","memory_trial","4","definitely_new","","","","","","",""
"html-keyboard-response","104","355461","0.0-15.0-0.31","1691","2","""event"",""trial"",""time""
""fullscreenenter"",""1"",""3770""
","
","
","""event"",""trial"",""time""
""fullscreenenter"",""1"",""3770""
","
","","","","","","null","<div style=""font-size:60px;"">+</div>","null","","fixation","","","","","","","","",""
"memory-trial","105","359552","0.0-15.0-1.31","1691","2","""event"",""trial"",""time""
""fullscreenenter"",""1"",""3770""
","
","
","""event"",""trial"",""time""
""fullscreenenter"",""1"",""3770""
","
","","","","","","3086.400000035763","images/train2.png","","","memory_trial","4","definitely_new","","","","","","",""
"html-keyboard-response","106","360054","0.0-15.0-0.32","1691","2","""event"",""trial"",""time""
""fullscreenenter"",""1"",""3770""
","
","
","""event"",""trial"",""time""
""fullscreenenter"",""1"",""3770""
","
","","","","","","null","<div style=""font-size:60px;"">+</div>","null","","fixation","","","","","","","","",""
"memory-trial","107","363099","0.0-15.0-1.32","1691","2","""event"",""trial"",""time""
""fullscreenenter"",""1"",""3770""
","
","
","""event"",""trial"",""time""
""fullscreenenter"",""1"",""3770""
","
","","","","","","2037","images/feline4.png","","","memory_trial","1","definitely_old","","","","","","",""
"html-keyboard-response","108","363603","0.0-15.0-0.33","1691","2","""event"",""trial"",""time""
""fullscreenenter"",""1"",""3770""
","
","
","""event"",""trial"",""time""
""fullscreenenter"",""1"",""3770""
","
","","","","","","null","<div style=""font-size:60px;"">+</div>","null","","fixation","","","","","","","","",""
"memory-trial","109","368592","0.0-15.0-1.33","1691","2","""event"",""trial"",""time""
""fullscreenenter"",""1"",""3770""
","
","
","""event"",""trial"",""time""
""fullscreenenter"",""1"",""3770""
","
","","","","","","3986.199999988079","images/train4.png","","","memory_trial","4","definitely_new","","","","","","",""
"html-keyboard-response","110","369096","0.0-15.0-0.34","1691","2","""event"",""trial"",""time""
""fullscreenenter"",""1"",""3770""
","
","
","""event"",""trial"",""time""
""fullscreenenter"",""1"",""3770""
","
","","","","","","null","<div style=""font-size:60px;"">+</div>","null","","fixation","","","","","","","","",""
"memory-trial","111","371461","0.0-15.0-1.34","1691","2","""event"",""trial"",""time""
""fullscreenenter"",""1"",""3770""
","
","
","""event"",""trial"",""time""
""fullscreenenter"",""1"",""3770""
","
","","","","","","1359.7999999523163","images/bush4.png","","","memory_trial","4","definitely_new","","","","","","",""
"html-keyboard-response","112","371962","0.0-15.0-0.35","1691","2","""event"",""trial"",""time""
""fullscreenenter"",""1"",""3770""
","
","
","""event"",""trial"",""time""
""fullscreenenter"",""1"",""3770""
","
","","","","","","null","<div style=""font-size:60px;"">+</div>","null","","fixation","","","","","","","","",""
"memory-trial","113","374634","0.0-15.0-1.35","1691","2","""event"",""trial"",""time""
""fullscreenenter"",""1"",""3770""
","
","
","""event"",""trial"",""time""
""fullscreenenter"",""1"",""3770""
","
","","","","","","1665.699999988079","images/flower5.png","","","memory_trial","4","definitely_new","","","","","","",""
"html-keyboard-response","114","375136","0.0-15.0-0.36","1691","2","""event"",""trial"",""time""
""fullscreenenter"",""1"",""3770""
","
","
","""event"",""trial"",""time""
""fullscreenenter"",""1"",""3770""
","
","","","","","","null","<div style=""font-size:60px;"">+</div>","null","","fixation","","","","","","","","",""
"memory-trial","115","377664","0.0-15.0-1.36","1691","2","""event"",""trial"",""time""
""fullscreenenter"",""1"",""3770""
","
","
","""event"",""trial"",""time""
""fullscreenenter"",""1"",""3770""
","
","","","","","","1520.800000011921","images/horse1.png","","","memory_trial","1","definitely_old","","","","","","",""
"html-keyboard-response","116","378168","0.0-15.0-0.37","1691","2","""event"",""trial"",""time""
""fullscreenenter"",""1"",""3770""
","
","
","""event"",""trial"",""time""
""fullscreenenter"",""1"",""3770""
","
","","","","","","null","<div style=""font-size:60px;"">+</div>","null","","fixation","","","","","","","","",""
"memory-trial","117","380789","0.0-15.0-1.37","1691","2","""event"",""trial"",""time""
""fullscreenenter"",""1"",""3770""
","
","
","""event"",""trial"",""time""
""fullscreenenter"",""1"",""3770""
","
","","","","","","1614.4000000357628","images/boat2.png","","","memory_trial","1","definitely_old","","","","","","",""
"html-keyboard-response","118","381290","0.0-15.0-0.38","1691","2","""event"",""trial"",""time""
""fullscreenenter"",""1"",""3770""
","
","
","""event"",""trial"",""time""
""fullscreenenter"",""1"",""3770""
","
","","","","","","null","<div style=""font-size:60px;"">+</div>","null","","fixation","","","","","","","","",""
"memory-trial","119","383883","0.0-15.0-1.38","1691","2","""event"",""trial"",""time""
""fullscreenenter"",""1"",""3770""
","
","
","""event"",""trial"",""time""
""fullscreenenter"",""1"",""3770""
","
","","","","","","1587.2000000476837","images/rabbit2.png","","","memory_trial","1","definitely_old","","","","","","",""
"html-keyboard-response","120","384388","0.0-15.0-0.39","1691","2","""event"",""trial"",""time""
""fullscreenenter"",""1"",""3770""
","
","
","""event"",""trial"",""time""
""fullscreenenter"",""1"",""3770""
","
","","","","","","null","<div style=""font-size:60px;"">+</div>","null","","fixation","","","","","","","","",""
"memory-trial","121","387908","0.0-15.0-1.39","1691","2","""event"",""trial"",""time""
""fullscreenenter"",""1"",""3770""
","
","
","""event"",""trial"",""time""
""fullscreenenter"",""1"",""3770""
","
","","","","","","2513.599999964237","images/table5.png","","","memory_trial","4","definitely_new","","","","","","",""
"html-keyboard-response","122","388410","0.0-15.0-0.40","1691","2","""event"",""trial"",""time""
""fullscreenenter"",""1"",""3770""
","
","
","""event"",""trial"",""time""
""fullscreenenter"",""1"",""3770""
","
","","","","","","null","<div style=""font-size:60px;"">+</div>","null","","fixation","","","","","","","","",""
"memory-trial","123","392325","0.0-15.0-1.40","1691","2","""event"",""trial"",""time""
""fullscreenenter"",""1"",""3770""
","
","
","""event"",""trial"",""time""
""fullscreenenter"",""1"",""3770""
","
","","","","","","2910.399999976158","images/rodent4.png","","","memory_trial","1","definitely_old","","","","","","",""
"html-keyboard-response","124","392831","0.0-15.0-0.41","1691","2","""event"",""trial"",""time""
""fullscreenenter"",""1"",""3770""
","
","
","""event"",""trial"",""time""
""fullscreenenter"",""1"",""3770""
","
","","","","","","null","<div style=""font-size:60px;"">+</div>","null","","fixation","","","","","","","","",""
"memory-trial","125","395225","0.0-15.0-1.41","1691","2","""event"",""trial"",""time""
""fullscreenenter"",""1"",""3770""
","
","
","""event"",""trial"",""time""
""fullscreenenter"",""1"",""3770""
","
","","","","","","1389.4000000357628","images/chair4.png","","","memory_trial","4","definitely_new","","","","","","",""
"html-keyboard-response","126","395727","0.0-15.0-0.42","1691","2","""event"",""trial"",""time""
""fullscreenenter"",""1"",""3770""
","
","
","""event"",""trial"",""time""
""fullscreenenter"",""1"",""3770""
","
","","","","","","null","<div style=""font-size:60px;"">+</div>","null","","fixation","","","","","","","","",""
"memory-trial","127","398133","0.0-15.0-1.42","1691","2","""event"",""trial"",""time""
""fullscreenenter"",""1"",""3770""
","
","
","""event"",""trial"",""time""
""fullscreenenter"",""1"",""3770""
","
","","","","","","1401.199999988079","images/train5.png","","","memory_trial","1","definitely_old","","","","","","",""
"html-keyboard-response","128","398634","0.0-15.0-0.43","1691","2","""event"",""trial"",""time""
""fullscreenenter"",""1"",""3770""
","
","
","""event"",""trial"",""time""
""fullscreenenter"",""1"",""3770""
","
","","","","","","null","<div style=""font-size:60px;"">+</div>","null","","fixation","","","","","","","","",""
"memory-trial","129","402853","0.0-15.0-1.43","1691","2","""event"",""trial"",""time""
""fullscreenenter"",""1"",""3770""
","
","
","""event"",""trial"",""time""
""fullscreenenter"",""1"",""3770""
","
","","","","","","3214.5","images/feline1.png","","","memory_trial","3","maybe_new","","","","","","",""
"html-keyboard-response","130","403354","0.0-15.0-0.44","1691","2","""event"",""trial"",""time""
""fullscreenenter"",""1"",""3770""
","
","
","""event"",""trial"",""time""
""fullscreenenter"",""1"",""3770""
","
","","","","","","null","<div style=""font-size:60px;"">+</div>","null","","fixation","","","","","","","","",""
"memory-trial","131","406567","0.0-15.0-1.44","1691","2","""event"",""trial"",""time""
""fullscreenenter"",""1"",""3770""
","
","
","""event"",""trial"",""time""
""fullscreenenter"",""1"",""3770""
","
","","","","","","2205.800000011921","images/apple2.png","","","memory_trial","3","maybe_new","","","","","","",""
"html-keyboard-response","132","407073","0.0-15.0-0.45","1691","2","""event"",""trial"",""time""
""fullscreenenter"",""1"",""3770""
","
","
","""event"",""trial"",""time""
""fullscreenenter"",""1"",""3770""
","
","","","","","","null","<div style=""font-size:60px;"">+</div>","null","","fixation","","","","","","","","",""
"memory-trial","133","410159","0.0-15.0-1.45","1691","2","""event"",""trial"",""time""
""fullscreenenter"",""1"",""3770""
","
","
","""event"",""trial"",""time""
""fullscreenenter"",""1"",""3770""
","
","","","","","","2079.199999988079","images/table1.png","","","memory_trial","4","definitely_new","","","","","","",""
"html-keyboard-response","134","410661","0.0-15.0-0.46","1691","2","""event"",""trial"",""time""
""fullscreenenter"",""1"",""3770""
","
","
","""event"",""trial"",""time""
""fullscreenenter"",""1"",""3770""
","
","","","","","","null","<div style=""font-size:60px;"">+</div>","null","","fixation","","","","","","","","",""
"memory-trial","135","413098","0.0-15.0-1.46","1691","2","""event"",""trial"",""time""
""fullscreenenter"",""1"",""3770""
","
","
","""event"",""trial"",""time""
""fullscreenenter"",""1"",""3770""
","
","","","","","","1429.4000000357628","images/flower3.png","","","memory_trial","4","definitely_new","","","","","","",""
"html-button-response","136","415911","0.0-15.0-2.46-0.46","1691","2","""event"",""trial"",""time""
""fullscreenenter"",""1"",""3770""
","
","
","""event"",""trial"",""time""
""fullscreenenter"",""1"",""3770""
","
","","","","","","2812.099999964237","<p> Take a break! </p><p> Click the button to continue. </p>","0","","break","","","","","","","","",""
"html-keyboard-response","137","416415","0.0-15.0-0.47","1691","2","""event"",""trial"",""time""
""fullscreenenter"",""1"",""3770""
","
","
","""event"",""trial"",""time""
""fullscreenenter"",""1"",""3770""
","
","","","","","","null","<div style=""font-size:60px;"">+</div>","null","","fixation","","","","","","","","",""
"memory-trial","138","420559","0.0-15.0-1.47","1691","2","""event"",""trial"",""time""
""fullscreenenter"",""1"",""3770""
","
","
","""event"",""trial"",""time""
""fullscreenenter"",""1"",""3770""
","
","","","","","","3139.899999976158","images/sofa1.png","","","memory_trial","4","definitely_new","","","","","","",""
"html-keyboard-response","139","421063","0.0-15.0-0.48","1691","2","""event"",""trial"",""time""
""fullscreenenter"",""1"",""3770""
","
","
","""event"",""trial"",""time""
""fullscreenenter"",""1"",""3770""
","
","","","","","","null","<div style=""font-size:60px;"">+</div>","null","","fixation","","","","","","","","",""
"memory-trial","140","423684","0.0-15.0-1.48","1691","2","""event"",""trial"",""time""
""fullscreenenter"",""1"",""3770""
","
","
","""event"",""trial"",""time""
""fullscreenenter"",""1"",""3770""
","
","","","","","","1616","images/goat3.png","","","memory_trial","4","definitely_new","","","","","","",""
"html-keyboard-response","141","424189","0.0-15.0-0.49","1691","2","""event"",""trial"",""time""
""fullscreenenter"",""1"",""3770""
","
","
","""event"",""trial"",""time""
""fullscreenenter"",""1"",""3770""
","
","","","","","","null","<div style=""font-size:60px;"">+</div>","null","","fixation","","","","","","","","",""
"memory-trial","142","426607","0.0-15.0-1.49","1691","2","""event"",""trial"",""time""
""fullscreenenter"",""1"",""3770""
","
","
","""event"",""trial"",""time""
""fullscreenenter"",""1"",""3770""
","
","","","","","","1409.699999988079","images/bush3.png","","","memory_trial","4","definitely_new","","","","","","",""
"html-keyboard-response","143","427112","0.0-15.0-0.50","1691","2","""event"",""trial"",""time""
""fullscreenenter"",""1"",""3770""
","
","
","""event"",""trial"",""time""
""fullscreenenter"",""1"",""3770""
","
","","","","","","null","<div style=""font-size:60px;"">+</div>","null","","fixation","","","","","","","","",""
"memory-trial","144","429668","0.0-15.0-1.50","1691","2","""event"",""trial"",""time""
""fullscreenenter"",""1"",""3770""
","
","
","""event"",""trial"",""time""
""fullscreenenter"",""1"",""3770""
","
","","","","","","1548.9000000357628","images/boat3.png","","","memory_trial","1","definitely_old","","","","","","",""
"html-keyboard-response","145","430169","0.0-15.0-0.51","1691","2","""event"",""trial"",""time""
""fullscreenenter"",""1"",""3770""
","
","
","""event"",""trial"",""time""
""fullscreenenter"",""1"",""3770""
","
","","","","","","null","<div style=""font-size:60px;"">+</div>","null","","fixation","","","","","","","","",""
"memory-trial","146","433332","0.0-15.0-1.51","1691","2","""event"",""trial"",""time""
""fullscreenenter"",""1"",""3770""
","
","
","""event"",""trial"",""time""
""fullscreenenter"",""1"",""3770""
","
","","","","","","2156.699999988079","images/plane4.png","","","memory_trial","4","definitely_new","","","","","","",""
"html-keyboard-response","147","433833","0.0-15.0-0.52","1691","2","""event"",""trial"",""time""
""fullscreenenter"",""1"",""3770""
","
","
","""event"",""trial"",""time""
""fullscreenenter"",""1"",""3770""
","
","","","","","","null","<div style=""font-size:60px;"">+</div>","null","","fixation","","","","","","","","",""
"memory-trial","148","436162","0.0-15.0-1.52","1691","2","""event"",""trial"",""time""
""fullscreenenter"",""1"",""3770""
","
","
","""event"",""trial"",""time""
""fullscreenenter"",""1"",""3770""
","
","","","","","","1322.699999988079","images/apple4.png","","","memory_trial","4","definitely_new","","","","","","",""
"html-keyboard-response","149","436665","0.0-15.0-0.53","1691","2","""event"",""trial"",""time""
""fullscreenenter"",""1"",""3770""
","
","
","""event"",""trial"",""time""
""fullscreenenter"",""1"",""3770""
","
","","","","","","null","<div style=""font-size:60px;"">+</div>","null","","fixation","","","","","","","","",""
"memory-trial","150","438639","0.0-15.0-1.53","1691","2","""event"",""trial"",""time""
""fullscreenenter"",""1"",""3770""
","
","
","""event"",""trial"",""time""
""fullscreenenter"",""1"",""3770""
","
","","","","","","966.3000000119209","images/banana4.png","","","memory_trial","4","definitely_new","","","","","","",""
"html-keyboard-response","151","439143","0.0-15.0-0.54","1691","2","""event"",""trial"",""time""
""fullscreenenter"",""1"",""3770""
","
","
","""event"",""trial"",""time""
""fullscreenenter"",""1"",""3770""
","
","","","","","","null","<div style=""font-size:60px;"">+</div>","null","","fixation","","","","","","","","",""
"memory-trial","152","441071","0.0-15.0-1.54","1691","2","""event"",""trial"",""time""
""fullscreenenter"",""1"",""3770""
","
","
","""event"",""trial"",""time""
""fullscreenenter"",""1"",""3770""
","
","","","","","","922.1999999880791","images/table3.png","","","memory_trial","4","definitely_new","","","","","","",""
"html-keyboard-response","153","441572","0.0-15.0-0.55","1691","2","""event"",""trial"",""time""
""fullscreenenter"",""1"",""3770""
","
","
","""event"",""trial"",""time""
""fullscreenenter"",""1"",""3770""
","
","","","","","","null","<div style=""font-size:60px;"">+</div>","null","","fixation","","","","","","","","",""
"memory-trial","154","444596","0.0-15.0-1.55","1691","2","""event"",""trial"",""time""
""fullscreenenter"",""1"",""3770""
","
","
","""event"",""trial"",""time""
""fullscreenenter"",""1"",""3770""
","
","","","","","","2022.0999999642372","images/boat5.png","","","memory_trial","4","definitely_new","","","","","","",""
"html-keyboard-response","155","445102","0.0-15.0-0.56","1691","2","""event"",""trial"",""time""
""fullscreenenter"",""1"",""3770""
","
","
","""event"",""trial"",""time""
""fullscreenenter"",""1"",""3770""
","
","","","","","","null","<div style=""font-size:60px;"">+</div>","null","","fixation","","","","","","","","",""
"memory-trial","156","448276","0.0-15.0-1.56","1691","2","""event"",""trial"",""time""
""fullscreenenter"",""1"",""3770""
","
","
","""event"",""trial"",""time""
""fullscreenenter"",""1"",""3770""
","
","","","","","","2167.600000023842","images/goat1.png","","","memory_trial","3","maybe_new","","","","","","",""
"html-keyboard-response","157","448782","0.0-15.0-0.57","1691","2","""event"",""trial"",""time""
""fullscreenenter"",""1"",""3770""
","
","
","""event"",""trial"",""time""
""fullscreenenter"",""1"",""3770""
","
","","","","","","null","<div style=""font-size:60px;"">+</div>","null","","fixation","","","","","","","","",""
"memory-trial","158","453033","0.0-15.0-1.57","1691","2","""event"",""trial"",""time""
""fullscreenenter"",""1"",""3770""
","
","
","""event"",""trial"",""time""
""fullscreenenter"",""1"",""3770""
","
","","","","","","3247.300000011921","images/straw5.png","","","memory_trial","2","maybe_old","","","","","","",""
"html-keyboard-response","159","453535","0.0-15.0-0.58","1691","2","""event"",""trial"",""time""
""fullscreenenter"",""1"",""3770""
","
","
","""event"",""trial"",""time""
""fullscreenenter"",""1"",""3770""
","
","","","","","","null","<div style=""font-size:60px;"">+</div>","null","","fixation","","","","","","","","",""
"memory-trial","160","455896","0.0-15.0-1.58","1691","2","""event"",""trial"",""time""
""fullscreenenter"",""1"",""3770""
","
","
","""event"",""trial"",""time""
""fullscreenenter"",""1"",""3770""
","
","","","","","","1356.6000000238419","images/plane1.png","","","memory_trial","4","definitely_new","","","","","","",""
"html-keyboard-response","161","456398","0.0-15.0-0.59","1691","2","""event"",""trial"",""time""
""fullscreenenter"",""1"",""3770""
","
","
","""event"",""trial"",""time""
""fullscreenenter"",""1"",""3770""
","
","","","","","","null","<div style=""font-size:60px;"">+</div>","null","","fixation","","","","","","","","",""
"memory-trial","162","458612","0.0-15.0-1.59","1691","2","""event"",""trial"",""time""
""fullscreenenter"",""1"",""3770""
","
","
","""event"",""trial"",""time""
""fullscreenenter"",""1"",""3770""
","
","","","","","","1208.800000011921","images/sofa3.png","","","memory_trial","4","definitely_new","","","","","","",""
"html-keyboard-response","163","459114","0.0-15.0-0.60","1691","2","""event"",""trial"",""time""
""fullscreenenter"",""1"",""3770""
","
","
","""event"",""trial"",""time""
""fullscreenenter"",""1"",""3770""
","
","","","","","","null","<div style=""font-size:60px;"">+</div>","null","","fixation","","","","","","","","",""
"memory-trial","164","462222","0.0-15.0-1.60","1691","2","""event"",""trial"",""time""
""fullscreenenter"",""1"",""3770""
","
","
","""event"",""trial"",""time""
""fullscreenenter"",""1"",""3770""
","
","","","","","","2103.5","images/truck4.png","","","memory_trial","1","definitely_old","","","","","","",""
"html-keyboard-response","165","462729","0.0-15.0-0.61","1691","2","""event"",""trial"",""time""
""fullscreenenter"",""1"",""3770""
","
","
","""event"",""trial"",""time""
""fullscreenenter"",""1"",""3770""
","
","","","","","","null","<div style=""font-size:60px;"">+</div>","null","","fixation","","","","","","","","",""
"memory-trial","166","465939","0.0-15.0-1.61","1691","2","""event"",""trial"",""time""
""fullscreenenter"",""1"",""3770""
","
","
","""event"",""trial"",""time""
""fullscreenenter"",""1"",""3770""
","
","","","","","","2204.099999964237","images/apple5.png","","","memory_trial","3","maybe_new","","","","","","",""
"html-keyboard-response","167","466443","0.0-15.0-0.62","1691","2","""event"",""trial"",""time""
""fullscreenenter"",""1"",""3770""
","
","
","""event"",""trial"",""time""
""fullscreenenter"",""1"",""3770""
","
","","","","","","null","<div style=""font-size:60px;"">+</div>","null","","fixation","","","","","","","","",""
"memory-trial","168","470472","0.0-15.0-1.62","1691","2","""event"",""trial"",""time""
""fullscreenenter"",""1"",""3770""
","
","
","""event"",""trial"",""time""
""fullscreenenter"",""1"",""3770""
","
","","","","","","3025.600000023842","images/flower1.png","","","memory_trial","2","maybe_old","","","","","","",""
"html-keyboard-response","169","470974","0.0-15.0-0.63","1691","2","""event"",""trial"",""time""
""fullscreenenter"",""1"",""3770""
","
","
","""event"",""trial"",""time""
""fullscreenenter"",""1"",""3770""
","
","","","","","","null","<div style=""font-size:60px;"">+</div>","null","","fixation","","","","","","","","",""
"memory-trial","170","472702","0.0-15.0-1.63","1691","2","""event"",""trial"",""time""
""fullscreenenter"",""1"",""3770""
","
","
","""event"",""trial"",""time""
""fullscreenenter"",""1"",""3770""
","
","","","","","","720.8000000119209","images/rabbit1.png","","","memory_trial","4","definitely_new","","","","","","",""
"html-keyboard-response","171","473206","0.0-15.0-0.64","1691","2","""event"",""trial"",""time""
""fullscreenenter"",""1"",""3770""
","
","
","""event"",""trial"",""time""
""fullscreenenter"",""1"",""3770""
","
","","","","","","null","<div style=""font-size:60px;"">+</div>","null","","fixation","","","","","","","","",""
"memory-trial","172","475784","0.0-15.0-1.64","1691","2","""event"",""trial"",""time""
""fullscreenenter"",""1"",""3770""
","
","
","""event"",""trial"",""time""
""fullscreenenter"",""1"",""3770""
","
","","","","","","1573.5","images/truck5.png","","","memory_trial","4","definitely_new","","","","","","",""
"html-keyboard-response","173","476286","0.0-15.0-0.65","1691","2","""event"",""trial"",""time""
""fullscreenenter"",""1"",""3770""
","
","
","""event"",""trial"",""time""
""fullscreenenter"",""1"",""3770""
","
","","","","","","null","<div style=""font-size:60px;"">+</div>","null","","fixation","","","","","","","","",""
"memory-trial","174","479432","0.0-15.0-1.65","1691","2","""event"",""trial"",""time""
""fullscreenenter"",""1"",""3770""
","
","
","""event"",""trial"",""time""
""fullscreenenter"",""1"",""3770""
","
","","","","","","2139.399999976158","images/cactus2.png","","","memory_trial","3","maybe_new","","","","","","",""
"html-keyboard-response","175","479936","0.0-15.0-0.66","1691","2","""event"",""trial"",""time""
""fullscreenenter"",""1"",""3770""
","
","
","""event"",""trial"",""time""
""fullscreenenter"",""1"",""3770""
","
","","","","","","null","<div style=""font-size:60px;"">+</div>","null","","fixation","","","","","","","","",""
"memory-trial","176","483251","0.0-15.0-1.66","1691","2","""event"",""trial"",""time""
""fullscreenenter"",""1"",""3770""
","
","
","""event"",""trial"",""time""
""fullscreenenter"",""1"",""3770""
","
","","","","","","2308.800000011921","images/chair3.png","","","memory_trial","4","definitely_new","","","","","","",""
"html-keyboard-response","177","483752","0.0-15.0-0.67","1691","2","""event"",""trial"",""time""
""fullscreenenter"",""1"",""3770""
","
","
","""event"",""trial"",""time""
""fullscreenenter"",""1"",""3770""
","
","","","","","","null","<div style=""font-size:60px;"">+</div>","null","","fixation","","","","","","","","",""
"memory-trial","178","485939","0.0-15.0-1.67","1691","2","""event"",""trial"",""time""
""fullscreenenter"",""1"",""3770""
","
","
","""event"",""trial"",""time""
""fullscreenenter"",""1"",""3770""
","
","","","","","","1180.699999988079","images/sofa2.png","","","memory_trial","4","definitely_new","","","","","","",""
"html-keyboard-response","179","486442","0.0-15.0-0.68","1691","2","""event"",""trial"",""time""
""fullscreenenter"",""1"",""3770""
","
","
","""event"",""trial"",""time""
""fullscreenenter"",""1"",""3770""
","
","","","","","","null","<div style=""font-size:60px;"">+</div>","null","","fixation","","","","","","","","",""
"memory-trial","180","488872","0.0-15.0-1.68","1691","2","""event"",""trial"",""time""
""fullscreenenter"",""1"",""3770""
","
","
","""event"",""trial"",""time""
""fullscreenenter"",""1"",""3770""
","
","","","","","","1426.5999999642372","images/cactus4.png","","","memory_trial","4","definitely_new","","","","","","",""
"html-keyboard-response","181","489374","0.0-15.0-0.69","1691","2","""event"",""trial"",""time""
""fullscreenenter"",""1"",""3770""
","
","
","""event"",""trial"",""time""
""fullscreenenter"",""1"",""3770""
","
","","","","","","null","<div style=""font-size:60px;"">+</div>","null","","fixation","","","","","","","","",""
"memory-trial","182","492136","0.0-15.0-1.69","1691","2","""event"",""trial"",""time""
""fullscreenenter"",""1"",""3770""
","
","
","""event"",""trial"",""time""
""fullscreenenter"",""1"",""3770""
","
","","","","","","1758.3999999761581","images/horse3.png","","","memory_trial","4","definitely_new","","","","","","",""
"html-keyboard-response","183","492638","0.0-15.0-0.70","1691","2","""event"",""trial"",""time""
""fullscreenenter"",""1"",""3770""
","
","
","""event"",""trial"",""time""
""fullscreenenter"",""1"",""3770""
","
","","","","","","null","<div style=""font-size:60px;"">+</div>","null","","fixation","","","","","","","","",""
"memory-trial","184","496541","0.0-15.0-1.70","1691","2","""event"",""trial"",""time""
""fullscreenenter"",""1"",""3770""
","
","
","""event"",""trial"",""time""
""fullscreenenter"",""1"",""3770""
","
","","","","","","2895.600000023842","images/feline5.png","","","memory_trial","2","maybe_old","","","","","","",""
"html-keyboard-response","185","497046","0.0-15.0-0.71","1691","2","""event"",""trial"",""time""
""fullscreenenter"",""1"",""3770""
","
","
","""event"",""trial"",""time""
""fullscreenenter"",""1"",""3770""
","
","","","","","","null","<div style=""font-size:60px;"">+</div>","null","","fixation","","","","","","","","",""
"memory-trial","186","500440","0.0-15.0-1.71","1691","2","""event"",""trial"",""time""
""fullscreenenter"",""1"",""3770""
","
","
","""event"",""trial"",""time""
""fullscreenenter"",""1"",""3770""
","
","","","","","","2387.5","images/truck2.png","","","memory_trial","1","definitely_old","","","","","","",""
"html-keyboard-response","187","500947","0.0-15.0-0.72","1691","2","""event"",""trial"",""time""
""fullscreenenter"",""1"",""3770""
","
","
","""event"",""trial"",""time""
""fullscreenenter"",""1"",""3770""
","
","","","","","","null","<div style=""font-size:60px;"">+</div>","null","","fixation","","","","","","","","",""
"memory-trial","188","504163","0.0-15.0-1.72","1691","2","""event"",""trial"",""time""
""fullscreenenter"",""1"",""3770""
","
","
","""event"",""trial"",""time""
""fullscreenenter"",""1"",""3770""
","
","","","","","","2208.699999988079","images/sheep4.png","","","memory_trial","3","maybe_new","","","","","","",""
"html-keyboard-response","189","504665","0.0-15.0-0.73","1691","2","""event"",""trial"",""time""
""fullscreenenter"",""1"",""3770""
","
","
","""event"",""trial"",""time""
""fullscreenenter"",""1"",""3770""
","
","","","","","","null","<div style=""font-size:60px;"">+</div>","null","","fixation","","","","","","","","",""
"memory-trial","190","507577","0.0-15.0-1.73","1691","2","""event"",""trial"",""time""
""fullscreenenter"",""1"",""3770""
","
","
","""event"",""trial"",""time""
""fullscreenenter"",""1"",""3770""
","
","","","","","","1907.5","images/banana5.png","","","memory_trial","4","definitely_new","","","","","","",""
"html-keyboard-response","191","508083","0.0-15.0-0.74","1691","2","""event"",""trial"",""time""
""fullscreenenter"",""1"",""3770""
","
","
","""event"",""trial"",""time""
""fullscreenenter"",""1"",""3770""
","
","","","","","","null","<div style=""font-size:60px;"">+</div>","null","","fixation","","","","","","","","",""
"memory-trial","192","510365","0.0-15.0-1.74","1691","2","""event"",""trial"",""time""
""fullscreenenter"",""1"",""3770""
","
","
","""event"",""trial"",""time""
""fullscreenenter"",""1"",""3770""
","
","","","","","","1279.5999999642372","images/flower4.png","","","memory_trial","4","definitely_new","","","","","","",""
"html-keyboard-response","193","510867","0.0-15.0-0.75","1691","2","""event"",""trial"",""time""
""fullscreenenter"",""1"",""3770""
","
","
","""event"",""trial"",""time""
""fullscreenenter"",""1"",""3770""
","
","","","","","","null","<div style=""font-size:60px;"">+</div>","null","","fixation","","","","","","","","",""
"memory-trial","194","513400","0.0-15.0-1.75","1691","2","""event"",""trial"",""time""
""fullscreenenter"",""1"",""3770""
","
","
","""event"",""trial"",""time""
""fullscreenenter"",""1"",""3770""
","
","","","","","","1527.4000000357628","images/goat4.png","","","memory_trial","3","maybe_new","","","","","","",""
"html-keyboard-response","195","513901","0.0-15.0-0.76","1691","2","""event"",""trial"",""time""
""fullscreenenter"",""1"",""3770""
","
","
","""event"",""trial"",""time""
""fullscreenenter"",""1"",""3770""
","
","","","","","","null","<div style=""font-size:60px;"">+</div>","null","","fixation","","","","","","","","",""
"memory-trial","196","516034","0.0-15.0-1.76","1691","2","""event"",""trial"",""time""
""fullscreenenter"",""1"",""3770""
","
","
","""event"",""trial"",""time""
""fullscreenenter"",""1"",""3770""
","
","","","","","","1128.699999988079","images/sofa5.png","","","memory_trial","4","definitely_new","","","","","","",""
"html-keyboard-response","197","516536","0.0-15.0-0.77","1691","2","""event"",""trial"",""time""
""fullscreenenter"",""1"",""3770""
","
","
","""event"",""trial"",""time""
""fullscreenenter"",""1"",""3770""
","
","","","","","","null","<div style=""font-size:60px;"">+</div>","null","","fixation","","","","","","","","",""
"memory-trial","198","519501","0.0-15.0-1.77","1691","2","""event"",""trial"",""time""
""fullscreenenter"",""1"",""3770""
","
","
","""event"",""trial"",""time""
""fullscreenenter"",""1"",""3770""
","
","","","","","","1961.699999988079","images/rabbit4.png","","","memory_trial","3","maybe_new","","","","","","",""
"html-keyboard-response","199","520002","0.0-15.0-0.78","1691","2","""event"",""trial"",""time""
""fullscreenenter"",""1"",""3770""
","
","
","""event"",""trial"",""time""
""fullscreenenter"",""1"",""3770""
","
","","","","","","null","<div style=""font-size:60px;"">+</div>","null","","fixation","","","","","","","","",""
"memory-trial","200","523901","0.0-15.0-1.78","1691","2","""event"",""trial"",""time""
""fullscreenenter"",""1"",""3770""
","
","
","""event"",""trial"",""time""
""fullscreenenter"",""1"",""3770""
","
","","","","","","2893.199999988079","images/orange4.png","","","memory_trial","3","maybe_new","","","","","","",""
"html-keyboard-response","201","524405","0.0-15.0-0.79","1691","2","""event"",""trial"",""time""
""fullscreenenter"",""1"",""3770""
","
","
","""event"",""trial"",""time""
""fullscreenenter"",""1"",""3770""
","
","","","","","","null","<div style=""font-size:60px;"">+</div>","null","","fixation","","","","","","","","",""
"memory-trial","202","527079","0.0-15.0-1.79","1691","2","""event"",""trial"",""time""
""fullscreenenter"",""1"",""3770""
","
","
","""event"",""trial"",""time""
""fullscreenenter"",""1"",""3770""
","
","","","","","","1667.199999988079","images/dog5.png","","","memory_trial","4","definitely_new","","","","","","",""
"html-keyboard-response","203","527581","0.0-15.0-0.80","1691","2","""event"",""trial"",""time""
""fullscreenenter"",""1"",""3770""
","
","
","""event"",""trial"",""time""
""fullscreenenter"",""1"",""3770""
","
","","","","","","null","<div style=""font-size:60px;"">+</div>","null","","fixation","","","","","","","","",""
"memory-trial","204","529554","0.0-15.0-1.80","1691","2","""event"",""trial"",""time""
""fullscreenenter"",""1"",""3770""
","
","
","""event"",""trial"",""time""
""fullscreenenter"",""1"",""3770""
","
","","","","","","970","images/chair5.png","","","memory_trial","4","definitely_new","","","","","","",""
"html-keyboard-response","205","530058","0.0-15.0-0.81","1691","2","""event"",""trial"",""time""
""fullscreenenter"",""1"",""3770""
","
","
","""event"",""trial"",""time""
""fullscreenenter"",""1"",""3770""
","
","","","","","","null","<div style=""font-size:60px;"">+</div>","null","","fixation","","","","","","","","",""
"memory-trial","206","533922","0.0-15.0-1.81","1691","2","""event"",""trial"",""time""
""fullscreenenter"",""1"",""3770""
","
","
","""event"",""trial"",""time""
""fullscreenenter"",""1"",""3770""
","
","","","","","","2859.2000000476837","images/truck1.png","","","memory_trial","2","maybe_old","","","","","","",""
"html-keyboard-response","207","534425","0.0-15.0-0.82","1691","2","""event"",""trial"",""time""
""fullscreenenter"",""1"",""3770""
","
","
","""event"",""trial"",""time""
""fullscreenenter"",""1"",""3770""
","
","","","","","","null","<div style=""font-size:60px;"">+</div>","null","","fixation","","","","","","","","",""
"memory-trial","208","537612","0.0-15.0-1.82","1691","2","""event"",""trial"",""time""
""fullscreenenter"",""1"",""3770""
","
","
","""event"",""trial"",""time""
""fullscreenenter"",""1"",""3770""
","
","","","","","","2182.600000023842","images/cow1.png","","","memory_trial","3","maybe_new","","","","","","",""
"html-keyboard-response","209","538114","0.0-15.0-0.83","1691","2","""event"",""trial"",""time""
""fullscreenenter"",""1"",""3770""
","
","
","""event"",""trial"",""time""
""fullscreenenter"",""1"",""3770""
","
","","","","","","null","<div style=""font-size:60px;"">+</div>","null","","fixation","","","","","","","","",""
"memory-trial","210","540829","0.0-15.0-1.83","1691","2","""event"",""trial"",""time""
""fullscreenenter"",""1"",""3770""
","
","
","""event"",""trial"",""time""
""fullscreenenter"",""1"",""3770""
","
","","","","","","1707.5","images/bush5.png","","","memory_trial","4","definitely_new","","","","","","",""
"html-keyboard-response","211","541330","0.0-15.0-0.84","1691","2","""event"",""trial"",""time""
""fullscreenenter"",""1"",""3770""
","
","
","""event"",""trial"",""time""
""fullscreenenter"",""1"",""3770""
","
","","","","","","null","<div style=""font-size:60px;"">+</div>","null","","fixation","","","","","","","","",""
"memory-trial","212","543340","0.0-15.0-1.84","1691","2","""event"",""trial"",""time""
""fullscreenenter"",""1"",""3770""
","
","
","""event"",""trial"",""time""
""fullscreenenter"",""1"",""3770""
","
","","","","","","1005.1999999880791","images/table4.png","","","memory_trial","4","definitely_new","","","","","","",""
"html-keyboard-response","213","543842","0.0-15.0-0.85","1691","2","""event"",""trial"",""time""
""fullscreenenter"",""1"",""3770""
","
","
","""event"",""trial"",""time""
""fullscreenenter"",""1"",""3770""
","
","","","","","","null","<div style=""font-size:60px;"">+</div>","null","","fixation","","","","","","","","",""
"memory-trial","214","546141","0.0-15.0-1.85","1691","2","""event"",""trial"",""time""
""fullscreenenter"",""1"",""3770""
","
","
","""event"",""trial"",""time""
""fullscreenenter"",""1"",""3770""
","
","","","","","","1295.300000011921","images/apple1.png","","","memory_trial","4","definitely_new","","","","","","",""
"html-keyboard-response","215","546642","0.0-15.0-0.86","1691","2","""event"",""trial"",""time""
""fullscreenenter"",""1"",""3770""
","
","
","""event"",""trial"",""time""
""fullscreenenter"",""1"",""3770""
","
","","","","","","null","<div style=""font-size:60px;"">+</div>","null","","fixation","","","","","","","","",""
"memory-trial","216","549517","0.0-15.0-1.86","1691","2","""event"",""trial"",""time""
""fullscreenenter"",""1"",""3770""
","
","
","""event"",""trial"",""time""
""fullscreenenter"",""1"",""3770""
","
","","","","","","1868.300000011921","images/rabbit5.png","","","memory_trial","3","maybe_new","","","","","","",""
"html-keyboard-response","217","550022","0.0-15.0-0.87","1691","2","""event"",""trial"",""time""
""fullscreenenter"",""1"",""3770""
","
","
","""event"",""trial"",""time""
""fullscreenenter"",""1"",""3770""
","
","","","","","","null","<div style=""font-size:60px;"">+</div>","null","","fixation","","","","","","","","",""
"memory-trial","218","553165","0.0-15.0-1.87","1691","2","""event"",""trial"",""time""
""fullscreenenter"",""1"",""3770""
","
","
","""event"",""trial"",""time""
""fullscreenenter"",""1"",""3770""
","
","","","","","","2137.2000000476837","images/goat5.png","","","memory_trial","3","maybe_new","","","","","","",""
"html-keyboard-response","219","553671","0.0-15.0-0.88","1691","2","""event"",""trial"",""time""
""fullscreenenter"",""1"",""3770""
","
","
","""event"",""trial"",""time""
""fullscreenenter"",""1"",""3770""
","
","","","","","","null","<div style=""font-size:60px;"">+</div>","null","","fixation","","","","","","","","",""
"memory-trial","220","556797","0.0-15.0-1.88","1691","2","""event"",""trial"",""time""
""fullscreenenter"",""1"",""3770""
","
","
","""event"",""trial"",""time""
""fullscreenenter"",""1"",""3770""
","
","","","","","","2116.699999988079","images/bed2.png","","","memory_trial","4","definitely_new","","","","","","",""
"html-keyboard-response","221","557303","0.0-15.0-0.89","1691","2","""event"",""trial"",""time""
""fullscreenenter"",""1"",""3770""
","
","
","""event"",""trial"",""time""
""fullscreenenter"",""1"",""3770""
","
","","","","","","null","<div style=""font-size:60px;"">+</div>","null","","fixation","","","","","","","","",""
"memory-trial","222","559442","0.0-15.0-1.89","1691","2","""event"",""trial"",""time""
""fullscreenenter"",""1"",""3770""
","
","
","""event"",""trial"",""time""
""fullscreenenter"",""1"",""3770""
","
","","","","","","1132.300000011921","images/horse2.png","","","memory_trial","4","definitely_new","","","","","","",""
"html-keyboard-response","223","559943","0.0-15.0-0.90","1691","2","""event"",""trial"",""time""
""fullscreenenter"",""1"",""3770""
","
","
","""event"",""trial"",""time""
""fullscreenenter"",""1"",""3770""
","
","","","","","","null","<div style=""font-size:60px;"">+</div>","null","","fixation","","","","","","","","",""
"memory-trial","224","562599","0.0-15.0-1.90","1691","2","""event"",""trial"",""time""
""fullscreenenter"",""1"",""3770""
","
","
","""event"",""trial"",""time""
""fullscreenenter"",""1"",""3770""
","
","","","","","","1650.5","images/feline3.png","","","memory_trial","3","maybe_new","","","","","","",""
"html-keyboard-response","225","563106","0.0-15.0-0.91","1691","2","""event"",""trial"",""time""
""fullscreenenter"",""1"",""3770""
","
","
","""event"",""trial"",""time""
""fullscreenenter"",""1"",""3770""
","
","","","","","","null","<div style=""font-size:60px;"">+</div>","null","","fixation","","","","","","","","",""
"memory-trial","226","565450","0.0-15.0-1.91","1691","2","""event"",""trial"",""time""
""fullscreenenter"",""1"",""3770""
","
","
","""event"",""trial"",""time""
""fullscreenenter"",""1"",""3770""
","
","","","","","","1337.0999999642372","images/cactus5.png","","","memory_trial","3","maybe_new","","","","","","",""
"html-keyboard-response","227","565954","0.0-15.0-0.92","1691","2","""event"",""trial"",""time""
""fullscreenenter"",""1"",""3770""
","
","
","""event"",""trial"",""time""
""fullscreenenter"",""1"",""3770""
","
","","","","","","null","<div style=""font-size:60px;"">+</div>","null","","fixation","","","","","","","","",""
"memory-trial","228","568956","0.0-15.0-1.92","1691","2","""event"",""trial"",""time""
""fullscreenenter"",""1"",""3770""
","
","
","""event"",""trial"",""time""
""fullscreenenter"",""1"",""3770""
","
","","","","","","1999.300000011921","images/rodent5.png","","","memory_trial","2","maybe_old","","","","","","",""
"html-keyboard-response","229","569463","0.0-15.0-0.93","1691","2","""event"",""trial"",""time""
""fullscreenenter"",""1"",""3770""
","
","
","""event"",""trial"",""time""
""fullscreenenter"",""1"",""3770""
","
","","","","","","null","<div style=""font-size:60px;"">+</div>","null","","fixation","","","","","","","","",""
"memory-trial","230","572359","0.0-15.0-1.93","1691","2","""event"",""trial"",""time""
""fullscreenenter"",""1"",""3770""
","
","
","""event"",""trial"",""time""
""fullscreenenter"",""1"",""3770""
","
","","","","","","1890.7000000476837","images/table2.png","","","memory_trial","2","maybe_old","","","","","","",""
"html-keyboard-response","231","572860","0.0-15.0-0.94","1691","2","""event"",""trial"",""time""
""fullscreenenter"",""1"",""3770""
","
","
","""event"",""trial"",""time""
""fullscreenenter"",""1"",""3770""
","
","","","","","","null","<div style=""font-size:60px;"">+</div>","null","","fixation","","","","","","","","",""
"memory-trial","232","577100","0.0-15.0-1.94","1691","2","""event"",""trial"",""time""
""fullscreenenter"",""1"",""3770""
","
","
","""event"",""trial"",""time""
""fullscreenenter"",""1"",""3770""
","
","","","","","","3232.199999988079","images/orange5.png","","","memory_trial","2","maybe_old","","","","","","",""
"html-keyboard-response","233","577607","0.0-15.0-0.95","1691","2","""event"",""trial"",""time""
""fullscreenenter"",""1"",""3770""
","
","
","""event"",""trial"",""time""
""fullscreenenter"",""1"",""3770""
","
","","","","","","null","<div style=""font-size:60px;"">+</div>","null","","fixation","","","","","","","","",""
"memory-trial","234","580236","0.0-15.0-1.95","1691","2","""event"",""trial"",""time""
""fullscreenenter"",""1"",""3770""
","
","
","""event"",""trial"",""time""
""fullscreenenter"",""1"",""3770""
","
","","","","","","1622","images/straw2.png","","","memory_trial","1","definitely_old","","","","","","",""
"html-keyboard-response","235","580743","0.0-15.0-0.96","1691","2","""event"",""trial"",""time""
""fullscreenenter"",""1"",""3770""
","
","
","""event"",""trial"",""time""
""fullscreenenter"",""1"",""3770""
","
","","","","","","null","<div style=""font-size:60px;"">+</div>","null","","fixation","","","","","","","","",""
"memory-trial","236","583463","0.0-15.0-1.96","1691","2","""event"",""trial"",""time""
""fullscreenenter"",""1"",""3770""
","
","
","""event"",""trial"",""time""
""fullscreenenter"",""1"",""3770""
","
","","","","","","1712.1000000238419","images/bed5.png","","","memory_trial","4","definitely_new","","","","","","",""
"html-keyboard-response","237","583966","0.0-15.0-0.97","1691","2","""event"",""trial"",""time""
""fullscreenenter"",""1"",""3770""
","
","
","""event"",""trial"",""time""
""fullscreenenter"",""1"",""3770""
","
","","","","","","null","<div style=""font-size:60px;"">+</div>","null","","fixation","","","","","","","","",""
"memory-trial","238","586780","0.0-15.0-1.97","1691","2","""event"",""trial"",""time""
""fullscreenenter"",""1"",""3770""
","
","
","""event"",""trial"",""time""
""fullscreenenter"",""1"",""3770""
","
","","","","","","1808.3999999761581","images/tree1.png","","","memory_trial","3","maybe_new","","","","","","",""
"html-keyboard-response","239","587281","0.0-15.0-0.98","1691","2","""event"",""trial"",""time""
""fullscreenenter"",""1"",""3770""
","
","
","""event"",""trial"",""time""
""fullscreenenter"",""1"",""3770""
","
","","","","","","null","<div style=""font-size:60px;"">+</div>","null","","fixation","","","","","","","","",""
"memory-trial","240","590556","0.0-15.0-1.98","1691","2","""event"",""trial"",""time""
""fullscreenenter"",""1"",""3770""
","
","
","""event"",""trial"",""time""
""fullscreenenter"",""1"",""3770""
","
","","","","","","2269.800000011921","images/train1.png","","","memory_trial","4","definitely_new","","","","","","",""
"html-keyboard-response","241","591057","0.0-15.0-0.99","1691","2","""event"",""trial"",""time""
""fullscreenenter"",""1"",""3770""
","
","
","""event"",""trial"",""time""
""fullscreenenter"",""1"",""3770""
","
","","","","","","null","<div style=""font-size:60px;"">+</div>","null","","fixation","","","","","","","","",""
"memory-trial","242","593941","0.0-15.0-1.99","1691","2","""event"",""trial"",""time""
""fullscreenenter"",""1"",""3770""
","
","
","""event"",""trial"",""time""
""fullscreenenter"",""1"",""3770""
","
","","","","","","1876.9000000357628","images/sheep2.png","","","memory_trial","3","maybe_new","","","","","","",""
"html-keyboard-response","243","594444","0.0-15.0-0.100","1691","2","""event"",""trial"",""time""
""fullscreenenter"",""1"",""3770""
","
","
","""event"",""trial"",""time""
""fullscreenenter"",""1"",""3770""
","
","","","","","","null","<div style=""font-size:60px;"">+</div>","null","","fixation","","","","","","","","",""
"memory-trial","244","596913","0.0-15.0-1.100","1691","2","""event"",""trial"",""time""
""fullscreenenter"",""1"",""3770""
","
","
","""event"",""trial"",""time""
""fullscreenenter"",""1"",""3770""
","
","","","","","","1463.1000000238419","images/sheep3.png","","","memory_trial","3","maybe_new","","","","","","",""
"html-keyboard-response","245","597418","0.0-15.0-0.101","1691","2","""event"",""trial"",""time""
""fullscreenenter"",""1"",""3770""
","
","
","""event"",""trial"",""time""
""fullscreenenter"",""1"",""3770""
","
","","","","","","null","<div style=""font-size:60px;"">+</div>","null","","fixation","","","","","","","","",""
"memory-trial","246","601053","0.0-15.0-1.101","1691","2","""event"",""trial"",""time""
""fullscreenenter"",""1"",""3770""
","
","
","""event"",""trial"",""time""
""fullscreenenter"",""1"",""3770""
","
","","","","","","2631.300000011921","images/plane5.png","","","memory_trial","4","definitely_new","","","","","","",""
"html-button-response","247","603837","0.0-15.0-2.101-0.101","1691","2","""event"",""trial"",""time""
""fullscreenenter"",""1"",""3770""
","
","
","""event"",""trial"",""time""
""fullscreenenter"",""1"",""3770""
","
","","","","","","2782.5","<p> Take a break! </p><p> Click the button to continue. </p>","0","","break","","","","","","","","",""
"html-keyboard-response","248","604338","0.0-15.0-0.102","1691","2","""event"",""trial"",""time""
""fullscreenenter"",""1"",""3770""
","
","
","""event"",""trial"",""time""
""fullscreenenter"",""1"",""3770""
","
","","","","","","null","<div style=""font-size:60px;"">+</div>","null","","fixation","","","","","","","","",""
"memory-trial","249","607484","0.0-15.0-1.102","1691","2","""event"",""trial"",""time""
""fullscreenenter"",""1"",""3770""
","
","
","""event"",""trial"",""time""
""fullscreenenter"",""1"",""3770""
","
","","","","","","2139.199999988079","images/rabbit3.png","","","memory_trial","4","definitely_new","","","","","","",""
"html-keyboard-response","250","607989","0.0-15.0-0.103","1691","2","""event"",""trial"",""time""
""fullscreenenter"",""1"",""3770""
","
","
","""event"",""trial"",""time""
""fullscreenenter"",""1"",""3770""
","
","","","","","","null","<div style=""font-size:60px;"">+</div>","null","","fixation","","","","","","","","",""
"memory-trial","251","610593","0.0-15.0-1.103","1691","2","""event"",""trial"",""time""
""fullscreenenter"",""1"",""3770""
","
","
","""event"",""trial"",""time""
""fullscreenenter"",""1"",""3770""
","
","","","","","","1600.3999999761581","images/chair1.png","","","memory_trial","4","definitely_new","","","","","","",""
"html-keyboard-response","252","611099","0.0-15.0-0.104","1691","2","""event"",""trial"",""time""
""fullscreenenter"",""1"",""3770""
","
","
","""event"",""trial"",""time""
""fullscreenenter"",""1"",""3770""
","
","","","","","","null","<div style=""font-size:60px;"">+</div>","null","","fixation","","","","","","","","",""
"memory-trial","253","613665","0.0-15.0-1.104","1691","2","""event"",""trial"",""time""
""fullscreenenter"",""1"",""3770""
","
","
","""event"",""trial"",""time""
""fullscreenenter"",""1"",""3770""
","
","","","","","","1558.5","images/cow2.png","","","memory_trial","3","maybe_new","","","","","","",""
"html-keyboard-response","254","614168","0.0-15.0-0.105","1691","2","""event"",""trial"",""time""
""fullscreenenter"",""1"",""3770""
","
","
","""event"",""trial"",""time""
""fullscreenenter"",""1"",""3770""
","
","","","","","","null","<div style=""font-size:60px;"">+</div>","null","","fixation","","","","","","","","",""
"memory-trial","255","616459","0.0-15.0-1.105","1691","2","""event"",""trial"",""time""
""fullscreenenter"",""1"",""3770""
","
","
","""event"",""trial"",""time""
""fullscreenenter"",""1"",""3770""
","
","","","","","","1287.1000000238419","images/dog4.png","","","memory_trial","4","definitely_new","","","","","","",""
"html-keyboard-response","256","616963","0.0-15.0-0.106","1691","2","""event"",""trial"",""time""
""fullscreenenter"",""1"",""3770""
","
","
","""event"",""trial"",""time""
""fullscreenenter"",""1"",""3770""
","
","","","","","","null","<div style=""font-size:60px;"">+</div>","null","","fixation","","","","","","","","",""
"memory-trial","257","619446","0.0-15.0-1.106","1691","2","""event"",""trial"",""time""
""fullscreenenter"",""1"",""3770""
","
","
","""event"",""trial"",""time""
""fullscreenenter"",""1"",""3770""
","
","","","","","","1477.9000000357628","images/sheep1.png","","","memory_trial","3","maybe_new","","","","","","",""
"html-keyboard-response","258","619949","0.0-15.0-0.107","1691","2","""event"",""trial"",""time""
""fullscreenenter"",""1"",""3770""
","
","
","""event"",""trial"",""time""
""fullscreenenter"",""1"",""3770""
","
","","","","","","null","<div style=""font-size:60px;"">+</div>","null","","fixation","","","","","","","","",""
"memory-trial","259","622589","0.0-15.0-1.107","1691","2","""event"",""trial"",""time""
""fullscreenenter"",""1"",""3770""
","
","
","""event"",""trial"",""time""
""fullscreenenter"",""1"",""3770""
","
","","","","","","1634.300000011921","images/cactus1.png","","","memory_trial","3","maybe_new","","","","","","",""
"html-keyboard-response","260","623094","0.0-15.0-0.108","1691","2","""event"",""trial"",""time""
""fullscreenenter"",""1"",""3770""
","
","
","""event"",""trial"",""time""
""fullscreenenter"",""1"",""3770""
","
","","","","","","null","<div style=""font-size:60px;"">+</div>","null","","fixation","","","","","","","","",""
"memory-trial","261","624982","0.0-15.0-1.108","1691","2","""event"",""trial"",""time""
""fullscreenenter"",""1"",""3770""
","
","
","""event"",""trial"",""time""
""fullscreenenter"",""1"",""3770""
","
","","","","","","882.3000000119209","images/tree5.png","","","memory_trial","4","definitely_new","","","","","","",""
"html-keyboard-response","262","625484","0.0-15.0-0.109","1691","2","""event"",""trial"",""time""
""fullscreenenter"",""1"",""3770""
","
","
","""event"",""trial"",""time""
""fullscreenenter"",""1"",""3770""
","
","","","","","","null","<div style=""font-size:60px;"">+</div>","null","","fixation","","","","","","","","",""
"memory-trial","263","628673","0.0-15.0-1.109","1691","2","""event"",""trial"",""time""
""fullscreenenter"",""1"",""3770""
","
","
","""event"",""trial"",""time""
""fullscreenenter"",""1"",""3770""
","
","","","","","","2182","images/cow3.png","","","memory_trial","2","maybe_old","","","","","","",""
"html-keyboard-response","264","629179","0.0-15.0-0.110","1691","2","""event"",""trial"",""time""
""fullscreenenter"",""1"",""3770""
","
","
","""event"",""trial"",""time""
""fullscreenenter"",""1"",""3770""
","
","","","","","","null","<div style=""font-size:60px;"">+</div>","null","","fixation","","","","","","","","",""
"memory-trial","265","631840","0.0-15.0-1.110","1691","2","""event"",""trial"",""time""
""fullscreenenter"",""1"",""3770""
","
","
","""event"",""trial"",""time""
""fullscreenenter"",""1"",""3770""
","
","","","","","","1655","images/bush2.png","","","memory_trial","3","maybe_new","","","","","","",""
"html-keyboard-response","266","632344","0.0-15.0-0.111","1691","2","""event"",""trial"",""time""
""fullscreenenter"",""1"",""3770""
","
","
","""event"",""trial"",""time""
""fullscreenenter"",""1"",""3770""
","
","","","","","","null","<div style=""font-size:60px;"">+</div>","null","","fixation","","","","","","","","",""
"memory-trial","267","635046","0.0-15.0-1.111","1691","2","""event"",""trial"",""time""
""fullscreenenter"",""1"",""3770""
","
","
","""event"",""trial"",""time""
""fullscreenenter"",""1"",""3770""
","
","","","","","","1693.800000011921","images/cow4.png","","","memory_trial","3","maybe_new","","","","","","",""
"html-keyboard-response","268","635550","0.0-15.0-0.112","1691","2","""event"",""trial"",""time""
""fullscreenenter"",""1"",""3770""
","
","
","""event"",""trial"",""time""
""fullscreenenter"",""1"",""3770""
","
","","","","","","null","<div style=""font-size:60px;"">+</div>","null","","fixation","","","","","","","","",""
"memory-trial","269","638514","0.0-15.0-1.112","1691","2","""event"",""trial"",""time""
""fullscreenenter"",""1"",""3770""
","
","
","""event"",""trial"",""time""
""fullscreenenter"",""1"",""3770""
","
","","","","","","1959.0999999642372","images/banana2.png","","","memory_trial","4","definitely_new","","","","","","",""
"html-keyboard-response","270","639019","0.0-15.0-0.113","1691","2","""event"",""trial"",""time""
""fullscreenenter"",""1"",""3770""
","
","
","""event"",""trial"",""time""
""fullscreenenter"",""1"",""3770""
","
","","","","","","null","<div style=""font-size:60px;"">+</div>","null","","fixation","","","","","","","","",""
"memory-trial","271","641659","0.0-15.0-1.113","1691","2","""event"",""trial"",""time""
""fullscreenenter"",""1"",""3770""
","
","
","""event"",""trial"",""time""
""fullscreenenter"",""1"",""3770""
","
","","","","","","1635.1000000238419","images/straw4.png","","","memory_trial","3","maybe_new","","","","","","",""
"html-keyboard-response","272","642163","0.0-15.0-0.114","1691","2","""event"",""trial"",""time""
""fullscreenenter"",""1"",""3770""
","
","
","""event"",""trial"",""time""
""fullscreenenter"",""1"",""3770""
","
","","","","","","null","<div style=""font-size:60px;"">+</div>","null","","fixation","","","","","","","","",""
"memory-trial","273","645106","0.0-15.0-1.114","1691","2","""event"",""trial"",""time""
""fullscreenenter"",""1"",""3770""
","
","
","""event"",""trial"",""time""
""fullscreenenter"",""1"",""3770""
","
","","","","","","1939.300000011921","images/bed3.png","","","memory_trial","4","definitely_new","","","","","","",""
"html-keyboard-response","274","645610","0.0-15.0-0.115","1691","2","""event"",""trial"",""time""
""fullscreenenter"",""1"",""3770""
","
","
","""event"",""trial"",""time""
""fullscreenenter"",""1"",""3770""
","
","","","","","","null","<div style=""font-size:60px;"">+</div>","null","","fixation","","","","","","","","",""
"memory-trial","275","648080","0.0-15.0-1.115","1691","2","""event"",""trial"",""time""
""fullscreenenter"",""1"",""3770""
","
","
","""event"",""trial"",""time""
""fullscreenenter"",""1"",""3770""
","
","","","","","","1461.6000000238419","images/tree2.png","","","memory_trial","4","definitely_new","","","","","","",""
"html-keyboard-response","276","648585","0.0-15.0-0.116","1691","2","""event"",""trial"",""time""
""fullscreenenter"",""1"",""3770""
","
","
","""event"",""trial"",""time""
""fullscreenenter"",""1"",""3770""
","
","","","","","","null","<div style=""font-size:60px;"">+</div>","null","","fixation","","","","","","","","",""
"memory-trial","277","651141","0.0-15.0-1.116","1691","2","""event"",""trial"",""time""
""fullscreenenter"",""1"",""3770""
","
","
","""event"",""trial"",""time""
""fullscreenenter"",""1"",""3770""
","
","","","","","","1551.8999999761581","images/horse5.png","","","memory_trial","3","maybe_new","","","","","","",""
"html-keyboard-response","278","651643","0.0-15.0-0.117","1691","2","""event"",""trial"",""time""
""fullscreenenter"",""1"",""3770""
","
","
","""event"",""trial"",""time""
""fullscreenenter"",""1"",""3770""
","
","","","","","","null","<div style=""font-size:60px;"">+</div>","null","","fixation","","","","","","","","",""
"memory-trial","279","653915","0.0-15.0-1.117","1691","2","""event"",""trial"",""time""
""fullscreenenter"",""1"",""3770""
","
","
","""event"",""trial"",""time""
""fullscreenenter"",""1"",""3770""
","
","","","","","","1265.199999988079","images/dog2.png","","","memory_trial","4","definitely_new","","","","","","",""
"html-keyboard-response","280","654418","0.0-15.0-0.118","1691","2","""event"",""trial"",""time""
""fullscreenenter"",""1"",""3770""
","
","
","""event"",""trial"",""time""
""fullscreenenter"",""1"",""3770""
","
","","","","","","null","<div style=""font-size:60px;"">+</div>","null","","fixation","","","","","","","","",""
"memory-trial","281","657600","0.0-15.0-1.118","1691","2","""event"",""trial"",""time""
""fullscreenenter"",""1"",""3770""
","
","
","""event"",""trial"",""time""
""fullscreenenter"",""1"",""3770""
","
","","","","","","2176.300000011921","images/truck3.png","","","memory_trial","1","definitely_old","","","","","","",""
"html-keyboard-response","282","658102","0.0-15.0-0.119","1691","2","""event"",""trial"",""time""
""fullscreenenter"",""1"",""3770""
","
","
","""event"",""trial"",""time""
""fullscreenenter"",""1"",""3770""
","
","","","","","","null","<div style=""font-size:60px;"">+</div>","null","","fixation","","","","","","","","",""
"memory-trial","283","661909","0.0-15.0-1.119","1691","2","""event"",""trial"",""time""
""fullscreenenter"",""1"",""3770""
","
","
","""event"",""trial"",""time""
""fullscreenenter"",""1"",""3770""
","
","","","","","","2798.7000000476837","images/rodent2.png","","","memory_trial","3","maybe_new","","","","","","",""
"preload","284","664564","0.0-16.0","1691","2","""event"",""trial"",""time""
""fullscreenenter"",""1"",""3770""
","
","
","""event"",""trial"",""time""
""fullscreenenter"",""1"",""3770""
","
","true","false","[]","[]","[]","","","","","","","","","","","","","",""
"learning-instructions","285","669257","0.0-17.0-0.0-0.0-0.0","1691","2","""event"",""trial"",""time""
""fullscreenenter"",""1"",""3770""
","
","
","""event"",""trial"",""time""
""fullscreenenter"",""1"",""3770""
","
","","","","","","1892.1000000238419","<p> We're now going to ask you to buy fruit again. </p>","","0","instructions","","","","","","","","",""
"learning-instructions","286","675206","0.0-17.0-0.0-0.0-0.1","1691","2","""event"",""trial"",""time""
""fullscreenenter"",""1"",""3770""
","
","
","""event"",""trial"",""time""
""fullscreenenter"",""1"",""3770""
","
","","","","","","1099.6000000238419","<p> On each trial, you will see a fruit. Select the store where you think you can buy the fruit. </p>","","0","instructions","","","","","","","","",""
"learning-instructions","287","684271","0.0-17.0-0.0-0.0-0.2","1691","2","""event"",""trial"",""time""
""fullscreenenter"",""1"",""3770""
","
","
","""event"",""trial"",""time""
""fullscreenenter"",""1"",""3770""
","
","","","","","","2004.7000000476837","<p> To make your selection, think about what you learned last week. You will NOT receive any feedback about your choice. </p>","","0","instructions","","","","","","","","",""
"learning-instructions","288","695364","0.0-17.0-0.0-0.0-0.3","1691","2","""event"",""trial"",""time""
""fullscreenenter"",""1"",""3770""
","
","
","""event"",""trial"",""time""
""fullscreenenter"",""1"",""3770""
","
","","","","","","3502.399999976158","<p> You should use the 1 key to select the store on the left, the 2 key to select the store in the middle, and the 3 key to select the store on the right. </p><br><div class=""choice-mem-instructions-grid""> <div class=""choice-mem-option""><img src=""images/fruit_choice1.png"" class=""choice-mem-option-img"" stage=""instructions"" position=""0"" ><div class=""choice-mem-option-text""> Press ""1."" </div></div><div class=""choice-mem-option""><img src=""images/fruit_choice2.png"" class=""choice-mem-option-img"" stage=""instructions"" position=""1"" ><div class=""choice-mem-option-text""> Press ""2."" </div></div><div class=""choice-mem-option""><img src=""images/fruit_choice3.png"" class=""choice-mem-option-img"" stage=""instructions"" position=""2"" ><div class=""choice-mem-option-text""> Press ""3."" </div></div></div>","","0","instructions","","","","","","","","",""
"learning-instructions","289","703053","0.0-17.0-0.0-0.0-0.4","1691","2","""event"",""trial"",""time""
""fullscreenenter"",""1"",""3770""
","
","
","""event"",""trial"",""time""
""fullscreenenter"",""1"",""3770""
","
","","","","","","1422.199999988079","<p> You will have 10 seconds to make each selection. Try to respond before time runs out! </p>","","0","instructions","","","","","","","","",""
"learning-instructions","290","706563","0.0-17.0-0.0-1.0","1691","2","""event"",""trial"",""time""
""fullscreenenter"",""1"",""3770""
","
","
","""event"",""trial"",""time""
""fullscreenenter"",""1"",""3770""
","
","","","","","","1449.5","<p> You are now ready to begin the game. </p>","","0","instructions","","","","","","","","",""
"html-keyboard-response","291","707172","0.0-17.0-0.0-2.0-0.0","1691","2","""event"",""trial"",""time""
""fullscreenenter"",""1"",""3770""
","
","
","""event"",""trial"",""time""
""fullscreenenter"",""1"",""3770""
","
","","","","","","null","<div style=""font-size:60px;"">+</div>","null","","fixation","","","","","","","","",""
"choice-memory-trial","292","711275","0.0-17.0-0.0-2.0-1.0","1691","2","""event"",""trial"",""time""
""fullscreenenter"",""1"",""3770""
","
","
","""event"",""trial"",""time""
""fullscreenenter"",""1"",""3770""
","
