"trial_type","trial_index","time_elapsed","internal_node_id","subject_id","task_version","interactions","blur_events","focus_events","fullscreenenter_events","fullscreenexit_events","success","timeout","failed_images","failed_audio","failed_video","rt","stimulus","response","button_pressed","task_part","key_press","answer","correct","left_choice","middle_choice","right_choice","choice_positions","option_selected","block"
"pavlovia","0","7","0.0-0.0","1847","2","""event"",""trial"",""time""
""fullscreenenter"",""1"",""2018""
","
","
","""event"",""trial"",""time""
""fullscreenenter"",""1"",""2018""
","
","","","","","","","","","","","","","","","","","","",""
"fullscreen","1","3006","0.0-1.0","1847","2","""event"",""trial"",""time""
""fullscreenenter"",""1"",""2018""
","
","
","""event"",""trial"",""time""
""fullscreenenter"",""1"",""2018""
","
","true","","","","","","","","","","","","","","","","","",""
"preload","2","4125","0.0-2.0","1847","2","""event"",""trial"",""time""
""fullscreenenter"",""1"",""2018""
","
","
","""event"",""trial"",""time""
""fullscreenenter"",""1"",""2018""
","
","true","false","[]","[]","[]","","","","","","","","","","","","","",""
"audio-keyboard-response","3","5046","0.0-3.0","1847","2","""event"",""trial"",""time""
""fullscreenenter"",""1"",""2018""
","
","
","""event"",""trial"",""time""
""fullscreenenter"",""1"",""2018""
","
","","","","","","920.0000000000003","audio/beep_loop.wav","audiovolumeup","","","","","","","","","","",""
"audio-button-response","4","8446","0.0-4.0","1847","2","""event"",""trial"",""time""
""fullscreenenter"",""1"",""2018""
","
","
","""event"",""trial"",""time""
""fullscreenenter"",""1"",""2018""
","
","","","","","","3400","audio/turtle.wav","2","","","","","","","","","","",""
"audio-button-response","5","11779","0.0-5.0","1847","2","""event"",""trial"",""time""
""fullscreenenter"",""1"",""2018""
","
","
","""event"",""trial"",""time""
""fullscreenenter"",""1"",""2018""
","
","","","","","","2320","audio/shark.wav","2","","","","","","","","","","",""
"preload","6","19527","0.0-6.0","1847","2","""event"",""trial"",""time""
""fullscreenenter"",""1"",""2018""
","
","
","""event"",""trial"",""time""
""fullscreenenter"",""1"",""2018""
","
","true","false","[]","[]","[]","","","","","","","","","","","","","",""
"learning-instructions","7","27645","0.0-7.0-0.0","1847","2","""event"",""trial"",""time""
""fullscreenenter"",""1"",""2018""
","
","
","""event"",""trial"",""time""
""fullscreenenter"",""1"",""2018""
","
","","","","","","3312.4000000059605","<p> Welcome back! </p><p> Last week, you had to make choices about lots of different items.  </p>","","0","instructions","","","","","","","","",""
"learning-instructions","8","32085","0.0-7.0-0.1","1847","2","""event"",""trial"",""time""
""fullscreenenter"",""1"",""2018""
","
","
","""event"",""trial"",""time""
""fullscreenenter"",""1"",""2018""
","
","","","","","","132.19999998807907","<p> Today, we are going to ask you to try to remember all the items. </p>","","0","instructions","","","","","","","","",""
"learning-instructions","9","42631","0.0-7.0-0.2","1847","2","""event"",""trial"",""time""
""fullscreenenter"",""1"",""2018""
","
","
","""event"",""trial"",""time""
""fullscreenenter"",""1"",""2018""
","
","","","","","","409.09999999403954","<p> On every trial, you will see an image. </p><p> The image may be an OLD image you saw during the games last week or it may be a NEW image that was not presented. </p>","","0","instructions","","","","","","","","",""
"learning-instructions","10","51656","0.0-7.0-0.3","1847","2","""event"",""trial"",""time""
""fullscreenenter"",""1"",""2018""
","
","
","""event"",""trial"",""time""
""fullscreenenter"",""1"",""2018""
","
","","","","","","501.69999998807907","<p> You need to select whether the image is:  </p><p>  'Definitely old', 'Maybe old', 'Maybe new', or 'Definitely new.'  </p><div class=""mem-choice-instructions-grid""><div class=""choice-option"" id=""choice-option-1"" ><img src=""images/definitely_old_1.png"" id=""choice-option-img-1"" class=""choice-option-img"" stage=""1""></div><div class=""choice-option"" id=""choice-option-2"" ><img src=""images/maybe_old_1.png"" id=""choice-option-img-2"" class=""choice-option-img"" stage=""1""></div><div class=""choice-option"" id=""choice-option-3"" ><img src=""images/maybe_new_1.png"" id=""choice-option-img-3"" class=""choice-option-img"" stage=""1""></div><div class=""choice-option"" id=""choice-option-4"" > <img src=""images/definitely_new_1.png"" id=""choice-option-img-4"" class=""choice-option-img"" stage=""1""></div></div>","","0","instructions","","","","","","","","",""
"learning-instructions","11","58745","0.0-7.0-0.4","1847","2","""event"",""trial"",""time""
""fullscreenenter"",""1"",""2018""
","
","
","""event"",""trial"",""time""
""fullscreenenter"",""1"",""2018""
","
","","","","","","381.5","<p> You should use the 1, 2, 3, and 4 keys to make your responses.  </p><div class=""mem-choice-instructions-grid""><div class=""choice-option"" id=""choice-option-1"" ><img src=""images/definitely_old.png"" id=""choice-option-img-1"" class=""choice-option-img"" stage=""1""></div><div class=""choice-option"" id=""choice-option-2"" ><img src=""images/maybe_old.png"" id=""choice-option-img-2"" class=""choice-option-img"" stage=""1""></div><div class=""choice-option"" id=""choice-option-3"" ><img src=""images/maybe_new.png"" id=""choice-option-img-3"" class=""choice-option-img"" stage=""1""></div><div class=""choice-option"" id=""choice-option-4"" > <img src=""images/definitely_new.png"" id=""choice-option-img-4"" class=""choice-option-img"" stage=""1""></div></div>","","0","instructions","","","","","","","","",""
"learning-instructions","12","65923","0.0-7.0-0.5","1847","2","""event"",""trial"",""time""
""fullscreenenter"",""1"",""2018""
","
","
","""event"",""trial"",""time""
""fullscreenenter"",""1"",""2018""
","
","","","","","","399.90000000596046","<p> You will have 10 seconds to make each response.  </p><p>  Make sure to respond before time runs out! </p>","","0","instructions","","","","","","","","",""
"learning-instructions","13","73672","0.0-7.0-0.6","1847","2","""event"",""trial"",""time""
""fullscreenenter"",""1"",""2018""
","
","
","""event"",""trial"",""time""
""fullscreenenter"",""1"",""2018""
","
","","","","","","158.5","<p> Today, you will see each image ONCE only.  </p><p>  That means none of the images will repeat. </p>","","0","instructions","","","","","","","","",""
"learning-instructions","14","86708","0.0-7.0-0.7","1847","2","""event"",""trial"",""time""
""fullscreenenter"",""1"",""2018""
","
","
","""event"",""trial"",""time""
""fullscreenenter"",""1"",""2018""
","
","","","","","","355.30000001192093","<p> Before you play the real game, it is time to practice. </p><p>  Just like in the real game, some of the images in the practice will be ones you have seen before. </p><p>  Others will be entirely new. </p>","","0","instructions","","","","","","","","",""
"html-button-response","15","90025","0.0-8.0","1847","2","""event"",""trial"",""time""
""fullscreenenter"",""1"",""2018""
","
","
","""event"",""trial"",""time""
""fullscreenenter"",""1"",""2018""
","
","","","","","","3210.199999988079","<p> Ready to practice? </p><p> Remember, use the 1, 2, 3, and 4 keys to make your responses. </p>","0","","instructions","","","","","","","","",""
"html-keyboard-response","16","90630","0.0-9.0-0.0","1847","2","""event"",""trial"",""time""
""fullscreenenter"",""1"",""2018""
","
","
","""event"",""trial"",""time""
""fullscreenenter"",""1"",""2018""
","
","","","","","","null","<div style=""font-size:60px;"">+</div>","null","","fixation","","","","","","","","",""
"memory-trial","17","94064","0.0-9.0-1.0","1847","2","""event"",""trial"",""time""
""fullscreenenter"",""1"",""2018""
","
","
","""event"",""trial"",""time""
""fullscreenenter"",""1"",""2018""
","
","","","","","","2413.300000011921","images/racket1.png","","","practice","1","definitely_old","","","","","","",""
"html-keyboard-response","18","94569","0.0-9.0-0.1","1847","2","""event"",""trial"",""time""
""fullscreenenter"",""1"",""2018""
","
","
","""event"",""trial"",""time""
""fullscreenenter"",""1"",""2018""
","
","","","","","","null","<div style=""font-size:60px;"">+</div>","null","","fixation","","","","","","","","",""
"memory-trial","19","97712","0.0-9.0-1.1","1847","2","""event"",""trial"",""time""
""fullscreenenter"",""1"",""2018""
","
","
","""event"",""trial"",""time""
""fullscreenenter"",""1"",""2018""
","
","","","","","","2120.699999988079","images/ball2.png","","","practice","2","maybe_old","","","","","","",""
"html-keyboard-response","20","98222","0.0-9.0-0.2","1847","2","""event"",""trial"",""time""
""fullscreenenter"",""1"",""2018""
","
","
","""event"",""trial"",""time""
""fullscreenenter"",""1"",""2018""
","
","","","","","","null","<div style=""font-size:60px;"">+</div>","null","","fixation","","","","","","","","",""
"memory-trial","21","102113","0.0-9.0-1.2","1847","2","""event"",""trial"",""time""
""fullscreenenter"",""1"",""2018""
","
","
","""event"",""trial"",""time""
""fullscreenenter"",""1"",""2018""
","
","","","","","","2886.5","images/ball1.png","","","practice","2","maybe_old","","","","","","",""
"html-keyboard-response","22","102632","0.0-9.0-0.3","1847","2","""event"",""trial"",""time""
""fullscreenenter"",""1"",""2018""
","
","
","""event"",""trial"",""time""
""fullscreenenter"",""1"",""2018""
","
","","","","","","null","<div style=""font-size:60px;"">+</div>","null","","fixation","","","","","","","","",""
"memory-trial","23","105133","0.0-9.0-1.3","1847","2","""event"",""trial"",""time""
""fullscreenenter"",""1"",""2018""
","
","
","""event"",""trial"",""time""
""fullscreenenter"",""1"",""2018""
","
","","","","","","1493.5999999940395","images/ball4.png","","","practice","4","definitely_new","","","","","","",""
"html-keyboard-response","24","105643","0.0-9.0-0.4","1847","2","""event"",""trial"",""time""
""fullscreenenter"",""1"",""2018""
","
","
","""event"",""trial"",""time""
""fullscreenenter"",""1"",""2018""
","
","","","","","","null","<div style=""font-size:60px;"">+</div>","null","","fixation","","","","","","","","",""
"memory-trial","25","108542","0.0-9.0-1.4","1847","2","""event"",""trial"",""time""
""fullscreenenter"",""1"",""2018""
","
","
","""event"",""trial"",""time""
""fullscreenenter"",""1"",""2018""
","
","","","","","","1891","images/racket4.png","","","practice","4","definitely_new","","","","","","",""
"html-keyboard-response","26","109053","0.0-9.0-0.5","1847","2","""event"",""trial"",""time""
""fullscreenenter"",""1"",""2018""
","
","
","""event"",""trial"",""time""
""fullscreenenter"",""1"",""2018""
","
","","","","","","null","<div style=""font-size:60px;"">+</div>","null","","fixation","","","","","","","","",""
"memory-trial","27","111524","0.0-9.0-1.5","1847","2","""event"",""trial"",""time""
""fullscreenenter"",""1"",""2018""
","
","
","""event"",""trial"",""time""
""fullscreenenter"",""1"",""2018""
","
","","","","","","1452.300000011921","images/racket2.png","","","practice","4","definitely_new","","","","","","",""
"html-keyboard-response","28","112032","0.0-9.0-0.6","1847","2","""event"",""trial"",""time""
""fullscreenenter"",""1"",""2018""
","
","
","""event"",""trial"",""time""
""fullscreenenter"",""1"",""2018""
","
","","","","","","null","<div style=""font-size:60px;"">+</div>","null","","fixation","","","","","","","","",""
"memory-trial","29","114242","0.0-9.0-1.6","1847","2","""event"",""trial"",""time""
""fullscreenenter"",""1"",""2018""
","
","
","""event"",""trial"",""time""
""fullscreenenter"",""1"",""2018""
","
","","","","","","1193.2000000178814","images/ball3.png","","","practice","4","definitely_new","","","","","","",""
"html-keyboard-response","30","114762","0.0-9.0-0.7","1847","2","""event"",""trial"",""time""
""fullscreenenter"",""1"",""2018""
","
","
","""event"",""trial"",""time""
""fullscreenenter"",""1"",""2018""
","
","","","","","","null","<div style=""font-size:60px;"">+</div>","null","","fixation","","","","","","","","",""
"memory-trial","31","117210","0.0-9.0-1.7","1847","2","""event"",""trial"",""time""
""fullscreenenter"",""1"",""2018""
","
","
","""event"",""trial"",""time""
""fullscreenenter"",""1"",""2018""
","
","","","","","","1443.7999999821186","images/racket3.png","","","practice","1","definitely_old","","","","","","",""
"learning-instructions","32","126390","0.0-10.0-0.0","1847","2","""event"",""trial"",""time""
""fullscreenenter"",""1"",""2018""
","
","
","""event"",""trial"",""time""
""fullscreenenter"",""1"",""2018""
","
","","","","","","1245","<p> Great! You have completed the practice. </p><p> Before you start, we're going to ask you a few questions about how the game works.  </p>","","0","instructions","","","","","","","","",""
"preload","33","130165","0.0-11.0","1847","2","""event"",""trial"",""time""
""fullscreenenter"",""1"",""2018""
","
","
","""event"",""trial"",""time""
""fullscreenenter"",""1"",""2018""
","
","true","false","[]","[]","[]","","","","","","","","","","","","","",""
"comp-q","34","136424","0.0-12.0-0.0","1847","2","""event"",""trial"",""time""
""fullscreenenter"",""1"",""2018""
","
","
","""event"",""trial"",""time""
""fullscreenenter"",""1"",""2018""
","
","","","","","","428.90000000596046","<p> <b> True or False? </b> </p><p> In this game, you will only see each image once. </p>","","0","comp_question","","","true","","","","","",""
"comp-q","35","144887","0.0-12.0-1.0","1847","2","""event"",""trial"",""time""
""fullscreenenter"",""1"",""2018""
","
","
","""event"",""trial"",""time""
""fullscreenenter"",""1"",""2018""
","
","","","","","","2100.5999999940395","<p> <b> That's right! </b> You will see many different images <i> one time each </i> in this game. </p>","","0","comp_answer","","","","","","","","",""
"comp-q","36","152366","0.0-12.0-0.1","1847","2","""event"",""trial"",""time""
""fullscreenenter"",""1"",""2018""
","
","
","""event"",""trial"",""time""
""fullscreenenter"",""1"",""2018""
","
","","","","","","1668.199999988079","<p> <b> True or False? </b> </p><p> You should use the mouse and click to make your response. </p>","","1","comp_question","","","true","","","","","",""
"comp-q","37","161245","0.0-12.0-1.1","1847","2","""event"",""trial"",""time""
""fullscreenenter"",""1"",""2018""
","
","
","""event"",""trial"",""time""
""fullscreenenter"",""1"",""2018""
","
","","","","","","1518.7999999821186","<p><b> That's right! </b> You should use the '1', '2', '3', and '4' keys to make your response. </p>","","0","comp_answer","","","","","","","","",""
"comp-q","38","170314","0.0-12.0-0.2","1847","2","""event"",""trial"",""time""
""fullscreenenter"",""1"",""2018""
","
","
","""event"",""trial"",""time""
""fullscreenenter"",""1"",""2018""
","
","","","","","","3058.9000000059605","<p> <b> True or False? </b> </p><p> You will have as much time as you want to make each choice. </p>","","1","comp_question","","","true","","","","","",""
"comp-q","39","176660","0.0-12.0-1.2","1847","2","""event"",""trial"",""time""
""fullscreenenter"",""1"",""2018""
","
","
","""event"",""trial"",""time""
""fullscreenenter"",""1"",""2018""
","
","","","","","","944.4000000059605","<p> <b> That's right! </b> You will only have 10 seconds to make each choice. </p>","","0","comp_answer","","","","","","","","",""
"learning-instructions","40","196020","0.0-13.0","1847","2","""event"",""trial"",""time""
""fullscreenenter"",""1"",""2018""
","
","
","""event"",""trial"",""time""
""fullscreenenter"",""1"",""2018""
","
","","","","","","10674.90000000596","<p> Great! You are now ready to begin the game. </p><p> Remember, use the 1, 2, 3, and 4 keys to make your responses. </p>","","0","instructions","","","","","","","","",""
"preload","41","220354","0.0-14.0","1847","2","""event"",""trial"",""time""
""fullscreenenter"",""1"",""2018""
","
","
","""event"",""trial"",""time""
""fullscreenenter"",""1"",""2018""
","
","true","false","[]","[]","[]","","","","","","","","","","","","","",""
"html-keyboard-response","42","220856","0.0-15.0-0.0","1847","2","""event"",""trial"",""time""
""fullscreenenter"",""1"",""2018""
","
","
","""event"",""trial"",""time""
""fullscreenenter"",""1"",""2018""
","
","","","","","","null","<div style=""font-size:60px;"">+</div>","null","","fixation","","","","","","","","",""
"memory-trial","43","224026","0.0-15.0-1.0","1847","2","""event"",""trial"",""time""
""fullscreenenter"",""1"",""2018""
","
","
","""event"",""trial"",""time""
""fullscreenenter"",""1"",""2018""
","
","","","","","","2163.2999999821186","images/chair1.png","","","memory_trial","1","definitely_old","","","","","","",""
"html-keyboard-response","44","224528","0.0-15.0-0.1","1847","2","""event"",""trial"",""time""
""fullscreenenter"",""1"",""2018""
","
","
","""event"",""trial"",""time""
""fullscreenenter"",""1"",""2018""
","
","","","","","","null","<div style=""font-size:60px;"">+</div>","null","","fixation","","","","","","","","",""
"memory-trial","45","226933","0.0-15.0-1.1","1847","2","""event"",""trial"",""time""
""fullscreenenter"",""1"",""2018""
","
","
","""event"",""trial"",""time""
""fullscreenenter"",""1"",""2018""
","
","","","","","","1400.9000000059605","images/horse3.png","","","memory_trial","4","definitely_new","","","","","","",""
"html-keyboard-response","46","227436","0.0-15.0-0.2","1847","2","""event"",""trial"",""time""
""fullscreenenter"",""1"",""2018""
","
","
","""event"",""trial"",""time""
""fullscreenenter"",""1"",""2018""
","
","","","","","","null","<div style=""font-size:60px;"">+</div>","null","","fixation","","","","","","","","",""
"memory-trial","47","230792","0.0-15.0-1.2","1847","2","""event"",""trial"",""time""
""fullscreenenter"",""1"",""2018""
","
","
","""event"",""trial"",""time""
""fullscreenenter"",""1"",""2018""
","
","","","","","","2351.9000000059605","images/banana4.png","","","memory_trial","3","maybe_new","","","","","","",""
"html-keyboard-response","48","231294","0.0-15.0-0.3","1847","2","""event"",""trial"",""time""
""fullscreenenter"",""1"",""2018""
","
","
","""event"",""trial"",""time""
""fullscreenenter"",""1"",""2018""
","
","","","","","","null","<div style=""font-size:60px;"">+</div>","null","","fixation","","","","","","","","",""
"memory-trial","49","233942","0.0-15.0-1.3","1847","2","""event"",""trial"",""time""
""fullscreenenter"",""1"",""2018""
","
","
","""event"",""trial"",""time""
""fullscreenenter"",""1"",""2018""
","
","","","","","","1644.5","images/rodent3.png","","","memory_trial","4","definitely_new","","","","","","",""
"html-keyboard-response","50","234445","0.0-15.0-0.4","1847","2","""event"",""trial"",""time""
""fullscreenenter"",""1"",""2018""
","
","
","""event"",""trial"",""time""
""fullscreenenter"",""1"",""2018""
","
","","","","","","null","<div style=""font-size:60px;"">+</div>","null","","fixation","","","","","","","","",""
"memory-trial","51","236683","0.0-15.0-1.4","1847","2","""event"",""trial"",""time""
""fullscreenenter"",""1"",""2018""
","
","
","""event"",""trial"",""time""
""fullscreenenter"",""1"",""2018""
","
","","","","","","1233.699999988079","images/bed1.png","","","memory_trial","1","definitely_old","","","","","","",""
"html-keyboard-response","52","237185","0.0-15.0-0.5","1847","2","""event"",""trial"",""time""
""fullscreenenter"",""1"",""2018""
","
","
","""event"",""trial"",""time""
""fullscreenenter"",""1"",""2018""
","
","","","","","","null","<div style=""font-size:60px;"">+</div>","null","","fixation","","","","","","","","",""
"memory-trial","53","239043","0.0-15.0-1.5","1847","2","""event"",""trial"",""time""
""fullscreenenter"",""1"",""2018""
","
","
","""event"",""trial"",""time""
""fullscreenenter"",""1"",""2018""
","
","","","","","","852.5999999940395","images/chair5.png","","","memory_trial","1","definitely_old","","","","","","",""
"html-keyboard-response","54","239546","0.0-15.0-0.6","1847","2","""event"",""trial"",""time""
""fullscreenenter"",""1"",""2018""
","
","
","""event"",""trial"",""time""
""fullscreenenter"",""1"",""2018""
","
","","","","","","null","<div style=""font-size:60px;"">+</div>","null","","fixation","","","","","","","","",""
"memory-trial","55","241913","0.0-15.0-1.6","1847","2","""event"",""trial"",""time""
""fullscreenenter"",""1"",""2018""
","
","
","""event"",""trial"",""time""
""fullscreenenter"",""1"",""2018""
","
","","","","","","1363.5","images/boat1.png","","","memory_trial","4","definitely_new","","","","","","",""
"html-keyboard-response","56","242416","0.0-15.0-0.7","1847","2","""event"",""trial"",""time""
""fullscreenenter"",""1"",""2018""
","
","
","""event"",""trial"",""time""
""fullscreenenter"",""1"",""2018""
","
","","","","","","null","<div style=""font-size:60px;"">+</div>","null","","fixation","","","","","","","","",""
"memory-trial","57","244583","0.0-15.0-1.7","1847","2","""event"",""trial"",""time""
""fullscreenenter"",""1"",""2018""
","
","
","""event"",""trial"",""time""
""fullscreenenter"",""1"",""2018""
","
","","","","","","1163.5","images/rodent5.png","","","memory_trial","4","definitely_new","","","","","","",""
"html-keyboard-response","58","245085","0.0-15.0-0.8","1847","2","""event"",""trial"",""time""
""fullscreenenter"",""1"",""2018""
","
","
","""event"",""trial"",""time""
""fullscreenenter"",""1"",""2018""
","
","","","","","","null","<div style=""font-size:60px;"">+</div>","null","","fixation","","","","","","","","",""
"memory-trial","59","247423","0.0-15.0-1.8","1847","2","""event"",""trial"",""time""
""fullscreenenter"",""1"",""2018""
","
","
","""event"",""trial"",""time""
""fullscreenenter"",""1"",""2018""
","
","","","","","","1335.5","images/horse1.png","","","memory_trial","1","definitely_old","","","","","","",""
"html-keyboard-response","60","247925","0.0-15.0-0.9","1847","2","""event"",""trial"",""time""
""fullscreenenter"",""1"",""2018""
","
","
","""event"",""trial"",""time""
""fullscreenenter"",""1"",""2018""
","
","","","","","","null","<div style=""font-size:60px;"">+</div>","null","","fixation","","","","","","","","",""
"memory-trial","61","250634","0.0-15.0-1.9","1847","2","""event"",""trial"",""time""
""fullscreenenter"",""1"",""2018""
","
","
","""event"",""trial"",""time""
""fullscreenenter"",""1"",""2018""
","
","","","","","","1704.5999999940395","images/bush1.png","","","memory_trial","3","maybe_new","","","","","","",""
"html-keyboard-response","62","251137","0.0-15.0-0.10","1847","2","""event"",""trial"",""time""
""fullscreenenter"",""1"",""2018""
","
","
","""event"",""trial"",""time""
""fullscreenenter"",""1"",""2018""
","
","","","","","","null","<div style=""font-size:60px;"">+</div>","null","","fixation","","","","","","","","",""
"memory-trial","63","254303","0.0-15.0-1.10","1847","2","""event"",""trial"",""time""
""fullscreenenter"",""1"",""2018""
","
","
","""event"",""trial"",""time""
""fullscreenenter"",""1"",""2018""
","
","","","","","","2161.199999988079","images/horse4.png","","","memory_trial","2","maybe_old","","","","","","",""
"html-keyboard-response","64","254805","0.0-15.0-0.11","1847","2","""event"",""trial"",""time""
""fullscreenenter"",""1"",""2018""
","
","
","""event"",""trial"",""time""
""fullscreenenter"",""1"",""2018""
","
","","","","","","null","<div style=""font-size:60px;"">+</div>","null","","fixation","","","","","","","","",""
"memory-trial","65","257414","0.0-15.0-1.11","1847","2","""event"",""trial"",""time""
""fullscreenenter"",""1"",""2018""
","
","
","""event"",""trial"",""time""
""fullscreenenter"",""1"",""2018""
","
","","","","","","1604.199999988079","images/bush5.png","","","memory_trial","4","definitely_new","","","","","","",""
"html-keyboard-response","66","257916","0.0-15.0-0.12","1847","2","""event"",""trial"",""time""
""fullscreenenter"",""1"",""2018""
","
","
","""event"",""trial"",""time""
""fullscreenenter"",""1"",""2018""
","
","","","","","","null","<div style=""font-size:60px;"">+</div>","null","","fixation","","","","","","","","",""
"memory-trial","67","261584","0.0-15.0-1.12","1847","2","""event"",""trial"",""time""
""fullscreenenter"",""1"",""2018""
","
","
","""event"",""trial"",""time""
""fullscreenenter"",""1"",""2018""
","
","","","","","","2662.9000000059605","images/train4.png","","","memory_trial","3","maybe_new","","","","","","",""
"html-keyboard-response","68","262086","0.0-15.0-0.13","1847","2","""event"",""trial"",""time""
""fullscreenenter"",""1"",""2018""
","
","
","""event"",""trial"",""time""
""fullscreenenter"",""1"",""2018""
","
","","","","","","null","<div style=""font-size:60px;"">+</div>","null","","fixation","","","","","","","","",""
"memory-trial","69","264123","0.0-15.0-1.13","1847","2","""event"",""trial"",""time""
""fullscreenenter"",""1"",""2018""
","
","
","""event"",""trial"",""time""
""fullscreenenter"",""1"",""2018""
","
","","","","","","1032.2999999821186","images/dog2.png","","","memory_trial","3","maybe_new","","","","","","",""
"html-keyboard-response","70","264625","0.0-15.0-0.14","1847","2","""event"",""trial"",""time""
""fullscreenenter"",""1"",""2018""
","
","
","""event"",""trial"",""time""
""fullscreenenter"",""1"",""2018""
","
","","","","","","null","<div style=""font-size:60px;"">+</div>","null","","fixation","","","","","","","","",""
"memory-trial","71","267013","0.0-15.0-1.14","1847","2","""event"",""trial"",""time""
""fullscreenenter"",""1"",""2018""
","
","
","""event"",""trial"",""time""
""fullscreenenter"",""1"",""2018""
","
","","","","","","1384.5999999940395","images/sofa3.png","","","memory_trial","4","definitely_new","","","","","","",""
"html-keyboard-response","72","267515","0.0-15.0-0.15","1847","2","""event"",""trial"",""time""
""fullscreenenter"",""1"",""2018""
","
","
","""event"",""trial"",""time""
""fullscreenenter"",""1"",""2018""
","
","","","","","","null","<div style=""font-size:60px;"">+</div>","null","","fixation","","","","","","","","",""
"memory-trial","73","269703","0.0-15.0-1.15","1847","2","""event"",""trial"",""time""
""fullscreenenter"",""1"",""2018""
","
","
","""event"",""trial"",""time""
""fullscreenenter"",""1"",""2018""
","
","","","","","","1183","images/bed5.png","","","memory_trial","4","definitely_new","","","","","","",""
"html-keyboard-response","74","270205","0.0-15.0-0.16","1847","2","""event"",""trial"",""time""
""fullscreenenter"",""1"",""2018""
","
","
","""event"",""trial"",""time""
""fullscreenenter"",""1"",""2018""
","
","","","","","","null","<div style=""font-size:60px;"">+</div>","null","","fixation","","","","","","","","",""
"memory-trial","75","272464","0.0-15.0-1.16","1847","2","""event"",""trial"",""time""
""fullscreenenter"",""1"",""2018""
","
","
","""event"",""trial"",""time""
""fullscreenenter"",""1"",""2018""
","
","","","","","","1254.4000000059605","images/tree1.png","","","memory_trial","1","definitely_old","","","","","","",""
"html-keyboard-response","76","272966","0.0-15.0-0.17","1847","2","""event"",""trial"",""time""
""fullscreenenter"",""1"",""2018""
","
","
","""event"",""trial"",""time""
""fullscreenenter"",""1"",""2018""
","
","","","","","","null","<div style=""font-size:60px;"">+</div>","null","","fixation","","","","","","","","",""
"memory-trial","77","276103","0.0-15.0-1.17","1847","2","""event"",""trial"",""time""
""fullscreenenter"",""1"",""2018""
","
","
","""event"",""trial"",""time""
""fullscreenenter"",""1"",""2018""
","
","","","","","","2132.5","images/sheep5.png","","","memory_trial","4","definitely_new","","","","","","",""
"html-keyboard-response","78","276606","0.0-15.0-0.18","1847","2","""event"",""trial"",""time""
""fullscreenenter"",""1"",""2018""
","
","
","""event"",""trial"",""time""
""fullscreenenter"",""1"",""2018""
","
","","","","","","null","<div style=""font-size:60px;"">+</div>","null","","fixation","","","","","","","","",""
"memory-trial","79","278844","0.0-15.0-1.18","1847","2","""event"",""trial"",""time""
""fullscreenenter"",""1"",""2018""
","
","
","""event"",""trial"",""time""
""fullscreenenter"",""1"",""2018""
","
","","","","","","1234.199999988079","images/horse5.png","","","memory_trial","4","definitely_new","","","","","","",""
"html-keyboard-response","80","279346","0.0-15.0-0.19","1847","2","""event"",""trial"",""time""
""fullscreenenter"",""1"",""2018""
","
","
","""event"",""trial"",""time""
""fullscreenenter"",""1"",""2018""
","
","","","","","","null","<div style=""font-size:60px;"">+</div>","null","","fixation","","","","","","","","",""
"memory-trial","81","282284","0.0-15.0-1.19","1847","2","""event"",""trial"",""time""
""fullscreenenter"",""1"",""2018""
","
","
","""event"",""trial"",""time""
""fullscreenenter"",""1"",""2018""
","
","","","","","","1932.9000000059605","images/orange3.png","","","memory_trial","4","definitely_new","","","","","","",""
"html-keyboard-response","82","282786","0.0-15.0-0.20","1847","2","""event"",""trial"",""time""
""fullscreenenter"",""1"",""2018""
","
","
","""event"",""trial"",""time""
""fullscreenenter"",""1"",""2018""
","
","","","","","","null","<div style=""font-size:60px;"">+</div>","null","","fixation","","","","","","","","",""
"memory-trial","83","284944","0.0-15.0-1.20","1847","2","""event"",""trial"",""time""
""fullscreenenter"",""1"",""2018""
","
","
","""event"",""trial"",""time""
""fullscreenenter"",""1"",""2018""
","
","","","","","","1153.800000011921","images/feline4.png","","","memory_trial","1","definitely_old","","","","","","",""
"html-keyboard-response","84","285447","0.0-15.0-0.21","1847","2","""event"",""trial"",""time""
""fullscreenenter"",""1"",""2018""
","
","
","""event"",""trial"",""time""
""fullscreenenter"",""1"",""2018""
","
","","","","","","null","<div style=""font-size:60px;"">+</div>","null","","fixation","","","","","","","","",""
"memory-trial","85","287664","0.0-15.0-1.21","1847","2","""event"",""trial"",""time""
""fullscreenenter"",""1"",""2018""
","
","
","""event"",""trial"",""time""
""fullscreenenter"",""1"",""2018""
","
","","","","","","1211","images/tree5.png","","","memory_trial","4","definitely_new","","","","","","",""
"html-keyboard-response","86","288166","0.0-15.0-0.22","1847","2","""event"",""trial"",""time""
""fullscreenenter"",""1"",""2018""
","
","
","""event"",""trial"",""time""
""fullscreenenter"",""1"",""2018""
","
","","","","","","null","<div style=""font-size:60px;"">+</div>","null","","fixation","","","","","","","","",""
"memory-trial","87","290813","0.0-15.0-1.22","1847","2","""event"",""trial"",""time""
""fullscreenenter"",""1"",""2018""
","
","
","""event"",""trial"",""time""
""fullscreenenter"",""1"",""2018""
","
","","","","","","1643.0999999940395","images/cow5.png","","","memory_trial","2","maybe_old","","","","","","",""
"html-keyboard-response","88","291315","0.0-15.0-0.23","1847","2","""event"",""trial"",""time""
""fullscreenenter"",""1"",""2018""
","
","
","""event"",""trial"",""time""
""fullscreenenter"",""1"",""2018""
","
","","","","","","null","<div style=""font-size:60px;"">+</div>","null","","fixation","","","","","","","","",""
"memory-trial","89","293663","0.0-15.0-1.23","1847","2","""event"",""trial"",""time""
""fullscreenenter"",""1"",""2018""
","
","
","""event"",""trial"",""time""
""fullscreenenter"",""1"",""2018""
","
","","","","","","1343.0999999940395","images/train2.png","","","memory_trial","4","definitely_new","","","","","","",""
"html-keyboard-response","90","294165","0.0-15.0-0.24","1847","2","""event"",""trial"",""time""
""fullscreenenter"",""1"",""2018""
","
","
","""event"",""trial"",""time""
""fullscreenenter"",""1"",""2018""
","
","","","","","","null","<div style=""font-size:60px;"">+</div>","null","","fixation","","","","","","","","",""
"memory-trial","91","296514","0.0-15.0-1.24","1847","2","""event"",""trial"",""time""
""fullscreenenter"",""1"",""2018""
","
","
","""event"",""trial"",""time""
""fullscreenenter"",""1"",""2018""
","
","","","","","","1344.5","images/cactus4.png","","","memory_trial","1","definitely_old","","","","","","",""
"html-keyboard-response","92","297016","0.0-15.0-0.25","1847","2","""event"",""trial"",""time""
""fullscreenenter"",""1"",""2018""
","
","
","""event"",""trial"",""time""
""fullscreenenter"",""1"",""2018""
","
","","","","","","null","<div style=""font-size:60px;"">+</div>","null","","fixation","","","","","","","","",""
"memory-trial","93","299464","0.0-15.0-1.25","1847","2","""event"",""trial"",""time""
""fullscreenenter"",""1"",""2018""
","
","
","""event"",""trial"",""time""
""fullscreenenter"",""1"",""2018""
","
","","","","","","1443.8999999761581","images/tree3.png","","","memory_trial","1","definitely_old","","","","","","",""
"html-keyboard-response","94","299969","0.0-15.0-0.26","1847","2","""event"",""trial"",""time""
""fullscreenenter"",""1"",""2018""
","
","
","""event"",""trial"",""time""
""fullscreenenter"",""1"",""2018""
","
","","","","","","null","<div style=""font-size:60px;"">+</div>","null","","fixation","","","","","","","","",""
"memory-trial","95","302634","0.0-15.0-1.26","1847","2","""event"",""trial"",""time""
""fullscreenenter"",""1"",""2018""
","
","
","""event"",""trial"",""time""
""fullscreenenter"",""1"",""2018""
","
","","","","","","1660","images/straw4.png","","","memory_trial","4","definitely_new","","","","","","",""
"html-keyboard-response","96","303136","0.0-15.0-0.27","1847","2","""event"",""trial"",""time""
""fullscreenenter"",""1"",""2018""
","
","
","""event"",""trial"",""time""
""fullscreenenter"",""1"",""2018""
","
","","","","","","null","<div style=""font-size:60px;"">+</div>","null","","fixation","","","","","","","","",""
"memory-trial","97","305903","0.0-15.0-1.27","1847","2","""event"",""trial"",""time""
""fullscreenenter"",""1"",""2018""
","
","
","""event"",""trial"",""time""
""fullscreenenter"",""1"",""2018""
","
","","","","","","1761.699999988079","images/boat4.png","","","memory_trial","4","definitely_new","","","","","","",""
"html-keyboard-response","98","306412","0.0-15.0-0.28","1847","2","""event"",""trial"",""time""
""fullscreenenter"",""1"",""2018""
","
","
","""event"",""trial"",""time""
""fullscreenenter"",""1"",""2018""
","
","","","","","","null","<div style=""font-size:60px;"">+</div>","null","","fixation","","","","","","","","",""
"memory-trial","99","309004","0.0-15.0-1.28","1847","2","""event"",""trial"",""time""
""fullscreenenter"",""1"",""2018""
","
","
","""event"",""trial"",""time""
""fullscreenenter"",""1"",""2018""
","
","","","","","","1588.5","images/truck4.png","","","memory_trial","4","definitely_new","","","","","","",""
"html-keyboard-response","100","309508","0.0-15.0-0.29","1847","2","""event"",""trial"",""time""
""fullscreenenter"",""1"",""2018""
","
","
","""event"",""trial"",""time""
""fullscreenenter"",""1"",""2018""
","
","","","","","","null","<div style=""font-size:60px;"">+</div>","null","","fixation","","","","","","","","",""
"memory-trial","101","311614","0.0-15.0-1.29","1847","2","""event"",""trial"",""time""
""fullscreenenter"",""1"",""2018""
","
","
","""event"",""trial"",""time""
""fullscreenenter"",""1"",""2018""
","
","","","","","","1099.8999999761581","images/straw5.png","","","memory_trial","4","definitely_new","","","","","","",""
"html-keyboard-response","102","312116","0.0-15.0-0.30","1847","2","""event"",""trial"",""time""
""fullscreenenter"",""1"",""2018""
","
","
","""event"",""trial"",""time""
""fullscreenenter"",""1"",""2018""
","
","","","","","","null","<div style=""font-size:60px;"">+</div>","null","","fixation","","","","","","","","",""
"memory-trial","103","314243","0.0-15.0-1.30","1847","2","""event"",""trial"",""time""
""fullscreenenter"",""1"",""2018""
","
","
","""event"",""trial"",""time""
""fullscreenenter"",""1"",""2018""
","
","","","","","","1123.300000011921","images/chair4.png","","","memory_trial","1","definitely_old","","","","","","",""
"html-keyboard-response","104","314746","0.0-15.0-0.31","1847","2","""event"",""trial"",""time""
""fullscreenenter"",""1"",""2018""
","
","
","""event"",""trial"",""time""
""fullscreenenter"",""1"",""2018""
","
","","","","","","null","<div style=""font-size:60px;"">+</div>","null","","fixation","","","","","","","","",""
"memory-trial","105","317054","0.0-15.0-1.31","1847","2","""event"",""trial"",""time""
""fullscreenenter"",""1"",""2018""
","
","
","""event"",""trial"",""time""
""fullscreenenter"",""1"",""2018""
","
","","","","","","1303.199999988079","images/tree2.png","","","memory_trial","1","definitely_old","","","","","","",""
"html-keyboard-response","106","317557","0.0-15.0-0.32","1847","2","""event"",""trial"",""time""
""fullscreenenter"",""1"",""2018""
","
","
","""event"",""trial"",""time""
""fullscreenenter"",""1"",""2018""
","
","","","","","","null","<div style=""font-size:60px;"">+</div>","null","","fixation","","","","","","","","",""
"memory-trial","107","319634","0.0-15.0-1.32","1847","2","""event"",""trial"",""time""
""fullscreenenter"",""1"",""2018""
","
","
","""event"",""trial"",""time""
""fullscreenenter"",""1"",""2018""
","
","","","","","","1071","images/flower2.png","","","memory_trial","1","definitely_old","","","","","","",""
"html-keyboard-response","108","320136","0.0-15.0-0.33","1847","2","""event"",""trial"",""time""
""fullscreenenter"",""1"",""2018""
","
","
","""event"",""trial"",""time""
""fullscreenenter"",""1"",""2018""
","
","","","","","","null","<div style=""font-size:60px;"">+</div>","null","","fixation","","","","","","","","",""
"memory-trial","109","322423","0.0-15.0-1.33","1847","2","""event"",""trial"",""time""
""fullscreenenter"",""1"",""2018""
","
","
","""event"",""trial"",""time""
""fullscreenenter"",""1"",""2018""
","
","","","","","","1283.199999988079","images/goat2.png","","","memory_trial","4","definitely_new","","","","","","",""
"html-keyboard-response","110","322926","0.0-15.0-0.34","1847","2","""event"",""trial"",""time""
""fullscreenenter"",""1"",""2018""
","
","
","""event"",""trial"",""time""
""fullscreenenter"",""1"",""2018""
","
","","","","","","null","<div style=""font-size:60px;"">+</div>","null","","fixation","","","","","","","","",""
"memory-trial","111","324904","0.0-15.0-1.34","1847","2","""event"",""trial"",""time""
""fullscreenenter"",""1"",""2018""
","
","
","""event"",""trial"",""time""
""fullscreenenter"",""1"",""2018""
","
","","","","","","972.1999999880791","images/plane4.png","","","memory_trial","1","definitely_old","","","","","","",""
"html-keyboard-response","112","325406","0.0-15.0-0.35","1847","2","""event"",""trial"",""time""
""fullscreenenter"",""1"",""2018""
","
","
","""event"",""trial"",""time""
""fullscreenenter"",""1"",""2018""
","
","","","","","","null","<div style=""font-size:60px;"">+</div>","null","","fixation","","","","","","","","",""
"memory-trial","113","327303","0.0-15.0-1.35","1847","2","""event"",""trial"",""time""
""fullscreenenter"",""1"",""2018""
","
","
","""event"",""trial"",""time""
""fullscreenenter"",""1"",""2018""
","
","","","","","","892.5","images/table4.png","","","memory_trial","1","definitely_old","","","","","","",""
"html-keyboard-response","114","327805","0.0-15.0-0.36","1847","2","""event"",""trial"",""time""
""fullscreenenter"",""1"",""2018""
","
","
","""event"",""trial"",""time""
""fullscreenenter"",""1"",""2018""
","
","","","","","","null","<div style=""font-size:60px;"">+</div>","null","","fixation","","","","","","","","",""
"memory-trial","115","330363","0.0-15.0-1.36","1847","2","""event"",""trial"",""time""
""fullscreenenter"",""1"",""2018""
","
","
","""event"",""trial"",""time""
""fullscreenenter"",""1"",""2018""
","
","","","","","","1553.800000011921","images/dog4.png","","","memory_trial","1","definitely_old","","","","","","",""
"html-keyboard-response","116","330865","0.0-15.0-0.37","1847","2","""event"",""trial"",""time""
""fullscreenenter"",""1"",""2018""
","
","
","""event"",""trial"",""time""
""fullscreenenter"",""1"",""2018""
","
","","","","","","null","<div style=""font-size:60px;"">+</div>","null","","fixation","","","","","","","","",""
"memory-trial","117","333242","0.0-15.0-1.37","1847","2","""event"",""trial"",""time""
""fullscreenenter"",""1"",""2018""
","
","
","""event"",""trial"",""time""
""fullscreenenter"",""1"",""2018""
","
","","","","","","1373.0999999940395","images/boat2.png","","","memory_trial","4","definitely_new","","","","","","",""
"html-keyboard-response","118","333745","0.0-15.0-0.38","1847","2","""event"",""trial"",""time""
""fullscreenenter"",""1"",""2018""
","
","
","""event"",""trial"",""time""
""fullscreenenter"",""1"",""2018""
","
","","","","","","null","<div style=""font-size:60px;"">+</div>","null","","fixation","","","","","","","","",""
"memory-trial","119","336553","0.0-15.0-1.38","1847","2","""event"",""trial"",""time""
""fullscreenenter"",""1"",""2018""
","
","
","""event"",""trial"",""time""
""fullscreenenter"",""1"",""2018""
","
","","","","","","1801.800000011921","images/bush3.png","","","memory_trial","3","maybe_new","","","","","","",""
"html-keyboard-response","120","337055","0.0-15.0-0.39","1847","2","""event"",""trial"",""time""
""fullscreenenter"",""1"",""2018""
","
","
","""event"",""trial"",""time""
""fullscreenenter"",""1"",""2018""
","
","","","","","","null","<div style=""font-size:60px;"">+</div>","null","","fixation","","","","","","","","",""
"memory-trial","121","339843","0.0-15.0-1.39","1847","2","""event"",""trial"",""time""
""fullscreenenter"",""1"",""2018""
","
","
","""event"",""trial"",""time""
""fullscreenenter"",""1"",""2018""
","
","","","","","","1782.3999999761581","images/rabbit4.png","","","memory_trial","3","maybe_new","","","","","","",""
"html-keyboard-response","122","340345","0.0-15.0-0.40","1847","2","""event"",""trial"",""time""
""fullscreenenter"",""1"",""2018""
","
","
","""event"",""trial"",""time""
""fullscreenenter"",""1"",""2018""
","
","","","","","","null","<div style=""font-size:60px;"">+</div>","null","","fixation","","","","","","","","",""
"memory-trial","123","342503","0.0-15.0-1.40","1847","2","""event"",""trial"",""time""
""fullscreenenter"",""1"",""2018""
","
","
","""event"",""trial"",""time""
""fullscreenenter"",""1"",""2018""
","
","","","","","","1153.7999999821186","images/orange4.png","","","memory_trial","1","definitely_old","","","","","","",""
"html-keyboard-response","124","343005","0.0-15.0-0.41","1847","2","""event"",""trial"",""time""
""fullscreenenter"",""1"",""2018""
","
","
","""event"",""trial"",""time""
""fullscreenenter"",""1"",""2018""
","
","","","","","","null","<div style=""font-size:60px;"">+</div>","null","","fixation","","","","","","","","",""
"memory-trial","125","345292","0.0-15.0-1.41","1847","2","""event"",""trial"",""time""
""fullscreenenter"",""1"",""2018""
","
","
","""event"",""trial"",""time""
""fullscreenenter"",""1"",""2018""
","
","","","","","","1281.699999988079","images/rabbit1.png","","","memory_trial","1","definitely_old","","","","","","",""
"html-keyboard-response","126","345794","0.0-15.0-0.42","1847","2","""event"",""trial"",""time""
""fullscreenenter"",""1"",""2018""
","
","
","""event"",""trial"",""time""
""fullscreenenter"",""1"",""2018""
","
","","","","","","null","<div style=""font-size:60px;"">+</div>","null","","fixation","","","","","","","","",""
"memory-trial","127","348222","0.0-15.0-1.42","1847","2","""event"",""trial"",""time""
""fullscreenenter"",""1"",""2018""
","
","
","""event"",""trial"",""time""
""fullscreenenter"",""1"",""2018""
","
","","","","","","1422.7000000178814","images/feline3.png","","","memory_trial","4","definitely_new","","","","","","",""
"html-keyboard-response","128","348724","0.0-15.0-0.43","1847","2","""event"",""trial"",""time""
""fullscreenenter"",""1"",""2018""
","
","
","""event"",""trial"",""time""
""fullscreenenter"",""1"",""2018""
","
","","","","","","null","<div style=""font-size:60px;"">+</div>","null","","fixation","","","","","","","","",""
"memory-trial","129","350742","0.0-15.0-1.43","1847","2","""event"",""trial"",""time""
""fullscreenenter"",""1"",""2018""
","
","
","""event"",""trial"",""time""
""fullscreenenter"",""1"",""2018""
","
","","","","","","1013.9000000059605","images/goat1.png","","","memory_trial","4","definitely_new","","","","","","",""
"html-keyboard-response","130","351244","0.0-15.0-0.44","1847","2","""event"",""trial"",""time""
""fullscreenenter"",""1"",""2018""
","
","
","""event"",""trial"",""time""
""fullscreenenter"",""1"",""2018""
","
","","","","","","null","<div style=""font-size:60px;"">+</div>","null","","fixation","","","","","","","","",""
"memory-trial","131","354051","0.0-15.0-1.44","1847","2","""event"",""trial"",""time""
""fullscreenenter"",""1"",""2018""
","
","
","""event"",""trial"",""time""
""fullscreenenter"",""1"",""2018""
","
","","","","","","1801.5999999940395","images/cow2.png","","","memory_trial","1","definitely_old","","","","","","",""
"html-keyboard-response","132","354553","0.0-15.0-0.45","1847","2","""event"",""trial"",""time""
""fullscreenenter"",""1"",""2018""
","
","
","""event"",""trial"",""time""
""fullscreenenter"",""1"",""2018""
","
","","","","","","null","<div style=""font-size:60px;"">+</div>","null","","fixation","","","","","","","","",""
"memory-trial","133","357302","0.0-15.0-1.45","1847","2","""event"",""trial"",""time""
""fullscreenenter"",""1"",""2018""
","
","
","""event"",""trial"",""time""
""fullscreenenter"",""1"",""2018""
","
","","","","","","1744.8999999761581","images/banana5.png","","","memory_trial","1","definitely_old","","","","","","",""
"html-keyboard-response","134","357804","0.0-15.0-0.46","1847","2","""event"",""trial"",""time""
""fullscreenenter"",""1"",""2018""
","
","
","""event"",""trial"",""time""
""fullscreenenter"",""1"",""2018""
","
","","","","","","null","<div style=""font-size:60px;"">+</div>","null","","fixation","","","","","","","","",""
"memory-trial","135","359972","0.0-15.0-1.46","1847","2","""event"",""trial"",""time""
""fullscreenenter"",""1"",""2018""
","
","
","""event"",""trial"",""time""
""fullscreenenter"",""1"",""2018""
","
","","","","","","1162.699999988079","images/truck5.png","","","memory_trial","4","definitely_new","","","","","","",""
"html-button-response","136","363386","0.0-15.0-2.46-0.46","1847","2","""event"",""trial"",""time""
""fullscreenenter"",""1"",""2018""
","
","
","""event"",""trial"",""time""
""fullscreenenter"",""1"",""2018""
","
","","","","","","3410.9000000059605","<p> Take a break! </p><p> Click the button to continue. </p>","0","","break","","","","","","","","",""
"html-keyboard-response","137","363888","0.0-15.0-0.47","1847","2","""event"",""trial"",""time""
""fullscreenenter"",""1"",""2018""
","
","
","""event"",""trial"",""time""
""fullscreenenter"",""1"",""2018""
","
","","","","","","null","<div style=""font-size:60px;"">+</div>","null","","fixation","","","","","","","","",""
"memory-trial","138","366012","0.0-15.0-1.47","1847","2","""event"",""trial"",""time""
""fullscreenenter"",""1"",""2018""
","
","
","""event"",""trial"",""time""
""fullscreenenter"",""1"",""2018""
","
","","","","","","1118.0999999940395","images/straw2.png","","","memory_trial","4","definitely_new","","","","","","",""
"html-keyboard-response","139","366514","0.0-15.0-0.48","1847","2","""event"",""trial"",""time""
""fullscreenenter"",""1"",""2018""
","
","
","""event"",""trial"",""time""
""fullscreenenter"",""1"",""2018""
","
","","","","","","null","<div style=""font-size:60px;"">+</div>","null","","fixation","","","","","","","","",""
"memory-trial","140","368662","0.0-15.0-1.48","1847","2","""event"",""trial"",""time""
""fullscreenenter"",""1"",""2018""
","
","
","""event"",""trial"",""time""
""fullscreenenter"",""1"",""2018""
","
","","","","","","1143.8999999761581","images/truck2.png","","","memory_trial","1","definitely_old","","","","","","",""
"html-keyboard-response","141","369164","0.0-15.0-0.49","1847","2","""event"",""trial"",""time""
""fullscreenenter"",""1"",""2018""
","
","
","""event"",""trial"",""time""
""fullscreenenter"",""1"",""2018""
","
","","","","","","null","<div style=""font-size:60px;"">+</div>","null","","fixation","","","","","","","","",""
"memory-trial","142","371322","0.0-15.0-1.49","1847","2","""event"",""trial"",""time""
""fullscreenenter"",""1"",""2018""
","
","
","""event"",""trial"",""time""
""fullscreenenter"",""1"",""2018""
","
","","","","","","1152.300000011921","images/sofa4.png","","","memory_trial","4","definitely_new","","","","","","",""
"html-keyboard-response","143","371824","0.0-15.0-0.50","1847","2","""event"",""trial"",""time""
""fullscreenenter"",""1"",""2018""
","
","
","""event"",""trial"",""time""
""fullscreenenter"",""1"",""2018""
","
","","","","","","null","<div style=""font-size:60px;"">+</div>","null","","fixation","","","","","","","","",""
"memory-trial","144","374612","0.0-15.0-1.50","1847","2","""event"",""trial"",""time""
""fullscreenenter"",""1"",""2018""
","
","
","""event"",""trial"",""time""
""fullscreenenter"",""1"",""2018""
","
","","","","","","1784.699999988079","images/apple1.png","","","memory_trial","3","maybe_new","","","","","","",""
"html-keyboard-response","145","375115","0.0-15.0-0.51","1847","2","""event"",""trial"",""time""
""fullscreenenter"",""1"",""2018""
","
","
","""event"",""trial"",""time""
""fullscreenenter"",""1"",""2018""
","
","","","","","","null","<div style=""font-size:60px;"">+</div>","null","","fixation","","","","","","","","",""
"memory-trial","146","377062","0.0-15.0-1.51","1847","2","""event"",""trial"",""time""
""fullscreenenter"",""1"",""2018""
","
","
","""event"",""trial"",""time""
""fullscreenenter"",""1"",""2018""
","
","","","","","","941.9000000059605","images/bed2.png","","","memory_trial","1","definitely_old","","","","","","",""
"html-keyboard-response","147","377564","0.0-15.0-0.52","1847","2","""event"",""trial"",""time""
""fullscreenenter"",""1"",""2018""
","
","
","""event"",""trial"",""time""
""fullscreenenter"",""1"",""2018""
","
","","","","","","null","<div style=""font-size:60px;"">+</div>","null","","fixation","","","","","","","","",""
"memory-trial","148","380722","0.0-15.0-1.52","1847","2","""event"",""trial"",""time""
""fullscreenenter"",""1"",""2018""
","
","
","""event"",""trial"",""time""
""fullscreenenter"",""1"",""2018""
","
","","","","","","2154.2000000178814","images/flower5.png","","","memory_trial","4","definitely_new","","","","","","",""
"html-keyboard-response","149","381225","0.0-15.0-0.53","1847","2","""event"",""trial"",""time""
""fullscreenenter"",""1"",""2018""
","
","
","""event"",""trial"",""time""
""fullscreenenter"",""1"",""2018""
","
","","","","","","null","<div style=""font-size:60px;"">+</div>","null","","fixation","","","","","","","","",""
"memory-trial","150","384293","0.0-15.0-1.53","1847","2","""event"",""trial"",""time""
""fullscreenenter"",""1"",""2018""
","
","
","""event"",""trial"",""time""
""fullscreenenter"",""1"",""2018""
","
","","","","","","2063","images/apple5.png","","","memory_trial","3","maybe_new","","","","","","",""
"html-keyboard-response","151","384795","0.0-15.0-0.54","1847","2","""event"",""trial"",""time""
""fullscreenenter"",""1"",""2018""
","
","
","""event"",""trial"",""time""
""fullscreenenter"",""1"",""2018""
","
","","","","","","null","<div style=""font-size:60px;"">+</div>","null","","fixation","","","","","","","","",""
"memory-trial","152","387033","0.0-15.0-1.54","1847","2","""event"",""trial"",""time""
""fullscreenenter"",""1"",""2018""
","
","
","""event"",""trial"",""time""
""fullscreenenter"",""1"",""2018""
","
","","","","","","1233.800000011921","images/orange2.png","","","memory_trial","1","definitely_old","","","","","","",""
"html-keyboard-response","153","387535","0.0-15.0-0.55","1847","2","""event"",""trial"",""time""
""fullscreenenter"",""1"",""2018""
","
","
","""event"",""trial"",""time""
""fullscreenenter"",""1"",""2018""
","
","","","","","","null","<div style=""font-size:60px;"">+</div>","null","","fixation","","","","","","","","",""
"memory-trial","154","390242","0.0-15.0-1.55","1847","2","""event"",""trial"",""time""
""fullscreenenter"",""1"",""2018""
","
","
","""event"",""trial"",""time""
""fullscreenenter"",""1"",""2018""
","
","","","","","","1701.8999999761581","images/banana3.png","","","memory_trial","2","maybe_old","","","","","","",""
"html-keyboard-response","155","390745","0.0-15.0-0.56","1847","2","""event"",""trial"",""time""
""fullscreenenter"",""1"",""2018""
","
","
","""event"",""trial"",""time""
""fullscreenenter"",""1"",""2018""
","
","","","","","","null","<div style=""font-size:60px;"">+</div>","null","","fixation","","","","","","","","",""
"memory-trial","156","393222","0.0-15.0-1.56","1847","2","""event"",""trial"",""time""
""fullscreenenter"",""1"",""2018""
","
","
","""event"",""trial"",""time""
""fullscreenenter"",""1"",""2018""
","
","","","","","","1474.8999999761581","images/bush2.png","","","memory_trial","2","maybe_old","","","","","","",""
"html-keyboard-response","157","393724","0.0-15.0-0.57","1847","2","""event"",""trial"",""time""
""fullscreenenter"",""1"",""2018""
","
","
","""event"",""trial"",""time""
""fullscreenenter"",""1"",""2018""
","
","","","","","","null","<div style=""font-size:60px;"">+</div>","null","","fixation","","","","","","","","",""
"memory-trial","158","396273","0.0-15.0-1.57","1847","2","""event"",""trial"",""time""
""fullscreenenter"",""1"",""2018""
","
","
","""event"",""trial"",""time""
""fullscreenenter"",""1"",""2018""
","
","","","","","","1542.6000000238419","images/table3.png","","","memory_trial","3","maybe_new","","","","","","",""
"html-keyboard-response","159","396774","0.0-15.0-0.58","1847","2","""event"",""trial"",""time""
""fullscreenenter"",""1"",""2018""
","
","
","""event"",""trial"",""time""
""fullscreenenter"",""1"",""2018""
","
","","","","","","null","<div style=""font-size:60px;"">+</div>","null","","fixation","","","","","","","","",""
"memory-trial","160","398853","0.0-15.0-1.58","1847","2","""event"",""trial"",""time""
""fullscreenenter"",""1"",""2018""
","
","
","""event"",""trial"",""time""
""fullscreenenter"",""1"",""2018""
","
","","","","","","1074.0999999940395","images/table1.png","","","memory_trial","1","definitely_old","","","","","","",""
"html-keyboard-response","161","399355","0.0-15.0-0.59","1847","2","""event"",""trial"",""time""
""fullscreenenter"",""1"",""2018""
","
","
","""event"",""trial"",""time""
""fullscreenenter"",""1"",""2018""
","
","","","","","","null","<div style=""font-size:60px;"">+</div>","null","","fixation","","","","","","","","",""
"memory-trial","162","402212","0.0-15.0-1.59","1847","2","""event"",""trial"",""time""
""fullscreenenter"",""1"",""2018""
","
","
","""event"",""trial"",""time""
""fullscreenenter"",""1"",""2018""
","
","","","","","","1852.300000011921","images/apple3.png","","","memory_trial","4","definitely_new","","","","","","",""
"html-keyboard-response","163","402715","0.0-15.0-0.60","1847","2","""event"",""trial"",""time""
""fullscreenenter"",""1"",""2018""
","
","
","""event"",""trial"",""time""
""fullscreenenter"",""1"",""2018""
","
","","","","","","null","<div style=""font-size:60px;"">+</div>","null","","fixation","","","","","","","","",""
"memory-trial","164","404662","0.0-15.0-1.60","1847","2","""event"",""trial"",""time""
""fullscreenenter"",""1"",""2018""
","
","
","""event"",""trial"",""time""
""fullscreenenter"",""1"",""2018""
","
","","","","","","943.4000000059605","images/sofa5.png","","","memory_trial","4","definitely_new","","","","","","",""
"html-keyboard-response","165","405164","0.0-15.0-0.61","1847","2","""event"",""trial"",""time""
""fullscreenenter"",""1"",""2018""
","
","
","""event"",""trial"",""time""
""fullscreenenter"",""1"",""2018""
","
","","","","","","null","<div style=""font-size:60px;"">+</div>","null","","fixation","","","","","","","","",""
"memory-trial","166","407092","0.0-15.0-1.61","1847","2","""event"",""trial"",""time""
""fullscreenenter"",""1"",""2018""
","
","
","""event"",""trial"",""time""
""fullscreenenter"",""1"",""2018""
","
","","","","","","923","images/dog5.png","","","memory_trial","4","definitely_new","","","","","","",""
"html-keyboard-response","167","407595","0.0-15.0-0.62","1847","2","""event"",""trial"",""time""
""fullscreenenter"",""1"",""2018""
","
","
","""event"",""trial"",""time""
""fullscreenenter"",""1"",""2018""
","
","","","","","","null","<div style=""font-size:60px;"">+</div>","null","","fixation","","","","","","","","",""
"memory-trial","168","409683","0.0-15.0-1.62","1847","2","""event"",""trial"",""time""
""fullscreenenter"",""1"",""2018""
","
","
","""event"",""trial"",""time""
""fullscreenenter"",""1"",""2018""
","
","","","","","","1083.5","images/boat5.png","","","memory_trial","4","definitely_new","","","","","","",""
"html-keyboard-response","169","410186","0.0-15.0-0.63","1847","2","""event"",""trial"",""time""
""fullscreenenter"",""1"",""2018""
","
","
","""event"",""trial"",""time""
""fullscreenenter"",""1"",""2018""
","
","","","","","","null","<div style=""font-size:60px;"">+</div>","null","","fixation","","","","","","","","",""
"memory-trial","170","413402","0.0-15.0-1.63","1847","2","""event"",""trial"",""time""
""fullscreenenter"",""1"",""2018""
","
","
","""event"",""trial"",""time""
""fullscreenenter"",""1"",""2018""
","
","","","","","","2212.5999999940395","images/chair2.png","","","memory_trial","4","definitely_new","","","","","","",""
"html-keyboard-response","171","413905","0.0-15.0-0.64","1847","2","""event"",""trial"",""time""
""fullscreenenter"",""1"",""2018""
","
","
","""event"",""trial"",""time""
""fullscreenenter"",""1"",""2018""
","
","","","","","","null","<div style=""font-size:60px;"">+</div>","null","","fixation","","","","","","","","",""
"memory-trial","172","416272","0.0-15.0-1.64","1847","2","""event"",""trial"",""time""
""fullscreenenter"",""1"",""2018""
","
","
","""event"",""trial"",""time""
""fullscreenenter"",""1"",""2018""
","
","","","","","","1361.7000000178814","images/flower4.png","","","memory_trial","2","maybe_old","","","","","","",""
"html-keyboard-response","173","416774","0.0-15.0-0.65","1847","2","""event"",""trial"",""time""
""fullscreenenter"",""1"",""2018""
","
","
","""event"",""trial"",""time""
""fullscreenenter"",""1"",""2018""
","
","","","","","","null","<div style=""font-size:60px;"">+</div>","null","","fixation","","","","","","","","",""
"memory-trial","174","418821","0.0-15.0-1.65","1847","2","""event"",""trial"",""time""
""fullscreenenter"",""1"",""2018""
","
","
","""event"",""trial"",""time""
""fullscreenenter"",""1"",""2018""
","
","","","","","","1043.4000000059605","images/horse2.png","","","memory_trial","1","definitely_old","","","","","","",""
"html-keyboard-response","175","419324","0.0-15.0-0.66","1847","2","""event"",""trial"",""time""
""fullscreenenter"",""1"",""2018""
","
","
","""event"",""trial"",""time""
""fullscreenenter"",""1"",""2018""
","
","","","","","","null","<div style=""font-size:60px;"">+</div>","null","","fixation","","","","","","","","",""
"memory-trial","176","421982","0.0-15.0-1.66","1847","2","""event"",""trial"",""time""
""fullscreenenter"",""1"",""2018""
","
","
","""event"",""trial"",""time""
""fullscreenenter"",""1"",""2018""
","
","","","","","","1654.4000000059605","images/sofa2.png","","","memory_trial","3","maybe_new","","","","","","",""
"html-keyboard-response","177","422484","0.0-15.0-0.67","1847","2","""event"",""trial"",""time""
""fullscreenenter"",""1"",""2018""
","
","
","""event"",""trial"",""time""
""fullscreenenter"",""1"",""2018""
","
","","","","","","null","<div style=""font-size:60px;"">+</div>","null","","fixation","","","","","","","","",""
"memory-trial","178","424852","0.0-15.0-1.67","1847","2","""event"",""trial"",""time""
""fullscreenenter"",""1"",""2018""
","
","
","""event"",""trial"",""time""
""fullscreenenter"",""1"",""2018""
","
","","","","","","1363.7000000178814","images/apple4.png","","","memory_trial","3","maybe_new","","","","","","",""
"html-keyboard-response","179","425369","0.0-15.0-0.68","1847","2","""event"",""trial"",""time""
""fullscreenenter"",""1"",""2018""
","
","
","""event"",""trial"",""time""
""fullscreenenter"",""1"",""2018""
","
","","","","","","null","<div style=""font-size:60px;"">+</div>","null","","fixation","","","","","","","","",""
"memory-trial","180","427982","0.0-15.0-1.68","1847","2","""event"",""trial"",""time""
""fullscreenenter"",""1"",""2018""
","
","
","""event"",""trial"",""time""
""fullscreenenter"",""1"",""2018""
","
","","","","","","1610.4000000059605","images/rodent2.png","","","memory_trial","4","definitely_new","","","","","","",""
"html-keyboard-response","181","428484","0.0-15.0-0.69","1847","2","""event"",""trial"",""time""
""fullscreenenter"",""1"",""2018""
","
","
","""event"",""trial"",""time""
""fullscreenenter"",""1"",""2018""
","
","","","","","","null","<div style=""font-size:60px;"">+</div>","null","","fixation","","","","","","","","",""
"memory-trial","182","431152","0.0-15.0-1.69","1847","2","""event"",""trial"",""time""
""fullscreenenter"",""1"",""2018""
","
","
","""event"",""trial"",""time""
""fullscreenenter"",""1"",""2018""
","
","","","","","","1663.800000011921","images/banana1.png","","","memory_trial","3","maybe_new","","","","","","",""
"html-keyboard-response","183","431654","0.0-15.0-0.70","1847","2","""event"",""trial"",""time""
""fullscreenenter"",""1"",""2018""
","
","
","""event"",""trial"",""time""
""fullscreenenter"",""1"",""2018""
","
","","","","","","null","<div style=""font-size:60px;"">+</div>","null","","fixation","","","","","","","","",""
"memory-trial","184","433782","0.0-15.0-1.70","1847","2","""event"",""trial"",""time""
""fullscreenenter"",""1"",""2018""
","
","
","""event"",""trial"",""time""
""fullscreenenter"",""1"",""2018""
","
","","","","","","1122.5999999940395","images/feline5.png","","","memory_trial","1","definitely_old","","","","","","",""
"html-keyboard-response","185","434285","0.0-15.0-0.71","1847","2","""event"",""trial"",""time""
""fullscreenenter"",""1"",""2018""
","
","
","""event"",""trial"",""time""
""fullscreenenter"",""1"",""2018""
","
","","","","","","null","<div style=""font-size:60px;"">+</div>","null","","fixation","","","","","","","","",""
"memory-trial","186","437332","0.0-15.0-1.71","1847","2","""event"",""trial"",""time""
""fullscreenenter"",""1"",""2018""
","
","
","""event"",""trial"",""time""
""fullscreenenter"",""1"",""2018""
","
","","","","","","2043.2000000178814","images/truck1.png","","","memory_trial","3","maybe_new","","","","","","",""
"html-keyboard-response","187","437834","0.0-15.0-0.72","1847","2","""event"",""trial"",""time""
""fullscreenenter"",""1"",""2018""
","
","
","""event"",""trial"",""time""
""fullscreenenter"",""1"",""2018""
","
","","","","","","null","<div style=""font-size:60px;"">+</div>","null","","fixation","","","","","","","","",""
"memory-trial","188","440833","0.0-15.0-1.72","1847","2","""event"",""trial"",""time""
""fullscreenenter"",""1"",""2018""
","
","
","""event"",""trial"",""time""
""fullscreenenter"",""1"",""2018""
","
","","","","","","1992.3999999761581","images/apple2.png","","","memory_trial","2","maybe_old","","","","","","",""
"html-keyboard-response","189","441338","0.0-15.0-0.73","1847","2","""event"",""trial"",""time""
""fullscreenenter"",""1"",""2018""
","
","
","""event"",""trial"",""time""
""fullscreenenter"",""1"",""2018""
","
","","","","","","null","<div style=""font-size:60px;"">+</div>","null","","fixation","","","","","","","","",""
"memory-trial","190","443972","0.0-15.0-1.73","1847","2","""event"",""trial"",""time""
""fullscreenenter"",""1"",""2018""
","
","
","""event"",""trial"",""time""
""fullscreenenter"",""1"",""2018""
","
","","","","","","1628.5999999940395","images/feline2.png","","","memory_trial","1","definitely_old","","","","","","",""
"html-keyboard-response","191","444475","0.0-15.0-0.74","1847","2","""event"",""trial"",""time""
""fullscreenenter"",""1"",""2018""
","
","
","""event"",""trial"",""time""
""fullscreenenter"",""1"",""2018""
","
","","","","","","null","<div style=""font-size:60px;"">+</div>","null","","fixation","","","","","","","","",""
"memory-trial","192","447651","0.0-15.0-1.74","1847","2","""event"",""trial"",""time""
""fullscreenenter"",""1"",""2018""
","
","
","""event"",""trial"",""time""
""fullscreenenter"",""1"",""2018""
","
","","","","","","2173.0999999940395","images/rodent1.png","","","memory_trial","4","definitely_new","","","","","","",""
"html-keyboard-response","193","448153","0.0-15.0-0.75","1847","2","""event"",""trial"",""time""
""fullscreenenter"",""1"",""2018""
","
","
","""event"",""trial"",""time""
""fullscreenenter"",""1"",""2018""
","
","","","","","","null","<div style=""font-size:60px;"">+</div>","null","","fixation","","","","","","","","",""
"memory-trial","194","450502","0.0-15.0-1.75","1847","2","""event"",""trial"",""time""
""fullscreenenter"",""1"",""2018""
","
","
","""event"",""trial"",""time""
""fullscreenenter"",""1"",""2018""
","
","","","","","","1342.800000011921","images/plane1.png","","","memory_trial","1","definitely_old","","","","","","",""
"html-keyboard-response","195","451004","0.0-15.0-0.76","1847","2","""event"",""trial"",""time""
""fullscreenenter"",""1"",""2018""
","
","
","""event"",""trial"",""time""
""fullscreenenter"",""1"",""2018""
","
","","","","","","null","<div style=""font-size:60px;"">+</div>","null","","fixation","","","","","","","","",""
"memory-trial","196","453872","0.0-15.0-1.76","1847","2","""event"",""trial"",""time""
""fullscreenenter"",""1"",""2018""
","
","
","""event"",""trial"",""time""
""fullscreenenter"",""1"",""2018""
","
","","","","","","1861.800000011921","images/flower1.png","","","memory_trial","4","definitely_new","","","","","","",""
"html-keyboard-response","197","454374","0.0-15.0-0.77","1847","2","""event"",""trial"",""time""
""fullscreenenter"",""1"",""2018""
","
","
","""event"",""trial"",""time""
""fullscreenenter"",""1"",""2018""
","
","","","","","","null","<div style=""font-size:60px;"">+</div>","null","","fixation","","","","","","","","",""
"memory-trial","198","456673","0.0-15.0-1.77","1847","2","""event"",""trial"",""time""
""fullscreenenter"",""1"",""2018""
","
","
","""event"",""trial"",""time""
""fullscreenenter"",""1"",""2018""
","
","","","","","","1294.1000000238419","images/chair3.png","","","memory_trial","3","maybe_new","","","","","","",""
"html-keyboard-response","199","457174","0.0-15.0-0.78","1847","2","""event"",""trial"",""time""
""fullscreenenter"",""1"",""2018""
","
","
","""event"",""trial"",""time""
""fullscreenenter"",""1"",""2018""
","
","","","","","","null","<div style=""font-size:60px;"">+</div>","null","","fixation","","","","","","","","",""
"memory-trial","200","459472","0.0-15.0-1.78","1847","2","""event"",""trial"",""time""
""fullscreenenter"",""1"",""2018""
","
","
","""event"",""trial"",""time""
""fullscreenenter"",""1"",""2018""
","
","","","","","","1292.300000011921","images/rabbit3.png","","","memory_trial","4","definitely_new","","","","","","",""
"html-keyboard-response","201","459975","0.0-15.0-0.79","1847","2","""event"",""trial"",""time""
""fullscreenenter"",""1"",""2018""
","
","
","""event"",""trial"",""time""
""fullscreenenter"",""1"",""2018""
","
","","","","","","null","<div style=""font-size:60px;"">+</div>","null","","fixation","","","","","","","","",""
"memory-trial","202","461982","0.0-15.0-1.79","1847","2","""event"",""trial"",""time""
""fullscreenenter"",""1"",""2018""
","
","
","""event"",""trial"",""time""
""fullscreenenter"",""1"",""2018""
","
","","","","","","1003","images/tree4.png","","","memory_trial","1","definitely_old","","","","","","",""
"html-keyboard-response","203","462484","0.0-15.0-0.80","1847","2","""event"",""trial"",""time""
""fullscreenenter"",""1"",""2018""
","
","
","""event"",""trial"",""time""
""fullscreenenter"",""1"",""2018""
","
","","","","","","null","<div style=""font-size:60px;"">+</div>","null","","fixation","","","","","","","","",""
"memory-trial","204","464652","0.0-15.0-1.80","1847","2","""event"",""trial"",""time""
""fullscreenenter"",""1"",""2018""
","
","
","""event"",""trial"",""time""
""fullscreenenter"",""1"",""2018""
","
","","","","","","1164.2000000178814","images/banana2.png","","","memory_trial","4","definitely_new","","","","","","",""
"html-keyboard-response","205","465154","0.0-15.0-0.81","1847","2","""event"",""trial"",""time""
""fullscreenenter"",""1"",""2018""
","
","
","""event"",""trial"",""time""
""fullscreenenter"",""1"",""2018""
","
","","","","","","null","<div style=""font-size:60px;"">+</div>","null","","fixation","","","","","","","","",""
"memory-trial","206","467393","0.0-15.0-1.81","1847","2","""event"",""trial"",""time""
""fullscreenenter"",""1"",""2018""
","
","
","""event"",""trial"",""time""
""fullscreenenter"",""1"",""2018""
","
","","","","","","1235.5999999940395","images/rabbit2.png","","","memory_trial","1","definitely_old","","","","","","",""
"html-keyboard-response","207","467896","0.0-15.0-0.82","1847","2","""event"",""trial"",""time""
""fullscreenenter"",""1"",""2018""
","
","
","""event"",""trial"",""time""
""fullscreenenter"",""1"",""2018""
","
","","","","","","null","<div style=""font-size:60px;"">+</div>","null","","fixation","","","","","","","","",""
"memory-trial","208","470322","0.0-15.0-1.82","1847","2","""event"",""trial"",""time""
""fullscreenenter"",""1"",""2018""
","
","
","""event"",""trial"",""time""
""fullscreenenter"",""1"",""2018""
","
","","","","","","1422.7000000178814","images/goat4.png","","","memory_trial","3","maybe_new","","","","","","",""
"html-keyboard-response","209","470825","0.0-15.0-0.83","1847","2","""event"",""trial"",""time""
""fullscreenenter"",""1"",""2018""
","
","
","""event"",""trial"",""time""
""fullscreenenter"",""1"",""2018""
","
","","","","","","null","<div style=""font-size:60px;"">+</div>","null","","fixation","","","","","","","","",""
"memory-trial","210","472993","0.0-15.0-1.83","1847","2","""event"",""trial"",""time""
""fullscreenenter"",""1"",""2018""
","
","
","""event"",""trial"",""time""
""fullscreenenter"",""1"",""2018""
","
","","","","","","1163.2000000178814","images/sheep4.png","","","memory_trial","1","definitely_old","","","","","","",""
"html-keyboard-response","211","473495","0.0-15.0-0.84","1847","2","""event"",""trial"",""time""
""fullscreenenter"",""1"",""2018""
","
","
","""event"",""trial"",""time""
""fullscreenenter"",""1"",""2018""
","
","","","","","","null","<div style=""font-size:60px;"">+</div>","null","","fixation","","","","","","","","",""
"memory-trial","212","475441","0.0-15.0-1.84","1847","2","""event"",""trial"",""time""
""fullscreenenter"",""1"",""2018""
","
","
","""event"",""trial"",""time""
""fullscreenenter"",""1"",""2018""
","
","","","","","","941.8000000119209","images/straw1.png","","","memory_trial","4","definitely_new","","","","","","",""
"html-keyboard-response","213","475943","0.0-15.0-0.85","1847","2","""event"",""trial"",""time""
""fullscreenenter"",""1"",""2018""
","
","
","""event"",""trial"",""time""
""fullscreenenter"",""1"",""2018""
","
","","","","","","null","<div style=""font-size:60px;"">+</div>","null","","fixation","","","","","","","","",""
"memory-trial","214","477802","0.0-15.0-1.85","1847","2","""event"",""trial"",""time""
""fullscreenenter"",""1"",""2018""
","
","
","""event"",""trial"",""time""
""fullscreenenter"",""1"",""2018""
","
","","","","","","855.1999999880791","images/boat3.png","","","memory_trial","4","definitely_new","","","","","","",""
"html-keyboard-response","215","478306","0.0-15.0-0.86","1847","2","""event"",""trial"",""time""
""fullscreenenter"",""1"",""2018""
","
","
","""event"",""trial"",""time""
""fullscreenenter"",""1"",""2018""
","
","","","","","","null","<div style=""font-size:60px;"">+</div>","null","","fixation","","","","","","","","",""
"memory-trial","216","481593","0.0-15.0-1.86","1847","2","""event"",""trial"",""time""
""fullscreenenter"",""1"",""2018""
","
","
","""event"",""trial"",""time""
""fullscreenenter"",""1"",""2018""
","
","","","","","","2281.5","images/rabbit5.png","","","memory_trial","1","definitely_old","","","","","","",""
"html-keyboard-response","217","482095","0.0-15.0-0.87","1847","2","""event"",""trial"",""time""
""fullscreenenter"",""1"",""2018""
","
","
","""event"",""trial"",""time""
""fullscreenenter"",""1"",""2018""
","
","","","","","","null","<div style=""font-size:60px;"">+</div>","null","","fixation","","","","","","","","",""
"memory-trial","218","485103","0.0-15.0-1.87","1847","2","""event"",""trial"",""time""
""fullscreenenter"",""1"",""2018""
","
","
","""event"",""trial"",""time""
""fullscreenenter"",""1"",""2018""
","
","","","","","","2001.5999999940395","images/cactus1.png","","","memory_trial","4","definitely_new","","","","","","",""
"html-keyboard-response","219","485605","0.0-15.0-0.88","1847","2","""event"",""trial"",""time""
""fullscreenenter"",""1"",""2018""
","
","
","""event"",""trial"",""time""
""fullscreenenter"",""1"",""2018""
","
","","","","","","null","<div style=""font-size:60px;"">+</div>","null","","fixation","","","","","","","","",""
"memory-trial","220","487923","0.0-15.0-1.88","1847","2","""event"",""trial"",""time""
""fullscreenenter"",""1"",""2018""
","
","
","""event"",""trial"",""time""
""fullscreenenter"",""1"",""2018""
","
","","","","","","1312","images/orange5.png","","","memory_trial","1","definitely_old","","","","","","",""
"html-keyboard-response","221","488426","0.0-15.0-0.89","1847","2","""event"",""trial"",""time""
""fullscreenenter"",""1"",""2018""
","
","
","""event"",""trial"",""time""
""fullscreenenter"",""1"",""2018""
","
","","","","","","null","<div style=""font-size:60px;"">+</div>","null","","fixation","","","","","","","","",""
"memory-trial","222","490641","0.0-15.0-1.89","1847","2","""event"",""trial"",""time""
""fullscreenenter"",""1"",""2018""
","
","
","""event"",""trial"",""time""
""fullscreenenter"",""1"",""2018""
","
","","","","","","1212.199999988079","images/goat3.png","","","memory_trial","3","maybe_new","","","","","","",""
"html-keyboard-response","223","491143","0.0-15.0-0.90","1847","2","""event"",""trial"",""time""
""fullscreenenter"",""1"",""2018""
","
","
","""event"",""trial"",""time""
""fullscreenenter"",""1"",""2018""
","
","","","","","","null","<div style=""font-size:60px;"">+</div>","null","","fixation","","","","","","","","",""
"memory-trial","224","493460","0.0-15.0-1.90","1847","2","""event"",""trial"",""time""
""fullscreenenter"",""1"",""2018""
","
","
","""event"",""trial"",""time""
""fullscreenenter"",""1"",""2018""
","
","","","","","","1311.4000000059605","images/cactus2.png","","","memory_trial","1","definitely_old","","","","","","",""
"html-keyboard-response","225","493963","0.0-15.0-0.91","1847","2","""event"",""trial"",""time""
""fullscreenenter"",""1"",""2018""
","
","
","""event"",""trial"",""time""
""fullscreenenter"",""1"",""2018""
","
","","","","","","null","<div style=""font-size:60px;"">+</div>","null","","fixation","","","","","","","","",""
"memory-trial","226","495942","0.0-15.0-1.91","1847","2","""event"",""trial"",""time""
""fullscreenenter"",""1"",""2018""
","
","
","""event"",""trial"",""time""
""fullscreenenter"",""1"",""2018""
","
","","","","","","974.2000000178814","images/cow1.png","","","memory_trial","2","maybe_old","","","","","","",""
"html-keyboard-response","227","496445","0.0-15.0-0.92","1847","2","""event"",""trial"",""time""
""fullscreenenter"",""1"",""2018""
","
","
","""event"",""trial"",""time""
""fullscreenenter"",""1"",""2018""
","
","","","","","","null","<div style=""font-size:60px;"">+</div>","null","","fixation","","","","","","","","",""
"memory-trial","228","498491","0.0-15.0-1.92","1847","2","""event"",""trial"",""time""
""fullscreenenter"",""1"",""2018""
","
","
","""event"",""trial"",""time""
""fullscreenenter"",""1"",""2018""
","
","","","","","","1042.699999988079","images/train3.png","","","memory_trial","2","maybe_old","","","","","","",""
"html-keyboard-response","229","498993","0.0-15.0-0.93","1847","2","""event"",""trial"",""time""
""fullscreenenter"",""1"",""2018""
","
","
","""event"",""trial"",""time""
""fullscreenenter"",""1"",""2018""
","
","","","","","","null","<div style=""font-size:60px;"">+</div>","null","","fixation","","","","","","","","",""
"memory-trial","230","501190","0.0-15.0-1.93","1847","2","""event"",""trial"",""time""
""fullscreenenter"",""1"",""2018""
","
","
","""event"",""trial"",""time""
""fullscreenenter"",""1"",""2018""
","
","","","","","","1195.300000011921","images/bed3.png","","","memory_trial","1","definitely_old","","","","","","",""
"html-keyboard-response","231","501693","0.0-15.0-0.94","1847","2","""event"",""trial"",""time""
""fullscreenenter"",""1"",""2018""
","
","
","""event"",""trial"",""time""
""fullscreenenter"",""1"",""2018""
","
","","","","","","null","<div style=""font-size:60px;"">+</div>","null","","fixation","","","","","","","","",""
"memory-trial","232","504282","0.0-15.0-1.94","1847","2","""event"",""trial"",""time""
""fullscreenenter"",""1"",""2018""
","
","
","""event"",""trial"",""time""
""fullscreenenter"",""1"",""2018""
","
","","","","","","1582.199999988079","images/sheep1.png","","","memory_trial","3","maybe_new","","","","","","",""
"html-keyboard-response","233","504784","0.0-15.0-0.95","1847","2","""event"",""trial"",""time""
""fullscreenenter"",""1"",""2018""
","
","
","""event"",""trial"",""time""
""fullscreenenter"",""1"",""2018""
","
","","","","","","null","<div style=""font-size:60px;"">+</div>","null","","fixation","","","","","","","","",""
"memory-trial","234","507292","0.0-15.0-1.95","1847","2","""event"",""trial"",""time""
""fullscreenenter"",""1"",""2018""
","
","
","""event"",""trial"",""time""
""fullscreenenter"",""1"",""2018""
","
","","","","","","1503.699999988079","images/goat5.png","","","memory_trial","3","maybe_new","","","","","","",""
"html-keyboard-response","235","507795","0.0-15.0-0.96","1847","2","""event"",""trial"",""time""
""fullscreenenter"",""1"",""2018""
","
","
","""event"",""trial"",""time""
""fullscreenenter"",""1"",""2018""
","
","","","","","","null","<div style=""font-size:60px;"">+</div>","null","","fixation","","","","","","","","",""
"memory-trial","236","509592","0.0-15.0-1.96","1847","2","""event"",""trial"",""time""
""fullscreenenter"",""1"",""2018""
","
","
","""event"",""trial"",""time""
""fullscreenenter"",""1"",""2018""
","
","","","","","","791.8000000119209","images/straw3.png","","","memory_trial","4","definitely_new","","","","","","",""
"html-keyboard-response","237","510095","0.0-15.0-0.97","1847","2","""event"",""trial"",""time""
""fullscreenenter"",""1"",""2018""
","
","
","""event"",""trial"",""time""
""fullscreenenter"",""1"",""2018""
","
","","","","","","null","<div style=""font-size:60px;"">+</div>","null","","fixation","","","","","","","","",""
"memory-trial","238","512421","0.0-15.0-1.97","1847","2","""event"",""trial"",""time""
""fullscreenenter"",""1"",""2018""
","
","
","""event"",""trial"",""time""
""fullscreenenter"",""1"",""2018""
","
","","","","","","1322.300000011921","images/sheep3.png","","","memory_trial","1","definitely_old","","","","","","",""
"html-keyboard-response","239","512923","0.0-15.0-0.98","1847","2","""event"",""trial"",""time""
""fullscreenenter"",""1"",""2018""
","
","
","""event"",""trial"",""time""
""fullscreenenter"",""1"",""2018""
","
","","","","","","null","<div style=""font-size:60px;"">+</div>","null","","fixation","","","","","","","","",""
"memory-trial","240","515641","0.0-15.0-1.98","1847","2","""event"",""trial"",""time""
""fullscreenenter"",""1"",""2018""
","
","
","""event"",""trial"",""time""
""fullscreenenter"",""1"",""2018""
","
","","","","","","1714","images/plane2.png","","","memory_trial","4","definitely_new","","","","","","",""
"html-keyboard-response","241","516144","0.0-15.0-0.99","1847","2","""event"",""trial"",""time""
""fullscreenenter"",""1"",""2018""
","
","
","""event"",""trial"",""time""
""fullscreenenter"",""1"",""2018""
","
","","","","","","null","<div style=""font-size:60px;"">+</div>","null","","fixation","","","","","","","","",""
"memory-trial","242","518772","0.0-15.0-1.99","1847","2","""event"",""trial"",""time""
""fullscreenenter"",""1"",""2018""
","
","
","""event"",""trial"",""time""
""fullscreenenter"",""1"",""2018""
","
","","","","","","1621.5","images/flower3.png","","","memory_trial","3","maybe_new","","","","","","",""
"html-keyboard-response","243","519274","0.0-15.0-0.100","1847","2","""event"",""trial"",""time""
""fullscreenenter"",""1"",""2018""
","
","
","""event"",""trial"",""time""
""fullscreenenter"",""1"",""2018""
","
","","","","","","null","<div style=""font-size:60px;"">+</div>","null","","fixation","","","","","","","","",""
"memory-trial","244","521172","0.0-15.0-1.100","1847","2","""event"",""trial"",""time""
""fullscreenenter"",""1"",""2018""
","
","
","""event"",""trial"",""time""
""fullscreenenter"",""1"",""2018""
","
","","","","","","892.6999999880791","images/table5.png","","","memory_trial","1","definitely_old","","","","","","",""
"html-keyboard-response","245","521674","0.0-15.0-0.101","1847","2","""event"",""trial"",""time""
""fullscreenenter"",""1"",""2018""
","
","
","""event"",""trial"",""time""
""fullscreenenter"",""1"",""2018""
","
","","","","","","null","<div style=""font-size:60px;"">+</div>","null","","fixation","","","","","","","","",""
"memory-trial","246","524152","0.0-15.0-1.101","1847","2","""event"",""trial"",""time""
""fullscreenenter"",""1"",""2018""
","
","
","""event"",""trial"",""time""
""fullscreenenter"",""1"",""2018""
","
","","","","","","1473.5","images/dog3.png","","","memory_trial","3","maybe_new","","","","","","",""
"html-button-response","247","529150","0.0-15.0-2.101-0.101","1847","2","""event"",""trial"",""time""
""fullscreenenter"",""1"",""2018""
","
","
","""event"",""trial"",""time""
""fullscreenenter"",""1"",""2018""
","
","","","","","","4994.199999988079","<p> Take a break! </p><p> Click the button to continue. </p>","0","","break","","","","","","","","",""
"html-keyboard-response","248","529653","0.0-15.0-0.102","1847","2","""event"",""trial"",""time""
""fullscreenenter"",""1"",""2018""
","
","
","""event"",""trial"",""time""
""fullscreenenter"",""1"",""2018""
","
","","","","","","null","<div style=""font-size:60px;"">+</div>","null","","fixation","","","","","","","","",""
"memory-trial","249","531612","0.0-15.0-1.102","1847","2","""event"",""trial"",""time""
""fullscreenenter"",""1"",""2018""
","
","
","""event"",""trial"",""time""
""fullscreenenter"",""1"",""2018""
","
","","","","","","953.5","images/bush4.png","","","memory_trial","4","definitely_new","","","","","","",""
"html-keyboard-response","250","532115","0.0-15.0-0.103","1847","2","""event"",""trial"",""time""
""fullscreenenter"",""1"",""2018""
","
","
","""event"",""trial"",""time""
""fullscreenenter"",""1"",""2018""
","
","","","","","","null","<div style=""font-size:60px;"">+</div>","null","","fixation","","","","","","","","",""
"memory-trial","251","534731","0.0-15.0-1.103","1847","2","""event"",""trial"",""time""
""fullscreenenter"",""1"",""2018""
","
","
","""event"",""trial"",""time""
""fullscreenenter"",""1"",""2018""
","
","","","","","","1612.300000011921","images/cow4.png","","","memory_trial","3","maybe_new","","","","","","",""
"html-keyboard-response","252","535233","0.0-15.0-0.104","1847","2","""event"",""trial"",""time""
""fullscreenenter"",""1"",""2018""
","
","
","""event"",""trial"",""time""
""fullscreenenter"",""1"",""2018""
","
","","","","","","null","<div style=""font-size:60px;"">+</div>","null","","fixation","","","","","","","","",""
"memory-trial","253","538031","0.0-15.0-1.104","1847","2","""event"",""trial"",""time""
""fullscreenenter"",""1"",""2018""
","
","
","""event"",""trial"",""time""
""fullscreenenter"",""1"",""2018""
","
","","","","","","1792.5","images/cow3.png","","","memory_trial","2","maybe_old","","","","","","",""
"html-keyboard-response","254","538534","0.0-15.0-0.105","1847","2","""event"",""trial"",""time""
""fullscreenenter"",""1"",""2018""
","
","
","""event"",""trial"",""time""
""fullscreenenter"",""1"",""2018""
","
","","","","","","null","<div style=""font-size:60px;"">+</div>","null","","fixation","","","","","","","","",""
"memory-trial","255","540852","0.0-15.0-1.105","1847","2","""event"",""trial"",""time""
""fullscreenenter"",""1"",""2018""
","
","
","""event"",""trial"",""time""
""fullscreenenter"",""1"",""2018""
","
","","","","","","1313.300000011921","images/cactus3.png","","","memory_trial","4","definitely_new","","","","","","",""
"html-keyboard-response","256","541353","0.0-15.0-0.106","1847","2","""event"",""trial"",""time""
""fullscreenenter"",""1"",""2018""
","
","
","""event"",""trial"",""time""
""fullscreenenter"",""1"",""2018""
","
","","","","","","null","<div style=""font-size:60px;"">+</div>","null","","fixation","","","","","","","","",""
"memory-trial","257","542862","0.0-15.0-1.106","1847","2","""event"",""trial"",""time""
""fullscreenenter"",""1"",""2018""
","
","
","""event"",""trial"",""time""
""fullscreenenter"",""1"",""2018""
","
","","","","","","502.59999999403954","images/cactus5.png","","","memory_trial","4","definitely_new","","","","","","",""
"html-keyboard-response","258","543364","0.0-15.0-0.107","1847","2","""event"",""trial"",""time""
""fullscreenenter"",""1"",""2018""
","
","
","""event"",""trial"",""time""
""fullscreenenter"",""1"",""2018""
","
","","","","","","null","<div style=""font-size:60px;"">+</div>","null","","fixation","","","","","","","","",""
"memory-trial","259","545610","0.0-15.0-1.107","1847","2","""event"",""trial"",""time""
""fullscreenenter"",""1"",""2018""
","
","
","""event"",""trial"",""time""
""fullscreenenter"",""1"",""2018""
","
","","","","","","1244","images/sheep2.png","","","memory_trial","4","definitely_new","","","","","","",""
"html-keyboard-response","260","546113","0.0-15.0-0.108","1847","2","""event"",""trial"",""time""
""fullscreenenter"",""1"",""2018""
","
","
","""event"",""trial"",""time""
""fullscreenenter"",""1"",""2018""
","
","","","","","","null","<div style=""font-size:60px;"">+</div>","null","","fixation","","","","","","","","",""
"memory-trial","261","548451","0.0-15.0-1.108","1847","2","""event"",""trial"",""time""
""fullscreenenter"",""1"",""2018""
","
","
","""event"",""trial"",""time""
""fullscreenenter"",""1"",""2018""
","
","","","","","","1333.5","images/train1.png","","","memory_trial","1","definitely_old","","","","","","",""
"html-keyboard-response","262","548954","0.0-15.0-0.109","1847","2","""event"",""trial"",""time""
""fullscreenenter"",""1"",""2018""
","
","
","""event"",""trial"",""time""
""fullscreenenter"",""1"",""2018""
","
","","","","","","null","<div style=""font-size:60px;"">+</div>","null","","fixation","","","","","","","","",""
"memory-trial","263","551022","0.0-15.0-1.109","1847","2","""event"",""trial"",""time""
""fullscreenenter"",""1"",""2018""
","
","
","""event"",""trial"",""time""
""fullscreenenter"",""1"",""2018""
","
","","","","","","1063.0999999940395","images/orange1.png","","","memory_trial","1","definitely_old","","","","","","",""
"html-keyboard-response","264","551524","0.0-15.0-0.110","1847","2","""event"",""trial"",""time""
""fullscreenenter"",""1"",""2018""
","
","
","""event"",""trial"",""time""
""fullscreenenter"",""1"",""2018""
","
","","","","","","null","<div style=""font-size:60px;"">+</div>","null","","fixation","","","","","","","","",""
"memory-trial","265","553702","0.0-15.0-1.110","1847","2","""event"",""trial"",""time""
""fullscreenenter"",""1"",""2018""
","
","
","""event"",""trial"",""time""
""fullscreenenter"",""1"",""2018""
","
","","","","","","1172.199999988079","images/truck3.png","","","memory_trial","1","definitely_old","","","","","","",""
"html-keyboard-response","266","554211","0.0-15.0-0.111","1847","2","""event"",""trial"",""time""
""fullscreenenter"",""1"",""2018""
","
","
","""event"",""trial"",""time""
""fullscreenenter"",""1"",""2018""
","
","","","","","","null","<div style=""font-size:60px;"">+</div>","null","","fixation","","","","","","","","",""
"memory-trial","267","556781","0.0-15.0-1.111","1847","2","""event"",""trial"",""time""
""fullscreenenter"",""1"",""2018""
","
","
","""event"",""trial"",""time""
""fullscreenenter"",""1"",""2018""
","
","","","","","","1566.199999988079","images/train5.png","","","memory_trial","4","definitely_new","","","","","","",""
"html-keyboard-response","268","557284","0.0-15.0-0.112","1847","2","""event"",""trial"",""time""
""fullscreenenter"",""1"",""2018""
","
","
","""event"",""trial"",""time""
""fullscreenenter"",""1"",""2018""
","
","","","","","","null","<div style=""font-size:60px;"">+</div>","null","","fixation","","","","","","","","",""
"memory-trial","269","559671","0.0-15.0-1.112","1847","2","""event"",""trial"",""time""
""fullscreenenter"",""1"",""2018""
","
","
","""event"",""trial"",""time""
""fullscreenenter"",""1"",""2018""
","
","","","","","","1382.300000011921","images/feline1.png","","","memory_trial","4","definitely_new","","","","","","",""
"html-keyboard-response","270","560173","0.0-15.0-0.113","1847","2","""event"",""trial"",""time""
""fullscreenenter"",""1"",""2018""
","
","
","""event"",""trial"",""time""
""fullscreenenter"",""1"",""2018""
","
","","","","","","null","<div style=""font-size:60px;"">+</div>","null","","fixation","","","","","","","","",""
"memory-trial","271","562212","0.0-15.0-1.113","1847","2","""event"",""trial"",""time""
""fullscreenenter"",""1"",""2018""
","
","
","""event"",""trial"",""time""
""fullscreenenter"",""1"",""2018""
","
","","","","","","1033.9000000059605","images/table2.png","","","memory_trial","4","definitely_new","","","","","","",""
"html-keyboard-response","272","562713","0.0-15.0-0.114","1847","2","""event"",""trial"",""time""
""fullscreenenter"",""1"",""2018""
","
","
","""event"",""trial"",""time""
""fullscreenenter"",""1"",""2018""
","
","","","","","","null","<div style=""font-size:60px;"">+</div>","null","","fixation","","","","","","","","",""
"memory-trial","273","564742","0.0-15.0-1.114","1847","2","""event"",""trial"",""time""
""fullscreenenter"",""1"",""2018""
","
","
","""event"",""trial"",""time""
""fullscreenenter"",""1"",""2018""
","
","","","","","","1025.6000000238419","images/bed4.png","","","memory_trial","4","definitely_new","","","","","","",""
"html-keyboard-response","274","565244","0.0-15.0-0.115","1847","2","""event"",""trial"",""time""
""fullscreenenter"",""1"",""2018""
","
","
","""event"",""trial"",""time""
""fullscreenenter"",""1"",""2018""
","
","","","","","","null","<div style=""font-size:60px;"">+</div>","null","","fixation","","","","","","","","",""
"memory-trial","275","567961","0.0-15.0-1.115","1847","2","""event"",""trial"",""time""
""fullscreenenter"",""1"",""2018""
","
","
","""event"",""trial"",""time""
""fullscreenenter"",""1"",""2018""
","
","","","","","","1713.9000000059605","images/dog1.png","","","memory_trial","1","definitely_old","","","","","","",""
"html-keyboard-response","276","568469","0.0-15.0-0.116","1847","2","""event"",""trial"",""time""
""fullscreenenter"",""1"",""2018""
","
","
","""event"",""trial"",""time""
""fullscreenenter"",""1"",""2018""
","
","","","","","","null","<div style=""font-size:60px;"">+</div>","null","","fixation","","","","","","","","",""
"memory-trial","277","570501","0.0-15.0-1.116","1847","2","""event"",""trial"",""time""
""fullscreenenter"",""1"",""2018""
","
","
","""event"",""trial"",""time""
""fullscreenenter"",""1"",""2018""
","
","","","","","","1028.5999999940395","images/sofa1.png","","","memory_trial","4","definitely_new","","","","","","",""
"html-keyboard-response","278","571004","0.0-15.0-0.117","1847","2","""event"",""trial"",""time""
""fullscreenenter"",""1"",""2018""
","
","
","""event"",""trial"",""time""
""fullscreenenter"",""1"",""2018""
","
","","","","","","null","<div style=""font-size:60px;"">+</div>","null","","fixation","","","","","","","","",""
"memory-trial","279","573722","0.0-15.0-1.117","1847","2","""event"",""trial"",""time""
""fullscreenenter"",""1"",""2018""
","
","
","""event"",""trial"",""time""
""fullscreenenter"",""1"",""2018""
","
","","","","","","1712.800000011921","images/rodent4.png","","","memory_trial","3","maybe_new","","","","","","",""
"html-keyboard-response","280","574224","0.0-15.0-0.118","1847","2","""event"",""trial"",""time""
""fullscreenenter"",""1"",""2018""
","
","
","""event"",""trial"",""time""
""fullscreenenter"",""1"",""2018""
","
","","","","","","null","<div style=""font-size:60px;"">+</div>","null","","fixation","","","","","","","","",""
"memory-trial","281","576422","0.0-15.0-1.118","1847","2","""event"",""trial"",""time""
""fullscreenenter"",""1"",""2018""
","
","
","""event"",""trial"",""time""
""fullscreenenter"",""1"",""2018""
","
","","","","","","1193.4000000059605","images/plane5.png","","","memory_trial","1","definitely_old","","","","","","",""
"html-keyboard-response","282","576925","0.0-15.0-0.119","1847","2","""event"",""trial"",""time""
""fullscreenenter"",""1"",""2018""
","
","
","""event"",""trial"",""time""
""fullscreenenter"",""1"",""2018""
","
","","","","","","null","<div style=""font-size:60px;"">+</div>","null","","fixation","","","","","","","","",""
"memory-trial","283","579051","0.0-15.0-1.119","1847","2","""event"",""trial"",""time""
""fullscreenenter"",""1"",""2018""
","
","
","""event"",""trial"",""time""
""fullscreenenter"",""1"",""2018""
","
","","","","","","1124","images/plane3.png","","","memory_trial","4","definitely_new","","","","","","",""
"preload","284","587533","0.0-16.0","1847","2","""event"",""trial"",""time""
""fullscreenenter"",""1"",""2018""
","
","
","""event"",""trial"",""time""
""fullscreenenter"",""1"",""2018""
","
","true","false","[]","[]","[]","","","","","","","","","","","","","",""
"learning-instructions","285","594391","0.0-17.0-0.0-0.0-0.0","1847","2","""event"",""trial"",""time""
""fullscreenenter"",""1"",""2018""
","
","
","""event"",""trial"",""time""
""fullscreenenter"",""1"",""2018""
","
","","","","","","3640","<p> We're now going to ask you to feed your pets again. </p>","","0","instructions","","","","","","","","",""
"learning-instructions","286","601366","0.0-17.0-0.0-0.0-0.1","1847","2","""event"",""trial"",""time""
""fullscreenenter"",""1"",""2018""
","
","
","""event"",""trial"",""time""
""fullscreenenter"",""1"",""2018""
","
","","","","","","814.6000000238419","<p> On each trial, you will see a pet. Select the food that you think is most likely to make the pet happy. </p>","","0","instructions","","","","","","","","",""
"learning-instructions","287","608703","0.0-17.0-0.0-0.0-0.2","1847","2","""event"",""trial"",""time""
""fullscreenenter"",""1"",""2018""
","
","
","""event"",""trial"",""time""
""fullscreenenter"",""1"",""2018""
","
","","","","","","261.5","<p> To make your selection, think about what you learned last week. You will NOT receive any feedback about your choice. </p>","","0","instructions","","","","","","","","",""
"learning-instructions","288","616766","0.0-17.0-0.0-0.0-0.3","1847","2","""event"",""trial"",""time""
""fullscreenenter"",""1"",""2018""
","
","
","""event"",""trial"",""time""
""fullscreenenter"",""1"",""2018""
","
","","","","","","433.69999998807907","<p> You should use the 1 key to select the food on the left, the 2 key to select the food in the middle, and the 3 key to select the food on the right. </p><br><div class=""choice-mem-instructions-grid""> <div class=""choice-mem-option""><img src=""images/pets_choice1.png"" class=""choice-mem-option-img"" stage=""instructions"" position=""0"" ><div class=""choice-mem-option-text""> Press ""1."" </div></div><div class=""choice-mem-option""><img src=""images/pets_choice2.png"" class=""choice-mem-option-img"" stage=""instructions"" position=""1"" ><div class=""choice-mem-option-text""> Press ""2."" </div></div><div class=""choice-mem-option""><img src=""images/pets_choice3.png"" class=""choice-mem-option-img"" stage=""instructions"" position=""2"" ><div class=""choice-mem-option-text""> Press ""3."" </div></div></div>","","0","instructions","","","","","","","","",""
"learning-instructions","289","624274","0.0-17.0-0.0-0.0-0.4","1847","2","""event"",""trial"",""time""
""fullscreenenter"",""1"",""2018""
","
","
","""event"",""trial"",""time""
""fullscreenenter"",""1"",""2018""
","
","","","","","","1221.199999988079","<p> You will have 10 seconds to make each selection. Try to respond before time runs out! </p>","","0","instructions","","","","","","","","",""
"learning-instructions","290","627358","0.0-17.0-0.0-1.0","1847","2","""event"",""trial"",""time""
""fullscreenenter"",""1"",""2018""
","
","
","""event"",""trial"",""time""
""fullscreenenter"",""1"",""2018""
","
","","","","","","1015.5999999940395","<p> You are now ready to begin the game. </p>","","0","instructions","","","","","","","","",""
"html-keyboard-response","291","627961","0.0-17.0-0.0-2.0-0.0","1847","2","""event"",""trial"",""time""
""fullscreenenter"",""1"",""2018""
","
","
","""event"",""trial"",""time""
""fullscreenenter"",""1"",""2018""
","
","","","","","","null","<div style=""font-size:60px;"">+</div>","null","","fixation","","","","","","","","",""
"choice-memory-trial","292","630211","0.0-17.0-0.0-2.0-1.0","1847","2","""event"",""trial"",""time""
""fullscreenenter"",""1"",""2018""
","
","
","""event"",""trial"",""time""
""fullscreenenter"",""1"",""2018""
","
