"trial_type","trial_index","time_elapsed","internal_node_id","subject_id","task_version","interactions","blur_events","focus_events","fullscreenenter_events","fullscreenexit_events","success","timeout","failed_images","failed_audio","failed_video","rt","stimulus","response","button_pressed","task_part","key_press","answer","correct","left_choice","middle_choice","right_choice","choice_positions","option_selected","block"
"pavlovia","0","5","0.0-0.0","1485","2","""event"",""trial"",""time""
""fullscreenenter"",""1"",""4101""
","
","
","""event"",""trial"",""time""
""fullscreenenter"",""1"",""4101""
","
","","","","","","","","","","","","","","","","","","",""
"fullscreen","1","5070","0.0-1.0","1485","2","""event"",""trial"",""time""
""fullscreenenter"",""1"",""4101""
","
","
","""event"",""trial"",""time""
""fullscreenenter"",""1"",""4101""
","
","true","","","","","","","","","","","","","","","","","",""
"preload","2","6007","0.0-2.0","1485","2","""event"",""trial"",""time""
""fullscreenenter"",""1"",""4101""
","
","
","""event"",""trial"",""time""
""fullscreenenter"",""1"",""4101""
","
","true","false","[]","[]","[]","","","","","","","","","","","","","",""
"audio-keyboard-response","3","11880","0.0-3.0","1485","2","""event"",""trial"",""time""
""fullscreenenter"",""1"",""4101""
","
","
","""event"",""trial"",""time""
""fullscreenenter"",""1"",""4101""
","
","","","","","","5877.333333333334","audio/beep_loop.wav"," ","","","","","","","","","","",""
"audio-button-response","4","15558","0.0-4.0","1485","2","""event"",""trial"",""time""
""fullscreenenter"",""1"",""4101""
","
","
","""event"",""trial"",""time""
""fullscreenenter"",""1"",""4101""
","
","","","","","","3669","audio/turtle.wav","3","","","","","","","","","","",""
"audio-button-response","5","17998","0.0-5.0","1485","2","""event"",""trial"",""time""
""fullscreenenter"",""1"",""4101""
","
","
","""event"",""trial"",""time""
""fullscreenenter"",""1"",""4101""
","
","","","","","","1419","audio/shark.wav","2","","","","","","","","","","",""
"preload","6","21881","0.0-6.0","1485","2","""event"",""trial"",""time""
""fullscreenenter"",""1"",""4101""
","
","
","""event"",""trial"",""time""
""fullscreenenter"",""1"",""4101""
","
","true","false","[]","[]","[]","","","","","","","","","","","","","",""
"learning-instructions","7","29257","0.0-7.0-0.0","1485","2","""event"",""trial"",""time""
""fullscreenenter"",""1"",""4101""
","
","
","""event"",""trial"",""time""
""fullscreenenter"",""1"",""4101""
","
","","","","","","2560.4000000002998","<p> Welcome back! </p><p> Last week, you had to make choices about lots of different items.  </p>","","0","instructions","","","","","","","","",""
"learning-instructions","8","39208","0.0-7.0-0.1","1485","2","""event"",""trial"",""time""
""fullscreenenter"",""1"",""4101""
","
","
","""event"",""trial"",""time""
""fullscreenenter"",""1"",""4101""
","
","","","","","","5643.0899999995745","<p> Today, we are going to ask you to try to remember all the items. </p>","","0","instructions","","","","","","","","",""
"learning-instructions","9","51766","0.0-7.0-0.2","1485","2","""event"",""trial"",""time""
""fullscreenenter"",""1"",""4101""
","
","
","""event"",""trial"",""time""
""fullscreenenter"",""1"",""4101""
","
","","","","","","2414.425000000847","<p> On every trial, you will see an image. </p><p> The image may be an OLD image you saw during the games last week or it may be a NEW image that was not presented. </p>","","0","instructions","","","","","","","","",""
"learning-instructions","10","61841","0.0-7.0-0.3","1485","2","""event"",""trial"",""time""
""fullscreenenter"",""1"",""4101""
","
","
","""event"",""trial"",""time""
""fullscreenenter"",""1"",""4101""
","
","","","","","","1564.715000000433","<p> You need to select whether the image is:  </p><p>  'Definitely old', 'Maybe old', 'Maybe new', or 'Definitely new.'  </p><div class=""mem-choice-instructions-grid""><div class=""choice-option"" id=""choice-option-1"" ><img src=""images/definitely_old_1.png"" id=""choice-option-img-1"" class=""choice-option-img"" stage=""1""></div><div class=""choice-option"" id=""choice-option-2"" ><img src=""images/maybe_old_1.png"" id=""choice-option-img-2"" class=""choice-option-img"" stage=""1""></div><div class=""choice-option"" id=""choice-option-3"" ><img src=""images/maybe_new_1.png"" id=""choice-option-img-3"" class=""choice-option-img"" stage=""1""></div><div class=""choice-option"" id=""choice-option-4"" > <img src=""images/definitely_new_1.png"" id=""choice-option-img-4"" class=""choice-option-img"" stage=""1""></div></div>","","0","instructions","","","","","","","","",""
"learning-instructions","11","70753","0.0-7.0-0.4","1485","2","""event"",""trial"",""time""
""fullscreenenter"",""1"",""4101""
","
","
","""event"",""trial"",""time""
""fullscreenenter"",""1"",""4101""
","
","","","","","","2221.0049999994226","<p> You should use the 1, 2, 3, and 4 keys to make your responses.  </p><div class=""mem-choice-instructions-grid""><div class=""choice-option"" id=""choice-option-1"" ><img src=""images/definitely_old.png"" id=""choice-option-img-1"" class=""choice-option-img"" stage=""1""></div><div class=""choice-option"" id=""choice-option-2"" ><img src=""images/maybe_old.png"" id=""choice-option-img-2"" class=""choice-option-img"" stage=""1""></div><div class=""choice-option"" id=""choice-option-3"" ><img src=""images/maybe_new.png"" id=""choice-option-img-3"" class=""choice-option-img"" stage=""1""></div><div class=""choice-option"" id=""choice-option-4"" > <img src=""images/definitely_new.png"" id=""choice-option-img-4"" class=""choice-option-img"" stage=""1""></div></div>","","0","instructions","","","","","","","","",""
"learning-instructions","12","79729","0.0-7.0-0.5","1485","2","""event"",""trial"",""time""
""fullscreenenter"",""1"",""4101""
","
","
","""event"",""trial"",""time""
""fullscreenenter"",""1"",""4101""
","
","","","","","","2216.674999999668","<p> You will have 10 seconds to make each response.  </p><p>  Make sure to respond before time runs out! </p>","","0","instructions","","","","","","","","",""
"learning-instructions","13","89321","0.0-7.0-0.6","1485","2","""event"",""trial"",""time""
""fullscreenenter"",""1"",""4101""
","
","
","""event"",""trial"",""time""
""fullscreenenter"",""1"",""4101""
","
","","","","","","1994.9799999994866","<p> Today, you will see each image ONCE only.  </p><p>  That means none of the images will repeat. </p>","","0","instructions","","","","","","","","",""
"learning-instructions","14","103769","0.0-7.0-0.7","1485","2","""event"",""trial"",""time""
""fullscreenenter"",""1"",""4101""
","
","
","""event"",""trial"",""time""
""fullscreenenter"",""1"",""4101""
","
","","","","","","1776.6349999983504","<p> Before you play the real game, it is time to practice. </p><p>  Just like in the real game, some of the images in the practice will be ones you have seen before. </p><p>  Others will be entirely new. </p>","","0","instructions","","","","","","","","",""
"html-button-response","15","106401","0.0-8.0","1485","2","""event"",""trial"",""time""
""fullscreenenter"",""1"",""4101""
","
","
","""event"",""trial"",""time""
""fullscreenenter"",""1"",""4101""
","
","","","","","","2513.9299999991636","<p> Ready to practice? </p><p> Remember, use the 1, 2, 3, and 4 keys to make your responses. </p>","0","","instructions","","","","","","","","",""
"html-keyboard-response","16","107025","0.0-9.0-0.0","1485","2","""event"",""trial"",""time""
""fullscreenenter"",""1"",""4101""
","
","
","""event"",""trial"",""time""
""fullscreenenter"",""1"",""4101""
","
","","","","","","null","<div style=""font-size:60px;"">+</div>","null","","fixation","","","","","","","","",""
"memory-trial","17","110447","0.0-9.0-1.0","1485","2","""event"",""trial"",""time""
""fullscreenenter"",""1"",""4101""
","
","
","""event"",""trial"",""time""
""fullscreenenter"",""1"",""4101""
","
","","","","","","2407.6700000005076","images/racket3.png","","","practice","4","definitely_new","","","","","","",""
"html-keyboard-response","18","110962","0.0-9.0-0.1","1485","2","""event"",""trial"",""time""
""fullscreenenter"",""1"",""4101""
","
","
","""event"",""trial"",""time""
""fullscreenenter"",""1"",""4101""
","
","","","","","","null","<div style=""font-size:60px;"">+</div>","null","","fixation","","","","","","","","",""
"memory-trial","19","114295","0.0-9.0-1.1","1485","2","""event"",""trial"",""time""
""fullscreenenter"",""1"",""4101""
","
","
","""event"",""trial"",""time""
""fullscreenenter"",""1"",""4101""
","
","","","","","","2318.440000000919","images/ball4.png","","","practice","4","definitely_new","","","","","","",""
"html-keyboard-response","20","114810","0.0-9.0-0.2","1485","2","""event"",""trial"",""time""
""fullscreenenter"",""1"",""4101""
","
","
","""event"",""trial"",""time""
""fullscreenenter"",""1"",""4101""
","
","","","","","","null","<div style=""font-size:60px;"">+</div>","null","","fixation","","","","","","","","",""
"memory-trial","21","116791","0.0-9.0-1.2","1485","2","""event"",""trial"",""time""
""fullscreenenter"",""1"",""4101""
","
","
","""event"",""trial"",""time""
""fullscreenenter"",""1"",""4101""
","
","","","","","","966.2900000002992","images/racket1.png","","","practice","4","definitely_new","","","","","","",""
"html-keyboard-response","22","117305","0.0-9.0-0.3","1485","2","""event"",""trial"",""time""
""fullscreenenter"",""1"",""4101""
","
","
","""event"",""trial"",""time""
""fullscreenenter"",""1"",""4101""
","
","","","","","","null","<div style=""font-size:60px;"">+</div>","null","","fixation","","","","","","","","",""
"memory-trial","23","119247","0.0-9.0-1.3","1485","2","""event"",""trial"",""time""
""fullscreenenter"",""1"",""4101""
","
","
","""event"",""trial"",""time""
""fullscreenenter"",""1"",""4101""
","
","","","","","","930.8550000005198","images/ball2.png","","","practice","4","definitely_new","","","","","","",""
"html-keyboard-response","24","119748","0.0-9.0-0.4","1485","2","""event"",""trial"",""time""
""fullscreenenter"",""1"",""4101""
","
","
","""event"",""trial"",""time""
""fullscreenenter"",""1"",""4101""
","
","","","","","","null","<div style=""font-size:60px;"">+</div>","null","","fixation","","","","","","","","",""
"memory-trial","25","121941","0.0-9.0-1.4","1485","2","""event"",""trial"",""time""
""fullscreenenter"",""1"",""4101""
","
","
","""event"",""trial"",""time""
""fullscreenenter"",""1"",""4101""
","
","","","","","","1184.450000000652","images/racket2.png","","","practice","4","definitely_new","","","","","","",""
"html-keyboard-response","26","122444","0.0-9.0-0.5","1485","2","""event"",""trial"",""time""
""fullscreenenter"",""1"",""4101""
","
","
","""event"",""trial"",""time""
""fullscreenenter"",""1"",""4101""
","
","","","","","","null","<div style=""font-size:60px;"">+</div>","null","","fixation","","","","","","","","",""
"memory-trial","27","124718","0.0-9.0-1.5","1485","2","""event"",""trial"",""time""
""fullscreenenter"",""1"",""4101""
","
","
","""event"",""trial"",""time""
""fullscreenenter"",""1"",""4101""
","
","","","","","","1270.1799999995274","images/racket4.png","","","practice","3","maybe_new","","","","","","",""
"html-keyboard-response","28","125231","0.0-9.0-0.6","1485","2","""event"",""trial"",""time""
""fullscreenenter"",""1"",""4101""
","
","
","""event"",""trial"",""time""
""fullscreenenter"",""1"",""4101""
","
","","","","","","null","<div style=""font-size:60px;"">+</div>","null","","fixation","","","","","","","","",""
"memory-trial","29","128800","0.0-9.0-1.6","1485","2","""event"",""trial"",""time""
""fullscreenenter"",""1"",""4101""
","
","
","""event"",""trial"",""time""
""fullscreenenter"",""1"",""4101""
","
","","","","","","2561.555000000226","images/ball1.png","","","practice","3","maybe_new","","","","","","",""
"html-keyboard-response","30","129313","0.0-9.0-0.7","1485","2","""event"",""trial"",""time""
""fullscreenenter"",""1"",""4101""
","
","
","""event"",""trial"",""time""
""fullscreenenter"",""1"",""4101""
","
","","","","","","null","<div style=""font-size:60px;"">+</div>","null","","fixation","","","","","","","","",""
"memory-trial","31","132304","0.0-9.0-1.7","1485","2","""event"",""trial"",""time""
""fullscreenenter"",""1"",""4101""
","
","
","""event"",""trial"",""time""
""fullscreenenter"",""1"",""4101""
","
","","","","","","1987.3500000012573","images/ball3.png","","","practice","4","definitely_new","","","","","","",""
"learning-instructions","32","147849","0.0-10.0-0.0","1485","2","""event"",""trial"",""time""
""fullscreenenter"",""1"",""4101""
","
","
","""event"",""trial"",""time""
""fullscreenenter"",""1"",""4101""
","
","","","","","","7594.950000000623","<p> Great! You have completed the practice. </p><p> Before you start, we're going to ask you a few questions about how the game works.  </p>","","0","instructions","","","","","","","","",""
"preload","33","149924","0.0-11.0","1485","2","""event"",""trial"",""time""
""fullscreenenter"",""1"",""4101""
","
","
","""event"",""trial"",""time""
""fullscreenenter"",""1"",""4101""
","
","true","false","[]","[]","[]","","","","","","","","","","","","","",""
"comp-q","34","157161","0.0-12.0-0.0","1485","2","""event"",""trial"",""time""
""fullscreenenter"",""1"",""4101""
","
","
","""event"",""trial"",""time""
""fullscreenenter"",""1"",""4101""
","
","","","","","","1408.3050000008661","<p> <b> True or False? </b> </p><p> In this game, you will only see each image once. </p>","","0","comp_question","","","true","","","","","",""
"comp-q","35","165001","0.0-12.0-1.0","1485","2","""event"",""trial"",""time""
""fullscreenenter"",""1"",""4101""
","
","
","""event"",""trial"",""time""
""fullscreenenter"",""1"",""4101""
","
","","","","","","1493.3600000003935","<p> <b> That's right! </b> You will see many different images <i> one time each </i> in this game. </p>","","0","comp_answer","","","","","","","","",""
"comp-q","36","171857","0.0-12.0-0.1","1485","2","""event"",""trial"",""time""
""fullscreenenter"",""1"",""4101""
","
","
","""event"",""trial"",""time""
""fullscreenenter"",""1"",""4101""
","
","","","","","","1053.5199999994948","<p> <b> True or False? </b> </p><p> You should use the mouse and click to make your response. </p>","","1","comp_question","","","true","","","","","",""
"comp-q","37","183009","0.0-12.0-1.1","1485","2","""event"",""trial"",""time""
""fullscreenenter"",""1"",""4101""
","
","
","""event"",""trial"",""time""
""fullscreenenter"",""1"",""4101""
","
","","","","","","3811.180000000575","<p><b> That's right! </b> You should use the '1', '2', '3', and '4' keys to make your response. </p>","","0","comp_answer","","","","","","","","",""
"comp-q","38","190402","0.0-12.0-0.2","1485","2","""event"",""trial"",""time""
""fullscreenenter"",""1"",""4101""
","
","
","""event"",""trial"",""time""
""fullscreenenter"",""1"",""4101""
","
","","","","","","1390.3500000014901","<p> <b> True or False? </b> </p><p> You will have as much time as you want to make each choice. </p>","","1","comp_question","","","true","","","","","",""
"comp-q","39","201697","0.0-12.0-1.2","1485","2","""event"",""trial"",""time""
""fullscreenenter"",""1"",""4101""
","
","
","""event"",""trial"",""time""
""fullscreenenter"",""1"",""4101""
","
","","","","","","5901.859999999928","<p> <b> That's right! </b> You will only have 10 seconds to make each choice. </p>","","0","comp_answer","","","","","","","","",""
"learning-instructions","40","211993","0.0-13.0","1485","2","""event"",""trial"",""time""
""fullscreenenter"",""1"",""4101""
","
","
","""event"",""trial"",""time""
""fullscreenenter"",""1"",""4101""
","
","","","","","","1627.06499999878","<p> Great! You are now ready to begin the game. </p><p> Remember, use the 1, 2, 3, and 4 keys to make your responses. </p>","","0","instructions","","","","","","","","",""
"preload","41","216499","0.0-14.0","1485","2","""event"",""trial"",""time""
""fullscreenenter"",""1"",""4101""
","
","
","""event"",""trial"",""time""
""fullscreenenter"",""1"",""4101""
","
","true","false","[]","[]","[]","","","","","","","","","","","","","",""
"html-keyboard-response","42","217005","0.0-15.0-0.0","1485","2","""event"",""trial"",""time""
""fullscreenenter"",""1"",""4101""
","
","
","""event"",""trial"",""time""
""fullscreenenter"",""1"",""4101""
","
","","","","","","null","<div style=""font-size:60px;"">+</div>","null","","fixation","","","","","","","","",""
"memory-trial","43","219134","0.0-15.0-1.0","1485","2","""event"",""trial"",""time""
""fullscreenenter"",""1"",""4101""
","
","
","""event"",""trial"",""time""
""fullscreenenter"",""1"",""4101""
","
","","","","","","1119.3949999997276","images/plane2.png","","","memory_trial","4","definitely_new","","","","","","",""
"html-keyboard-response","44","219635","0.0-15.0-0.1","1485","2","""event"",""trial"",""time""
""fullscreenenter"",""1"",""4101""
","
","
","""event"",""trial"",""time""
""fullscreenenter"",""1"",""4101""
","
","","","","","","null","<div style=""font-size:60px;"">+</div>","null","","fixation","","","","","","","","",""
"memory-trial","45","222390","0.0-15.0-1.1","1485","2","""event"",""trial"",""time""
""fullscreenenter"",""1"",""4101""
","
","
","""event"",""trial"",""time""
""fullscreenenter"",""1"",""4101""
","
","","","","","","1738.074999999284","images/dog5.png","","","memory_trial","3","maybe_new","","","","","","",""
"html-keyboard-response","46","222907","0.0-15.0-0.2","1485","2","""event"",""trial"",""time""
""fullscreenenter"",""1"",""4101""
","
","
","""event"",""trial"",""time""
""fullscreenenter"",""1"",""4101""
","
","","","","","","null","<div style=""font-size:60px;"">+</div>","null","","fixation","","","","","","","","",""
"memory-trial","47","225455","0.0-15.0-1.2","1485","2","""event"",""trial"",""time""
""fullscreenenter"",""1"",""4101""
","
","
","""event"",""trial"",""time""
""fullscreenenter"",""1"",""4101""
","
","","","","","","1539.109999999724","images/rodent4.png","","","memory_trial","1","definitely_old","","","","","","",""
"html-keyboard-response","48","225969","0.0-15.0-0.3","1485","2","""event"",""trial"",""time""
""fullscreenenter"",""1"",""4101""
","
","
","""event"",""trial"",""time""
""fullscreenenter"",""1"",""4101""
","
","","","","","","null","<div style=""font-size:60px;"">+</div>","null","","fixation","","","","","","","","",""
"memory-trial","49","228227","0.0-15.0-1.3","1485","2","""event"",""trial"",""time""
""fullscreenenter"",""1"",""4101""
","
","
","""event"",""trial"",""time""
""fullscreenenter"",""1"",""4101""
","
","","","","","","1241.5149999996938","images/horse3.png","","","memory_trial","1","definitely_old","","","","","","",""
"html-keyboard-response","50","228741","0.0-15.0-0.4","1485","2","""event"",""trial"",""time""
""fullscreenenter"",""1"",""4101""
","
","
","""event"",""trial"",""time""
""fullscreenenter"",""1"",""4101""
","
","","","","","","null","<div style=""font-size:60px;"">+</div>","null","","fixation","","","","","","","","",""
"memory-trial","51","230630","0.0-15.0-1.4","1485","2","""event"",""trial"",""time""
""fullscreenenter"",""1"",""4101""
","
","
","""event"",""trial"",""time""
""fullscreenenter"",""1"",""4101""
","
","","","","","","885.8799999998009","images/feline2.png","","","memory_trial","1","definitely_old","","","","","","",""
"html-keyboard-response","52","231146","0.0-15.0-0.5","1485","2","""event"",""trial"",""time""
""fullscreenenter"",""1"",""4101""
","
","
","""event"",""trial"",""time""
""fullscreenenter"",""1"",""4101""
","
","","","","","","null","<div style=""font-size:60px;"">+</div>","null","","fixation","","","","","","","","",""
"memory-trial","53","233216","0.0-15.0-1.5","1485","2","""event"",""trial"",""time""
""fullscreenenter"",""1"",""4101""
","
","
","""event"",""trial"",""time""
""fullscreenenter"",""1"",""4101""
","
","","","","","","1062.0799999996962","images/feline1.png","","","memory_trial","1","definitely_old","","","","","","",""
"html-keyboard-response","54","233733","0.0-15.0-0.6","1485","2","""event"",""trial"",""time""
""fullscreenenter"",""1"",""4101""
","
","
","""event"",""trial"",""time""
""fullscreenenter"",""1"",""4101""
","
","","","","","","null","<div style=""font-size:60px;"">+</div>","null","","fixation","","","","","","","","",""
"memory-trial","55","236195","0.0-15.0-1.6","1485","2","""event"",""trial"",""time""
""fullscreenenter"",""1"",""4101""
","
","
","""event"",""trial"",""time""
""fullscreenenter"",""1"",""4101""
","
","","","","","","1454.4449999993958","images/plane4.png","","","memory_trial","3","maybe_new","","","","","","",""
"html-keyboard-response","56","236707","0.0-15.0-0.7","1485","2","""event"",""trial"",""time""
""fullscreenenter"",""1"",""4101""
","
","
","""event"",""trial"",""time""
""fullscreenenter"",""1"",""4101""
","
","","","","","","null","<div style=""font-size:60px;"">+</div>","null","","fixation","","","","","","","","",""
"memory-trial","57","238527","0.0-15.0-1.7","1485","2","""event"",""trial"",""time""
""fullscreenenter"",""1"",""4101""
","
","
","""event"",""trial"",""time""
""fullscreenenter"",""1"",""4101""
","
","","","","","","803.9349999998813","images/rabbit2.png","","","memory_trial","1","definitely_old","","","","","","",""
"html-keyboard-response","58","239031","0.0-15.0-0.8","1485","2","""event"",""trial"",""time""
""fullscreenenter"",""1"",""4101""
","
","
","""event"",""trial"",""time""
""fullscreenenter"",""1"",""4101""
","
","","","","","","null","<div style=""font-size:60px;"">+</div>","null","","fixation","","","","","","","","",""
"memory-trial","59","240680","0.0-15.0-1.8","1485","2","""event"",""trial"",""time""
""fullscreenenter"",""1"",""4101""
","
","
","""event"",""trial"",""time""
""fullscreenenter"",""1"",""4101""
","
","","","","","","644.9850000008009","images/cow2.png","","","memory_trial","1","definitely_old","","","","","","",""
"html-keyboard-response","60","241191","0.0-15.0-0.9","1485","2","""event"",""trial"",""time""
""fullscreenenter"",""1"",""4101""
","
","
","""event"",""trial"",""time""
""fullscreenenter"",""1"",""4101""
","
","","","","","","null","<div style=""font-size:60px;"">+</div>","null","","fixation","","","","","","","","",""
"memory-trial","61","244805","0.0-15.0-1.9","1485","2","""event"",""trial"",""time""
""fullscreenenter"",""1"",""4101""
","
","
","""event"",""trial"",""time""
""fullscreenenter"",""1"",""4101""
","
","","","","","","2602.5150000004796","images/sofa5.png","","","memory_trial","3","maybe_new","","","","","","",""
"html-keyboard-response","62","245309","0.0-15.0-0.10","1485","2","""event"",""trial"",""time""
""fullscreenenter"",""1"",""4101""
","
","
","""event"",""trial"",""time""
""fullscreenenter"",""1"",""4101""
","
","","","","","","null","<div style=""font-size:60px;"">+</div>","null","","fixation","","","","","","","","",""
"memory-trial","63","247504","0.0-15.0-1.10","1485","2","""event"",""trial"",""time""
""fullscreenenter"",""1"",""4101""
","
","
","""event"",""trial"",""time""
""fullscreenenter"",""1"",""4101""
","
","","","","","","1193.344999999681","images/table5.png","","","memory_trial","1","definitely_old","","","","","","",""
"html-keyboard-response","64","248006","0.0-15.0-0.11","1485","2","""event"",""trial"",""time""
""fullscreenenter"",""1"",""4101""
","
","
","""event"",""trial"",""time""
""fullscreenenter"",""1"",""4101""
","
","","","","","","null","<div style=""font-size:60px;"">+</div>","null","","fixation","","","","","","","","",""
"memory-trial","65","249910","0.0-15.0-1.11","1485","2","""event"",""trial"",""time""
""fullscreenenter"",""1"",""4101""
","
","
","""event"",""trial"",""time""
""fullscreenenter"",""1"",""4101""
","
","","","","","","900.8400000002584","images/bush4.png","","","memory_trial","2","maybe_old","","","","","","",""
"html-keyboard-response","66","250411","0.0-15.0-0.12","1485","2","""event"",""trial"",""time""
""fullscreenenter"",""1"",""4101""
","
","
","""event"",""trial"",""time""
""fullscreenenter"",""1"",""4101""
","
","","","","","","null","<div style=""font-size:60px;"">+</div>","null","","fixation","","","","","","","","",""
"memory-trial","67","252638","0.0-15.0-1.12","1485","2","""event"",""trial"",""time""
""fullscreenenter"",""1"",""4101""
","
","
","""event"",""trial"",""time""
""fullscreenenter"",""1"",""4101""
","
","","","","","","1224.7850000003236","images/flower5.png","","","memory_trial","1","definitely_old","","","","","","",""
"html-keyboard-response","68","253140","0.0-15.0-0.13","1485","2","""event"",""trial"",""time""
""fullscreenenter"",""1"",""4101""
","
","
","""event"",""trial"",""time""
""fullscreenenter"",""1"",""4101""
","
","","","","","","null","<div style=""font-size:60px;"">+</div>","null","","fixation","","","","","","","","",""
"memory-trial","69","255435","0.0-15.0-1.13","1485","2","""event"",""trial"",""time""
""fullscreenenter"",""1"",""4101""
","
","
","""event"",""trial"",""time""
""fullscreenenter"",""1"",""4101""
","
","","","","","","1291.8449999997392","images/truck2.png","","","memory_trial","1","definitely_old","","","","","","",""
"html-keyboard-response","70","255936","0.0-15.0-0.14","1485","2","""event"",""trial"",""time""
""fullscreenenter"",""1"",""4101""
","
","
","""event"",""trial"",""time""
""fullscreenenter"",""1"",""4101""
","
","","","","","","null","<div style=""font-size:60px;"">+</div>","null","","fixation","","","","","","","","",""
"memory-trial","71","258034","0.0-15.0-1.14","1485","2","""event"",""trial"",""time""
""fullscreenenter"",""1"",""4101""
","
","
","""event"",""trial"",""time""
""fullscreenenter"",""1"",""4101""
","
","","","","","","1095.1249999998254","images/bush5.png","","","memory_trial","4","definitely_new","","","","","","",""
"html-keyboard-response","72","258535","0.0-15.0-0.15","1485","2","""event"",""trial"",""time""
""fullscreenenter"",""1"",""4101""
","
","
","""event"",""trial"",""time""
""fullscreenenter"",""1"",""4101""
","
","","","","","","null","<div style=""font-size:60px;"">+</div>","null","","fixation","","","","","","","","",""
"memory-trial","73","260697","0.0-15.0-1.15","1485","2","""event"",""trial"",""time""
""fullscreenenter"",""1"",""4101""
","
","
","""event"",""trial"",""time""
""fullscreenenter"",""1"",""4101""
","
","","","","","","1159.139999999723","images/flower1.png","","","memory_trial","1","definitely_old","","","","","","",""
"html-keyboard-response","74","261198","0.0-15.0-0.16","1485","2","""event"",""trial"",""time""
""fullscreenenter"",""1"",""4101""
","
","
","""event"",""trial"",""time""
""fullscreenenter"",""1"",""4101""
","
","","","","","","null","<div style=""font-size:60px;"">+</div>","null","","fixation","","","","","","","","",""
"memory-trial","75","264172","0.0-15.0-1.16","1485","2","""event"",""trial"",""time""
""fullscreenenter"",""1"",""4101""
","
","
","""event"",""trial"",""time""
""fullscreenenter"",""1"",""4101""
","
","","","","","","1971.1150000002817","images/feline4.png","","","memory_trial","3","maybe_new","","","","","","",""
"html-keyboard-response","76","264674","0.0-15.0-0.17","1485","2","""event"",""trial"",""time""
""fullscreenenter"",""1"",""4101""
","
","
","""event"",""trial"",""time""
""fullscreenenter"",""1"",""4101""
","
","","","","","","null","<div style=""font-size:60px;"">+</div>","null","","fixation","","","","","","","","",""
"memory-trial","77","267120","0.0-15.0-1.17","1485","2","""event"",""trial"",""time""
""fullscreenenter"",""1"",""4101""
","
","
","""event"",""trial"",""time""
""fullscreenenter"",""1"",""4101""
","
","","","","","","1443.290000001085","images/table1.png","","","memory_trial","4","definitely_new","","","","","","",""
"html-keyboard-response","78","267622","0.0-15.0-0.18","1485","2","""event"",""trial"",""time""
""fullscreenenter"",""1"",""4101""
","
","
","""event"",""trial"",""time""
""fullscreenenter"",""1"",""4101""
","
","","","","","","null","<div style=""font-size:60px;"">+</div>","null","","fixation","","","","","","","","",""
"memory-trial","79","269756","0.0-15.0-1.18","1485","2","""event"",""trial"",""time""
""fullscreenenter"",""1"",""4101""
","
","
","""event"",""trial"",""time""
""fullscreenenter"",""1"",""4101""
","
","","","","","","1130.920000001439","images/feline3.png","","","memory_trial","1","definitely_old","","","","","","",""
"html-keyboard-response","80","270257","0.0-15.0-0.19","1485","2","""event"",""trial"",""time""
""fullscreenenter"",""1"",""4101""
","
","
","""event"",""trial"",""time""
""fullscreenenter"",""1"",""4101""
","
","","","","","","null","<div style=""font-size:60px;"">+</div>","null","","fixation","","","","","","","","",""
"memory-trial","81","273238","0.0-15.0-1.19","1485","2","""event"",""trial"",""time""
""fullscreenenter"",""1"",""4101""
","
","
","""event"",""trial"",""time""
""fullscreenenter"",""1"",""4101""
","
","","","","","","1978.0449999998673","images/orange5.png","","","memory_trial","3","maybe_new","","","","","","",""
"html-keyboard-response","82","273739","0.0-15.0-0.20","1485","2","""event"",""trial"",""time""
""fullscreenenter"",""1"",""4101""
","
","
","""event"",""trial"",""time""
""fullscreenenter"",""1"",""4101""
","
","","","","","","null","<div style=""font-size:60px;"">+</div>","null","","fixation","","","","","","","","",""
"memory-trial","83","275898","0.0-15.0-1.20","1485","2","""event"",""trial"",""time""
""fullscreenenter"",""1"",""4101""
","
","
","""event"",""trial"",""time""
""fullscreenenter"",""1"",""4101""
","
","","","","","","1156.0500000014435","images/rodent1.png","","","memory_trial","1","definitely_old","","","","","","",""
"html-keyboard-response","84","276400","0.0-15.0-0.21","1485","2","""event"",""trial"",""time""
""fullscreenenter"",""1"",""4101""
","
","
","""event"",""trial"",""time""
""fullscreenenter"",""1"",""4101""
","
","","","","","","null","<div style=""font-size:60px;"">+</div>","null","","fixation","","","","","","","","",""
"memory-trial","85","280219","0.0-15.0-1.21","1485","2","""event"",""trial"",""time""
""fullscreenenter"",""1"",""4101""
","
","
","""event"",""trial"",""time""
""fullscreenenter"",""1"",""4101""
","
","","","","","","2816.9400000006426","images/goat1.png","","","memory_trial","4","definitely_new","","","","","","",""
"html-keyboard-response","86","280720","0.0-15.0-0.22","1485","2","""event"",""trial"",""time""
""fullscreenenter"",""1"",""4101""
","
","
","""event"",""trial"",""time""
""fullscreenenter"",""1"",""4101""
","
","","","","","","null","<div style=""font-size:60px;"">+</div>","null","","fixation","","","","","","","","",""
"memory-trial","87","283955","0.0-15.0-1.22","1485","2","""event"",""trial"",""time""
""fullscreenenter"",""1"",""4101""
","
","
","""event"",""trial"",""time""
""fullscreenenter"",""1"",""4101""
","
","","","","","","2231.954999999318","images/orange2.png","","","memory_trial","3","maybe_new","","","","","","",""
"html-keyboard-response","88","284457","0.0-15.0-0.23","1485","2","""event"",""trial"",""time""
""fullscreenenter"",""1"",""4101""
","
","
","""event"",""trial"",""time""
""fullscreenenter"",""1"",""4101""
","
","","","","","","null","<div style=""font-size:60px;"">+</div>","null","","fixation","","","","","","","","",""
"memory-trial","89","287843","0.0-15.0-1.23","1485","2","""event"",""trial"",""time""
""fullscreenenter"",""1"",""4101""
","
","
","""event"",""trial"",""time""
""fullscreenenter"",""1"",""4101""
","
","","","","","","2383.6300000002957","images/goat2.png","","","memory_trial","3","maybe_new","","","","","","",""
"html-keyboard-response","90","288345","0.0-15.0-0.24","1485","2","""event"",""trial"",""time""
""fullscreenenter"",""1"",""4101""
","
","
","""event"",""trial"",""time""
""fullscreenenter"",""1"",""4101""
","
","","","","","","null","<div style=""font-size:60px;"">+</div>","null","","fixation","","","","","","","","",""
"memory-trial","91","292289","0.0-15.0-1.24","1485","2","""event"",""trial"",""time""
""fullscreenenter"",""1"",""4101""
","
","
","""event"",""trial"",""time""
""fullscreenenter"",""1"",""4101""
","
","","","","","","2941.435000000638","images/chair5.png","","","memory_trial","3","maybe_new","","","","","","",""
"html-keyboard-response","92","292791","0.0-15.0-0.25","1485","2","""event"",""trial"",""time""
""fullscreenenter"",""1"",""4101""
","
","
","""event"",""trial"",""time""
""fullscreenenter"",""1"",""4101""
","
","","","","","","null","<div style=""font-size:60px;"">+</div>","null","","fixation","","","","","","","","",""
"memory-trial","93","295111","0.0-15.0-1.25","1485","2","""event"",""trial"",""time""
""fullscreenenter"",""1"",""4101""
","
","
","""event"",""trial"",""time""
""fullscreenenter"",""1"",""4101""
","
","","","","","","1316.5300000000861","images/sheep5.png","","","memory_trial","2","maybe_old","","","","","","",""
"html-keyboard-response","94","295613","0.0-15.0-0.26","1485","2","""event"",""trial"",""time""
""fullscreenenter"",""1"",""4101""
","
","
","""event"",""trial"",""time""
""fullscreenenter"",""1"",""4101""
","
","","","","","","null","<div style=""font-size:60px;"">+</div>","null","","fixation","","","","","","","","",""
"memory-trial","95","298069","0.0-15.0-1.26","1485","2","""event"",""trial"",""time""
""fullscreenenter"",""1"",""4101""
","
","
","""event"",""trial"",""time""
""fullscreenenter"",""1"",""4101""
","
","","","","","","1454.1699999991106","images/flower2.png","","","memory_trial","4","definitely_new","","","","","","",""
"html-keyboard-response","96","298571","0.0-15.0-0.27","1485","2","""event"",""trial"",""time""
""fullscreenenter"",""1"",""4101""
","
","
","""event"",""trial"",""time""
""fullscreenenter"",""1"",""4101""
","
","","","","","","null","<div style=""font-size:60px;"">+</div>","null","","fixation","","","","","","","","",""
"memory-trial","97","300892","0.0-15.0-1.27","1485","2","""event"",""trial"",""time""
""fullscreenenter"",""1"",""4101""
","
","
","""event"",""trial"",""time""
""fullscreenenter"",""1"",""4101""
","
","","","","","","1315.945000000298","images/feline5.png","","","memory_trial","2","maybe_old","","","","","","",""
"html-keyboard-response","98","301394","0.0-15.0-0.28","1485","2","""event"",""trial"",""time""
""fullscreenenter"",""1"",""4101""
","
","
","""event"",""trial"",""time""
""fullscreenenter"",""1"",""4101""
","
","","","","","","null","<div style=""font-size:60px;"">+</div>","null","","fixation","","","","","","","","",""
"memory-trial","99","303954","0.0-15.0-1.28","1485","2","""event"",""trial"",""time""
""fullscreenenter"",""1"",""4101""
","
","
","""event"",""trial"",""time""
""fullscreenenter"",""1"",""4101""
","
","","","","","","1557.7900000007357","images/rabbit3.png","","","memory_trial","2","maybe_old","","","","","","",""
"html-keyboard-response","100","304455","0.0-15.0-0.29","1485","2","""event"",""trial"",""time""
""fullscreenenter"",""1"",""4101""
","
","
","""event"",""trial"",""time""
""fullscreenenter"",""1"",""4101""
","
","","","","","","null","<div style=""font-size:60px;"">+</div>","null","","fixation","","","","","","","","",""
"memory-trial","101","306625","0.0-15.0-1.29","1485","2","""event"",""trial"",""time""
""fullscreenenter"",""1"",""4101""
","
","
","""event"",""trial"",""time""
""fullscreenenter"",""1"",""4101""
","
","","","","","","1168.245000000752","images/cow1.png","","","memory_trial","1","definitely_old","","","","","","",""
"html-keyboard-response","102","307127","0.0-15.0-0.30","1485","2","""event"",""trial"",""time""
""fullscreenenter"",""1"",""4101""
","
","
","""event"",""trial"",""time""
""fullscreenenter"",""1"",""4101""
","
","","","","","","null","<div style=""font-size:60px;"">+</div>","null","","fixation","","","","","","","","",""
"memory-trial","103","309415","0.0-15.0-1.30","1485","2","""event"",""trial"",""time""
""fullscreenenter"",""1"",""4101""
","
","
","""event"",""trial"",""time""
""fullscreenenter"",""1"",""4101""
","
","","","","","","1286.1899999988964","images/straw2.png","","","memory_trial","1","definitely_old","","","","","","",""
"html-keyboard-response","104","309916","0.0-15.0-0.31","1485","2","""event"",""trial"",""time""
""fullscreenenter"",""1"",""4101""
","
","
","""event"",""trial"",""time""
""fullscreenenter"",""1"",""4101""
","
","","","","","","null","<div style=""font-size:60px;"">+</div>","null","","fixation","","","","","","","","",""
"memory-trial","105","312461","0.0-15.0-1.31","1485","2","""event"",""trial"",""time""
""fullscreenenter"",""1"",""4101""
","
","
","""event"",""trial"",""time""
""fullscreenenter"",""1"",""4101""
","
","","","","","","1542.1400000013527","images/table3.png","","","memory_trial","1","definitely_old","","","","","","",""
"html-keyboard-response","106","312963","0.0-15.0-0.32","1485","2","""event"",""trial"",""time""
""fullscreenenter"",""1"",""4101""
","
","
","""event"",""trial"",""time""
""fullscreenenter"",""1"",""4101""
","
","","","","","","null","<div style=""font-size:60px;"">+</div>","null","","fixation","","","","","","","","",""
"memory-trial","107","315186","0.0-15.0-1.32","1485","2","""event"",""trial"",""time""
""fullscreenenter"",""1"",""4101""
","
","
","""event"",""trial"",""time""
""fullscreenenter"",""1"",""4101""
","
","","","","","","1221.9399999994785","images/straw3.png","","","memory_trial","1","definitely_old","","","","","","",""
"html-keyboard-response","108","315688","0.0-15.0-0.33","1485","2","""event"",""trial"",""time""
""fullscreenenter"",""1"",""4101""
","
","
","""event"",""trial"",""time""
""fullscreenenter"",""1"",""4101""
","
","","","","","","null","<div style=""font-size:60px;"">+</div>","null","","fixation","","","","","","","","",""
"memory-trial","109","317962","0.0-15.0-1.33","1485","2","""event"",""trial"",""time""
""fullscreenenter"",""1"",""4101""
","
","
","""event"",""trial"",""time""
""fullscreenenter"",""1"",""4101""
","
","","","","","","1271.310000000114","images/tree1.png","","","memory_trial","1","definitely_old","","","","","","",""
"html-keyboard-response","110","318463","0.0-15.0-0.34","1485","2","""event"",""trial"",""time""
""fullscreenenter"",""1"",""4101""
","
","
","""event"",""trial"",""time""
""fullscreenenter"",""1"",""4101""
","
","","","","","","null","<div style=""font-size:60px;"">+</div>","null","","fixation","","","","","","","","",""
"memory-trial","111","320974","0.0-15.0-1.34","1485","2","""event"",""trial"",""time""
""fullscreenenter"",""1"",""4101""
","
","
","""event"",""trial"",""time""
""fullscreenenter"",""1"",""4101""
","
","","","","","","1508.6250000003492","images/horse5.png","","","memory_trial","3","maybe_new","","","","","","",""
"html-keyboard-response","112","321476","0.0-15.0-0.35","1485","2","""event"",""trial"",""time""
""fullscreenenter"",""1"",""4101""
","
","
","""event"",""trial"",""time""
""fullscreenenter"",""1"",""4101""
","
","","","","","","null","<div style=""font-size:60px;"">+</div>","null","","fixation","","","","","","","","",""
"memory-trial","113","324184","0.0-15.0-1.35","1485","2","""event"",""trial"",""time""
""fullscreenenter"",""1"",""4101""
","
","
","""event"",""trial"",""time""
""fullscreenenter"",""1"",""4101""
","
","","","","","","1706.3550000002724","images/straw4.png","","","memory_trial","3","maybe_new","","","","","","",""
"html-keyboard-response","114","324686","0.0-15.0-0.36","1485","2","""event"",""trial"",""time""
""fullscreenenter"",""1"",""4101""
","
","
","""event"",""trial"",""time""
""fullscreenenter"",""1"",""4101""
","
","","","","","","null","<div style=""font-size:60px;"">+</div>","null","","fixation","","","","","","","","",""
"memory-trial","115","327792","0.0-15.0-1.36","1485","2","""event"",""trial"",""time""
""fullscreenenter"",""1"",""4101""
","
","
","""event"",""trial"",""time""
""fullscreenenter"",""1"",""4101""
","
","","","","","","2103.72500000085","images/tree2.png","","","memory_trial","3","maybe_new","","","","","","",""
"html-keyboard-response","116","328294","0.0-15.0-0.37","1485","2","""event"",""trial"",""time""
""fullscreenenter"",""1"",""4101""
","
","
","""event"",""trial"",""time""
""fullscreenenter"",""1"",""4101""
","
","","","","","","null","<div style=""font-size:60px;"">+</div>","null","","fixation","","","","","","","","",""
"memory-trial","117","330595","0.0-15.0-1.37","1485","2","""event"",""trial"",""time""
""fullscreenenter"",""1"",""4101""
","
","
","""event"",""trial"",""time""
""fullscreenenter"",""1"",""4101""
","
","","","","","","1298.240000000107","images/sheep3.png","","","memory_trial","4","definitely_new","","","","","","",""
"html-keyboard-response","118","331097","0.0-15.0-0.38","1485","2","""event"",""trial"",""time""
""fullscreenenter"",""1"",""4101""
","
","
","""event"",""trial"",""time""
""fullscreenenter"",""1"",""4101""
","
","","","","","","null","<div style=""font-size:60px;"">+</div>","null","","fixation","","","","","","","","",""
"memory-trial","119","333202","0.0-15.0-1.38","1485","2","""event"",""trial"",""time""
""fullscreenenter"",""1"",""4101""
","
","
","""event"",""trial"",""time""
""fullscreenenter"",""1"",""4101""
","
","","","","","","1099.464999999269","images/rodent3.png","","","memory_trial","4","definitely_new","","","","","","",""
"html-keyboard-response","120","333704","0.0-15.0-0.39","1485","2","""event"",""trial"",""time""
""fullscreenenter"",""1"",""4101""
","
","
","""event"",""trial"",""time""
""fullscreenenter"",""1"",""4101""
","
","","","","","","null","<div style=""font-size:60px;"">+</div>","null","","fixation","","","","","","","","",""
"memory-trial","121","336970","0.0-15.0-1.39","1485","2","""event"",""trial"",""time""
""fullscreenenter"",""1"",""4101""
","
","
","""event"",""trial"",""time""
""fullscreenenter"",""1"",""4101""
","
","","","","","","2263.16000000044","images/cactus5.png","","","memory_trial","1","definitely_old","","","","","","",""
"html-keyboard-response","122","337472","0.0-15.0-0.40","1485","2","""event"",""trial"",""time""
""fullscreenenter"",""1"",""4101""
","
","
","""event"",""trial"",""time""
""fullscreenenter"",""1"",""4101""
","
","","","","","","null","<div style=""font-size:60px;"">+</div>","null","","fixation","","","","","","","","",""
"memory-trial","123","339479","0.0-15.0-1.40","1485","2","""event"",""trial"",""time""
""fullscreenenter"",""1"",""4101""
","
","
","""event"",""trial"",""time""
""fullscreenenter"",""1"",""4101""
","
","","","","","","1005.5600000013947","images/tree5.png","","","memory_trial","1","definitely_old","","","","","","",""
"html-keyboard-response","124","339981","0.0-15.0-0.41","1485","2","""event"",""trial"",""time""
""fullscreenenter"",""1"",""4101""
","
","
","""event"",""trial"",""time""
""fullscreenenter"",""1"",""4101""
","
","","","","","","null","<div style=""font-size:60px;"">+</div>","null","","fixation","","","","","","","","",""
"memory-trial","125","342984","0.0-15.0-1.41","1485","2","""event"",""trial"",""time""
""fullscreenenter"",""1"",""4101""
","
","
","""event"",""trial"",""time""
""fullscreenenter"",""1"",""4101""
","
","","","","","","2000.9499999996624","images/cactus4.png","","","memory_trial","3","maybe_new","","","","","","",""
"html-keyboard-response","126","343486","0.0-15.0-0.42","1485","2","""event"",""trial"",""time""
""fullscreenenter"",""1"",""4101""
","
","
","""event"",""trial"",""time""
""fullscreenenter"",""1"",""4101""
","
","","","","","","null","<div style=""font-size:60px;"">+</div>","null","","fixation","","","","","","","","",""
"memory-trial","127","346148","0.0-15.0-1.42","1485","2","""event"",""trial"",""time""
""fullscreenenter"",""1"",""4101""
","
","
","""event"",""trial"",""time""
""fullscreenenter"",""1"",""4101""
","
","","","","","","1659.634999999951","images/bush1.png","","","memory_trial","1","definitely_old","","","","","","",""
"html-keyboard-response","128","346650","0.0-15.0-0.43","1485","2","""event"",""trial"",""time""
""fullscreenenter"",""1"",""4101""
","
","
","""event"",""trial"",""time""
""fullscreenenter"",""1"",""4101""
","
","","","","","","null","<div style=""font-size:60px;"">+</div>","null","","fixation","","","","","","","","",""
"memory-trial","129","348963","0.0-15.0-1.43","1485","2","""event"",""trial"",""time""
""fullscreenenter"",""1"",""4101""
","
","
","""event"",""trial"",""time""
""fullscreenenter"",""1"",""4101""
","
","","","","","","1311.4949999999371","images/goat4.png","","","memory_trial","1","definitely_old","","","","","","",""
"html-keyboard-response","130","349465","0.0-15.0-0.44","1485","2","""event"",""trial"",""time""
""fullscreenenter"",""1"",""4101""
","
","
","""event"",""trial"",""time""
""fullscreenenter"",""1"",""4101""
","
","","","","","","null","<div style=""font-size:60px;"">+</div>","null","","fixation","","","","","","","","",""
"memory-trial","131","353136","0.0-15.0-1.44","1485","2","""event"",""trial"",""time""
""fullscreenenter"",""1"",""4101""
","
","
","""event"",""trial"",""time""
""fullscreenenter"",""1"",""4101""
","
","","","","","","2667.674999998766","images/chair1.png","","","memory_trial","1","definitely_old","","","","","","",""
"html-keyboard-response","132","353638","0.0-15.0-0.45","1485","2","""event"",""trial"",""time""
""fullscreenenter"",""1"",""4101""
","
","
","""event"",""trial"",""time""
""fullscreenenter"",""1"",""4101""
","
","","","","","","null","<div style=""font-size:60px;"">+</div>","null","","fixation","","","","","","","","",""
"memory-trial","133","355982","0.0-15.0-1.45","1485","2","""event"",""trial"",""time""
""fullscreenenter"",""1"",""4101""
","
","
","""event"",""trial"",""time""
""fullscreenenter"",""1"",""4101""
","
","","","","","","1341.6500000003143","images/horse1.png","","","memory_trial","1","definitely_old","","","","","","",""
"html-keyboard-response","134","356484","0.0-15.0-0.46","1485","2","""event"",""trial"",""time""
""fullscreenenter"",""1"",""4101""
","
","
","""event"",""trial"",""time""
""fullscreenenter"",""1"",""4101""
","
","","","","","","null","<div style=""font-size:60px;"">+</div>","null","","fixation","","","","","","","","",""
"memory-trial","135","359110","0.0-15.0-1.46","1485","2","""event"",""trial"",""time""
""fullscreenenter"",""1"",""4101""
","
","
","""event"",""trial"",""time""
""fullscreenenter"",""1"",""4101""
","
","","","","","","1623.8400000002002","images/plane3.png","","","memory_trial","4","definitely_new","","","","","","",""
"html-button-response","136","377433","0.0-15.0-2.46-0.46","1485","2","""event"",""trial"",""time""
""fullscreenenter"",""1"",""4101""
","
","
","""event"",""trial"",""time""
""fullscreenenter"",""1"",""4101""
","
","","","","","","18321.340000000375","<p> Take a break! </p><p> Click the button to continue. </p>","0","","break","","","","","","","","",""
"html-keyboard-response","137","377935","0.0-15.0-0.47","1485","2","""event"",""trial"",""time""
""fullscreenenter"",""1"",""4101""
","
","
","""event"",""trial"",""time""
""fullscreenenter"",""1"",""4101""
","
","","","","","","null","<div style=""font-size:60px;"">+</div>","null","","fixation","","","","","","","","",""
"memory-trial","138","380208","0.0-15.0-1.47","1485","2","""event"",""trial"",""time""
""fullscreenenter"",""1"",""4101""
","
","
","""event"",""trial"",""time""
""fullscreenenter"",""1"",""4101""
","
","","","","","","1269.6300000007031","images/boat3.png","","","memory_trial","1","definitely_old","","","","","","",""
"html-keyboard-response","139","380709","0.0-15.0-0.48","1485","2","""event"",""trial"",""time""
""fullscreenenter"",""1"",""4101""
","
","
","""event"",""trial"",""time""
""fullscreenenter"",""1"",""4101""
","
","","","","","","null","<div style=""font-size:60px;"">+</div>","null","","fixation","","","","","","","","",""
"memory-trial","140","383333","0.0-15.0-1.48","1485","2","""event"",""trial"",""time""
""fullscreenenter"",""1"",""4101""
","
","
","""event"",""trial"",""time""
""fullscreenenter"",""1"",""4101""
","
","","","","","","1621.035000000149","images/dog2.png","","","memory_trial","4","definitely_new","","","","","","",""
"html-keyboard-response","141","383835","0.0-15.0-0.49","1485","2","""event"",""trial"",""time""
""fullscreenenter"",""1"",""4101""
","
","
","""event"",""trial"",""time""
""fullscreenenter"",""1"",""4101""
","
","","","","","","null","<div style=""font-size:60px;"">+</div>","null","","fixation","","","","","","","","",""
"memory-trial","142","385907","0.0-15.0-1.49","1485","2","""event"",""trial"",""time""
""fullscreenenter"",""1"",""4101""
","
","
","""event"",""trial"",""time""
""fullscreenenter"",""1"",""4101""
","
","","","","","","1069.7450000006938","images/banana5.png","","","memory_trial","1","definitely_old","","","","","","",""
"html-keyboard-response","143","386409","0.0-15.0-0.50","1485","2","""event"",""trial"",""time""
""fullscreenenter"",""1"",""4101""
","
","
","""event"",""trial"",""time""
""fullscreenenter"",""1"",""4101""
","
","","","","","","null","<div style=""font-size:60px;"">+</div>","null","","fixation","","","","","","","","",""
"memory-trial","144","388733","0.0-15.0-1.50","1485","2","""event"",""trial"",""time""
""fullscreenenter"",""1"",""4101""
","
","
","""event"",""trial"",""time""
""fullscreenenter"",""1"",""4101""
","
","","","","","","1321.8350000006612","images/orange1.png","","","memory_trial","3","maybe_new","","","","","","",""
"html-keyboard-response","145","389235","0.0-15.0-0.51","1485","2","""event"",""trial"",""time""
""fullscreenenter"",""1"",""4101""
","
","
","""event"",""trial"",""time""
""fullscreenenter"",""1"",""4101""
","
","","","","","","null","<div style=""font-size:60px;"">+</div>","null","","fixation","","","","","","","","",""
"memory-trial","146","392022","0.0-15.0-1.51","1485","2","""event"",""trial"",""time""
""fullscreenenter"",""1"",""4101""
","
","
","""event"",""trial"",""time""
""fullscreenenter"",""1"",""4101""
","
","","","","","","1785.0249999992084","images/dog4.png","","","memory_trial","2","maybe_old","","","","","","",""
"html-keyboard-response","147","392529","0.0-15.0-0.52","1485","2","""event"",""trial"",""time""
""fullscreenenter"",""1"",""4101""
","
","
","""event"",""trial"",""time""
""fullscreenenter"",""1"",""4101""
","
","","","","","","null","<div style=""font-size:60px;"">+</div>","null","","fixation","","","","","","","","",""
"memory-trial","148","395407","0.0-15.0-1.52","1485","2","""event"",""trial"",""time""
""fullscreenenter"",""1"",""4101""
","
","
","""event"",""trial"",""time""
""fullscreenenter"",""1"",""4101""
","
","","","","","","1874.325000000652","images/bed3.png","","","memory_trial","4","definitely_new","","","","","","",""
"html-keyboard-response","149","395908","0.0-15.0-0.53","1485","2","""event"",""trial"",""time""
""fullscreenenter"",""1"",""4101""
","
","
","""event"",""trial"",""time""
""fullscreenenter"",""1"",""4101""
","
","","","","","","null","<div style=""font-size:60px;"">+</div>","null","","fixation","","","","","","","","",""
"memory-trial","150","397842","0.0-15.0-1.53","1485","2","""event"",""trial"",""time""
""fullscreenenter"",""1"",""4101""
","
","
","""event"",""trial"",""time""
""fullscreenenter"",""1"",""4101""
","
","","","","","","932.4699999997392","images/truck4.png","","","memory_trial","4","definitely_new","","","","","","",""
"html-keyboard-response","151","398344","0.0-15.0-0.54","1485","2","""event"",""trial"",""time""
""fullscreenenter"",""1"",""4101""
","
","
","""event"",""trial"",""time""
""fullscreenenter"",""1"",""4101""
","
","","","","","","null","<div style=""font-size:60px;"">+</div>","null","","fixation","","","","","","","","",""
"memory-trial","152","400289","0.0-15.0-1.54","1485","2","""event"",""trial"",""time""
""fullscreenenter"",""1"",""4101""
","
","
","""event"",""trial"",""time""
""fullscreenenter"",""1"",""4101""
","
","","","","","","941.5650000009919","images/apple1.png","","","memory_trial","1","definitely_old","","","","","","",""
"html-keyboard-response","153","400790","0.0-15.0-0.55","1485","2","""event"",""trial"",""time""
""fullscreenenter"",""1"",""4101""
","
","
","""event"",""trial"",""time""
""fullscreenenter"",""1"",""4101""
","
","","","","","","null","<div style=""font-size:60px;"">+</div>","null","","fixation","","","","","","","","",""
"memory-trial","154","402970","0.0-15.0-1.55","1485","2","""event"",""trial"",""time""
""fullscreenenter"",""1"",""4101""
","
","
","""event"",""trial"",""time""
""fullscreenenter"",""1"",""4101""
","
","","","","","","1176.5199999990873","images/banana3.png","","","memory_trial","1","definitely_old","","","","","","",""
"html-keyboard-response","155","403472","0.0-15.0-0.56","1485","2","""event"",""trial"",""time""
""fullscreenenter"",""1"",""4101""
","
","
","""event"",""trial"",""time""
""fullscreenenter"",""1"",""4101""
","
","","","","","","null","<div style=""font-size:60px;"">+</div>","null","","fixation","","","","","","","","",""
"memory-trial","156","405475","0.0-15.0-1.56","1485","2","""event"",""trial"",""time""
""fullscreenenter"",""1"",""4101""
","
","
","""event"",""trial"",""time""
""fullscreenenter"",""1"",""4101""
","
","","","","","","1001.5299999995623","images/boat1.png","","","memory_trial","1","definitely_old","","","","","","",""
"html-keyboard-response","157","405977","0.0-15.0-0.57","1485","2","""event"",""trial"",""time""
""fullscreenenter"",""1"",""4101""
","
","
","""event"",""trial"",""time""
""fullscreenenter"",""1"",""4101""
","
","","","","","","null","<div style=""font-size:60px;"">+</div>","null","","fixation","","","","","","","","",""
"memory-trial","158","407733","0.0-15.0-1.57","1485","2","""event"",""trial"",""time""
""fullscreenenter"",""1"",""4101""
","
","
","""event"",""trial"",""time""
""fullscreenenter"",""1"",""4101""
","
","","","","","","753.4199999991106","images/cow3.png","","","memory_trial","1","definitely_old","","","","","","",""
"html-keyboard-response","159","408234","0.0-15.0-0.58","1485","2","""event"",""trial"",""time""
""fullscreenenter"",""1"",""4101""
","
","
","""event"",""trial"",""time""
""fullscreenenter"",""1"",""4101""
","
","","","","","","null","<div style=""font-size:60px;"">+</div>","null","","fixation","","","","","","","","",""
"memory-trial","160","410076","0.0-15.0-1.58","1485","2","""event"",""trial"",""time""
""fullscreenenter"",""1"",""4101""
","
","
","""event"",""trial"",""time""
""fullscreenenter"",""1"",""4101""
","
","","","","","","839.765000000596","images/train1.png","","","memory_trial","1","definitely_old","","","","","","",""
"html-keyboard-response","161","410577","0.0-15.0-0.59","1485","2","""event"",""trial"",""time""
""fullscreenenter"",""1"",""4101""
","
","
","""event"",""trial"",""time""
""fullscreenenter"",""1"",""4101""
","
","","","","","","null","<div style=""font-size:60px;"">+</div>","null","","fixation","","","","","","","","",""
"memory-trial","162","412743","0.0-15.0-1.59","1485","2","""event"",""trial"",""time""
""fullscreenenter"",""1"",""4101""
","
","
","""event"",""trial"",""time""
""fullscreenenter"",""1"",""4101""
","
","","","","","","1163.0150000000722","images/orange3.png","","","memory_trial","4","definitely_new","","","","","","",""
"html-keyboard-response","163","413245","0.0-15.0-0.60","1485","2","""event"",""trial"",""time""
""fullscreenenter"",""1"",""4101""
","
","
","""event"",""trial"",""time""
""fullscreenenter"",""1"",""4101""
","
","","","","","","null","<div style=""font-size:60px;"">+</div>","null","","fixation","","","","","","","","",""
"memory-trial","164","415239","0.0-15.0-1.60","1485","2","""event"",""trial"",""time""
""fullscreenenter"",""1"",""4101""
","
","
","""event"",""trial"",""time""
""fullscreenenter"",""1"",""4101""
","
","","","","","","990.1449999997858","images/orange4.png","","","memory_trial","3","maybe_new","","","","","","",""
"html-keyboard-response","165","415741","0.0-15.0-0.61","1485","2","""event"",""trial"",""time""
""fullscreenenter"",""1"",""4101""
","
","
","""event"",""trial"",""time""
""fullscreenenter"",""1"",""4101""
","
","","","","","","null","<div style=""font-size:60px;"">+</div>","null","","fixation","","","","","","","","",""
"memory-trial","166","417774","0.0-15.0-1.61","1485","2","""event"",""trial"",""time""
""fullscreenenter"",""1"",""4101""
","
","
","""event"",""trial"",""time""
""fullscreenenter"",""1"",""4101""
","
","","","","","","1030.3049999984214","images/straw5.png","","","memory_trial","3","maybe_new","","","","","","",""
"html-keyboard-response","167","418275","0.0-15.0-0.62","1485","2","""event"",""trial"",""time""
""fullscreenenter"",""1"",""4101""
","
","
","""event"",""trial"",""time""
""fullscreenenter"",""1"",""4101""
","
","","","","","","null","<div style=""font-size:60px;"">+</div>","null","","fixation","","","","","","","","",""
"memory-trial","168","420264","0.0-15.0-1.62","1485","2","""event"",""trial"",""time""
""fullscreenenter"",""1"",""4101""
","
","
","""event"",""trial"",""time""
""fullscreenenter"",""1"",""4101""
","
","","","","","","979.8250000003609","images/tree4.png","","","memory_trial","3","maybe_new","","","","","","",""
"html-keyboard-response","169","420765","0.0-15.0-0.63","1485","2","""event"",""trial"",""time""
""fullscreenenter"",""1"",""4101""
","
","
","""event"",""trial"",""time""
""fullscreenenter"",""1"",""4101""
","
","","","","","","null","<div style=""font-size:60px;"">+</div>","null","","fixation","","","","","","","","",""
"memory-trial","170","422659","0.0-15.0-1.63","1485","2","""event"",""trial"",""time""
""fullscreenenter"",""1"",""4101""
","
","
","""event"",""trial"",""time""
""fullscreenenter"",""1"",""4101""
","
","","","","","","890.9700000003795","images/table4.png","","","memory_trial","4","definitely_new","","","","","","",""
"html-keyboard-response","171","423162","0.0-15.0-0.64","1485","2","""event"",""trial"",""time""
""fullscreenenter"",""1"",""4101""
","
","
","""event"",""trial"",""time""
""fullscreenenter"",""1"",""4101""
","
","","","","","","null","<div style=""font-size:60px;"">+</div>","null","","fixation","","","","","","","","",""
"memory-trial","172","425459","0.0-15.0-1.64","1485","2","""event"",""trial"",""time""
""fullscreenenter"",""1"",""4101""
","
","
","""event"",""trial"",""time""
""fullscreenenter"",""1"",""4101""
","
","","","","","","1295.3299999990268","images/cow4.png","","","memory_trial","1","definitely_old","","","","","","",""
"html-keyboard-response","173","425961","0.0-15.0-0.65","1485","2","""event"",""trial"",""time""
""fullscreenenter"",""1"",""4101""
","
","
","""event"",""trial"",""time""
""fullscreenenter"",""1"",""4101""
","
","","","","","","null","<div style=""font-size:60px;"">+</div>","null","","fixation","","","","","","","","",""
"memory-trial","174","428853","0.0-15.0-1.65","1485","2","""event"",""trial"",""time""
""fullscreenenter"",""1"",""4101""
","
","
","""event"",""trial"",""time""
""fullscreenenter"",""1"",""4101""
","
","","","","","","1891.0400000003865","images/horse4.png","","","memory_trial","3","maybe_new","","","","","","",""
"html-keyboard-response","175","429356","0.0-15.0-0.66","1485","2","""event"",""trial"",""time""
""fullscreenenter"",""1"",""4101""
","
","
","""event"",""trial"",""time""
""fullscreenenter"",""1"",""4101""
","
","","","","","","null","<div style=""font-size:60px;"">+</div>","null","","fixation","","","","","","","","",""
"memory-trial","176","431386","0.0-15.0-1.66","1485","2","""event"",""trial"",""time""
""fullscreenenter"",""1"",""4101""
","
","
","""event"",""trial"",""time""
""fullscreenenter"",""1"",""4101""
","
","","","","","","1026.41500000027","images/apple3.png","","","memory_trial","1","definitely_old","","","","","","",""
"html-keyboard-response","177","431887","0.0-15.0-0.67","1485","2","""event"",""trial"",""time""
""fullscreenenter"",""1"",""4101""
","
","
","""event"",""trial"",""time""
""fullscreenenter"",""1"",""4101""
","
","","","","","","null","<div style=""font-size:60px;"">+</div>","null","","fixation","","","","","","","","",""
"memory-trial","178","433717","0.0-15.0-1.67","1485","2","""event"",""trial"",""time""
""fullscreenenter"",""1"",""4101""
","
","
","""event"",""trial"",""time""
""fullscreenenter"",""1"",""4101""
","
","","","","","","827.9450000009383","images/rodent5.png","","","memory_trial","1","definitely_old","","","","","","",""
"html-keyboard-response","179","434219","0.0-15.0-0.68","1485","2","""event"",""trial"",""time""
""fullscreenenter"",""1"",""4101""
","
","
","""event"",""trial"",""time""
""fullscreenenter"",""1"",""4101""
","
","","","","","","null","<div style=""font-size:60px;"">+</div>","null","","fixation","","","","","","","","",""
"memory-trial","180","436420","0.0-15.0-1.68","1485","2","""event"",""trial"",""time""
""fullscreenenter"",""1"",""4101""
","
","
","""event"",""trial"",""time""
""fullscreenenter"",""1"",""4101""
","
","","","","","","1198.7449999997043","images/dog3.png","","","memory_trial","4","definitely_new","","","","","","",""
"html-keyboard-response","181","436921","0.0-15.0-0.69","1485","2","""event"",""trial"",""time""
""fullscreenenter"",""1"",""4101""
","
","
","""event"",""trial"",""time""
""fullscreenenter"",""1"",""4101""
","
","","","","","","null","<div style=""font-size:60px;"">+</div>","null","","fixation","","","","","","","","",""
"memory-trial","182","439052","0.0-15.0-1.69","1485","2","""event"",""trial"",""time""
""fullscreenenter"",""1"",""4101""
","
","
","""event"",""trial"",""time""
""fullscreenenter"",""1"",""4101""
","
","","","","","","1128.4049999994459","images/bush2.png","","","memory_trial","3","maybe_new","","","","","","",""
"html-keyboard-response","183","439554","0.0-15.0-0.70","1485","2","""event"",""trial"",""time""
""fullscreenenter"",""1"",""4101""
","
","
","""event"",""trial"",""time""
""fullscreenenter"",""1"",""4101""
","
","","","","","","null","<div style=""font-size:60px;"">+</div>","null","","fixation","","","","","","","","",""
"memory-trial","184","441553","0.0-15.0-1.70","1485","2","""event"",""trial"",""time""
""fullscreenenter"",""1"",""4101""
","
","
","""event"",""trial"",""time""
""fullscreenenter"",""1"",""4101""
","
","","","","","","996.6000000003842","images/bed5.png","","","memory_trial","1","definitely_old","","","","","","",""
"html-keyboard-response","185","442055","0.0-15.0-0.71","1485","2","""event"",""trial"",""time""
""fullscreenenter"",""1"",""4101""
","
","
","""event"",""trial"",""time""
""fullscreenenter"",""1"",""4101""
","
","","","","","","null","<div style=""font-size:60px;"">+</div>","null","","fixation","","","","","","","","",""
"memory-trial","186","444349","0.0-15.0-1.71","1485","2","""event"",""trial"",""time""
""fullscreenenter"",""1"",""4101""
","
","
","""event"",""trial"",""time""
""fullscreenenter"",""1"",""4101""
","
","","","","","","1291.6900000000023","images/cow5.png","","","memory_trial","4","definitely_new","","","","","","",""
"html-keyboard-response","187","444851","0.0-15.0-0.72","1485","2","""event"",""trial"",""time""
""fullscreenenter"",""1"",""4101""
","
","
","""event"",""trial"",""time""
""fullscreenenter"",""1"",""4101""
","
","","","","","","null","<div style=""font-size:60px;"">+</div>","null","","fixation","","","","","","","","",""
"memory-trial","188","446686","0.0-15.0-1.72","1485","2","""event"",""trial"",""time""
""fullscreenenter"",""1"",""4101""
","
","
","""event"",""trial"",""time""
""fullscreenenter"",""1"",""4101""
","
","","","","","","831.6749999994645","images/sheep2.png","","","memory_trial","4","definitely_new","","","","","","",""
"html-keyboard-response","189","447188","0.0-15.0-0.73","1485","2","""event"",""trial"",""time""
""fullscreenenter"",""1"",""4101""
","
","
","""event"",""trial"",""time""
""fullscreenenter"",""1"",""4101""
","
","","","","","","null","<div style=""font-size:60px;"">+</div>","null","","fixation","","","","","","","","",""
"memory-trial","190","449898","0.0-15.0-1.73","1485","2","""event"",""trial"",""time""
""fullscreenenter"",""1"",""4101""
","
","
","""event"",""trial"",""time""
""fullscreenenter"",""1"",""4101""
","
","","","","","","1706.174999999348","images/tree3.png","","","memory_trial","3","maybe_new","","","","","","",""
"html-keyboard-response","191","450399","0.0-15.0-0.74","1485","2","""event"",""trial"",""time""
""fullscreenenter"",""1"",""4101""
","
","
","""event"",""trial"",""time""
""fullscreenenter"",""1"",""4101""
","
","","","","","","null","<div style=""font-size:60px;"">+</div>","null","","fixation","","","","","","","","",""
"memory-trial","192","452652","0.0-15.0-1.74","1485","2","""event"",""trial"",""time""
""fullscreenenter"",""1"",""4101""
","
","
","""event"",""trial"",""time""
""fullscreenenter"",""1"",""4101""
","
","","","","","","1249.9800000005635","images/bush3.png","","","memory_trial","2","maybe_old","","","","","","",""
"html-keyboard-response","193","453158","0.0-15.0-0.75","1485","2","""event"",""trial"",""time""
""fullscreenenter"",""1"",""4101""
","
","
","""event"",""trial"",""time""
""fullscreenenter"",""1"",""4101""
","
","","","","","","null","<div style=""font-size:60px;"">+</div>","null","","fixation","","","","","","","","",""
"memory-trial","194","455196","0.0-15.0-1.75","1485","2","""event"",""trial"",""time""
""fullscreenenter"",""1"",""4101""
","
","
","""event"",""trial"",""time""
""fullscreenenter"",""1"",""4101""
","
","","","","","","1035.4699999988661","images/banana4.png","","","memory_trial","1","definitely_old","","","","","","",""
"html-keyboard-response","195","455698","0.0-15.0-0.76","1485","2","""event"",""trial"",""time""
""fullscreenenter"",""1"",""4101""
","
","
","""event"",""trial"",""time""
""fullscreenenter"",""1"",""4101""
","
","","","","","","null","<div style=""font-size:60px;"">+</div>","null","","fixation","","","","","","","","",""
"memory-trial","196","457816","0.0-15.0-1.76","1485","2","""event"",""trial"",""time""
""fullscreenenter"",""1"",""4101""
","
","
","""event"",""trial"",""time""
""fullscreenenter"",""1"",""4101""
","
","","","","","","1115.9550000011222","images/truck5.png","","","memory_trial","1","definitely_old","","","","","","",""
"html-keyboard-response","197","458318","0.0-15.0-0.77","1485","2","""event"",""trial"",""time""
""fullscreenenter"",""1"",""4101""
","
","
","""event"",""trial"",""time""
""fullscreenenter"",""1"",""4101""
","
","","","","","","null","<div style=""font-size:60px;"">+</div>","null","","fixation","","","","","","","","",""
"memory-trial","198","460449","0.0-15.0-1.77","1485","2","""event"",""trial"",""time""
""fullscreenenter"",""1"",""4101""
","
","
","""event"",""trial"",""time""
""fullscreenenter"",""1"",""4101""
","
","","","","","","1128.4699999996228","images/banana2.png","","","memory_trial","2","maybe_old","","","","","","",""
"html-keyboard-response","199","460951","0.0-15.0-0.78","1485","2","""event"",""trial"",""time""
""fullscreenenter"",""1"",""4101""
","
","
","""event"",""trial"",""time""
""fullscreenenter"",""1"",""4101""
","
","","","","","","null","<div style=""font-size:60px;"">+</div>","null","","fixation","","","","","","","","",""
"memory-trial","200","463112","0.0-15.0-1.78","1485","2","""event"",""trial"",""time""
""fullscreenenter"",""1"",""4101""
","
","
","""event"",""trial"",""time""
""fullscreenenter"",""1"",""4101""
","
","","","","","","1158.2600000001257","images/cactus2.png","","","memory_trial","3","maybe_new","","","","","","",""
"html-keyboard-response","201","463614","0.0-15.0-0.79","1485","2","""event"",""trial"",""time""
""fullscreenenter"",""1"",""4101""
","
","
","""event"",""trial"",""time""
""fullscreenenter"",""1"",""4101""
","
","","","","","","null","<div style=""font-size:60px;"">+</div>","null","","fixation","","","","","","","","",""
"memory-trial","202","465651","0.0-15.0-1.79","1485","2","""event"",""trial"",""time""
""fullscreenenter"",""1"",""4101""
","
","
","""event"",""trial"",""time""
""fullscreenenter"",""1"",""4101""
","
","","","","","","1034.310000000929","images/sofa3.png","","","memory_trial","1","definitely_old","","","","","","",""
"html-keyboard-response","203","466152","0.0-15.0-0.80","1485","2","""event"",""trial"",""time""
""fullscreenenter"",""1"",""4101""
","
","
","""event"",""trial"",""time""
""fullscreenenter"",""1"",""4101""
","
","","","","","","null","<div style=""font-size:60px;"">+</div>","null","","fixation","","","","","","","","",""
"memory-trial","204","468421","0.0-15.0-1.80","1485","2","""event"",""trial"",""time""
""fullscreenenter"",""1"",""4101""
","
","
","""event"",""trial"",""time""
""fullscreenenter"",""1"",""4101""
","
","","","","","","1265.7500000004657","images/rabbit4.png","","","memory_trial","2","maybe_old","","","","","","",""
"html-keyboard-response","205","468922","0.0-15.0-0.81","1485","2","""event"",""trial"",""time""
""fullscreenenter"",""1"",""4101""
","
","
","""event"",""trial"",""time""
""fullscreenenter"",""1"",""4101""
","
","","","","","","null","<div style=""font-size:60px;"">+</div>","null","","fixation","","","","","","","","",""
"memory-trial","206","470964","0.0-15.0-1.81","1485","2","""event"",""trial"",""time""
""fullscreenenter"",""1"",""4101""
","
","
","""event"",""trial"",""time""
""fullscreenenter"",""1"",""4101""
","
","","","","","","1039.2699999993201","images/plane1.png","","","memory_trial","4","definitely_new","","","","","","",""
"html-keyboard-response","207","471465","0.0-15.0-0.82","1485","2","""event"",""trial"",""time""
""fullscreenenter"",""1"",""4101""
","
","
","""event"",""trial"",""time""
""fullscreenenter"",""1"",""4101""
","
","","","","","","null","<div style=""font-size:60px;"">+</div>","null","","fixation","","","","","","","","",""
"memory-trial","208","473716","0.0-15.0-1.82","1485","2","""event"",""trial"",""time""
""fullscreenenter"",""1"",""4101""
","
","
","""event"",""trial"",""time""
""fullscreenenter"",""1"",""4101""
","
","","","","","","1247.4449999990757","images/plane5.png","","","memory_trial","1","definitely_old","","","","","","",""
"html-keyboard-response","209","474230","0.0-15.0-0.83","1485","2","""event"",""trial"",""time""
""fullscreenenter"",""1"",""4101""
","
","
","""event"",""trial"",""time""
""fullscreenenter"",""1"",""4101""
","
","","","","","","null","<div style=""font-size:60px;"">+</div>","null","","fixation","","","","","","","","",""
"memory-trial","210","476554","0.0-15.0-1.83","1485","2","""event"",""trial"",""time""
""fullscreenenter"",""1"",""4101""
","
","
","""event"",""trial"",""time""
""fullscreenenter"",""1"",""4101""
","
","","","","","","1308.4899999994086","images/rabbit1.png","","","memory_trial","2","maybe_old","","","","","","",""
"html-keyboard-response","211","477056","0.0-15.0-0.84","1485","2","""event"",""trial"",""time""
""fullscreenenter"",""1"",""4101""
","
","
","""event"",""trial"",""time""
""fullscreenenter"",""1"",""4101""
","
","","","","","","null","<div style=""font-size:60px;"">+</div>","null","","fixation","","","","","","","","",""
"memory-trial","212","479630","0.0-15.0-1.84","1485","2","""event"",""trial"",""time""
""fullscreenenter"",""1"",""4101""
","
","
","""event"",""trial"",""time""
""fullscreenenter"",""1"",""4101""
","
","","","","","","1571.8049999995856","images/apple5.png","","","memory_trial","3","maybe_new","","","","","","",""
"html-keyboard-response","213","480131","0.0-15.0-0.85","1485","2","""event"",""trial"",""time""
""fullscreenenter"",""1"",""4101""
","
","
","""event"",""trial"",""time""
""fullscreenenter"",""1"",""4101""
","
","","","","","","null","<div style=""font-size:60px;"">+</div>","null","","fixation","","","","","","","","",""
"memory-trial","214","482078","0.0-15.0-1.85","1485","2","""event"",""trial"",""time""
""fullscreenenter"",""1"",""4101""
","
","
","""event"",""trial"",""time""
""fullscreenenter"",""1"",""4101""
","
","","","","","","942.8850000003586","images/sofa4.png","","","memory_trial","1","definitely_old","","","","","","",""
"html-keyboard-response","215","482580","0.0-15.0-0.86","1485","2","""event"",""trial"",""time""
""fullscreenenter"",""1"",""4101""
","
","
","""event"",""trial"",""time""
""fullscreenenter"",""1"",""4101""
","
","","","","","","null","<div style=""font-size:60px;"">+</div>","null","","fixation","","","","","","","","",""
"memory-trial","216","485038","0.0-15.0-1.86","1485","2","""event"",""trial"",""time""
""fullscreenenter"",""1"",""4101""
","
","
","""event"",""trial"",""time""
""fullscreenenter"",""1"",""4101""
","
","","","","","","1456.250000001106","images/chair2.png","","","memory_trial","1","definitely_old","","","","","","",""
"html-keyboard-response","217","485540","0.0-15.0-0.87","1485","2","""event"",""trial"",""time""
""fullscreenenter"",""1"",""4101""
","
","
","""event"",""trial"",""time""
""fullscreenenter"",""1"",""4101""
","
","","","","","","null","<div style=""font-size:60px;"">+</div>","null","","fixation","","","","","","","","",""
"memory-trial","218","488114","0.0-15.0-1.87","1485","2","""event"",""trial"",""time""
""fullscreenenter"",""1"",""4101""
","
","
","""event"",""trial"",""time""
""fullscreenenter"",""1"",""4101""
","
","","","","","","1571.904999998922","images/apple4.png","","","memory_trial","2","maybe_old","","","","","","",""
"html-keyboard-response","219","488617","0.0-15.0-0.88","1485","2","""event"",""trial"",""time""
""fullscreenenter"",""1"",""4101""
","
","
","""event"",""trial"",""time""
""fullscreenenter"",""1"",""4101""
","
","","","","","","null","<div style=""font-size:60px;"">+</div>","null","","fixation","","","","","","","","",""
"memory-trial","220","491442","0.0-15.0-1.88","1485","2","""event"",""trial"",""time""
""fullscreenenter"",""1"",""4101""
","
","
","""event"",""trial"",""time""
""fullscreenenter"",""1"",""4101""
","
","","","","","","1822.4000000008964","images/train4.png","","","memory_trial","3","maybe_new","","","","","","",""
"html-keyboard-response","221","491943","0.0-15.0-0.89","1485","2","""event"",""trial"",""time""
""fullscreenenter"",""1"",""4101""
","
","
","""event"",""trial"",""time""
""fullscreenenter"",""1"",""4101""
","
","","","","","","null","<div style=""font-size:60px;"">+</div>","null","","fixation","","","","","","","","",""
"memory-trial","222","494072","0.0-15.0-1.89","1485","2","""event"",""trial"",""time""
""fullscreenenter"",""1"",""4101""
","
","
","""event"",""trial"",""time""
""fullscreenenter"",""1"",""4101""
","
","","","","","","1125.899999999092","images/cactus3.png","","","memory_trial","4","definitely_new","","","","","","",""
"html-keyboard-response","223","494574","0.0-15.0-0.90","1485","2","""event"",""trial"",""time""
""fullscreenenter"",""1"",""4101""
","
","
","""event"",""trial"",""time""
""fullscreenenter"",""1"",""4101""
","
","","","","","","null","<div style=""font-size:60px;"">+</div>","null","","fixation","","","","","","","","",""
"memory-trial","224","496498","0.0-15.0-1.90","1485","2","""event"",""trial"",""time""
""fullscreenenter"",""1"",""4101""
","
","
","""event"",""trial"",""time""
""fullscreenenter"",""1"",""4101""
","
","","","","","","920.8799999996554","images/boat5.png","","","memory_trial","1","definitely_old","","","","","","",""
"html-keyboard-response","225","497000","0.0-15.0-0.91","1485","2","""event"",""trial"",""time""
""fullscreenenter"",""1"",""4101""
","
","
","""event"",""trial"",""time""
""fullscreenenter"",""1"",""4101""
","
","","","","","","null","<div style=""font-size:60px;"">+</div>","null","","fixation","","","","","","","","",""
"memory-trial","226","499245","0.0-15.0-1.91","1485","2","""event"",""trial"",""time""
""fullscreenenter"",""1"",""4101""
","
","
","""event"",""trial"",""time""
""fullscreenenter"",""1"",""4101""
","
","","","","","","1242.7299999999814","images/truck1.png","","","memory_trial","3","maybe_new","","","","","","",""
"html-keyboard-response","227","499747","0.0-15.0-0.92","1485","2","""event"",""trial"",""time""
""fullscreenenter"",""1"",""4101""
","
","
","""event"",""trial"",""time""
""fullscreenenter"",""1"",""4101""
","
","","","","","","null","<div style=""font-size:60px;"">+</div>","null","","fixation","","","","","","","","",""
"memory-trial","228","501624","0.0-15.0-1.92","1485","2","""event"",""trial"",""time""
""fullscreenenter"",""1"",""4101""
","
","
","""event"",""trial"",""time""
""fullscreenenter"",""1"",""4101""
","
","","","","","","874.269999998447","images/boat4.png","","","memory_trial","4","definitely_new","","","","","","",""
"html-keyboard-response","229","502126","0.0-15.0-0.93","1485","2","""event"",""trial"",""time""
""fullscreenenter"",""1"",""4101""
","
","
","""event"",""trial"",""time""
""fullscreenenter"",""1"",""4101""
","
","","","","","","null","<div style=""font-size:60px;"">+</div>","null","","fixation","","","","","","","","",""
"memory-trial","230","504797","0.0-15.0-1.93","1485","2","""event"",""trial"",""time""
""fullscreenenter"",""1"",""4101""
","
","
","""event"",""trial"",""time""
""fullscreenenter"",""1"",""4101""
","
","","","","","","1669.3100000011036","images/banana1.png","","","memory_trial","1","definitely_old","","","","","","",""
"html-keyboard-response","231","505301","0.0-15.0-0.94","1485","2","""event"",""trial"",""time""
""fullscreenenter"",""1"",""4101""
","
","
","""event"",""trial"",""time""
""fullscreenenter"",""1"",""4101""
","
","","","","","","null","<div style=""font-size:60px;"">+</div>","null","","fixation","","","","","","","","",""
"memory-trial","232","507194","0.0-15.0-1.94","1485","2","""event"",""trial"",""time""
""fullscreenenter"",""1"",""4101""
","
","
","""event"",""trial"",""time""
""fullscreenenter"",""1"",""4101""
","
","","","","","","891.5799999994924","images/goat3.png","","","memory_trial","1","definitely_old","","","","","","",""
"html-keyboard-response","233","507696","0.0-15.0-0.95","1485","2","""event"",""trial"",""time""
""fullscreenenter"",""1"",""4101""
","
","
","""event"",""trial"",""time""
""fullscreenenter"",""1"",""4101""
","
","","","","","","null","<div style=""font-size:60px;"">+</div>","null","","fixation","","","","","","","","",""
"memory-trial","234","510411","0.0-15.0-1.95","1485","2","""event"",""trial"",""time""
""fullscreenenter"",""1"",""4101""
","
","
","""event"",""trial"",""time""
""fullscreenenter"",""1"",""4101""
","
","","","","","","1712.6750000006286","images/cactus1.png","","","memory_trial","4","definitely_new","","","","","","",""
"html-keyboard-response","235","510912","0.0-15.0-0.96","1485","2","""event"",""trial"",""time""
""fullscreenenter"",""1"",""4101""
","
","
","""event"",""trial"",""time""
""fullscreenenter"",""1"",""4101""
","
","","","","","","null","<div style=""font-size:60px;"">+</div>","null","","fixation","","","","","","","","",""
"memory-trial","236","512902","0.0-15.0-1.96","1485","2","""event"",""trial"",""time""
""fullscreenenter"",""1"",""4101""
","
","
","""event"",""trial"",""time""
""fullscreenenter"",""1"",""4101""
","
","","","","","","986.8049999986542","images/train3.png","","","memory_trial","3","maybe_new","","","","","","",""
"html-keyboard-response","237","513404","0.0-15.0-0.97","1485","2","""event"",""trial"",""time""
""fullscreenenter"",""1"",""4101""
","
","
","""event"",""trial"",""time""
""fullscreenenter"",""1"",""4101""
","
","","","","","","null","<div style=""font-size:60px;"">+</div>","null","","fixation","","","","","","","","",""
"memory-trial","238","516044","0.0-15.0-1.97","1485","2","""event"",""trial"",""time""
""fullscreenenter"",""1"",""4101""
","
","
","""event"",""trial"",""time""
""fullscreenenter"",""1"",""4101""
","
","","","","","","1638.0850000004866","images/table2.png","","","memory_trial","2","maybe_old","","","","","","",""
"html-keyboard-response","239","516546","0.0-15.0-0.98","1485","2","""event"",""trial"",""time""
""fullscreenenter"",""1"",""4101""
","
","
","""event"",""trial"",""time""
""fullscreenenter"",""1"",""4101""
","
","","","","","","null","<div style=""font-size:60px;"">+</div>","null","","fixation","","","","","","","","",""
"memory-trial","240","518894","0.0-15.0-1.98","1485","2","""event"",""trial"",""time""
""fullscreenenter"",""1"",""4101""
","
","
","""event"",""trial"",""time""
""fullscreenenter"",""1"",""4101""
","
","","","","","","1344.8150000003516","images/rodent2.png","","","memory_trial","3","maybe_new","","","","","","",""
"html-keyboard-response","241","519396","0.0-15.0-0.99","1485","2","""event"",""trial"",""time""
""fullscreenenter"",""1"",""4101""
","
","
","""event"",""trial"",""time""
""fullscreenenter"",""1"",""4101""
","
","","","","","","null","<div style=""font-size:60px;"">+</div>","null","","fixation","","","","","","","","",""
"memory-trial","242","521507","0.0-15.0-1.99","1485","2","""event"",""trial"",""time""
""fullscreenenter"",""1"",""4101""
","
","
","""event"",""trial"",""time""
""fullscreenenter"",""1"",""4101""
","
","","","","","","1108.5750000001863","images/boat2.png","","","memory_trial","1","definitely_old","","","","","","",""
"html-keyboard-response","243","522008","0.0-15.0-0.100","1485","2","""event"",""trial"",""time""
""fullscreenenter"",""1"",""4101""
","
","
","""event"",""trial"",""time""
""fullscreenenter"",""1"",""4101""
","
","","","","","","null","<div style=""font-size:60px;"">+</div>","null","","fixation","","","","","","","","",""
"memory-trial","244","523780","0.0-15.0-1.100","1485","2","""event"",""trial"",""time""
""fullscreenenter"",""1"",""4101""
","
","
","""event"",""trial"",""time""
""fullscreenenter"",""1"",""4101""
","
","","","","","","769.2100000003702","images/bed1.png","","","memory_trial","1","definitely_old","","","","","","",""
"html-keyboard-response","245","524282","0.0-15.0-0.101","1485","2","""event"",""trial"",""time""
""fullscreenenter"",""1"",""4101""
","
","
","""event"",""trial"",""time""
""fullscreenenter"",""1"",""4101""
","
","","","","","","null","<div style=""font-size:60px;"">+</div>","null","","fixation","","","","","","","","",""
"memory-trial","246","526652","0.0-15.0-1.101","1485","2","""event"",""trial"",""time""
""fullscreenenter"",""1"",""4101""
","
","
","""event"",""trial"",""time""
""fullscreenenter"",""1"",""4101""
","
","","","","","","1367.1350000003586","images/sofa2.png","","","memory_trial","1","definitely_old","","","","","","",""
"html-button-response","247","541777","0.0-15.0-2.101-0.101","1485","2","""event"",""trial"",""time""
""fullscreenenter"",""1"",""4101""
","
","
","""event"",""trial"",""time""
""fullscreenenter"",""1"",""4101""
","
","","","","","","15123.709999999963","<p> Take a break! </p><p> Click the button to continue. </p>","0","","break","","","","","","","","",""
"html-keyboard-response","248","542279","0.0-15.0-0.102","1485","2","""event"",""trial"",""time""
""fullscreenenter"",""1"",""4101""
","
","
","""event"",""trial"",""time""
""fullscreenenter"",""1"",""4101""
","
","","","","","","null","<div style=""font-size:60px;"">+</div>","null","","fixation","","","","","","","","",""
"memory-trial","249","544306","0.0-15.0-1.102","1485","2","""event"",""trial"",""time""
""fullscreenenter"",""1"",""4101""
","
","
","""event"",""trial"",""time""
""fullscreenenter"",""1"",""4101""
","
","","","","","","1023.5600000014529","images/flower4.png","","","memory_trial","1","definitely_old","","","","","","",""
"html-keyboard-response","250","544807","0.0-15.0-0.103","1485","2","""event"",""trial"",""time""
""fullscreenenter"",""1"",""4101""
","
","
","""event"",""trial"",""time""
""fullscreenenter"",""1"",""4101""
","
","","","","","","null","<div style=""font-size:60px;"">+</div>","null","","fixation","","","","","","","","",""
"memory-trial","251","547718","0.0-15.0-1.103","1485","2","""event"",""trial"",""time""
""fullscreenenter"",""1"",""4101""
","
","
","""event"",""trial"",""time""
""fullscreenenter"",""1"",""4101""
","
","","","","","","1908.424999999581","images/sheep4.png","","","memory_trial","2","maybe_old","","","","","","",""
"html-keyboard-response","252","548221","0.0-15.0-0.104","1485","2","""event"",""trial"",""time""
""fullscreenenter"",""1"",""4101""
","
","
","""event"",""trial"",""time""
""fullscreenenter"",""1"",""4101""
","
","","","","","","null","<div style=""font-size:60px;"">+</div>","null","","fixation","","","","","","","","",""
"memory-trial","253","550036","0.0-15.0-1.104","1485","2","""event"",""trial"",""time""
""fullscreenenter"",""1"",""4101""
","
","
","""event"",""trial"",""time""
""fullscreenenter"",""1"",""4101""
","
","","","","","","812.6200000005774","images/flower3.png","","","memory_trial","3","maybe_new","","","","","","",""
"html-keyboard-response","254","550538","0.0-15.0-0.105","1485","2","""event"",""trial"",""time""
""fullscreenenter"",""1"",""4101""
","
","
","""event"",""trial"",""time""
""fullscreenenter"",""1"",""4101""
","
","","","","","","null","<div style=""font-size:60px;"">+</div>","null","","fixation","","","","","","","","",""
"memory-trial","255","553194","0.0-15.0-1.105","1485","2","""event"",""trial"",""time""
""fullscreenenter"",""1"",""4101""
","
","
","""event"",""trial"",""time""
""fullscreenenter"",""1"",""4101""
","
","","","","","","1654.1649999999208","images/sheep1.png","","","memory_trial","4","definitely_new","","","","","","",""
"html-keyboard-response","256","553695","0.0-15.0-0.106","1485","2","""event"",""trial"",""time""
""fullscreenenter"",""1"",""4101""
","
","
","""event"",""trial"",""time""
""fullscreenenter"",""1"",""4101""
","
","","","","","","null","<div style=""font-size:60px;"">+</div>","null","","fixation","","","","","","","","",""
"memory-trial","257","555794","0.0-15.0-1.106","1485","2","""event"",""trial"",""time""
""fullscreenenter"",""1"",""4101""
","
","
","""event"",""trial"",""time""
""fullscreenenter"",""1"",""4101""
","
","","","","","","1097.1150000004563","images/bed2.png","","","memory_trial","3","maybe_new","","","","","","",""
"html-keyboard-response","258","556296","0.0-15.0-0.107","1485","2","""event"",""trial"",""time""
""fullscreenenter"",""1"",""4101""
","
","
","""event"",""trial"",""time""
""fullscreenenter"",""1"",""4101""
","
","","","","","","null","<div style=""font-size:60px;"">+</div>","null","","fixation","","","","","","","","",""
"memory-trial","259","558923","0.0-15.0-1.107","1485","2","""event"",""trial"",""time""
""fullscreenenter"",""1"",""4101""
","
","
","""event"",""trial"",""time""
""fullscreenenter"",""1"",""4101""
","
","","","","","","1623.4800000002142","images/goat5.png","","","memory_trial","1","definitely_old","","","","","","",""
"html-keyboard-response","260","559436","0.0-15.0-0.108","1485","2","""event"",""trial"",""time""
""fullscreenenter"",""1"",""4101""
","
","
","""event"",""trial"",""time""
""fullscreenenter"",""1"",""4101""
","
","","","","","","null","<div style=""font-size:60px;"">+</div>","null","","fixation","","","","","","","","",""
"memory-trial","261","562295","0.0-15.0-1.108","1485","2","""event"",""trial"",""time""
""fullscreenenter"",""1"",""4101""
","
","
","""event"",""trial"",""time""
""fullscreenenter"",""1"",""4101""
","
","","","","","","1857.130000000354","images/train2.png","","","memory_trial","4","definitely_new","","","","","","",""
"html-keyboard-response","262","562798","0.0-15.0-0.109","1485","2","""event"",""trial"",""time""
""fullscreenenter"",""1"",""4101""
","
","
","""event"",""trial"",""time""
""fullscreenenter"",""1"",""4101""
","
","","","","","","null","<div style=""font-size:60px;"">+</div>","null","","fixation","","","","","","","","",""
"memory-trial","263","565279","0.0-15.0-1.109","1485","2","""event"",""trial"",""time""
""fullscreenenter"",""1"",""4101""
","
","
","""event"",""trial"",""time""
""fullscreenenter"",""1"",""4101""
","
","","","","","","1478.7899999992223","images/apple2.png","","","memory_trial","1","definitely_old","","","","","","",""
"html-keyboard-response","264","565780","0.0-15.0-0.110","1485","2","""event"",""trial"",""time""
""fullscreenenter"",""1"",""4101""
","
","
","""event"",""trial"",""time""
""fullscreenenter"",""1"",""4101""
","
","","","","","","null","<div style=""font-size:60px;"">+</div>","null","","fixation","","","","","","","","",""
"memory-trial","265","568345","0.0-15.0-1.110","1485","2","""event"",""trial"",""time""
""fullscreenenter"",""1"",""4101""
","
","
","""event"",""trial"",""time""
""fullscreenenter"",""1"",""4101""
","
","","","","","","1561.6549999994459","images/train5.png","","","memory_trial","1","definitely_old","","","","","","",""
"html-keyboard-response","266","568847","0.0-15.0-0.111","1485","2","""event"",""trial"",""time""
""fullscreenenter"",""1"",""4101""
","
","
","""event"",""trial"",""time""
""fullscreenenter"",""1"",""4101""
","
","","","","","","null","<div style=""font-size:60px;"">+</div>","null","","fixation","","","","","","","","",""
"memory-trial","267","570760","0.0-15.0-1.111","1485","2","""event"",""trial"",""time""
""fullscreenenter"",""1"",""4101""
","
","
","""event"",""trial"",""time""
""fullscreenenter"",""1"",""4101""
","
","","","","","","910.2350000012666","images/truck3.png","","","memory_trial","1","definitely_old","","","","","","",""
"html-keyboard-response","268","571261","0.0-15.0-0.112","1485","2","""event"",""trial"",""time""
""fullscreenenter"",""1"",""4101""
","
","
","""event"",""trial"",""time""
""fullscreenenter"",""1"",""4101""
","
","","","","","","null","<div style=""font-size:60px;"">+</div>","null","","fixation","","","","","","","","",""
"memory-trial","269","574092","0.0-15.0-1.112","1485","2","""event"",""trial"",""time""
""fullscreenenter"",""1"",""4101""
","
","
","""event"",""trial"",""time""
""fullscreenenter"",""1"",""4101""
","
","","","","","","1827.859999999404","images/sofa1.png","","","memory_trial","2","maybe_old","","","","","","",""
"html-keyboard-response","270","574595","0.0-15.0-0.113","1485","2","""event"",""trial"",""time""
""fullscreenenter"",""1"",""4101""
","
","
","""event"",""trial"",""time""
""fullscreenenter"",""1"",""4101""
","
","","","","","","null","<div style=""font-size:60px;"">+</div>","null","","fixation","","","","","","","","",""
"memory-trial","271","577165","0.0-15.0-1.113","1485","2","""event"",""trial"",""time""
""fullscreenenter"",""1"",""4101""
","
","
","""event"",""trial"",""time""
""fullscreenenter"",""1"",""4101""
","
","","","","","","1567.2450000002282","images/bed4.png","","","memory_trial","2","maybe_old","","","","","","",""
"html-keyboard-response","272","577671","0.0-15.0-0.114","1485","2","""event"",""trial"",""time""
""fullscreenenter"",""1"",""4101""
","
","
","""event"",""trial"",""time""
""fullscreenenter"",""1"",""4101""
","
","","","","","","null","<div style=""font-size:60px;"">+</div>","null","","fixation","","","","","","","","",""
"memory-trial","273","579886","0.0-15.0-1.114","1485","2","""event"",""trial"",""time""
""fullscreenenter"",""1"",""4101""
","
","
","""event"",""trial"",""time""
""fullscreenenter"",""1"",""4101""
","
","","","","","","1212.675000000745","images/rabbit5.png","","","memory_trial","3","maybe_new","","","","","","",""
"html-keyboard-response","274","580387","0.0-15.0-0.115","1485","2","""event"",""trial"",""time""
""fullscreenenter"",""1"",""4101""
","
","
","""event"",""trial"",""time""
""fullscreenenter"",""1"",""4101""
","
","","","","","","null","<div style=""font-size:60px;"">+</div>","null","","fixation","","","","","","","","",""
"memory-trial","275","582710","0.0-15.0-1.115","1485","2","""event"",""trial"",""time""
""fullscreenenter"",""1"",""4101""
","
","
","""event"",""trial"",""time""
""fullscreenenter"",""1"",""4101""
","
","","","","","","1320.5749999997206","images/chair3.png","","","memory_trial","4","definitely_new","","","","","","",""
"html-keyboard-response","276","583211","0.0-15.0-0.116","1485","2","""event"",""trial"",""time""
""fullscreenenter"",""1"",""4101""
","
","
","""event"",""trial"",""time""
""fullscreenenter"",""1"",""4101""
","
","","","","","","null","<div style=""font-size:60px;"">+</div>","null","","fixation","","","","","","","","",""
"memory-trial","277","585401","0.0-15.0-1.116","1485","2","""event"",""trial"",""time""
""fullscreenenter"",""1"",""4101""
","
","
","""event"",""trial"",""time""
""fullscreenenter"",""1"",""4101""
","
","","","","","","1187.4449999994831","images/horse2.png","","","memory_trial","4","definitely_new","","","","","","",""
"html-keyboard-response","278","585903","0.0-15.0-0.117","1485","2","""event"",""trial"",""time""
""fullscreenenter"",""1"",""4101""
","
","
","""event"",""trial"",""time""
""fullscreenenter"",""1"",""4101""
","
","","","","","","null","<div style=""font-size:60px;"">+</div>","null","","fixation","","","","","","","","",""
"memory-trial","279","588584","0.0-15.0-1.117","1485","2","""event"",""trial"",""time""
""fullscreenenter"",""1"",""4101""
","
","
","""event"",""trial"",""time""
""fullscreenenter"",""1"",""4101""
","
","","","","","","1678.1549999996787","images/dog1.png","","","memory_trial","4","definitely_new","","","","","","",""
"html-keyboard-response","280","589086","0.0-15.0-0.118","1485","2","""event"",""trial"",""time""
""fullscreenenter"",""1"",""4101""
","
","
","""event"",""trial"",""time""
""fullscreenenter"",""1"",""4101""
","
","","","","","","null","<div style=""font-size:60px;"">+</div>","null","","fixation","","","","","","","","",""
"memory-trial","281","591096","0.0-15.0-1.118","1485","2","""event"",""trial"",""time""
""fullscreenenter"",""1"",""4101""
","
","
","""event"",""trial"",""time""
""fullscreenenter"",""1"",""4101""
","
","","","","","","1006.8950000003679","images/straw1.png","","","memory_trial","1","definitely_old","","","","","","",""
"html-keyboard-response","282","591598","0.0-15.0-0.119","1485","2","""event"",""trial"",""time""
""fullscreenenter"",""1"",""4101""
","
","
","""event"",""trial"",""time""
""fullscreenenter"",""1"",""4101""
","
","","","","","","null","<div style=""font-size:60px;"">+</div>","null","","fixation","","","","","","","","",""
"memory-trial","283","593925","0.0-15.0-1.119","1485","2","""event"",""trial"",""time""
""fullscreenenter"",""1"",""4101""
","
","
","""event"",""trial"",""time""
""fullscreenenter"",""1"",""4101""
","
","","","","","","1323.5299999996787","images/chair4.png","","","memory_trial","4","definitely_new","","","","","","",""
"preload","284","598457","0.0-16.0","1485","2","""event"",""trial"",""time""
""fullscreenenter"",""1"",""4101""
","
","
","""event"",""trial"",""time""
""fullscreenenter"",""1"",""4101""
","
","true","false","[]","[]","[]","","","","","","","","","","","","","",""
"learning-instructions","285","605441","0.0-17.0-0.0-0.0-0.0","1485","2","""event"",""trial"",""time""
""fullscreenenter"",""1"",""4101""
","
","
","""event"",""trial"",""time""
""fullscreenenter"",""1"",""4101""
","
","","","","","","2479.1549999990966","<p> We're now going to ask you to put fuel in your vehicles again. </p>","","0","instructions","","","","","","","","",""
"learning-instructions","286","622937","0.0-17.0-0.0-0.0-0.1","1485","2","""event"",""trial"",""time""
""fullscreenenter"",""1"",""4101""
","
","
","""event"",""trial"",""time""
""fullscreenenter"",""1"",""4101""
","
","","","","","","11452.189999999944","<p> On each trial, you will see a vehicle. Select the fuel that you think will make the vehicle start. </p>","","0","instructions","","","","","","","","",""
"learning-instructions","287","631593","0.0-17.0-0.0-0.0-0.2","1485","2","""event"",""trial"",""time""
""fullscreenenter"",""1"",""4101""
","
","
","""event"",""trial"",""time""
""fullscreenenter"",""1"",""4101""
","
","","","","","","1590.7999999999302","<p> To make your selection, think about what you learned last week. You will NOT receive any feedback about your choice. </p>","","0","instructions","","","","","","","","",""
"learning-instructions","288","640481","0.0-17.0-0.0-0.0-0.3","1485","2","""event"",""trial"",""time""
""fullscreenenter"",""1"",""4101""
","
","
","""event"",""trial"",""time""
""fullscreenenter"",""1"",""4101""
","
","","","","","","1444.2500000004657","<p> You should use the 1 key to select the fuel on the left, the 2 key to select the fuel in the middle, and the 3 key to select the fuel on the right. </p><br><div class=""choice-mem-instructions-grid""> <div class=""choice-mem-option""><img src=""images/vehicles_choice1.png"" class=""choice-mem-option-img"" stage=""instructions"" position=""0"" ><div class=""choice-mem-option-text""> Press ""1."" </div></div><div class=""choice-mem-option""><img src=""images/vehicles_choice2.png"" class=""choice-mem-option-img"" stage=""instructions"" position=""1"" ><div class=""choice-mem-option-text""> Press ""2."" </div></div><div class=""choice-mem-option""><img src=""images/vehicles_choice3.png"" class=""choice-mem-option-img"" stage=""instructions"" position=""2"" ><div class=""choice-mem-option-text""> Press ""3."" </div></div></div>","","0","instructions","","","","","","","","",""
"learning-instructions","289","655721","0.0-17.0-0.0-0.0-0.4","1485","2","""event"",""trial"",""time""
""fullscreenenter"",""1"",""4101""
","
","
","""event"",""trial"",""time""
""fullscreenenter"",""1"",""4101""
","
","","","","","","8962.064999999711","<p> You will have 10 seconds to make each selection. Try to respond before time runs out! </p>","","0","instructions","","","","","","","","",""
"learning-instructions","290","658545","0.0-17.0-0.0-1.0","1485","2","""event"",""trial"",""time""
""fullscreenenter"",""1"",""4101""
","
","
","""event"",""trial"",""time""
""fullscreenenter"",""1"",""4101""
","
","","","","","","756.7300000009127","<p> You are now ready to begin the game. </p>","","0","instructions","","","","","","","","",""
"html-keyboard-response","291","659153","0.0-17.0-0.0-2.0-0.0","1485","2","""event"",""trial"",""time""
""fullscreenenter"",""1"",""4101""
","
","
","""event"",""trial"",""time""
""fullscreenenter"",""1"",""4101""
","
