"trial_type","trial_index","time_elapsed","internal_node_id","subject_id","task_version","interactions","blur_events","focus_events","fullscreenenter_events","fullscreenexit_events","success","timeout","failed_images","failed_audio","failed_video","rt","stimulus","response","button_pressed","task_part","key_press","answer","correct","left_choice","middle_choice","right_choice","choice_positions","option_selected","block"
"pavlovia","0","4","0.0-0.0","1851","2","""event"",""trial"",""time""
""fullscreenenter"",""1"",""8609""
","
","
","""event"",""trial"",""time""
""fullscreenenter"",""1"",""8609""
","
","","","","","","","","","","","","","","","","","","",""
"fullscreen","1","9545","0.0-1.0","1851","2","""event"",""trial"",""time""
""fullscreenenter"",""1"",""8609""
","
","
","""event"",""trial"",""time""
""fullscreenenter"",""1"",""8609""
","
","true","","","","","","","","","","","","","","","","","",""
"preload","2","10772","0.0-2.0","1851","2","""event"",""trial"",""time""
""fullscreenenter"",""1"",""8609""
","
","
","""event"",""trial"",""time""
""fullscreenenter"",""1"",""8609""
","
","true","false","[]","[]","[]","","","","","","","","","","","","","",""
"audio-keyboard-response","3","12202","0.0-3.0","1851","2","""event"",""trial"",""time""
""fullscreenenter"",""1"",""8609""
","
","
","""event"",""trial"",""time""
""fullscreenenter"",""1"",""8609""
","
","","","","","","1421.3333333333333","audio/beep_loop.wav"," ","","","","","","","","","","",""
"audio-button-response","4","13488","0.0-4.0","1851","2","""event"",""trial"",""time""
""fullscreenenter"",""1"",""8609""
","
","
","""event"",""trial"",""time""
""fullscreenenter"",""1"",""8609""
","
","","","","","","1280","audio/turtle.wav","3","","","","","","","","","","",""
"audio-button-response","5","15569","0.0-5.0","1851","2","""event"",""trial"",""time""
""fullscreenenter"",""1"",""8609""
","
","
","""event"",""trial"",""time""
""fullscreenenter"",""1"",""8609""
","
","","","","","","1072","audio/shark.wav","2","","","","","","","","","","",""
"preload","6","19992","0.0-6.0","1851","2","""event"",""trial"",""time""
""fullscreenenter"",""1"",""8609""
","
","
","""event"",""trial"",""time""
""fullscreenenter"",""1"",""8609""
","
","true","false","[]","[]","[]","","","","","","","","","","","","","",""
"learning-instructions","7","28168","0.0-7.0-0.0","1851","2","""event"",""trial"",""time""
""fullscreenenter"",""1"",""8609""
","
","
","""event"",""trial"",""time""
""fullscreenenter"",""1"",""8609""
","
","","","","","","3364.5","<p> Welcome back! </p><p> Last week, you had to make choices about lots of different items.  </p>","","0","instructions","","","","","","","","",""
"learning-instructions","8","34610","0.0-7.0-0.1","1851","2","""event"",""trial"",""time""
""fullscreenenter"",""1"",""8609""
","
","
","""event"",""trial"",""time""
""fullscreenenter"",""1"",""8609""
","
","","","","","","2125","<p> Today, we are going to ask you to try to remember all the items. </p>","","0","instructions","","","","","","","","",""
"learning-instructions","9","46194","0.0-7.0-0.2","1851","2","""event"",""trial"",""time""
""fullscreenenter"",""1"",""8609""
","
","
","""event"",""trial"",""time""
""fullscreenenter"",""1"",""8609""
","
","","","","","","1449.6999999999534","<p> On every trial, you will see an image. </p><p> The image may be an OLD image you saw during the games last week or it may be a NEW image that was not presented. </p>","","0","instructions","","","","","","","","",""
"learning-instructions","10","80185","0.0-7.0-0.3","1851","2","""event"",""trial"",""time""
""fullscreenenter"",""1"",""8609""
","
","
","""event"",""trial"",""time""
""fullscreenenter"",""1"",""8609""
","
","","","","","","25480.400000000023","<p> You need to select whether the image is:  </p><p>  'Definitely old', 'Maybe old', 'Maybe new', or 'Definitely new.'  </p><div class=""mem-choice-instructions-grid""><div class=""choice-option"" id=""choice-option-1"" ><img src=""images/definitely_old_1.png"" id=""choice-option-img-1"" class=""choice-option-img"" stage=""1""></div><div class=""choice-option"" id=""choice-option-2"" ><img src=""images/maybe_old_1.png"" id=""choice-option-img-2"" class=""choice-option-img"" stage=""1""></div><div class=""choice-option"" id=""choice-option-3"" ><img src=""images/maybe_new_1.png"" id=""choice-option-img-3"" class=""choice-option-img"" stage=""1""></div><div class=""choice-option"" id=""choice-option-4"" > <img src=""images/definitely_new_1.png"" id=""choice-option-img-4"" class=""choice-option-img"" stage=""1""></div></div>","","0","instructions","","","","","","","","",""
"learning-instructions","11","100898","0.0-7.0-0.4","1851","2","""event"",""trial"",""time""
""fullscreenenter"",""1"",""8609""
","
","
","""event"",""trial"",""time""
""fullscreenenter"",""1"",""8609""
","
","","","","","","14003.400000000023","<p> You should use the 1, 2, 3, and 4 keys to make your responses.  </p><div class=""mem-choice-instructions-grid""><div class=""choice-option"" id=""choice-option-1"" ><img src=""images/definitely_old.png"" id=""choice-option-img-1"" class=""choice-option-img"" stage=""1""></div><div class=""choice-option"" id=""choice-option-2"" ><img src=""images/maybe_old.png"" id=""choice-option-img-2"" class=""choice-option-img"" stage=""1""></div><div class=""choice-option"" id=""choice-option-3"" ><img src=""images/maybe_new.png"" id=""choice-option-img-3"" class=""choice-option-img"" stage=""1""></div><div class=""choice-option"" id=""choice-option-4"" > <img src=""images/definitely_new.png"" id=""choice-option-img-4"" class=""choice-option-img"" stage=""1""></div></div>","","0","instructions","","","","","","","","",""
"learning-instructions","12","110255","0.0-7.0-0.5","1851","2","""event"",""trial"",""time""
""fullscreenenter"",""1"",""8609""
","
","
","""event"",""trial"",""time""
""fullscreenenter"",""1"",""8609""
","
","","","","","","2580.9000000000233","<p> You will have 10 seconds to make each response.  </p><p>  Make sure to respond before time runs out! </p>","","0","instructions","","","","","","","","",""
"learning-instructions","13","118248","0.0-7.0-0.6","1851","2","""event"",""trial"",""time""
""fullscreenenter"",""1"",""8609""
","
","
","""event"",""trial"",""time""
""fullscreenenter"",""1"",""8609""
","
","","","","","","394.4000000000233","<p> Today, you will see each image ONCE only.  </p><p>  That means none of the images will repeat. </p>","","0","instructions","","","","","","","","",""
"learning-instructions","14","132228","0.0-7.0-0.7","1851","2","""event"",""trial"",""time""
""fullscreenenter"",""1"",""8609""
","
","
","""event"",""trial"",""time""
""fullscreenenter"",""1"",""8609""
","
","","","","","","1294.4000000000233","<p> Before you play the real game, it is time to practice. </p><p>  Just like in the real game, some of the images in the practice will be ones you have seen before. </p><p>  Others will be entirely new. </p>","","0","instructions","","","","","","","","",""
"html-button-response","15","133680","0.0-8.0","1851","2","""event"",""trial"",""time""
""fullscreenenter"",""1"",""8609""
","
","
","""event"",""trial"",""time""
""fullscreenenter"",""1"",""8609""
","
","","","","","","1345.7000000000698","<p> Ready to practice? </p><p> Remember, use the 1, 2, 3, and 4 keys to make your responses. </p>","0","","instructions","","","","","","","","",""
"html-keyboard-response","16","134302","0.0-9.0-0.0","1851","2","""event"",""trial"",""time""
""fullscreenenter"",""1"",""8609""
","
","
","""event"",""trial"",""time""
""fullscreenenter"",""1"",""8609""
","
","","","","","","null","<div style=""font-size:60px;"">+</div>","null","","fixation","","","","","","","","",""
"memory-trial","17","138668","0.0-9.0-1.0","1851","2","""event"",""trial"",""time""
""fullscreenenter"",""1"",""8609""
","
","
","""event"",""trial"",""time""
""fullscreenenter"",""1"",""8609""
","
","","","","","","3344.0999999999767","images/racket4.png","","","practice","4","definitely_new","","","","","","",""
"html-keyboard-response","18","139171","0.0-9.0-0.1","1851","2","""event"",""trial"",""time""
""fullscreenenter"",""1"",""8609""
","
","
","""event"",""trial"",""time""
""fullscreenenter"",""1"",""8609""
","
","","","","","","null","<div style=""font-size:60px;"">+</div>","null","","fixation","","","","","","","","",""
"memory-trial","19","142073","0.0-9.0-1.1","1851","2","""event"",""trial"",""time""
""fullscreenenter"",""1"",""8609""
","
","
","""event"",""trial"",""time""
""fullscreenenter"",""1"",""8609""
","
","","","","","","1876.5","images/ball3.png","","","practice","4","definitely_new","","","","","","",""
"html-keyboard-response","20","142582","0.0-9.0-0.2","1851","2","""event"",""trial"",""time""
""fullscreenenter"",""1"",""8609""
","
","
","""event"",""trial"",""time""
""fullscreenenter"",""1"",""8609""
","
","","","","","","null","<div style=""font-size:60px;"">+</div>","null","","fixation","","","","","","","","",""
"memory-trial","21","147676","0.0-9.0-1.2","1851","2","""event"",""trial"",""time""
""fullscreenenter"",""1"",""8609""
","
","
","""event"",""trial"",""time""
""fullscreenenter"",""1"",""8609""
","
","","","","","","4076.600000000093","images/racket2.png","","","practice","3","maybe_new","","","","","","",""
"html-keyboard-response","22","148182","0.0-9.0-0.3","1851","2","""event"",""trial"",""time""
""fullscreenenter"",""1"",""8609""
","
","
","""event"",""trial"",""time""
""fullscreenenter"",""1"",""8609""
","
","","","","","","null","<div style=""font-size:60px;"">+</div>","null","","fixation","","","","","","","","",""
"memory-trial","23","151652","0.0-9.0-1.3","1851","2","""event"",""trial"",""time""
""fullscreenenter"",""1"",""8609""
","
","
","""event"",""trial"",""time""
""fullscreenenter"",""1"",""8609""
","
","","","","","","2445.4000000000233","images/racket1.png","","","practice","3","maybe_new","","","","","","",""
"html-keyboard-response","24","152172","0.0-9.0-0.4","1851","2","""event"",""trial"",""time""
""fullscreenenter"",""1"",""8609""
","
","
","""event"",""trial"",""time""
""fullscreenenter"",""1"",""8609""
","
","","","","","","null","<div style=""font-size:60px;"">+</div>","null","","fixation","","","","","","","","",""
"memory-trial","25","155322","0.0-9.0-1.4","1851","2","""event"",""trial"",""time""
""fullscreenenter"",""1"",""8609""
","
","
","""event"",""trial"",""time""
""fullscreenenter"",""1"",""8609""
","
","","","","","","2127.4000000000233","images/ball4.png","","","practice","2","maybe_old","","","","","","",""
"html-keyboard-response","26","155842","0.0-9.0-0.5","1851","2","""event"",""trial"",""time""
""fullscreenenter"",""1"",""8609""
","
","
","""event"",""trial"",""time""
""fullscreenenter"",""1"",""8609""
","
","","","","","","null","<div style=""font-size:60px;"">+</div>","null","","fixation","","","","","","","","",""
"memory-trial","27","157922","0.0-9.0-1.5","1851","2","""event"",""trial"",""time""
""fullscreenenter"",""1"",""8609""
","
","
","""event"",""trial"",""time""
""fullscreenenter"",""1"",""8609""
","
","","","","","","1066.6999999999534","images/ball1.png","","","practice","1","definitely_old","","","","","","",""
"html-keyboard-response","28","158432","0.0-9.0-0.6","1851","2","""event"",""trial"",""time""
""fullscreenenter"",""1"",""8609""
","
","
","""event"",""trial"",""time""
""fullscreenenter"",""1"",""8609""
","
","","","","","","null","<div style=""font-size:60px;"">+</div>","null","","fixation","","","","","","","","",""
"memory-trial","29","160333","0.0-9.0-1.6","1851","2","""event"",""trial"",""time""
""fullscreenenter"",""1"",""8609""
","
","
","""event"",""trial"",""time""
""fullscreenenter"",""1"",""8609""
","
","","","","","","875.6999999999534","images/ball2.png","","","practice","2","maybe_old","","","","","","",""
"html-keyboard-response","30","160842","0.0-9.0-0.7","1851","2","""event"",""trial"",""time""
""fullscreenenter"",""1"",""8609""
","
","
","""event"",""trial"",""time""
""fullscreenenter"",""1"",""8609""
","
","","","","","","null","<div style=""font-size:60px;"">+</div>","null","","fixation","","","","","","","","",""
"memory-trial","31","163223","0.0-9.0-1.7","1851","2","""event"",""trial"",""time""
""fullscreenenter"",""1"",""8609""
","
","
","""event"",""trial"",""time""
""fullscreenenter"",""1"",""8609""
","
","","","","","","1375.5","images/racket3.png","","","practice","4","definitely_new","","","","","","",""
"learning-instructions","32","172229","0.0-10.0-0.0","1851","2","""event"",""trial"",""time""
""fullscreenenter"",""1"",""8609""
","
","
","""event"",""trial"",""time""
""fullscreenenter"",""1"",""8609""
","
","","","","","","1059.3000000000466","<p> Great! You have completed the practice. </p><p> Before you start, we're going to ask you a few questions about how the game works.  </p>","","0","instructions","","","","","","","","",""
"preload","33","180804","0.0-11.0","1851","2","""event"",""trial"",""time""
""fullscreenenter"",""1"",""8609""
","
","
","""event"",""trial"",""time""
""fullscreenenter"",""1"",""8609""
","
","true","false","[]","[]","[]","","","","","","","","","","","","","",""
"comp-q","34","187548","0.0-12.0-0.0","1851","2","""event"",""trial"",""time""
""fullscreenenter"",""1"",""8609""
","
","
","""event"",""trial"",""time""
""fullscreenenter"",""1"",""8609""
","
","","","","","","918.4000000000233","<p> <b> True or False? </b> </p><p> In this game, you will only see each image once. </p>","","0","comp_question","","","true","","","","","",""
"comp-q","35","195317","0.0-12.0-1.0","1851","2","""event"",""trial"",""time""
""fullscreenenter"",""1"",""8609""
","
","
","""event"",""trial"",""time""
""fullscreenenter"",""1"",""8609""
","
","","","","","","1407.5999999999767","<p> <b> That's right! </b> You will see many different images <i> one time each </i> in this game. </p>","","0","comp_answer","","","","","","","","",""
"comp-q","36","203613","0.0-12.0-0.1","1851","2","""event"",""trial"",""time""
""fullscreenenter"",""1"",""8609""
","
","
","""event"",""trial"",""time""
""fullscreenenter"",""1"",""8609""
","
","","","","","","2482.70000000007","<p> <b> True or False? </b> </p><p> You should use the mouse and click to make your response. </p>","","1","comp_question","","","true","","","","","",""
"comp-q","37","212284","0.0-12.0-1.1","1851","2","""event"",""trial"",""time""
""fullscreenenter"",""1"",""8609""
","
","
","""event"",""trial"",""time""
""fullscreenenter"",""1"",""8609""
","
","","","","","","1294.9000000000233","<p><b> That's right! </b> You should use the '1', '2', '3', and '4' keys to make your response. </p>","","0","comp_answer","","","","","","","","",""
"comp-q","38","218885","0.0-12.0-0.2","1851","2","""event"",""trial"",""time""
""fullscreenenter"",""1"",""8609""
","
","
","""event"",""trial"",""time""
""fullscreenenter"",""1"",""8609""
","
","","","","","","595.5","<p> <b> True or False? </b> </p><p> You will have as much time as you want to make each choice. </p>","","1","comp_question","","","true","","","","","",""
"comp-q","39","229773","0.0-12.0-1.2","1851","2","""event"",""trial"",""time""
""fullscreenenter"",""1"",""8609""
","
","
","""event"",""trial"",""time""
""fullscreenenter"",""1"",""8609""
","
","","","","","","5484.400000000023","<p> <b> That's right! </b> You will only have 10 seconds to make each choice. </p>","","0","comp_answer","","","","","","","","",""
"learning-instructions","40","243497","0.0-13.0","1851","2","""event"",""trial"",""time""
""fullscreenenter"",""1"",""8609""
","
","
","""event"",""trial"",""time""
""fullscreenenter"",""1"",""8609""
","
","","","","","","5048.70000000007","<p> Great! You are now ready to begin the game. </p><p> Remember, use the 1, 2, 3, and 4 keys to make your responses. </p>","","0","instructions","","","","","","","","",""
"preload","41","282427","0.0-14.0","1851","2","""event"",""trial"",""time""
""fullscreenenter"",""1"",""8609""
","
","
","""event"",""trial"",""time""
""fullscreenenter"",""1"",""8609""
","
","true","false","[]","[]","[]","","","","","","","","","","","","","",""
"html-keyboard-response","42","282929","0.0-15.0-0.0","1851","2","""event"",""trial"",""time""
""fullscreenenter"",""1"",""8609""
","
","
","""event"",""trial"",""time""
""fullscreenenter"",""1"",""8609""
","
","","","","","","null","<div style=""font-size:60px;"">+</div>","null","","fixation","","","","","","","","",""
"memory-trial","43","286065","0.0-15.0-1.0","1851","2","""event"",""trial"",""time""
""fullscreenenter"",""1"",""8609""
","
","
","""event"",""trial"",""time""
""fullscreenenter"",""1"",""8609""
","
","","","","","","2128.5","images/train3.png","","","memory_trial","2","maybe_old","","","","","","",""
"html-keyboard-response","44","286576","0.0-15.0-0.1","1851","2","""event"",""trial"",""time""
""fullscreenenter"",""1"",""8609""
","
","
","""event"",""trial"",""time""
""fullscreenenter"",""1"",""8609""
","
","","","","","","null","<div style=""font-size:60px;"">+</div>","null","","fixation","","","","","","","","",""
"memory-trial","45","288884","0.0-15.0-1.1","1851","2","""event"",""trial"",""time""
""fullscreenenter"",""1"",""8609""
","
","
","""event"",""trial"",""time""
""fullscreenenter"",""1"",""8609""
","
","","","","","","1303.3000000000466","images/rodent1.png","","","memory_trial","3","maybe_new","","","","","","",""
"html-keyboard-response","46","289386","0.0-15.0-0.2","1851","2","""event"",""trial"",""time""
""fullscreenenter"",""1"",""8609""
","
","
","""event"",""trial"",""time""
""fullscreenenter"",""1"",""8609""
","
","","","","","","null","<div style=""font-size:60px;"">+</div>","null","","fixation","","","","","","","","",""
"memory-trial","47","291555","0.0-15.0-1.2","1851","2","""event"",""trial"",""time""
""fullscreenenter"",""1"",""8609""
","
","
","""event"",""trial"",""time""
""fullscreenenter"",""1"",""8609""
","
","","","","","","1161.5999999999767","images/goat3.png","","","memory_trial","1","definitely_old","","","","","","",""
"html-keyboard-response","48","292057","0.0-15.0-0.3","1851","2","""event"",""trial"",""time""
""fullscreenenter"",""1"",""8609""
","
","
","""event"",""trial"",""time""
""fullscreenenter"",""1"",""8609""
","
","","","","","","null","<div style=""font-size:60px;"">+</div>","null","","fixation","","","","","","","","",""
"memory-trial","49","293857","0.0-15.0-1.3","1851","2","""event"",""trial"",""time""
""fullscreenenter"",""1"",""8609""
","
","
","""event"",""trial"",""time""
""fullscreenenter"",""1"",""8609""
","
","","","","","","795.9000000000233","images/sofa4.png","","","memory_trial","4","definitely_new","","","","","","",""
"html-keyboard-response","50","294360","0.0-15.0-0.4","1851","2","""event"",""trial"",""time""
""fullscreenenter"",""1"",""8609""
","
","
","""event"",""trial"",""time""
""fullscreenenter"",""1"",""8609""
","
","","","","","","null","<div style=""font-size:60px;"">+</div>","null","","fixation","","","","","","","","",""
"memory-trial","51","296596","0.0-15.0-1.4","1851","2","""event"",""trial"",""time""
""fullscreenenter"",""1"",""8609""
","
","
","""event"",""trial"",""time""
""fullscreenenter"",""1"",""8609""
","
","","","","","","1229.9000000000233","images/apple2.png","","","memory_trial","2","maybe_old","","","","","","",""
"html-keyboard-response","52","297097","0.0-15.0-0.5","1851","2","""event"",""trial"",""time""
""fullscreenenter"",""1"",""8609""
","
","
","""event"",""trial"",""time""
""fullscreenenter"",""1"",""8609""
","
","","","","","","null","<div style=""font-size:60px;"">+</div>","null","","fixation","","","","","","","","",""
"memory-trial","53","299090","0.0-15.0-1.5","1851","2","""event"",""trial"",""time""
""fullscreenenter"",""1"",""8609""
","
","
","""event"",""trial"",""time""
""fullscreenenter"",""1"",""8609""
","
","","","","","","972.5","images/cactus1.png","","","memory_trial","4","definitely_new","","","","","","",""
"html-keyboard-response","54","299593","0.0-15.0-0.6","1851","2","""event"",""trial"",""time""
""fullscreenenter"",""1"",""8609""
","
","
","""event"",""trial"",""time""
""fullscreenenter"",""1"",""8609""
","
","","","","","","null","<div style=""font-size:60px;"">+</div>","null","","fixation","","","","","","","","",""
"memory-trial","55","301465","0.0-15.0-1.6","1851","2","""event"",""trial"",""time""
""fullscreenenter"",""1"",""8609""
","
","
","""event"",""trial"",""time""
""fullscreenenter"",""1"",""8609""
","
","","","","","","866.4000000000233","images/boat2.png","","","memory_trial","1","definitely_old","","","","","","",""
"html-keyboard-response","56","301968","0.0-15.0-0.7","1851","2","""event"",""trial"",""time""
""fullscreenenter"",""1"",""8609""
","
","
","""event"",""trial"",""time""
""fullscreenenter"",""1"",""8609""
","
","","","","","","null","<div style=""font-size:60px;"">+</div>","null","","fixation","","","","","","","","",""
"memory-trial","57","303787","0.0-15.0-1.7","1851","2","""event"",""trial"",""time""
""fullscreenenter"",""1"",""8609""
","
","
","""event"",""trial"",""time""
""fullscreenenter"",""1"",""8609""
","
","","","","","","815.4000000000233","images/tree2.png","","","memory_trial","4","definitely_new","","","","","","",""
"html-keyboard-response","58","304290","0.0-15.0-0.8","1851","2","""event"",""trial"",""time""
""fullscreenenter"",""1"",""8609""
","
","
","""event"",""trial"",""time""
""fullscreenenter"",""1"",""8609""
","
","","","","","","null","<div style=""font-size:60px;"">+</div>","null","","fixation","","","","","","","","",""
"memory-trial","59","306144","0.0-15.0-1.8","1851","2","""event"",""trial"",""time""
""fullscreenenter"",""1"",""8609""
","
","
","""event"",""trial"",""time""
""fullscreenenter"",""1"",""8609""
","
","","","","","","849.1999999999534","images/horse2.png","","","memory_trial","4","definitely_new","","","","","","",""
"html-keyboard-response","60","306646","0.0-15.0-0.9","1851","2","""event"",""trial"",""time""
""fullscreenenter"",""1"",""8609""
","
","
","""event"",""trial"",""time""
""fullscreenenter"",""1"",""8609""
","
","","","","","","null","<div style=""font-size:60px;"">+</div>","null","","fixation","","","","","","","","",""
"memory-trial","61","308365","0.0-15.0-1.9","1851","2","""event"",""trial"",""time""
""fullscreenenter"",""1"",""8609""
","
","
","""event"",""trial"",""time""
""fullscreenenter"",""1"",""8609""
","
","","","","","","714.7000000000698","images/chair5.png","","","memory_trial","4","definitely_new","","","","","","",""
"html-keyboard-response","62","308867","0.0-15.0-0.10","1851","2","""event"",""trial"",""time""
""fullscreenenter"",""1"",""8609""
","
","
","""event"",""trial"",""time""
""fullscreenenter"",""1"",""8609""
","
","","","","","","null","<div style=""font-size:60px;"">+</div>","null","","fixation","","","","","","","","",""
"memory-trial","63","311035","0.0-15.0-1.10","1851","2","""event"",""trial"",""time""
""fullscreenenter"",""1"",""8609""
","
","
","""event"",""trial"",""time""
""fullscreenenter"",""1"",""8609""
","
","","","","","","1162.5999999999767","images/boat4.png","","","memory_trial","2","maybe_old","","","","","","",""
"html-keyboard-response","64","311538","0.0-15.0-0.11","1851","2","""event"",""trial"",""time""
""fullscreenenter"",""1"",""8609""
","
","
","""event"",""trial"",""time""
""fullscreenenter"",""1"",""8609""
","
","","","","","","null","<div style=""font-size:60px;"">+</div>","null","","fixation","","","","","","","","",""
"memory-trial","65","313175","0.0-15.0-1.11","1851","2","""event"",""trial"",""time""
""fullscreenenter"",""1"",""8609""
","
","
","""event"",""trial"",""time""
""fullscreenenter"",""1"",""8609""
","
","","","","","","631.6999999999534","images/plane3.png","","","memory_trial","1","definitely_old","","","","","","",""
"html-keyboard-response","66","313691","0.0-15.0-0.12","1851","2","""event"",""trial"",""time""
""fullscreenenter"",""1"",""8609""
","
","
","""event"",""trial"",""time""
""fullscreenenter"",""1"",""8609""
","
","","","","","","null","<div style=""font-size:60px;"">+</div>","null","","fixation","","","","","","","","",""
"memory-trial","67","316245","0.0-15.0-1.12","1851","2","""event"",""trial"",""time""
""fullscreenenter"",""1"",""8609""
","
","
","""event"",""trial"",""time""
""fullscreenenter"",""1"",""8609""
","
","","","","","","1548.8999999999069","images/dog3.png","","","memory_trial","3","maybe_new","","","","","","",""
"html-keyboard-response","68","316748","0.0-15.0-0.13","1851","2","""event"",""trial"",""time""
""fullscreenenter"",""1"",""8609""
","
","
","""event"",""trial"",""time""
""fullscreenenter"",""1"",""8609""
","
","","","","","","null","<div style=""font-size:60px;"">+</div>","null","","fixation","","","","","","","","",""
"memory-trial","69","318503","0.0-15.0-1.13","1851","2","""event"",""trial"",""time""
""fullscreenenter"",""1"",""8609""
","
","
","""event"",""trial"",""time""
""fullscreenenter"",""1"",""8609""
","
","","","","","","750.7999999999302","images/rabbit4.png","","","memory_trial","3","maybe_new","","","","","","",""
"html-keyboard-response","70","319004","0.0-15.0-0.14","1851","2","""event"",""trial"",""time""
""fullscreenenter"",""1"",""8609""
","
","
","""event"",""trial"",""time""
""fullscreenenter"",""1"",""8609""
","
","","","","","","null","<div style=""font-size:60px;"">+</div>","null","","fixation","","","","","","","","",""
"memory-trial","71","321574","0.0-15.0-1.14","1851","2","""event"",""trial"",""time""
""fullscreenenter"",""1"",""8609""
","
","
","""event"",""trial"",""time""
""fullscreenenter"",""1"",""8609""
","
","","","","","","1568.0999999999767","images/orange5.png","","","memory_trial","2","maybe_old","","","","","","",""
"html-keyboard-response","72","322077","0.0-15.0-0.15","1851","2","""event"",""trial"",""time""
""fullscreenenter"",""1"",""8609""
","
","
","""event"",""trial"",""time""
""fullscreenenter"",""1"",""8609""
","
","","","","","","null","<div style=""font-size:60px;"">+</div>","null","","fixation","","","","","","","","",""
"memory-trial","73","324315","0.0-15.0-1.15","1851","2","""event"",""trial"",""time""
""fullscreenenter"",""1"",""8609""
","
","
","""event"",""trial"",""time""
""fullscreenenter"",""1"",""8609""
","
","","","","","","1234.0999999999767","images/goat4.png","","","memory_trial","1","definitely_old","","","","","","",""
"html-keyboard-response","74","324818","0.0-15.0-0.16","1851","2","""event"",""trial"",""time""
""fullscreenenter"",""1"",""8609""
","
","
","""event"",""trial"",""time""
""fullscreenenter"",""1"",""8609""
","
","","","","","","null","<div style=""font-size:60px;"">+</div>","null","","fixation","","","","","","","","",""
"memory-trial","75","326495","0.0-15.0-1.16","1851","2","""event"",""trial"",""time""
""fullscreenenter"",""1"",""8609""
","
","
","""event"",""trial"",""time""
""fullscreenenter"",""1"",""8609""
","
","","","","","","674.3000000000466","images/straw2.png","","","memory_trial","1","definitely_old","","","","","","",""
"html-keyboard-response","76","326997","0.0-15.0-0.17","1851","2","""event"",""trial"",""time""
""fullscreenenter"",""1"",""8609""
","
","
","""event"",""trial"",""time""
""fullscreenenter"",""1"",""8609""
","
","","","","","","null","<div style=""font-size:60px;"">+</div>","null","","fixation","","","","","","","","",""
"memory-trial","77","328996","0.0-15.0-1.17","1851","2","""event"",""trial"",""time""
""fullscreenenter"",""1"",""8609""
","
","
","""event"",""trial"",""time""
""fullscreenenter"",""1"",""8609""
","
","","","","","","993.8000000000466","images/tree3.png","","","memory_trial","4","definitely_new","","","","","","",""
"html-keyboard-response","78","329498","0.0-15.0-0.18","1851","2","""event"",""trial"",""time""
""fullscreenenter"",""1"",""8609""
","
","
","""event"",""trial"",""time""
""fullscreenenter"",""1"",""8609""
","
","","","","","","null","<div style=""font-size:60px;"">+</div>","null","","fixation","","","","","","","","",""
"memory-trial","79","332514","0.0-15.0-1.18","1851","2","""event"",""trial"",""time""
""fullscreenenter"",""1"",""8609""
","
","
","""event"",""trial"",""time""
""fullscreenenter"",""1"",""8609""
","
","","","","","","2012.4000000000233","images/banana3.png","","","memory_trial","2","maybe_old","","","","","","",""
"html-keyboard-response","80","333017","0.0-15.0-0.19","1851","2","""event"",""trial"",""time""
""fullscreenenter"",""1"",""8609""
","
","
","""event"",""trial"",""time""
""fullscreenenter"",""1"",""8609""
","
","","","","","","null","<div style=""font-size:60px;"">+</div>","null","","fixation","","","","","","","","",""
"memory-trial","81","335064","0.0-15.0-1.19","1851","2","""event"",""trial"",""time""
""fullscreenenter"",""1"",""8609""
","
","
","""event"",""trial"",""time""
""fullscreenenter"",""1"",""8609""
","
","","","","","","1042.3000000000466","images/plane1.png","","","memory_trial","3","maybe_new","","","","","","",""
"html-keyboard-response","82","335567","0.0-15.0-0.20","1851","2","""event"",""trial"",""time""
""fullscreenenter"",""1"",""8609""
","
","
","""event"",""trial"",""time""
""fullscreenenter"",""1"",""8609""
","
","","","","","","null","<div style=""font-size:60px;"">+</div>","null","","fixation","","","","","","","","",""
"memory-trial","83","337345","0.0-15.0-1.20","1851","2","""event"",""trial"",""time""
""fullscreenenter"",""1"",""8609""
","
","
","""event"",""trial"",""time""
""fullscreenenter"",""1"",""8609""
","
","","","","","","773.0999999999767","images/rabbit5.png","","","memory_trial","3","maybe_new","","","","","","",""
"html-keyboard-response","84","337847","0.0-15.0-0.21","1851","2","""event"",""trial"",""time""
""fullscreenenter"",""1"",""8609""
","
","
","""event"",""trial"",""time""
""fullscreenenter"",""1"",""8609""
","
","","","","","","null","<div style=""font-size:60px;"">+</div>","null","","fixation","","","","","","","","",""
"memory-trial","85","339726","0.0-15.0-1.21","1851","2","""event"",""trial"",""time""
""fullscreenenter"",""1"",""8609""
","
","
","""event"",""trial"",""time""
""fullscreenenter"",""1"",""8609""
","
","","","","","","874.1999999999534","images/feline3.png","","","memory_trial","4","definitely_new","","","","","","",""
"html-keyboard-response","86","340228","0.0-15.0-0.22","1851","2","""event"",""trial"",""time""
""fullscreenenter"",""1"",""8609""
","
","
","""event"",""trial"",""time""
""fullscreenenter"",""1"",""8609""
","
","","","","","","null","<div style=""font-size:60px;"">+</div>","null","","fixation","","","","","","","","",""
"memory-trial","87","342294","0.0-15.0-1.22","1851","2","""event"",""trial"",""time""
""fullscreenenter"",""1"",""8609""
","
","
","""event"",""trial"",""time""
""fullscreenenter"",""1"",""8609""
","
","","","","","","1062.5","images/flower5.png","","","memory_trial","3","maybe_new","","","","","","",""
"html-keyboard-response","88","342796","0.0-15.0-0.23","1851","2","""event"",""trial"",""time""
""fullscreenenter"",""1"",""8609""
","
","
","""event"",""trial"",""time""
""fullscreenenter"",""1"",""8609""
","
","","","","","","null","<div style=""font-size:60px;"">+</div>","null","","fixation","","","","","","","","",""
"memory-trial","89","344585","0.0-15.0-1.23","1851","2","""event"",""trial"",""time""
""fullscreenenter"",""1"",""8609""
","
","
","""event"",""trial"",""time""
""fullscreenenter"",""1"",""8609""
","
","","","","","","784.2999999999302","images/bed5.png","","","memory_trial","3","maybe_new","","","","","","",""
"html-keyboard-response","90","345098","0.0-15.0-0.24","1851","2","""event"",""trial"",""time""
""fullscreenenter"",""1"",""8609""
","
","
","""event"",""trial"",""time""
""fullscreenenter"",""1"",""8609""
","
","","","","","","null","<div style=""font-size:60px;"">+</div>","null","","fixation","","","","","","","","",""
"memory-trial","91","347776","0.0-15.0-1.24","1851","2","""event"",""trial"",""time""
""fullscreenenter"",""1"",""8609""
","
","
","""event"",""trial"",""time""
""fullscreenenter"",""1"",""8609""
","
","","","","","","1671.7000000000698","images/banana2.png","","","memory_trial","2","maybe_old","","","","","","",""
"html-keyboard-response","92","348277","0.0-15.0-0.25","1851","2","""event"",""trial"",""time""
""fullscreenenter"",""1"",""8609""
","
","
","""event"",""trial"",""time""
""fullscreenenter"",""1"",""8609""
","
","","","","","","null","<div style=""font-size:60px;"">+</div>","null","","fixation","","","","","","","","",""
"memory-trial","93","350085","0.0-15.0-1.25","1851","2","""event"",""trial"",""time""
""fullscreenenter"",""1"",""8609""
","
","
","""event"",""trial"",""time""
""fullscreenenter"",""1"",""8609""
","
","","","","","","804.0999999998603","images/rabbit1.png","","","memory_trial","4","definitely_new","","","","","","",""
"html-keyboard-response","94","350588","0.0-15.0-0.26","1851","2","""event"",""trial"",""time""
""fullscreenenter"",""1"",""8609""
","
","
","""event"",""trial"",""time""
""fullscreenenter"",""1"",""8609""
","
","","","","","","null","<div style=""font-size:60px;"">+</div>","null","","fixation","","","","","","","","",""
"memory-trial","95","352574","0.0-15.0-1.26","1851","2","""event"",""trial"",""time""
""fullscreenenter"",""1"",""8609""
","
","
","""event"",""trial"",""time""
""fullscreenenter"",""1"",""8609""
","
","","","","","","982.5","images/rodent5.png","","","memory_trial","4","definitely_new","","","","","","",""
"html-keyboard-response","96","353076","0.0-15.0-0.27","1851","2","""event"",""trial"",""time""
""fullscreenenter"",""1"",""8609""
","
","
","""event"",""trial"",""time""
""fullscreenenter"",""1"",""8609""
","
","","","","","","null","<div style=""font-size:60px;"">+</div>","null","","fixation","","","","","","","","",""
"memory-trial","97","354814","0.0-15.0-1.27","1851","2","""event"",""trial"",""time""
""fullscreenenter"",""1"",""8609""
","
","
","""event"",""trial"",""time""
""fullscreenenter"",""1"",""8609""
","
","","","","","","733.3999999999069","images/dog2.png","","","memory_trial","4","definitely_new","","","","","","",""
"html-keyboard-response","98","355316","0.0-15.0-0.28","1851","2","""event"",""trial"",""time""
""fullscreenenter"",""1"",""8609""
","
","
","""event"",""trial"",""time""
""fullscreenenter"",""1"",""8609""
","
","","","","","","null","<div style=""font-size:60px;"">+</div>","null","","fixation","","","","","","","","",""
"memory-trial","99","357124","0.0-15.0-1.28","1851","2","""event"",""trial"",""time""
""fullscreenenter"",""1"",""8609""
","
","
","""event"",""trial"",""time""
""fullscreenenter"",""1"",""8609""
","
","","","","","","803.3000000000466","images/bush5.png","","","memory_trial","3","maybe_new","","","","","","",""
"html-keyboard-response","100","357626","0.0-15.0-0.29","1851","2","""event"",""trial"",""time""
""fullscreenenter"",""1"",""8609""
","
","
","""event"",""trial"",""time""
""fullscreenenter"",""1"",""8609""
","
","","","","","","null","<div style=""font-size:60px;"">+</div>","null","","fixation","","","","","","","","",""
"memory-trial","101","359551","0.0-15.0-1.29","1851","2","""event"",""trial"",""time""
""fullscreenenter"",""1"",""8609""
","
","
","""event"",""trial"",""time""
""fullscreenenter"",""1"",""8609""
","
","","","","","","918","images/cow4.png","","","memory_trial","2","maybe_old","","","","","","",""
"html-keyboard-response","102","360053","0.0-15.0-0.30","1851","2","""event"",""trial"",""time""
""fullscreenenter"",""1"",""8609""
","
","
","""event"",""trial"",""time""
""fullscreenenter"",""1"",""8609""
","
","","","","","","null","<div style=""font-size:60px;"">+</div>","null","","fixation","","","","","","","","",""
"memory-trial","103","361737","0.0-15.0-1.30","1851","2","""event"",""trial"",""time""
""fullscreenenter"",""1"",""8609""
","
","
","""event"",""trial"",""time""
""fullscreenenter"",""1"",""8609""
","
","","","","","","679.8000000000466","images/dog5.png","","","memory_trial","4","definitely_new","","","","","","",""
"html-keyboard-response","104","362240","0.0-15.0-0.31","1851","2","""event"",""trial"",""time""
""fullscreenenter"",""1"",""8609""
","
","
","""event"",""trial"",""time""
""fullscreenenter"",""1"",""8609""
","
","","","","","","null","<div style=""font-size:60px;"">+</div>","null","","fixation","","","","","","","","",""
"memory-trial","105","363904","0.0-15.0-1.31","1851","2","""event"",""trial"",""time""
""fullscreenenter"",""1"",""8609""
","
","
","""event"",""trial"",""time""
""fullscreenenter"",""1"",""8609""
","
","","","","","","660.6999999999534","images/tree5.png","","","memory_trial","3","maybe_new","","","","","","",""
"html-keyboard-response","106","364407","0.0-15.0-0.32","1851","2","""event"",""trial"",""time""
""fullscreenenter"",""1"",""8609""
","
","
","""event"",""trial"",""time""
""fullscreenenter"",""1"",""8609""
","
","","","","","","null","<div style=""font-size:60px;"">+</div>","null","","fixation","","","","","","","","",""
"memory-trial","107","366084","0.0-15.0-1.32","1851","2","""event"",""trial"",""time""
""fullscreenenter"",""1"",""8609""
","
","
","""event"",""trial"",""time""
""fullscreenenter"",""1"",""8609""
","
","","","","","","673.7000000001863","images/boat1.png","","","memory_trial","1","definitely_old","","","","","","",""
"html-keyboard-response","108","366586","0.0-15.0-0.33","1851","2","""event"",""trial"",""time""
""fullscreenenter"",""1"",""8609""
","
","
","""event"",""trial"",""time""
""fullscreenenter"",""1"",""8609""
","
","","","","","","null","<div style=""font-size:60px;"">+</div>","null","","fixation","","","","","","","","",""
"memory-trial","109","368563","0.0-15.0-1.33","1851","2","""event"",""trial"",""time""
""fullscreenenter"",""1"",""8609""
","
","
","""event"",""trial"",""time""
""fullscreenenter"",""1"",""8609""
","
","","","","","","973.1000000000931","images/plane4.png","","","memory_trial","1","definitely_old","","","","","","",""
"html-keyboard-response","110","369065","0.0-15.0-0.34","1851","2","""event"",""trial"",""time""
""fullscreenenter"",""1"",""8609""
","
","
","""event"",""trial"",""time""
""fullscreenenter"",""1"",""8609""
","
","","","","","","null","<div style=""font-size:60px;"">+</div>","null","","fixation","","","","","","","","",""
"memory-trial","111","370893","0.0-15.0-1.34","1851","2","""event"",""trial"",""time""
""fullscreenenter"",""1"",""8609""
","
","
","""event"",""trial"",""time""
""fullscreenenter"",""1"",""8609""
","
","","","","","","823.1000000000931","images/chair3.png","","","memory_trial","3","maybe_new","","","","","","",""
"html-keyboard-response","112","371396","0.0-15.0-0.35","1851","2","""event"",""trial"",""time""
""fullscreenenter"",""1"",""8609""
","
","
","""event"",""trial"",""time""
""fullscreenenter"",""1"",""8609""
","
","","","","","","null","<div style=""font-size:60px;"">+</div>","null","","fixation","","","","","","","","",""
"memory-trial","113","373098","0.0-15.0-1.35","1851","2","""event"",""trial"",""time""
""fullscreenenter"",""1"",""8609""
","
","
","""event"",""trial"",""time""
""fullscreenenter"",""1"",""8609""
","
","","","","","","698.6000000000931","images/dog1.png","","","memory_trial","4","definitely_new","","","","","","",""
"html-keyboard-response","114","373600","0.0-15.0-0.36","1851","2","""event"",""trial"",""time""
""fullscreenenter"",""1"",""8609""
","
","
","""event"",""trial"",""time""
""fullscreenenter"",""1"",""8609""
","
","","","","","","null","<div style=""font-size:60px;"">+</div>","null","","fixation","","","","","","","","",""
"memory-trial","115","375555","0.0-15.0-1.36","1851","2","""event"",""trial"",""time""
""fullscreenenter"",""1"",""8609""
","
","
","""event"",""trial"",""time""
""fullscreenenter"",""1"",""8609""
","
","","","","","","950.0999999998603","images/banana1.png","","","memory_trial","1","definitely_old","","","","","","",""
"html-keyboard-response","116","376056","0.0-15.0-0.37","1851","2","""event"",""trial"",""time""
""fullscreenenter"",""1"",""8609""
","
","
","""event"",""trial"",""time""
""fullscreenenter"",""1"",""8609""
","
","","","","","","null","<div style=""font-size:60px;"">+</div>","null","","fixation","","","","","","","","",""
"memory-trial","117","377714","0.0-15.0-1.37","1851","2","""event"",""trial"",""time""
""fullscreenenter"",""1"",""8609""
","
","
","""event"",""trial"",""time""
""fullscreenenter"",""1"",""8609""
","
","","","","","","654.0999999998603","images/table2.png","","","memory_trial","3","maybe_new","","","","","","",""
"html-keyboard-response","118","378216","0.0-15.0-0.38","1851","2","""event"",""trial"",""time""
""fullscreenenter"",""1"",""8609""
","
","
","""event"",""trial"",""time""
""fullscreenenter"",""1"",""8609""
","
","","","","","","null","<div style=""font-size:60px;"">+</div>","null","","fixation","","","","","","","","",""
"memory-trial","119","379845","0.0-15.0-1.38","1851","2","""event"",""trial"",""time""
""fullscreenenter"",""1"",""8609""
","
","
","""event"",""trial"",""time""
""fullscreenenter"",""1"",""8609""
","
","","","","","","624.2000000001863","images/rabbit3.png","","","memory_trial","3","maybe_new","","","","","","",""
"html-keyboard-response","120","380347","0.0-15.0-0.39","1851","2","""event"",""trial"",""time""
""fullscreenenter"",""1"",""8609""
","
","
","""event"",""trial"",""time""
""fullscreenenter"",""1"",""8609""
","
","","","","","","null","<div style=""font-size:60px;"">+</div>","null","","fixation","","","","","","","","",""
"memory-trial","121","382564","0.0-15.0-1.39","1851","2","""event"",""trial"",""time""
""fullscreenenter"",""1"",""8609""
","
","
","""event"",""trial"",""time""
""fullscreenenter"",""1"",""8609""
","
","","","","","","1213.4000000001397","images/orange3.png","","","memory_trial","2","maybe_old","","","","","","",""
"html-keyboard-response","122","383067","0.0-15.0-0.40","1851","2","""event"",""trial"",""time""
""fullscreenenter"",""1"",""8609""
","
","
","""event"",""trial"",""time""
""fullscreenenter"",""1"",""8609""
","
","","","","","","null","<div style=""font-size:60px;"">+</div>","null","","fixation","","","","","","","","",""
"memory-trial","123","384875","0.0-15.0-1.40","1851","2","""event"",""trial"",""time""
""fullscreenenter"",""1"",""8609""
","
","
","""event"",""trial"",""time""
""fullscreenenter"",""1"",""8609""
","
","","","","","","803.5999999998603","images/chair1.png","","","memory_trial","4","definitely_new","","","","","","",""
"html-keyboard-response","124","385377","0.0-15.0-0.41","1851","2","""event"",""trial"",""time""
""fullscreenenter"",""1"",""8609""
","
","
","""event"",""trial"",""time""
""fullscreenenter"",""1"",""8609""
","
","","","","","","null","<div style=""font-size:60px;"">+</div>","null","","fixation","","","","","","","","",""
"memory-trial","125","387039","0.0-15.0-1.41","1851","2","""event"",""trial"",""time""
""fullscreenenter"",""1"",""8609""
","
","
","""event"",""trial"",""time""
""fullscreenenter"",""1"",""8609""
","
","","","","","","640.3999999999069","images/cactus2.png","","","memory_trial","4","definitely_new","","","","","","",""
"html-keyboard-response","126","387541","0.0-15.0-0.42","1851","2","""event"",""trial"",""time""
""fullscreenenter"",""1"",""8609""
","
","
","""event"",""trial"",""time""
""fullscreenenter"",""1"",""8609""
","
","","","","","","null","<div style=""font-size:60px;"">+</div>","null","","fixation","","","","","","","","",""
"memory-trial","127","389744","0.0-15.0-1.42","1851","2","""event"",""trial"",""time""
""fullscreenenter"",""1"",""8609""
","
","
","""event"",""trial"",""time""
""fullscreenenter"",""1"",""8609""
","
","","","","","","1198.6999999999534","images/tree1.png","","","memory_trial","1","definitely_old","","","","","","",""
"html-keyboard-response","128","390246","0.0-15.0-0.43","1851","2","""event"",""trial"",""time""
""fullscreenenter"",""1"",""8609""
","
","
","""event"",""trial"",""time""
""fullscreenenter"",""1"",""8609""
","
","","","","","","null","<div style=""font-size:60px;"">+</div>","null","","fixation","","","","","","","","",""
"memory-trial","129","392124","0.0-15.0-1.43","1851","2","""event"",""trial"",""time""
""fullscreenenter"",""1"",""8609""
","
","
","""event"",""trial"",""time""
""fullscreenenter"",""1"",""8609""
","
","","","","","","874.0999999998603","images/horse3.png","","","memory_trial","3","maybe_new","","","","","","",""
"html-keyboard-response","130","392626","0.0-15.0-0.44","1851","2","""event"",""trial"",""time""
""fullscreenenter"",""1"",""8609""
","
","
","""event"",""trial"",""time""
""fullscreenenter"",""1"",""8609""
","
","","","","","","null","<div style=""font-size:60px;"">+</div>","null","","fixation","","","","","","","","",""
"memory-trial","131","394473","0.0-15.0-1.44","1851","2","""event"",""trial"",""time""
""fullscreenenter"",""1"",""8609""
","
","
","""event"",""trial"",""time""
""fullscreenenter"",""1"",""8609""
","
","","","","","","844","images/banana4.png","","","memory_trial","2","maybe_old","","","","","","",""
"html-keyboard-response","132","394976","0.0-15.0-0.45","1851","2","""event"",""trial"",""time""
""fullscreenenter"",""1"",""8609""
","
","
","""event"",""trial"",""time""
""fullscreenenter"",""1"",""8609""
","
","","","","","","null","<div style=""font-size:60px;"">+</div>","null","","fixation","","","","","","","","",""
"memory-trial","133","396656","0.0-15.0-1.45","1851","2","""event"",""trial"",""time""
""fullscreenenter"",""1"",""8609""
","
","
","""event"",""trial"",""time""
""fullscreenenter"",""1"",""8609""
","
","","","","","","676.4000000001397","images/apple4.png","","","memory_trial","2","maybe_old","","","","","","",""
"html-keyboard-response","134","397158","0.0-15.0-0.46","1851","2","""event"",""trial"",""time""
""fullscreenenter"",""1"",""8609""
","
","
","""event"",""trial"",""time""
""fullscreenenter"",""1"",""8609""
","
","","","","","","null","<div style=""font-size:60px;"">+</div>","null","","fixation","","","","","","","","",""
"memory-trial","135","398857","0.0-15.0-1.46","1851","2","""event"",""trial"",""time""
""fullscreenenter"",""1"",""8609""
","
","
","""event"",""trial"",""time""
""fullscreenenter"",""1"",""8609""
","
","","","","","","694.5","images/sofa3.png","","","memory_trial","4","definitely_new","","","","","","",""
"html-button-response","136","401254","0.0-15.0-2.46-0.46","1851","2","""event"",""trial"",""time""
""fullscreenenter"",""1"",""8609""
","
","
","""event"",""trial"",""time""
""fullscreenenter"",""1"",""8609""
","
","","","","","","2394.3000000000466","<p> Take a break! </p><p> Click the button to continue. </p>","0","","break","","","","","","","","",""
"html-keyboard-response","137","401757","0.0-15.0-0.47","1851","2","""event"",""trial"",""time""
""fullscreenenter"",""1"",""8609""
","
","
","""event"",""trial"",""time""
""fullscreenenter"",""1"",""8609""
","
","","","","","","null","<div style=""font-size:60px;"">+</div>","null","","fixation","","","","","","","","",""
"memory-trial","138","403556","0.0-15.0-1.47","1851","2","""event"",""trial"",""time""
""fullscreenenter"",""1"",""8609""
","
","
","""event"",""trial"",""time""
""fullscreenenter"",""1"",""8609""
","
","","","","","","792.6999999999534","images/train2.png","","","memory_trial","2","maybe_old","","","","","","",""
"html-keyboard-response","139","404058","0.0-15.0-0.48","1851","2","""event"",""trial"",""time""
""fullscreenenter"",""1"",""8609""
","
","
","""event"",""trial"",""time""
""fullscreenenter"",""1"",""8609""
","
","","","","","","null","<div style=""font-size:60px;"">+</div>","null","","fixation","","","","","","","","",""
"memory-trial","140","405946","0.0-15.0-1.48","1851","2","""event"",""trial"",""time""
""fullscreenenter"",""1"",""8609""
","
","
","""event"",""trial"",""time""
""fullscreenenter"",""1"",""8609""
","
","","","","","","883","images/orange4.png","","","memory_trial","3","maybe_new","","","","","","",""
"html-keyboard-response","141","406449","0.0-15.0-0.49","1851","2","""event"",""trial"",""time""
""fullscreenenter"",""1"",""8609""
","
","
","""event"",""trial"",""time""
""fullscreenenter"",""1"",""8609""
","
","","","","","","null","<div style=""font-size:60px;"">+</div>","null","","fixation","","","","","","","","",""
"memory-trial","142","408336","0.0-15.0-1.49","1851","2","""event"",""trial"",""time""
""fullscreenenter"",""1"",""8609""
","
","
","""event"",""trial"",""time""
""fullscreenenter"",""1"",""8609""
","
","","","","","","882.2999999998137","images/rodent2.png","","","memory_trial","4","definitely_new","","","","","","",""
"html-keyboard-response","143","408837","0.0-15.0-0.50","1851","2","""event"",""trial"",""time""
""fullscreenenter"",""1"",""8609""
","
","
","""event"",""trial"",""time""
""fullscreenenter"",""1"",""8609""
","
","","","","","","null","<div style=""font-size:60px;"">+</div>","null","","fixation","","","","","","","","",""
"memory-trial","144","410518","0.0-15.0-1.50","1851","2","""event"",""trial"",""time""
""fullscreenenter"",""1"",""8609""
","
","
","""event"",""trial"",""time""
""fullscreenenter"",""1"",""8609""
","
","","","","","","663.8999999999069","images/bed2.png","","","memory_trial","4","definitely_new","","","","","","",""
"html-keyboard-response","145","411027","0.0-15.0-0.51","1851","2","""event"",""trial"",""time""
""fullscreenenter"",""1"",""8609""
","
","
","""event"",""trial"",""time""
""fullscreenenter"",""1"",""8609""
","
","","","","","","null","<div style=""font-size:60px;"">+</div>","null","","fixation","","","","","","","","",""
"memory-trial","146","412886","0.0-15.0-1.51","1851","2","""event"",""trial"",""time""
""fullscreenenter"",""1"",""8609""
","
","
","""event"",""trial"",""time""
""fullscreenenter"",""1"",""8609""
","
","","","","","","853.6999999999534","images/truck3.png","","","memory_trial","3","maybe_new","","","","","","",""
"html-keyboard-response","147","413389","0.0-15.0-0.52","1851","2","""event"",""trial"",""time""
""fullscreenenter"",""1"",""8609""
","
","
","""event"",""trial"",""time""
""fullscreenenter"",""1"",""8609""
","
","","","","","","null","<div style=""font-size:60px;"">+</div>","null","","fixation","","","","","","","","",""
"memory-trial","148","414995","0.0-15.0-1.52","1851","2","""event"",""trial"",""time""
""fullscreenenter"",""1"",""8609""
","
","
","""event"",""trial"",""time""
""fullscreenenter"",""1"",""8609""
","
","","","","","","602","images/sofa5.png","","","memory_trial","4","definitely_new","","","","","","",""
"html-keyboard-response","149","415497","0.0-15.0-0.53","1851","2","""event"",""trial"",""time""
""fullscreenenter"",""1"",""8609""
","
","
","""event"",""trial"",""time""
""fullscreenenter"",""1"",""8609""
","
","","","","","","null","<div style=""font-size:60px;"">+</div>","null","","fixation","","","","","","","","",""
"memory-trial","150","417115","0.0-15.0-1.53","1851","2","""event"",""trial"",""time""
""fullscreenenter"",""1"",""8609""
","
","
","""event"",""trial"",""time""
""fullscreenenter"",""1"",""8609""
","
","","","","","","613.5","images/feline5.png","","","memory_trial","4","definitely_new","","","","","","",""
"html-keyboard-response","151","417628","0.0-15.0-0.54","1851","2","""event"",""trial"",""time""
""fullscreenenter"",""1"",""8609""
","
","
","""event"",""trial"",""time""
""fullscreenenter"",""1"",""8609""
","
","","","","","","null","<div style=""font-size:60px;"">+</div>","null","","fixation","","","","","","","","",""
"memory-trial","152","419516","0.0-15.0-1.54","1851","2","""event"",""trial"",""time""
""fullscreenenter"",""1"",""8609""
","
","
","""event"",""trial"",""time""
""fullscreenenter"",""1"",""8609""
","
","","","","","","883.0999999998603","images/sheep1.png","","","memory_trial","1","definitely_old","","","","","","",""
"html-keyboard-response","153","420018","0.0-15.0-0.55","1851","2","""event"",""trial"",""time""
""fullscreenenter"",""1"",""8609""
","
","
","""event"",""trial"",""time""
""fullscreenenter"",""1"",""8609""
","
","","","","","","null","<div style=""font-size:60px;"">+</div>","null","","fixation","","","","","","","","",""
"memory-trial","154","422005","0.0-15.0-1.55","1851","2","""event"",""trial"",""time""
""fullscreenenter"",""1"",""8609""
","
","
","""event"",""trial"",""time""
""fullscreenenter"",""1"",""8609""
","
","","","","","","983.3000000000466","images/goat1.png","","","memory_trial","3","maybe_new","","","","","","",""
"html-keyboard-response","155","422508","0.0-15.0-0.56","1851","2","""event"",""trial"",""time""
""fullscreenenter"",""1"",""8609""
","
","
","""event"",""trial"",""time""
""fullscreenenter"",""1"",""8609""
","
","","","","","","null","<div style=""font-size:60px;"">+</div>","null","","fixation","","","","","","","","",""
"memory-trial","156","424314","0.0-15.0-1.56","1851","2","""event"",""trial"",""time""
""fullscreenenter"",""1"",""8609""
","
","
","""event"",""trial"",""time""
""fullscreenenter"",""1"",""8609""
","
","","","","","","803.1000000000931","images/train4.png","","","memory_trial","2","maybe_old","","","","","","",""
"html-keyboard-response","157","424816","0.0-15.0-0.57","1851","2","""event"",""trial"",""time""
""fullscreenenter"",""1"",""8609""
","
","
","""event"",""trial"",""time""
""fullscreenenter"",""1"",""8609""
","
","","","","","","null","<div style=""font-size:60px;"">+</div>","null","","fixation","","","","","","","","",""
"memory-trial","158","426656","0.0-15.0-1.57","1851","2","""event"",""trial"",""time""
""fullscreenenter"",""1"",""8609""
","
","
","""event"",""trial"",""time""
""fullscreenenter"",""1"",""8609""
","
","","","","","","834.6000000000931","images/truck4.png","","","memory_trial","4","definitely_new","","","","","","",""
"html-keyboard-response","159","427157","0.0-15.0-0.58","1851","2","""event"",""trial"",""time""
""fullscreenenter"",""1"",""8609""
","
","
","""event"",""trial"",""time""
""fullscreenenter"",""1"",""8609""
","
","","","","","","null","<div style=""font-size:60px;"">+</div>","null","","fixation","","","","","","","","",""
"memory-trial","160","429255","0.0-15.0-1.58","1851","2","""event"",""trial"",""time""
""fullscreenenter"",""1"",""8609""
","
","
","""event"",""trial"",""time""
""fullscreenenter"",""1"",""8609""
","
","","","","","","1092.8000000000466","images/straw1.png","","","memory_trial","1","definitely_old","","","","","","",""
"html-keyboard-response","161","429757","0.0-15.0-0.59","1851","2","""event"",""trial"",""time""
""fullscreenenter"",""1"",""8609""
","
","
","""event"",""trial"",""time""
""fullscreenenter"",""1"",""8609""
","
","","","","","","null","<div style=""font-size:60px;"">+</div>","null","","fixation","","","","","","","","",""
"memory-trial","162","431976","0.0-15.0-1.59","1851","2","""event"",""trial"",""time""
""fullscreenenter"",""1"",""8609""
","
","
","""event"",""trial"",""time""
""fullscreenenter"",""1"",""8609""
","
","","","","","","1215.3000000000466","images/horse4.png","","","memory_trial","3","maybe_new","","","","","","",""
"html-keyboard-response","163","432486","0.0-15.0-0.60","1851","2","""event"",""trial"",""time""
""fullscreenenter"",""1"",""8609""
","
","
","""event"",""trial"",""time""
""fullscreenenter"",""1"",""8609""
","
","","","","","","null","<div style=""font-size:60px;"">+</div>","null","","fixation","","","","","","","","",""
"memory-trial","164","434234","0.0-15.0-1.60","1851","2","""event"",""trial"",""time""
""fullscreenenter"",""1"",""8609""
","
","
","""event"",""trial"",""time""
""fullscreenenter"",""1"",""8609""
","
","","","","","","744.1000000000931","images/bed3.png","","","memory_trial","4","definitely_new","","","","","","",""
"html-keyboard-response","165","434737","0.0-15.0-0.61","1851","2","""event"",""trial"",""time""
""fullscreenenter"",""1"",""8609""
","
","
","""event"",""trial"",""time""
""fullscreenenter"",""1"",""8609""
","
","","","","","","null","<div style=""font-size:60px;"">+</div>","null","","fixation","","","","","","","","",""
"memory-trial","166","436365","0.0-15.0-1.61","1851","2","""event"",""trial"",""time""
""fullscreenenter"",""1"",""8609""
","
","
","""event"",""trial"",""time""
""fullscreenenter"",""1"",""8609""
","
","","","","","","623.9000000001397","images/table3.png","","","memory_trial","4","definitely_new","","","","","","",""
"html-keyboard-response","167","436868","0.0-15.0-0.62","1851","2","""event"",""trial"",""time""
""fullscreenenter"",""1"",""8609""
","
","
","""event"",""trial"",""time""
""fullscreenenter"",""1"",""8609""
","
","","","","","","null","<div style=""font-size:60px;"">+</div>","null","","fixation","","","","","","","","",""
"memory-trial","168","438755","0.0-15.0-1.62","1851","2","""event"",""trial"",""time""
""fullscreenenter"",""1"",""8609""
","
","
","""event"",""trial"",""time""
""fullscreenenter"",""1"",""8609""
","
","","","","","","882.7999999998137","images/cactus4.png","","","memory_trial","4","definitely_new","","","","","","",""
"html-keyboard-response","169","439269","0.0-15.0-0.63","1851","2","""event"",""trial"",""time""
""fullscreenenter"",""1"",""8609""
","
","
","""event"",""trial"",""time""
""fullscreenenter"",""1"",""8609""
","
","","","","","","null","<div style=""font-size:60px;"">+</div>","null","","fixation","","","","","","","","",""
"memory-trial","170","440835","0.0-15.0-1.63","1851","2","""event"",""trial"",""time""
""fullscreenenter"",""1"",""8609""
","
","
","""event"",""trial"",""time""
""fullscreenenter"",""1"",""8609""
","
","","","","","","560.6000000000931","images/table5.png","","","memory_trial","4","definitely_new","","","","","","",""
"html-keyboard-response","171","441337","0.0-15.0-0.64","1851","2","""event"",""trial"",""time""
""fullscreenenter"",""1"",""8609""
","
","
","""event"",""trial"",""time""
""fullscreenenter"",""1"",""8609""
","
","","","","","","null","<div style=""font-size:60px;"">+</div>","null","","fixation","","","","","","","","",""
"memory-trial","172","442776","0.0-15.0-1.64","1851","2","""event"",""trial"",""time""
""fullscreenenter"",""1"",""8609""
","
","
","""event"",""trial"",""time""
""fullscreenenter"",""1"",""8609""
","
","","","","","","434.60000000009313","images/sofa1.png","","","memory_trial","4","definitely_new","","","","","","",""
"html-keyboard-response","173","443278","0.0-15.0-0.65","1851","2","""event"",""trial"",""time""
""fullscreenenter"",""1"",""8609""
","
","
","""event"",""trial"",""time""
""fullscreenenter"",""1"",""8609""
","
","","","","","","null","<div style=""font-size:60px;"">+</div>","null","","fixation","","","","","","","","",""
"memory-trial","174","445156","0.0-15.0-1.65","1851","2","""event"",""trial"",""time""
""fullscreenenter"",""1"",""8609""
","
","
","""event"",""trial"",""time""
""fullscreenenter"",""1"",""8609""
","
","","","","","","872.6999999999534","images/train1.png","","","memory_trial","2","maybe_old","","","","","","",""
"html-keyboard-response","175","445671","0.0-15.0-0.66","1851","2","""event"",""trial"",""time""
""fullscreenenter"",""1"",""8609""
","
","
","""event"",""trial"",""time""
""fullscreenenter"",""1"",""8609""
","
","","","","","","null","<div style=""font-size:60px;"">+</div>","null","","fixation","","","","","","","","",""
"memory-trial","176","447826","0.0-15.0-1.66","1851","2","""event"",""trial"",""time""
""fullscreenenter"",""1"",""8609""
","
","
","""event"",""trial"",""time""
""fullscreenenter"",""1"",""8609""
","
","","","","","","1151","images/truck1.png","","","memory_trial","4","definitely_new","","","","","","",""
"html-keyboard-response","177","448329","0.0-15.0-0.67","1851","2","""event"",""trial"",""time""
""fullscreenenter"",""1"",""8609""
","
","
","""event"",""trial"",""time""
""fullscreenenter"",""1"",""8609""
","
","","","","","","null","<div style=""font-size:60px;"">+</div>","null","","fixation","","","","","","","","",""
"memory-trial","178","450542","0.0-15.0-1.67","1851","2","""event"",""trial"",""time""
""fullscreenenter"",""1"",""8609""
","
","
","""event"",""trial"",""time""
""fullscreenenter"",""1"",""8609""
","
","","","","","","1202.1999999999534","images/boat5.png","","","memory_trial","3","maybe_new","","","","","","",""
"html-keyboard-response","179","451049","0.0-15.0-0.68","1851","2","""event"",""trial"",""time""
""fullscreenenter"",""1"",""8609""
","
","
","""event"",""trial"",""time""
""fullscreenenter"",""1"",""8609""
","
","","","","","","null","<div style=""font-size:60px;"">+</div>","null","","fixation","","","","","","","","",""
"memory-trial","180","453027","0.0-15.0-1.68","1851","2","""event"",""trial"",""time""
""fullscreenenter"",""1"",""8609""
","
","
","""event"",""trial"",""time""
""fullscreenenter"",""1"",""8609""
","
","","","","","","972.3999999999069","images/truck5.png","","","memory_trial","2","maybe_old","","","","","","",""
"html-keyboard-response","181","453530","0.0-15.0-0.69","1851","2","""event"",""trial"",""time""
""fullscreenenter"",""1"",""8609""
","
","
","""event"",""trial"",""time""
""fullscreenenter"",""1"",""8609""
","
","","","","","","null","<div style=""font-size:60px;"">+</div>","null","","fixation","","","","","","","","",""
"memory-trial","182","455246","0.0-15.0-1.69","1851","2","""event"",""trial"",""time""
""fullscreenenter"",""1"",""8609""
","
","
","""event"",""trial"",""time""
""fullscreenenter"",""1"",""8609""
","
","","","","","","711.3000000000466","images/bed1.png","","","memory_trial","4","definitely_new","","","","","","",""
"html-keyboard-response","183","455748","0.0-15.0-0.70","1851","2","""event"",""trial"",""time""
""fullscreenenter"",""1"",""8609""
","
","
","""event"",""trial"",""time""
""fullscreenenter"",""1"",""8609""
","
","","","","","","null","<div style=""font-size:60px;"">+</div>","null","","fixation","","","","","","","","",""
"memory-trial","184","457495","0.0-15.0-1.70","1851","2","""event"",""trial"",""time""
""fullscreenenter"",""1"",""8609""
","
","
","""event"",""trial"",""time""
""fullscreenenter"",""1"",""8609""
","
","","","","","","743.1999999999534","images/cow5.png","","","memory_trial","2","maybe_old","","","","","","",""
"html-keyboard-response","185","457997","0.0-15.0-0.71","1851","2","""event"",""trial"",""time""
""fullscreenenter"",""1"",""8609""
","
","
","""event"",""trial"",""time""
""fullscreenenter"",""1"",""8609""
","
","","","","","","null","<div style=""font-size:60px;"">+</div>","null","","fixation","","","","","","","","",""
"memory-trial","186","459800","0.0-15.0-1.71","1851","2","""event"",""trial"",""time""
""fullscreenenter"",""1"",""8609""
","
","
","""event"",""trial"",""time""
""fullscreenenter"",""1"",""8609""
","
","","","","","","797.7999999998137","images/cow2.png","","","memory_trial","2","maybe_old","","","","","","",""
"html-keyboard-response","187","460302","0.0-15.0-0.72","1851","2","""event"",""trial"",""time""
""fullscreenenter"",""1"",""8609""
","
","
","""event"",""trial"",""time""
""fullscreenenter"",""1"",""8609""
","
","","","","","","null","<div style=""font-size:60px;"">+</div>","null","","fixation","","","","","","","","",""
"memory-trial","188","462175","0.0-15.0-1.72","1851","2","""event"",""trial"",""time""
""fullscreenenter"",""1"",""8609""
","
","
","""event"",""trial"",""time""
""fullscreenenter"",""1"",""8609""
","
","","","","","","869.5","images/sheep4.png","","","memory_trial","1","definitely_old","","","","","","",""
"html-keyboard-response","189","462677","0.0-15.0-0.73","1851","2","""event"",""trial"",""time""
""fullscreenenter"",""1"",""8609""
","
","
","""event"",""trial"",""time""
""fullscreenenter"",""1"",""8609""
","
","","","","","","null","<div style=""font-size:60px;"">+</div>","null","","fixation","","","","","","","","",""
"memory-trial","190","464467","0.0-15.0-1.73","1851","2","""event"",""trial"",""time""
""fullscreenenter"",""1"",""8609""
","
","
","""event"",""trial"",""time""
""fullscreenenter"",""1"",""8609""
","
","","","","","","785.5999999998603","images/feline1.png","","","memory_trial","4","definitely_new","","","","","","",""
"html-keyboard-response","191","464970","0.0-15.0-0.74","1851","2","""event"",""trial"",""time""
""fullscreenenter"",""1"",""8609""
","
","
","""event"",""trial"",""time""
""fullscreenenter"",""1"",""8609""
","
","","","","","","null","<div style=""font-size:60px;"">+</div>","null","","fixation","","","","","","","","",""
"memory-trial","192","468288","0.0-15.0-1.74","1851","2","""event"",""trial"",""time""
""fullscreenenter"",""1"",""8609""
","
","
","""event"",""trial"",""time""
""fullscreenenter"",""1"",""8609""
","
","","","","","","2314.8000000000466","images/apple5.png","","","memory_trial","3","maybe_new","","","","","","",""
"html-keyboard-response","193","468790","0.0-15.0-0.75","1851","2","""event"",""trial"",""time""
""fullscreenenter"",""1"",""8609""
","
","
","""event"",""trial"",""time""
""fullscreenenter"",""1"",""8609""
","
","","","","","","null","<div style=""font-size:60px;"">+</div>","null","","fixation","","","","","","","","",""
"memory-trial","194","470555","0.0-15.0-1.75","1851","2","""event"",""trial"",""time""
""fullscreenenter"",""1"",""8609""
","
","
","""event"",""trial"",""time""
""fullscreenenter"",""1"",""8609""
","
","","","","","","759.6000000000931","images/train5.png","","","memory_trial","2","maybe_old","","","","","","",""
"html-keyboard-response","195","471058","0.0-15.0-0.76","1851","2","""event"",""trial"",""time""
""fullscreenenter"",""1"",""8609""
","
","
","""event"",""trial"",""time""
""fullscreenenter"",""1"",""8609""
","
","","","","","","null","<div style=""font-size:60px;"">+</div>","null","","fixation","","","","","","","","",""
"memory-trial","196","473045","0.0-15.0-1.76","1851","2","""event"",""trial"",""time""
""fullscreenenter"",""1"",""8609""
","
","
","""event"",""trial"",""time""
""fullscreenenter"",""1"",""8609""
","
","","","","","","985.2000000001863","images/sheep3.png","","","memory_trial","1","definitely_old","","","","","","",""
"html-keyboard-response","197","473547","0.0-15.0-0.77","1851","2","""event"",""trial"",""time""
""fullscreenenter"",""1"",""8609""
","
","
","""event"",""trial"",""time""
""fullscreenenter"",""1"",""8609""
","
","","","","","","null","<div style=""font-size:60px;"">+</div>","null","","fixation","","","","","","","","",""
"memory-trial","198","475563","0.0-15.0-1.77","1851","2","""event"",""trial"",""time""
""fullscreenenter"",""1"",""8609""
","
","
","""event"",""trial"",""time""
""fullscreenenter"",""1"",""8609""
","
","","","","","","998.9000000001397","images/goat5.png","","","memory_trial","3","maybe_new","","","","","","",""
"html-keyboard-response","199","476065","0.0-15.0-0.78","1851","2","""event"",""trial"",""time""
""fullscreenenter"",""1"",""8609""
","
","
","""event"",""trial"",""time""
""fullscreenenter"",""1"",""8609""
","
","","","","","","null","<div style=""font-size:60px;"">+</div>","null","","fixation","","","","","","","","",""
"memory-trial","200","478136","0.0-15.0-1.78","1851","2","""event"",""trial"",""time""
""fullscreenenter"",""1"",""8609""
","
","
","""event"",""trial"",""time""
""fullscreenenter"",""1"",""8609""
","
","","","","","","1066.2000000001863","images/straw5.png","","","memory_trial","2","maybe_old","","","","","","",""
"html-keyboard-response","201","478638","0.0-15.0-0.79","1851","2","""event"",""trial"",""time""
""fullscreenenter"",""1"",""8609""
","
","
","""event"",""trial"",""time""
""fullscreenenter"",""1"",""8609""
","
","","","","","","null","<div style=""font-size:60px;"">+</div>","null","","fixation","","","","","","","","",""
"memory-trial","202","480706","0.0-15.0-1.79","1851","2","""event"",""trial"",""time""
""fullscreenenter"",""1"",""8609""
","
","
","""event"",""trial"",""time""
""fullscreenenter"",""1"",""8609""
","
","","","","","","1063.0999999998603","images/bush2.png","","","memory_trial","4","definitely_new","","","","","","",""
"html-keyboard-response","203","481208","0.0-15.0-0.80","1851","2","""event"",""trial"",""time""
""fullscreenenter"",""1"",""8609""
","
","
","""event"",""trial"",""time""
""fullscreenenter"",""1"",""8609""
","
","","","","","","null","<div style=""font-size:60px;"">+</div>","null","","fixation","","","","","","","","",""
"memory-trial","204","483166","0.0-15.0-1.80","1851","2","""event"",""trial"",""time""
""fullscreenenter"",""1"",""8609""
","
","
","""event"",""trial"",""time""
""fullscreenenter"",""1"",""8609""
","
","","","","","","952.2000000001863","images/orange1.png","","","memory_trial","2","maybe_old","","","","","","",""
"html-keyboard-response","205","483668","0.0-15.0-0.81","1851","2","""event"",""trial"",""time""
""fullscreenenter"",""1"",""8609""
","
","
","""event"",""trial"",""time""
""fullscreenenter"",""1"",""8609""
","
","","","","","","null","<div style=""font-size:60px;"">+</div>","null","","fixation","","","","","","","","",""
"memory-trial","206","485397","0.0-15.0-1.81","1851","2","""event"",""trial"",""time""
""fullscreenenter"",""1"",""8609""
","
","
","""event"",""trial"",""time""
""fullscreenenter"",""1"",""8609""
","
","","","","","","724.8000000000466","images/rodent4.png","","","memory_trial","4","definitely_new","","","","","","",""
"html-keyboard-response","207","485900","0.0-15.0-0.82","1851","2","""event"",""trial"",""time""
""fullscreenenter"",""1"",""8609""
","
","
","""event"",""trial"",""time""
""fullscreenenter"",""1"",""8609""
","
","","","","","","null","<div style=""font-size:60px;"">+</div>","null","","fixation","","","","","","","","",""
"memory-trial","208","487578","0.0-15.0-1.82","1851","2","""event"",""trial"",""time""
""fullscreenenter"",""1"",""8609""
","
","
","""event"",""trial"",""time""
""fullscreenenter"",""1"",""8609""
","
","","","","","","673.6999999999534","images/banana5.png","","","memory_trial","2","maybe_old","","","","","","",""
"html-keyboard-response","209","488080","0.0-15.0-0.83","1851","2","""event"",""trial"",""time""
""fullscreenenter"",""1"",""8609""
","
","
","""event"",""trial"",""time""
""fullscreenenter"",""1"",""8609""
","
","","","","","","null","<div style=""font-size:60px;"">+</div>","null","","fixation","","","","","","","","",""
"memory-trial","210","489827","0.0-15.0-1.83","1851","2","""event"",""trial"",""time""
""fullscreenenter"",""1"",""8609""
","
","
","""event"",""trial"",""time""
""fullscreenenter"",""1"",""8609""
","
","","","","","","743.6999999999534","images/apple1.png","","","memory_trial","2","maybe_old","","","","","","",""
"html-keyboard-response","211","490329","0.0-15.0-0.84","1851","2","""event"",""trial"",""time""
""fullscreenenter"",""1"",""8609""
","
","
","""event"",""trial"",""time""
""fullscreenenter"",""1"",""8609""
","
","","","","","","null","<div style=""font-size:60px;"">+</div>","null","","fixation","","","","","","","","",""
"memory-trial","212","492397","0.0-15.0-1.84","1851","2","""event"",""trial"",""time""
""fullscreenenter"",""1"",""8609""
","
","
","""event"",""trial"",""time""
""fullscreenenter"",""1"",""8609""
","
","","","","","","1063.3000000000466","images/chair4.png","","","memory_trial","4","definitely_new","","","","","","",""
"html-keyboard-response","213","492900","0.0-15.0-0.85","1851","2","""event"",""trial"",""time""
""fullscreenenter"",""1"",""8609""
","
","
","""event"",""trial"",""time""
""fullscreenenter"",""1"",""8609""
","
","","","","","","null","<div style=""font-size:60px;"">+</div>","null","","fixation","","","","","","","","",""
"memory-trial","214","494747","0.0-15.0-1.85","1851","2","""event"",""trial"",""time""
""fullscreenenter"",""1"",""8609""
","
","
","""event"",""trial"",""time""
""fullscreenenter"",""1"",""8609""
","
","","","","","","842.6000000000931","images/cactus5.png","","","memory_trial","3","maybe_new","","","","","","",""
"html-keyboard-response","215","495250","0.0-15.0-0.86","1851","2","""event"",""trial"",""time""
""fullscreenenter"",""1"",""8609""
","
","
","""event"",""trial"",""time""
""fullscreenenter"",""1"",""8609""
","
","","","","","","null","<div style=""font-size:60px;"">+</div>","null","","fixation","","","","","","","","",""
"memory-trial","216","496816","0.0-15.0-1.86","1851","2","""event"",""trial"",""time""
""fullscreenenter"",""1"",""8609""
","
","
","""event"",""trial"",""time""
""fullscreenenter"",""1"",""8609""
","
","","","","","","562","images/bush4.png","","","memory_trial","4","definitely_new","","","","","","",""
"html-keyboard-response","217","497320","0.0-15.0-0.87","1851","2","""event"",""trial"",""time""
""fullscreenenter"",""1"",""8609""
","
","
","""event"",""trial"",""time""
""fullscreenenter"",""1"",""8609""
","
","","","","","","null","<div style=""font-size:60px;"">+</div>","null","","fixation","","","","","","","","",""
"memory-trial","218","498856","0.0-15.0-1.87","1851","2","""event"",""trial"",""time""
""fullscreenenter"",""1"",""8609""
","
","
","""event"",""trial"",""time""
""fullscreenenter"",""1"",""8609""
","
","","","","","","532.7999999998137","images/flower3.png","","","memory_trial","4","definitely_new","","","","","","",""
"html-keyboard-response","219","499358","0.0-15.0-0.88","1851","2","""event"",""trial"",""time""
""fullscreenenter"",""1"",""8609""
","
","
","""event"",""trial"",""time""
""fullscreenenter"",""1"",""8609""
","
","","","","","","null","<div style=""font-size:60px;"">+</div>","null","","fixation","","","","","","","","",""
"memory-trial","220","501127","0.0-15.0-1.88","1851","2","""event"",""trial"",""time""
""fullscreenenter"",""1"",""8609""
","
","
","""event"",""trial"",""time""
""fullscreenenter"",""1"",""8609""
","
","","","","","","764.5","images/tree4.png","","","memory_trial","2","maybe_old","","","","","","",""
"html-keyboard-response","221","501629","0.0-15.0-0.89","1851","2","""event"",""trial"",""time""
""fullscreenenter"",""1"",""8609""
","
","
","""event"",""trial"",""time""
""fullscreenenter"",""1"",""8609""
","
","","","","","","null","<div style=""font-size:60px;"">+</div>","null","","fixation","","","","","","","","",""
"memory-trial","222","503187","0.0-15.0-1.89","1851","2","""event"",""trial"",""time""
""fullscreenenter"",""1"",""8609""
","
","
","""event"",""trial"",""time""
""fullscreenenter"",""1"",""8609""
","
","","","","","","553.5","images/goat2.png","","","memory_trial","3","maybe_new","","","","","","",""
"html-keyboard-response","223","503690","0.0-15.0-0.90","1851","2","""event"",""trial"",""time""
""fullscreenenter"",""1"",""8609""
","
","
","""event"",""trial"",""time""
""fullscreenenter"",""1"",""8609""
","
","","","","","","null","<div style=""font-size:60px;"">+</div>","null","","fixation","","","","","","","","",""
"memory-trial","224","505801","0.0-15.0-1.90","1851","2","""event"",""trial"",""time""
""fullscreenenter"",""1"",""8609""
","
","
","""event"",""trial"",""time""
""fullscreenenter"",""1"",""8609""
","
","","","","","","1101.1999999999534","images/rodent3.png","","","memory_trial","4","definitely_new","","","","","","",""
"html-keyboard-response","225","506308","0.0-15.0-0.91","1851","2","""event"",""trial"",""time""
""fullscreenenter"",""1"",""8609""
","
","
","""event"",""trial"",""time""
""fullscreenenter"",""1"",""8609""
","
","","","","","","null","<div style=""font-size:60px;"">+</div>","null","","fixation","","","","","","","","",""
"memory-trial","226","507588","0.0-15.0-1.91","1851","2","""event"",""trial"",""time""
""fullscreenenter"",""1"",""8609""
","
","
","""event"",""trial"",""time""
""fullscreenenter"",""1"",""8609""
","
","","","","","","274.39999999990687","images/rabbit2.png","","","memory_trial","4","definitely_new","","","","","","",""
"html-keyboard-response","227","508090","0.0-15.0-0.92","1851","2","""event"",""trial"",""time""
""fullscreenenter"",""1"",""8609""
","
","
","""event"",""trial"",""time""
""fullscreenenter"",""1"",""8609""
","
","","","","","","null","<div style=""font-size:60px;"">+</div>","null","","fixation","","","","","","","","",""
"memory-trial","228","509608","0.0-15.0-1.92","1851","2","""event"",""trial"",""time""
""fullscreenenter"",""1"",""8609""
","
","
","""event"",""trial"",""time""
""fullscreenenter"",""1"",""8609""
","
","","","","","","513.6999999999534","images/bush3.png","","","memory_trial","4","definitely_new","","","","","","",""
"html-keyboard-response","229","510110","0.0-15.0-0.93","1851","2","""event"",""trial"",""time""
""fullscreenenter"",""1"",""8609""
","
","
","""event"",""trial"",""time""
""fullscreenenter"",""1"",""8609""
","
","","","","","","null","<div style=""font-size:60px;"">+</div>","null","","fixation","","","","","","","","",""
"memory-trial","230","511936","0.0-15.0-1.93","1851","2","""event"",""trial"",""time""
""fullscreenenter"",""1"",""8609""
","
","
","""event"",""trial"",""time""
""fullscreenenter"",""1"",""8609""
","
","","","","","","821.8999999999069","images/sheep5.png","","","memory_trial","2","maybe_old","","","","","","",""
"html-keyboard-response","231","512440","0.0-15.0-0.94","1851","2","""event"",""trial"",""time""
""fullscreenenter"",""1"",""8609""
","
","
","""event"",""trial"",""time""
""fullscreenenter"",""1"",""8609""
","
","","","","","","null","<div style=""font-size:60px;"">+</div>","null","","fixation","","","","","","","","",""
"memory-trial","232","514166","0.0-15.0-1.94","1851","2","""event"",""trial"",""time""
""fullscreenenter"",""1"",""8609""
","
","
","""event"",""trial"",""time""
""fullscreenenter"",""1"",""8609""
","
","","","","","","722.6000000000931","images/sheep2.png","","","memory_trial","3","maybe_new","","","","","","",""
"html-keyboard-response","233","514668","0.0-15.0-0.95","1851","2","""event"",""trial"",""time""
""fullscreenenter"",""1"",""8609""
","
","
","""event"",""trial"",""time""
""fullscreenenter"",""1"",""8609""
","
","","","","","","null","<div style=""font-size:60px;"">+</div>","null","","fixation","","","","","","","","",""
"memory-trial","234","516385","0.0-15.0-1.95","1851","2","""event"",""trial"",""time""
""fullscreenenter"",""1"",""8609""
","
","
","""event"",""trial"",""time""
""fullscreenenter"",""1"",""8609""
","
","","","","","","713.6000000000931","images/bed4.png","","","memory_trial","4","definitely_new","","","","","","",""
"html-keyboard-response","235","516888","0.0-15.0-0.96","1851","2","""event"",""trial"",""time""
""fullscreenenter"",""1"",""8609""
","
","
","""event"",""trial"",""time""
""fullscreenenter"",""1"",""8609""
","
","","","","","","null","<div style=""font-size:60px;"">+</div>","null","","fixation","","","","","","","","",""
"memory-trial","236","519134","0.0-15.0-1.96","1851","2","""event"",""trial"",""time""
""fullscreenenter"",""1"",""8609""
","
","
","""event"",""trial"",""time""
""fullscreenenter"",""1"",""8609""
","
","","","","","","1243.2999999998137","images/flower1.png","","","memory_trial","2","maybe_old","","","","","","",""
"html-keyboard-response","237","519637","0.0-15.0-0.97","1851","2","""event"",""trial"",""time""
""fullscreenenter"",""1"",""8609""
","
","
","""event"",""trial"",""time""
""fullscreenenter"",""1"",""8609""
","
","","","","","","null","<div style=""font-size:60px;"">+</div>","null","","fixation","","","","","","","","",""
"memory-trial","238","521327","0.0-15.0-1.97","1851","2","""event"",""trial"",""time""
""fullscreenenter"",""1"",""8609""
","
","
","""event"",""trial"",""time""
""fullscreenenter"",""1"",""8609""
","
","","","","","","684.8999999999069","images/chair2.png","","","memory_trial","4","definitely_new","","","","","","",""
"html-keyboard-response","239","521830","0.0-15.0-0.98","1851","2","""event"",""trial"",""time""
""fullscreenenter"",""1"",""8609""
","
","
","""event"",""trial"",""time""
""fullscreenenter"",""1"",""8609""
","
","","","","","","null","<div style=""font-size:60px;"">+</div>","null","","fixation","","","","","","","","",""
"memory-trial","240","523666","0.0-15.0-1.98","1851","2","""event"",""trial"",""time""
""fullscreenenter"",""1"",""8609""
","
","
","""event"",""trial"",""time""
""fullscreenenter"",""1"",""8609""
","
","","","","","","832.4000000001397","images/straw4.png","","","memory_trial","3","maybe_new","","","","","","",""
"html-keyboard-response","241","524170","0.0-15.0-0.99","1851","2","""event"",""trial"",""time""
""fullscreenenter"",""1"",""8609""
","
","
","""event"",""trial"",""time""
""fullscreenenter"",""1"",""8609""
","
","","","","","","null","<div style=""font-size:60px;"">+</div>","null","","fixation","","","","","","","","",""
"memory-trial","242","525706","0.0-15.0-1.99","1851","2","""event"",""trial"",""time""
""fullscreenenter"",""1"",""8609""
","
","
","""event"",""trial"",""time""
""fullscreenenter"",""1"",""8609""
","
","","","","","","532.1999999999534","images/horse1.png","","","memory_trial","3","maybe_new","","","","","","",""
"html-keyboard-response","243","526209","0.0-15.0-0.100","1851","2","""event"",""trial"",""time""
""fullscreenenter"",""1"",""8609""
","
","
","""event"",""trial"",""time""
""fullscreenenter"",""1"",""8609""
","
","","","","","","null","<div style=""font-size:60px;"">+</div>","null","","fixation","","","","","","","","",""
"memory-trial","244","527745","0.0-15.0-1.100","1851","2","""event"",""trial"",""time""
""fullscreenenter"",""1"",""8609""
","
","
","""event"",""trial"",""time""
""fullscreenenter"",""1"",""8609""
","
","","","","","","533","images/dog4.png","","","memory_trial","3","maybe_new","","","","","","",""
"html-keyboard-response","245","528247","0.0-15.0-0.101","1851","2","""event"",""trial"",""time""
""fullscreenenter"",""1"",""8609""
","
","
","""event"",""trial"",""time""
""fullscreenenter"",""1"",""8609""
","
","","","","","","null","<div style=""font-size:60px;"">+</div>","null","","fixation","","","","","","","","",""
"memory-trial","246","530278","0.0-15.0-1.101","1851","2","""event"",""trial"",""time""
""fullscreenenter"",""1"",""8609""
","
","
","""event"",""trial"",""time""
""fullscreenenter"",""1"",""8609""
","
","","","","","","1026.5999999998603","images/cow1.png","","","memory_trial","2","maybe_old","","","","","","",""
"html-button-response","247","534411","0.0-15.0-2.101-0.101","1851","2","""event"",""trial"",""time""
""fullscreenenter"",""1"",""8609""
","
","
","""event"",""trial"",""time""
""fullscreenenter"",""1"",""8609""
","
","","","","","","4130.40000000014","<p> Take a break! </p><p> Click the button to continue. </p>","0","","break","","","","","","","","",""
"html-keyboard-response","248","534913","0.0-15.0-0.102","1851","2","""event"",""trial"",""time""
""fullscreenenter"",""1"",""8609""
","
","
","""event"",""trial"",""time""
""fullscreenenter"",""1"",""8609""
","
","","","","","","null","<div style=""font-size:60px;"">+</div>","null","","fixation","","","","","","","","",""
"memory-trial","249","536966","0.0-15.0-1.102","1851","2","""event"",""trial"",""time""
""fullscreenenter"",""1"",""8609""
","
","
","""event"",""trial"",""time""
""fullscreenenter"",""1"",""8609""
","
","","","","","","1047.3999999999069","images/plane5.png","","","memory_trial","1","definitely_old","","","","","","",""
"html-keyboard-response","250","537468","0.0-15.0-0.103","1851","2","""event"",""trial"",""time""
""fullscreenenter"",""1"",""8609""
","
","
","""event"",""trial"",""time""
""fullscreenenter"",""1"",""8609""
","
","","","","","","null","<div style=""font-size:60px;"">+</div>","null","","fixation","","","","","","","","",""
"memory-trial","251","539796","0.0-15.0-1.103","1851","2","""event"",""trial"",""time""
""fullscreenenter"",""1"",""8609""
","
","
","""event"",""trial"",""time""
""fullscreenenter"",""1"",""8609""
","
","","","","","","1322.5","images/boat3.png","","","memory_trial","3","maybe_new","","","","","","",""
"html-keyboard-response","252","540298","0.0-15.0-0.104","1851","2","""event"",""trial"",""time""
""fullscreenenter"",""1"",""8609""
","
","
","""event"",""trial"",""time""
""fullscreenenter"",""1"",""8609""
","
","","","","","","null","<div style=""font-size:60px;"">+</div>","null","","fixation","","","","","","","","",""
"memory-trial","253","541876","0.0-15.0-1.104","1851","2","""event"",""trial"",""time""
""fullscreenenter"",""1"",""8609""
","
","
","""event"",""trial"",""time""
""fullscreenenter"",""1"",""8609""
","
","","","","","","573.9000000001397","images/flower2.png","","","memory_trial","3","maybe_new","","","","","","",""
"html-keyboard-response","254","542379","0.0-15.0-0.105","1851","2","""event"",""trial"",""time""
""fullscreenenter"",""1"",""8609""
","
","
","""event"",""trial"",""time""
""fullscreenenter"",""1"",""8609""
","
","","","","","","null","<div style=""font-size:60px;"">+</div>","null","","fixation","","","","","","","","",""
"memory-trial","255","544066","0.0-15.0-1.105","1851","2","""event"",""trial"",""time""
""fullscreenenter"",""1"",""8609""
","
","
","""event"",""trial"",""time""
""fullscreenenter"",""1"",""8609""
","
","","","","","","682.8000000000466","images/table1.png","","","memory_trial","4","definitely_new","","","","","","",""
"html-keyboard-response","256","544569","0.0-15.0-0.106","1851","2","""event"",""trial"",""time""
""fullscreenenter"",""1"",""8609""
","
","
","""event"",""trial"",""time""
""fullscreenenter"",""1"",""8609""
","
","","","","","","null","<div style=""font-size:60px;"">+</div>","null","","fixation","","","","","","","","",""
"memory-trial","257","546255","0.0-15.0-1.106","1851","2","""event"",""trial"",""time""
""fullscreenenter"",""1"",""8609""
","
","
","""event"",""trial"",""time""
""fullscreenenter"",""1"",""8609""
","
","","","","","","682","images/bush1.png","","","memory_trial","4","definitely_new","","","","","","",""
"html-keyboard-response","258","546762","0.0-15.0-0.107","1851","2","""event"",""trial"",""time""
""fullscreenenter"",""1"",""8609""
","
","
","""event"",""trial"",""time""
""fullscreenenter"",""1"",""8609""
","
","","","","","","null","<div style=""font-size:60px;"">+</div>","null","","fixation","","","","","","","","",""
"memory-trial","259","548366","0.0-15.0-1.107","1851","2","""event"",""trial"",""time""
""fullscreenenter"",""1"",""8609""
","
","
","""event"",""trial"",""time""
""fullscreenenter"",""1"",""8609""
","
","","","","","","600","images/truck2.png","","","memory_trial","4","definitely_new","","","","","","",""
"html-keyboard-response","260","548869","0.0-15.0-0.108","1851","2","""event"",""trial"",""time""
""fullscreenenter"",""1"",""8609""
","
","
","""event"",""trial"",""time""
""fullscreenenter"",""1"",""8609""
","
","","","","","","null","<div style=""font-size:60px;"">+</div>","null","","fixation","","","","","","","","",""
"memory-trial","261","550137","0.0-15.0-1.108","1851","2","""event"",""trial"",""time""
""fullscreenenter"",""1"",""8609""
","
","
","""event"",""trial"",""time""
""fullscreenenter"",""1"",""8609""
","
","","","","","","265.69999999995343","images/straw3.png","","","memory_trial","4","definitely_new","","","","","","",""
"html-keyboard-response","262","550639","0.0-15.0-0.109","1851","2","""event"",""trial"",""time""
""fullscreenenter"",""1"",""8609""
","
","
","""event"",""trial"",""time""
""fullscreenenter"",""1"",""8609""
","
","","","","","","null","<div style=""font-size:60px;"">+</div>","null","","fixation","","","","","","","","",""
"memory-trial","263","552605","0.0-15.0-1.109","1851","2","""event"",""trial"",""time""
""fullscreenenter"",""1"",""8609""
","
","
","""event"",""trial"",""time""
""fullscreenenter"",""1"",""8609""
","
","","","","","","960.8999999999069","images/sofa2.png","","","memory_trial","4","definitely_new","","","","","","",""
"html-keyboard-response","264","553117","0.0-15.0-0.110","1851","2","""event"",""trial"",""time""
""fullscreenenter"",""1"",""8609""
","
","
","""event"",""trial"",""time""
""fullscreenenter"",""1"",""8609""
","
","","","","","","null","<div style=""font-size:60px;"">+</div>","null","","fixation","","","","","","","","",""
"memory-trial","265","554908","0.0-15.0-1.110","1851","2","""event"",""trial"",""time""
""fullscreenenter"",""1"",""8609""
","
","
","""event"",""trial"",""time""
""fullscreenenter"",""1"",""8609""
","
","","","","","","786.5","images/feline2.png","","","memory_trial","4","definitely_new","","","","","","",""
"html-keyboard-response","266","555410","0.0-15.0-0.111","1851","2","""event"",""trial"",""time""
""fullscreenenter"",""1"",""8609""
","
","
","""event"",""trial"",""time""
""fullscreenenter"",""1"",""8609""
","
","","","","","","null","<div style=""font-size:60px;"">+</div>","null","","fixation","","","","","","","","",""
"memory-trial","267","557186","0.0-15.0-1.111","1851","2","""event"",""trial"",""time""
""fullscreenenter"",""1"",""8609""
","
","
","""event"",""trial"",""time""
""fullscreenenter"",""1"",""8609""
","
","","","","","","772.1999999999534","images/flower4.png","","","memory_trial","3","maybe_new","","","","","","",""
"html-keyboard-response","268","557688","0.0-15.0-0.112","1851","2","""event"",""trial"",""time""
""fullscreenenter"",""1"",""8609""
","
","
","""event"",""trial"",""time""
""fullscreenenter"",""1"",""8609""
","
","","","","","","null","<div style=""font-size:60px;"">+</div>","null","","fixation","","","","","","","","",""
"memory-trial","269","559337","0.0-15.0-1.112","1851","2","""event"",""trial"",""time""
""fullscreenenter"",""1"",""8609""
","
","
","""event"",""trial"",""time""
""fullscreenenter"",""1"",""8609""
","
","","","","","","644.1000000000931","images/cow3.png","","","memory_trial","4","definitely_new","","","","","","",""
"html-keyboard-response","270","559839","0.0-15.0-0.113","1851","2","""event"",""trial"",""time""
""fullscreenenter"",""1"",""8609""
","
","
","""event"",""trial"",""time""
""fullscreenenter"",""1"",""8609""
","
","","","","","","null","<div style=""font-size:60px;"">+</div>","null","","fixation","","","","","","","","",""
"memory-trial","271","561826","0.0-15.0-1.113","1851","2","""event"",""trial"",""time""
""fullscreenenter"",""1"",""8609""
","
","
","""event"",""trial"",""time""
""fullscreenenter"",""1"",""8609""
","
","","","","","","982","images/plane2.png","","","memory_trial","3","maybe_new","","","","","","",""
"html-keyboard-response","272","562329","0.0-15.0-0.114","1851","2","""event"",""trial"",""time""
""fullscreenenter"",""1"",""8609""
","
","
","""event"",""trial"",""time""
""fullscreenenter"",""1"",""8609""
","
","","","","","","null","<div style=""font-size:60px;"">+</div>","null","","fixation","","","","","","","","",""
"memory-trial","273","563948","0.0-15.0-1.114","1851","2","""event"",""trial"",""time""
""fullscreenenter"",""1"",""8609""
","
","
","""event"",""trial"",""time""
""fullscreenenter"",""1"",""8609""
","
","","","","","","613.5","images/orange2.png","","","memory_trial","3","maybe_new","","","","","","",""
"html-keyboard-response","274","564451","0.0-15.0-0.115","1851","2","""event"",""trial"",""time""
""fullscreenenter"",""1"",""8609""
","
","
","""event"",""trial"",""time""
""fullscreenenter"",""1"",""8609""
","
","","","","","","null","<div style=""font-size:60px;"">+</div>","null","","fixation","","","","","","","","",""
"memory-trial","275","566150","0.0-15.0-1.115","1851","2","""event"",""trial"",""time""
""fullscreenenter"",""1"",""8609""
","
","
","""event"",""trial"",""time""
""fullscreenenter"",""1"",""8609""
","
","","","","","","695.0999999998603","images/apple3.png","","","memory_trial","2","maybe_old","","","","","","",""
"html-keyboard-response","276","566652","0.0-15.0-0.116","1851","2","""event"",""trial"",""time""
""fullscreenenter"",""1"",""8609""
","
","
","""event"",""trial"",""time""
""fullscreenenter"",""1"",""8609""
","
","","","","","","null","<div style=""font-size:60px;"">+</div>","null","","fixation","","","","","","","","",""
"memory-trial","277","568385","0.0-15.0-1.116","1851","2","""event"",""trial"",""time""
""fullscreenenter"",""1"",""8609""
","
","
","""event"",""trial"",""time""
""fullscreenenter"",""1"",""8609""
","
","","","","","","729","images/horse5.png","","","memory_trial","4","definitely_new","","","","","","",""
"html-keyboard-response","278","568889","0.0-15.0-0.117","1851","2","""event"",""trial"",""time""
""fullscreenenter"",""1"",""8609""
","
","
","""event"",""trial"",""time""
""fullscreenenter"",""1"",""8609""
","
","","","","","","null","<div style=""font-size:60px;"">+</div>","null","","fixation","","","","","","","","",""
"memory-trial","279","570466","0.0-15.0-1.117","1851","2","""event"",""trial"",""time""
""fullscreenenter"",""1"",""8609""
","
","
","""event"",""trial"",""time""
""fullscreenenter"",""1"",""8609""
","
","","","","","","572.9000000001397","images/feline4.png","","","memory_trial","4","definitely_new","","","","","","",""
"html-keyboard-response","280","570969","0.0-15.0-0.118","1851","2","""event"",""trial"",""time""
""fullscreenenter"",""1"",""8609""
","
","
","""event"",""trial"",""time""
""fullscreenenter"",""1"",""8609""
","
","","","","","","null","<div style=""font-size:60px;"">+</div>","null","","fixation","","","","","","","","",""
"memory-trial","281","572617","0.0-15.0-1.118","1851","2","""event"",""trial"",""time""
""fullscreenenter"",""1"",""8609""
","
","
","""event"",""trial"",""time""
""fullscreenenter"",""1"",""8609""
","
","","","","","","643.6000000000931","images/table4.png","","","memory_trial","4","definitely_new","","","","","","",""
"html-keyboard-response","282","573119","0.0-15.0-0.119","1851","2","""event"",""trial"",""time""
""fullscreenenter"",""1"",""8609""
","
","
","""event"",""trial"",""time""
""fullscreenenter"",""1"",""8609""
","
","","","","","","null","<div style=""font-size:60px;"">+</div>","null","","fixation","","","","","","","","",""
"memory-trial","283","574627","0.0-15.0-1.119","1851","2","""event"",""trial"",""time""
""fullscreenenter"",""1"",""8609""
","
","
","""event"",""trial"",""time""
""fullscreenenter"",""1"",""8609""
","
","","","","","","502.20000000018626","images/cactus3.png","","","memory_trial","4","definitely_new","","","","","","",""
"preload","284","636127","0.0-16.0","1851","2","""event"",""trial"",""time""
""fullscreenenter"",""1"",""8609""
","
","
","""event"",""trial"",""time""
""fullscreenenter"",""1"",""8609""
","
","true","false","[]","[]","[]","","","","","","","","","","","","","",""
"learning-instructions","285","644436","0.0-17.0-0.0-0.0-0.0","1851","2","""event"",""trial"",""time""
""fullscreenenter"",""1"",""8609""
","
","
","""event"",""trial"",""time""
""fullscreenenter"",""1"",""8609""
","
","","","","","","3576.8000000000466","<p> We're now going to ask you to return your farm animals to barns again. </p>","","0","instructions","","","","","","","","",""
"learning-instructions","286","658869","0.0-17.0-0.0-0.0-0.1","1851","2","""event"",""trial"",""time""
""fullscreenenter"",""1"",""8609""
","
","
","""event"",""trial"",""time""
""fullscreenenter"",""1"",""8609""
","
","","","","","","8979.299999999814","<p> On each trial, you will see a farm animal. Select the barn where you think the animal belongs. </p>","","0","instructions","","","","","","","","",""
"learning-instructions","287","666595","0.0-17.0-0.0-0.0-0.2","1851","2","""event"",""trial"",""time""
""fullscreenenter"",""1"",""8609""
","
","
","""event"",""trial"",""time""
""fullscreenenter"",""1"",""8609""
","
","","","","","","665.8999999999069","<p> To make your selection, think about what you learned last week. You will NOT receive any feedback about your choice. </p>","","0","instructions","","","","","","","","",""
"learning-instructions","288","675172","0.0-17.0-0.0-0.0-0.3","1851","2","""event"",""trial"",""time""
""fullscreenenter"",""1"",""8609""
","
","
","""event"",""trial"",""time""
""fullscreenenter"",""1"",""8609""
","
","","","","","","471.19999999995343","<p> You should use the 1 key to select the barn on the left, the 2 key to select the barn in the middle, and the 3 key to select the barn on the right. </p><br><div class=""choice-mem-instructions-grid""> <div class=""choice-mem-option""><img src=""images/animals_choice1.png"" class=""choice-mem-option-img"" stage=""instructions"" position=""0"" ><div class=""choice-mem-option-text""> Press ""1."" </div></div><div class=""choice-mem-option""><img src=""images/animals_choice2.png"" class=""choice-mem-option-img"" stage=""instructions"" position=""1"" ><div class=""choice-mem-option-text""> Press ""2."" </div></div><div class=""choice-mem-option""><img src=""images/animals_choice3.png"" class=""choice-mem-option-img"" stage=""instructions"" position=""2"" ><div class=""choice-mem-option-text""> Press ""3."" </div></div></div>","","0","instructions","","","","","","","","",""
"learning-instructions","289","683298","0.0-17.0-0.0-0.0-0.4","1851","2","""event"",""trial"",""time""
""fullscreenenter"",""1"",""8609""
","
","
","""event"",""trial"",""time""
""fullscreenenter"",""1"",""8609""
","
","","","","","","1848.6999999999534","<p> You will have 10 seconds to make each selection. Try to respond before time runs out! </p>","","0","instructions","","","","","","","","",""
"learning-instructions","290","686518","0.0-17.0-0.0-1.0","1851","2","""event"",""trial"",""time""
""fullscreenenter"",""1"",""8609""
","
","
","""event"",""trial"",""time""
""fullscreenenter"",""1"",""8609""
","
","","","","","","1139.8000000000466","<p> You are now ready to begin the game. </p>","","0","instructions","","","","","","","","",""
"html-keyboard-response","291","687147","0.0-17.0-0.0-2.0-0.0","1851","2","""event"",""trial"",""time""
""fullscreenenter"",""1"",""8609""
","
","
","""event"",""trial"",""time""
""fullscreenenter"",""1"",""8609""
","
","","","","","","null","<div style=""font-size:60px;"">+</div>","null","","fixation","","","","","","","","",""
"choice-memory-trial","292","688998","0.0-17.0-0.0-2.0-1.0","1851","2","""event"",""trial"",""time""
""fullscreenenter"",""1"",""8609""
","
","
","""event"",""trial"",""time""
""fullscreenenter"",""1"",""8609""
","
