"trial_type","trial_index","time_elapsed","internal_node_id","subject_id","task_version","interactions","blur_events","focus_events","fullscreenenter_events","fullscreenexit_events","success","timeout","failed_images","failed_audio","failed_video","rt","stimulus","response","button_pressed","task_part","key_press","answer","correct","left_choice","middle_choice","right_choice","choice_positions","option_selected","block"
"pavlovia","0","4","0.0-0.0","1637","2","""event"",""trial"",""time""
""fullscreenenter"",""1"",""2246""
","
","
","""event"",""trial"",""time""
""fullscreenenter"",""1"",""2246""
","
","","","","","","","","","","","","","","","","","","",""
"fullscreen","1","3081","0.0-1.0","1637","2","""event"",""trial"",""time""
""fullscreenenter"",""1"",""2246""
","
","
","""event"",""trial"",""time""
""fullscreenenter"",""1"",""2246""
","
","true","","","","","","","","","","","","","","","","","",""
"preload","2","4367","0.0-2.0","1637","2","""event"",""trial"",""time""
""fullscreenenter"",""1"",""2246""
","
","
","""event"",""trial"",""time""
""fullscreenenter"",""1"",""2246""
","
","true","false","[]","[]","[]","","","","","","","","","","","","","",""
"audio-keyboard-response","3","5817","0.0-3.0","1637","2","""event"",""trial"",""time""
""fullscreenenter"",""1"",""2246""
","
","
","""event"",""trial"",""time""
""fullscreenenter"",""1"",""2246""
","
","","","","","","1040","audio/beep_loop.wav"," ","","","","","","","","","","",""
"audio-button-response","4","7561","0.0-4.0","1637","2","""event"",""trial"",""time""
""fullscreenenter"",""1"",""2246""
","
","
","""event"",""trial"",""time""
""fullscreenenter"",""1"",""2246""
","
","","","","","","1749","audio/turtle.wav","3","","","","","","","","","","",""
"audio-button-response","5","9822","0.0-5.0","1637","2","""event"",""trial"",""time""
""fullscreenenter"",""1"",""2246""
","
","
","""event"",""trial"",""time""
""fullscreenenter"",""1"",""2246""
","
","","","","","","1251","audio/shark.wav","2","","","","","","","","","","",""
"preload","6","14932","0.0-6.0","1637","2","""event"",""trial"",""time""
""fullscreenenter"",""1"",""2246""
","
","
","""event"",""trial"",""time""
""fullscreenenter"",""1"",""2246""
","
","true","false","[]","[]","[]","","","","","","","","","","","","","",""
"learning-instructions","7","22550","0.0-7.0-0.0","1637","2","""event"",""trial"",""time""
""fullscreenenter"",""1"",""2246""
","
","
","""event"",""trial"",""time""
""fullscreenenter"",""1"",""2246""
","
","","","","","","2806.600000023842","<p> Welcome back! </p><p> Last week, you had to make choices about lots of different items.  </p>","","0","instructions","","","","","","","","",""
"learning-instructions","8","28503","0.0-7.0-0.1","1637","2","""event"",""trial"",""time""
""fullscreenenter"",""1"",""2246""
","
","
","""event"",""trial"",""time""
""fullscreenenter"",""1"",""2246""
","
","","","","","","1650.800000011921","<p> Today, we are going to ask you to try to remember all the items. </p>","","0","instructions","","","","","","","","",""
"learning-instructions","9","39880","0.0-7.0-0.2","1637","2","""event"",""trial"",""time""
""fullscreenenter"",""1"",""2246""
","
","
","""event"",""trial"",""time""
""fullscreenenter"",""1"",""2246""
","
","","","","","","1238","<p> On every trial, you will see an image. </p><p> The image may be an OLD image you saw during the games last week or it may be a NEW image that was not presented. </p>","","0","instructions","","","","","","","","",""
"learning-instructions","10","49321","0.0-7.0-0.3","1637","2","""event"",""trial"",""time""
""fullscreenenter"",""1"",""2246""
","
","
","""event"",""trial"",""time""
""fullscreenenter"",""1"",""2246""
","
","","","","","","937.8999999761581","<p> You need to select whether the image is:  </p><p>  'Definitely old', 'Maybe old', 'Maybe new', or 'Definitely new.'  </p><div class=""mem-choice-instructions-grid""><div class=""choice-option"" id=""choice-option-1"" ><img src=""images/definitely_old_1.png"" id=""choice-option-img-1"" class=""choice-option-img"" stage=""1""></div><div class=""choice-option"" id=""choice-option-2"" ><img src=""images/maybe_old_1.png"" id=""choice-option-img-2"" class=""choice-option-img"" stage=""1""></div><div class=""choice-option"" id=""choice-option-3"" ><img src=""images/maybe_new_1.png"" id=""choice-option-img-3"" class=""choice-option-img"" stage=""1""></div><div class=""choice-option"" id=""choice-option-4"" > <img src=""images/definitely_new_1.png"" id=""choice-option-img-4"" class=""choice-option-img"" stage=""1""></div></div>","","0","instructions","","","","","","","","",""
"learning-instructions","11","57804","0.0-7.0-0.4","1637","2","""event"",""trial"",""time""
""fullscreenenter"",""1"",""2246""
","
","
","""event"",""trial"",""time""
""fullscreenenter"",""1"",""2246""
","
","","","","","","1791","<p> You should use the 1, 2, 3, and 4 keys to make your responses.  </p><div class=""mem-choice-instructions-grid""><div class=""choice-option"" id=""choice-option-1"" ><img src=""images/definitely_old.png"" id=""choice-option-img-1"" class=""choice-option-img"" stage=""1""></div><div class=""choice-option"" id=""choice-option-2"" ><img src=""images/maybe_old.png"" id=""choice-option-img-2"" class=""choice-option-img"" stage=""1""></div><div class=""choice-option"" id=""choice-option-3"" ><img src=""images/maybe_new.png"" id=""choice-option-img-3"" class=""choice-option-img"" stage=""1""></div><div class=""choice-option"" id=""choice-option-4"" > <img src=""images/definitely_new.png"" id=""choice-option-img-4"" class=""choice-option-img"" stage=""1""></div></div>","","0","instructions","","","","","","","","",""
"learning-instructions","12","66105","0.0-7.0-0.5","1637","2","""event"",""trial"",""time""
""fullscreenenter"",""1"",""2246""
","
","
","""event"",""trial"",""time""
""fullscreenenter"",""1"",""2246""
","
","","","","","","1533","<p> You will have 10 seconds to make each response.  </p><p>  Make sure to respond before time runs out! </p>","","0","instructions","","","","","","","","",""
"learning-instructions","13","74869","0.0-7.0-0.6","1637","2","""event"",""trial"",""time""
""fullscreenenter"",""1"",""2246""
","
","
","""event"",""trial"",""time""
""fullscreenenter"",""1"",""2246""
","
","","","","","","1177.3999999761581","<p> Today, you will see each image ONCE only.  </p><p>  That means none of the images will repeat. </p>","","0","instructions","","","","","","","","",""
"learning-instructions","14","89388","0.0-7.0-0.7","1637","2","""event"",""trial"",""time""
""fullscreenenter"",""1"",""2246""
","
","
","""event"",""trial"",""time""
""fullscreenenter"",""1"",""2246""
","
","","","","","","1845.199999988079","<p> Before you play the real game, it is time to practice. </p><p>  Just like in the real game, some of the images in the practice will be ones you have seen before. </p><p>  Others will be entirely new. </p>","","0","instructions","","","","","","","","",""
"html-button-response","15","91369","0.0-8.0","1637","2","""event"",""trial"",""time""
""fullscreenenter"",""1"",""2246""
","
","
","""event"",""trial"",""time""
""fullscreenenter"",""1"",""2246""
","
","","","","","","1874.5","<p> Ready to practice? </p><p> Remember, use the 1, 2, 3, and 4 keys to make your responses. </p>","0","","instructions","","","","","","","","",""
"html-keyboard-response","16","91977","0.0-9.0-0.0","1637","2","""event"",""trial"",""time""
""fullscreenenter"",""1"",""2246""
","
","
","""event"",""trial"",""time""
""fullscreenenter"",""1"",""2246""
","
","","","","","","null","<div style=""font-size:60px;"">+</div>","null","","fixation","","","","","","","","",""
"memory-trial","17","97087","0.0-9.0-1.0","1637","2","""event"",""trial"",""time""
""fullscreenenter"",""1"",""2246""
","
","
","""event"",""trial"",""time""
""fullscreenenter"",""1"",""2246""
","
","","","","","","4090.599999964237","images/ball3.png","","","practice","1","definitely_old","","","","","","",""
"html-keyboard-response","18","97603","0.0-9.0-0.1","1637","2","""event"",""trial"",""time""
""fullscreenenter"",""1"",""2246""
","
","
","""event"",""trial"",""time""
""fullscreenenter"",""1"",""2246""
","
","","","","","","null","<div style=""font-size:60px;"">+</div>","null","","fixation","","","","","","","","",""
"memory-trial","19","100452","0.0-9.0-1.1","1637","2","""event"",""trial"",""time""
""fullscreenenter"",""1"",""2246""
","
","
","""event"",""trial"",""time""
""fullscreenenter"",""1"",""2246""
","
","","","","","","1831.199999988079","images/racket3.png","","","practice","1","definitely_old","","","","","","",""
"html-keyboard-response","20","100964","0.0-9.0-0.2","1637","2","""event"",""trial"",""time""
""fullscreenenter"",""1"",""2246""
","
","
","""event"",""trial"",""time""
""fullscreenenter"",""1"",""2246""
","
","","","","","","null","<div style=""font-size:60px;"">+</div>","null","","fixation","","","","","","","","",""
"memory-trial","21","105158","0.0-9.0-1.2","1637","2","""event"",""trial"",""time""
""fullscreenenter"",""1"",""2246""
","
","
","""event"",""trial"",""time""
""fullscreenenter"",""1"",""2246""
","
","","","","","","3182.100000023842","images/racket2.png","","","practice","4","definitely_new","","","","","","",""
"html-keyboard-response","22","105673","0.0-9.0-0.3","1637","2","""event"",""trial"",""time""
""fullscreenenter"",""1"",""2246""
","
","
","""event"",""trial"",""time""
""fullscreenenter"",""1"",""2246""
","
","","","","","","null","<div style=""font-size:60px;"">+</div>","null","","fixation","","","","","","","","",""
"memory-trial","23","110175","0.0-9.0-1.3","1637","2","""event"",""trial"",""time""
""fullscreenenter"",""1"",""2246""
","
","
","""event"",""trial"",""time""
""fullscreenenter"",""1"",""2246""
","
","","","","","","3483.899999976158","images/racket1.png","","","practice","2","maybe_old","","","","","","",""
"html-keyboard-response","24","110689","0.0-9.0-0.4","1637","2","""event"",""trial"",""time""
""fullscreenenter"",""1"",""2246""
","
","
","""event"",""trial"",""time""
""fullscreenenter"",""1"",""2246""
","
","","","","","","null","<div style=""font-size:60px;"">+</div>","null","","fixation","","","","","","","","",""
"memory-trial","25","113121","0.0-9.0-1.4","1637","2","""event"",""trial"",""time""
""fullscreenenter"",""1"",""2246""
","
","
","""event"",""trial"",""time""
""fullscreenenter"",""1"",""2246""
","
","","","","","","1423","images/ball4.png","","","practice","1","definitely_old","","","","","","",""
"html-keyboard-response","26","113633","0.0-9.0-0.5","1637","2","""event"",""trial"",""time""
""fullscreenenter"",""1"",""2246""
","
","
","""event"",""trial"",""time""
""fullscreenenter"",""1"",""2246""
","
","","","","","","null","<div style=""font-size:60px;"">+</div>","null","","fixation","","","","","","","","",""
"memory-trial","27","115485","0.0-9.0-1.5","1637","2","""event"",""trial"",""time""
""fullscreenenter"",""1"",""2246""
","
","
","""event"",""trial"",""time""
""fullscreenenter"",""1"",""2246""
","
","","","","","","848.8999999761581","images/ball2.png","","","practice","1","definitely_old","","","","","","",""
"html-keyboard-response","28","115997","0.0-9.0-0.6","1637","2","""event"",""trial"",""time""
""fullscreenenter"",""1"",""2246""
","
","
","""event"",""trial"",""time""
""fullscreenenter"",""1"",""2246""
","
","","","","","","null","<div style=""font-size:60px;"">+</div>","null","","fixation","","","","","","","","",""
"memory-trial","29","118119","0.0-9.0-1.6","1637","2","""event"",""trial"",""time""
""fullscreenenter"",""1"",""2246""
","
","
","""event"",""trial"",""time""
""fullscreenenter"",""1"",""2246""
","
","","","","","","1119.9000000357628","images/ball1.png","","","practice","1","definitely_old","","","","","","",""
"html-keyboard-response","30","118621","0.0-9.0-0.7","1637","2","""event"",""trial"",""time""
""fullscreenenter"",""1"",""2246""
","
","
","""event"",""trial"",""time""
""fullscreenenter"",""1"",""2246""
","
","","","","","","null","<div style=""font-size:60px;"">+</div>","null","","fixation","","","","","","","","",""
"memory-trial","31","121890","0.0-9.0-1.7","1637","2","""event"",""trial"",""time""
""fullscreenenter"",""1"",""2246""
","
","
","""event"",""trial"",""time""
""fullscreenenter"",""1"",""2246""
","
","","","","","","2266.399999976158","images/racket4.png","","","practice","2","maybe_old","","","","","","",""
"learning-instructions","32","131503","0.0-10.0-0.0","1637","2","""event"",""trial"",""time""
""fullscreenenter"",""1"",""2246""
","
","
","""event"",""trial"",""time""
""fullscreenenter"",""1"",""2246""
","
","","","","","","1652.699999988079","<p> Great! You have completed the practice. </p><p> Before you start, we're going to ask you a few questions about how the game works.  </p>","","0","instructions","","","","","","","","",""
"preload","33","134681","0.0-11.0","1637","2","""event"",""trial"",""time""
""fullscreenenter"",""1"",""2246""
","
","
","""event"",""trial"",""time""
""fullscreenenter"",""1"",""2246""
","
","true","false","[]","[]","[]","","","","","","","","","","","","","",""
"comp-q","34","141960","0.0-12.0-0.0","1637","2","""event"",""trial"",""time""
""fullscreenenter"",""1"",""2246""
","
","
","""event"",""trial"",""time""
""fullscreenenter"",""1"",""2246""
","
","","","","","","1449.5","<p> <b> True or False? </b> </p><p> In this game, you will only see each image once. </p>","","0","comp_question","","","true","","","","","",""
"comp-q","35","149361","0.0-12.0-1.0","1637","2","""event"",""trial"",""time""
""fullscreenenter"",""1"",""2246""
","
","
","""event"",""trial"",""time""
""fullscreenenter"",""1"",""2246""
","
","","","","","","1061.5","<p> <b> That's right! </b> You will see many different images <i> one time each </i> in this game. </p>","","0","comp_answer","","","","","","","","",""
"comp-q","36","156065","0.0-12.0-0.1","1637","2","""event"",""trial"",""time""
""fullscreenenter"",""1"",""2246""
","
","
","""event"",""trial"",""time""
""fullscreenenter"",""1"",""2246""
","
","","","","","","894.6000000238419","<p> <b> True or False? </b> </p><p> You should use the mouse and click to make your response. </p>","","1","comp_question","","","true","","","","","",""
"comp-q","37","164564","0.0-12.0-1.1","1637","2","""event"",""trial"",""time""
""fullscreenenter"",""1"",""2246""
","
","
","""event"",""trial"",""time""
""fullscreenenter"",""1"",""2246""
","
","","","","","","1144","<p><b> That's right! </b> You should use the '1', '2', '3', and '4' keys to make your response. </p>","","0","comp_answer","","","","","","","","",""
"comp-q","38","171350","0.0-12.0-0.2","1637","2","""event"",""trial"",""time""
""fullscreenenter"",""1"",""2246""
","
","
","""event"",""trial"",""time""
""fullscreenenter"",""1"",""2246""
","
","","","","","","780.5999999642372","<p> <b> True or False? </b> </p><p> You will have as much time as you want to make each choice. </p>","","1","comp_question","","","true","","","","","",""
"comp-q","39","178246","0.0-12.0-1.2","1637","2","""event"",""trial"",""time""
""fullscreenenter"",""1"",""2246""
","
","
","""event"",""trial"",""time""
""fullscreenenter"",""1"",""2246""
","
","","","","","","1506.300000011921","<p> <b> That's right! </b> You will only have 10 seconds to make each choice. </p>","","0","comp_answer","","","","","","","","",""
"learning-instructions","40","188450","0.0-13.0","1637","2","""event"",""trial"",""time""
""fullscreenenter"",""1"",""2246""
","
","
","""event"",""trial"",""time""
""fullscreenenter"",""1"",""2246""
","
","","","","","","1527.6000000238419","<p> Great! You are now ready to begin the game. </p><p> Remember, use the 1, 2, 3, and 4 keys to make your responses. </p>","","0","instructions","","","","","","","","",""
"preload","41","202761","0.0-14.0","1637","2","""event"",""trial"",""time""
""fullscreenenter"",""1"",""2246""
","
","
","""event"",""trial"",""time""
""fullscreenenter"",""1"",""2246""
","
","true","false","[]","[]","[]","","","","","","","","","","","","","",""
"html-keyboard-response","42","203263","0.0-15.0-0.0","1637","2","""event"",""trial"",""time""
""fullscreenenter"",""1"",""2246""
","
","
","""event"",""trial"",""time""
""fullscreenenter"",""1"",""2246""
","
","","","","","","null","<div style=""font-size:60px;"">+</div>","null","","fixation","","","","","","","","",""
"memory-trial","43","207209","0.0-15.0-1.0","1637","2","""event"",""trial"",""time""
""fullscreenenter"",""1"",""2246""
","
","
","""event"",""trial"",""time""
""fullscreenenter"",""1"",""2246""
","
","","","","","","2929.599999964237","images/table5.png","","","memory_trial","3","maybe_new","","","","","","",""
"html-keyboard-response","44","207724","0.0-15.0-0.1","1637","2","""event"",""trial"",""time""
""fullscreenenter"",""1"",""2246""
","
","
","""event"",""trial"",""time""
""fullscreenenter"",""1"",""2246""
","
","","","","","","null","<div style=""font-size:60px;"">+</div>","null","","fixation","","","","","","","","",""
"memory-trial","45","210953","0.0-15.0-1.1","1637","2","""event"",""trial"",""time""
""fullscreenenter"",""1"",""2246""
","
","
","""event"",""trial"",""time""
""fullscreenenter"",""1"",""2246""
","
","","","","","","2216.900000035763","images/dog5.png","","","memory_trial","4","definitely_new","","","","","","",""
"html-keyboard-response","46","211470","0.0-15.0-0.2","1637","2","""event"",""trial"",""time""
""fullscreenenter"",""1"",""2246""
","
","
","""event"",""trial"",""time""
""fullscreenenter"",""1"",""2246""
","
","","","","","","null","<div style=""font-size:60px;"">+</div>","null","","fixation","","","","","","","","",""
"memory-trial","47","215414","0.0-15.0-1.2","1637","2","""event"",""trial"",""time""
""fullscreenenter"",""1"",""2246""
","
","
","""event"",""trial"",""time""
""fullscreenenter"",""1"",""2246""
","
","","","","","","2935.800000011921","images/plane1.png","","","memory_trial","2","maybe_old","","","","","","",""
"html-keyboard-response","48","215929","0.0-15.0-0.3","1637","2","""event"",""trial"",""time""
""fullscreenenter"",""1"",""2246""
","
","
","""event"",""trial"",""time""
""fullscreenenter"",""1"",""2246""
","
","","","","","","null","<div style=""font-size:60px;"">+</div>","null","","fixation","","","","","","","","",""
"memory-trial","49","218523","0.0-15.0-1.3","1637","2","""event"",""trial"",""time""
""fullscreenenter"",""1"",""2246""
","
","
","""event"",""trial"",""time""
""fullscreenenter"",""1"",""2246""
","
","","","","","","1591","images/chair2.png","","","memory_trial","2","maybe_old","","","","","","",""
"html-keyboard-response","50","219025","0.0-15.0-0.4","1637","2","""event"",""trial"",""time""
""fullscreenenter"",""1"",""2246""
","
","
","""event"",""trial"",""time""
""fullscreenenter"",""1"",""2246""
","
","","","","","","null","<div style=""font-size:60px;"">+</div>","null","","fixation","","","","","","","","",""
"memory-trial","51","222989","0.0-15.0-1.4","1637","2","""event"",""trial"",""time""
""fullscreenenter"",""1"",""2246""
","
","
","""event"",""trial"",""time""
""fullscreenenter"",""1"",""2246""
","
","","","","","","2951.899999976158","images/cactus4.png","","","memory_trial","2","maybe_old","","","","","","",""
"html-keyboard-response","52","223491","0.0-15.0-0.5","1637","2","""event"",""trial"",""time""
""fullscreenenter"",""1"",""2246""
","
","
","""event"",""trial"",""time""
""fullscreenenter"",""1"",""2246""
","
","","","","","","null","<div style=""font-size:60px;"">+</div>","null","","fixation","","","","","","","","",""
"memory-trial","53","225779","0.0-15.0-1.5","1637","2","""event"",""trial"",""time""
""fullscreenenter"",""1"",""2246""
","
","
","""event"",""trial"",""time""
""fullscreenenter"",""1"",""2246""
","
","","","","","","1284.800000011921","images/bush1.png","","","memory_trial","1","definitely_old","","","","","","",""
"html-keyboard-response","54","226281","0.0-15.0-0.6","1637","2","""event"",""trial"",""time""
""fullscreenenter"",""1"",""2246""
","
","
","""event"",""trial"",""time""
""fullscreenenter"",""1"",""2246""
","
","","","","","","null","<div style=""font-size:60px;"">+</div>","null","","fixation","","","","","","","","",""
"memory-trial","55","229206","0.0-15.0-1.6","1637","2","""event"",""trial"",""time""
""fullscreenenter"",""1"",""2246""
","
","
","""event"",""trial"",""time""
""fullscreenenter"",""1"",""2246""
","
","","","","","","1922.300000011921","images/tree4.png","","","memory_trial","4","definitely_new","","","","","","",""
"html-keyboard-response","56","229708","0.0-15.0-0.7","1637","2","""event"",""trial"",""time""
""fullscreenenter"",""1"",""2246""
","
","
","""event"",""trial"",""time""
""fullscreenenter"",""1"",""2246""
","
","","","","","","null","<div style=""font-size:60px;"">+</div>","null","","fixation","","","","","","","","",""
"memory-trial","57","233119","0.0-15.0-1.7","1637","2","""event"",""trial"",""time""
""fullscreenenter"",""1"",""2246""
","
","
","""event"",""trial"",""time""
""fullscreenenter"",""1"",""2246""
","
","","","","","","2408.899999976158","images/bush2.png","","","memory_trial","3","maybe_new","","","","","","",""
"html-keyboard-response","58","233621","0.0-15.0-0.8","1637","2","""event"",""trial"",""time""
""fullscreenenter"",""1"",""2246""
","
","
","""event"",""trial"",""time""
""fullscreenenter"",""1"",""2246""
","
","","","","","","null","<div style=""font-size:60px;"">+</div>","null","","fixation","","","","","","","","",""
"memory-trial","59","236165","0.0-15.0-1.8","1637","2","""event"",""trial"",""time""
""fullscreenenter"",""1"",""2246""
","
","
","""event"",""trial"",""time""
""fullscreenenter"",""1"",""2246""
","
","","","","","","1540.8999999761581","images/plane5.png","","","memory_trial","2","maybe_old","","","","","","",""
"html-keyboard-response","60","236667","0.0-15.0-0.9","1637","2","""event"",""trial"",""time""
""fullscreenenter"",""1"",""2246""
","
","
","""event"",""trial"",""time""
""fullscreenenter"",""1"",""2246""
","
","","","","","","null","<div style=""font-size:60px;"">+</div>","null","","fixation","","","","","","","","",""
"memory-trial","61","239471","0.0-15.0-1.9","1637","2","""event"",""trial"",""time""
""fullscreenenter"",""1"",""2246""
","
","
","""event"",""trial"",""time""
""fullscreenenter"",""1"",""2246""
","
","","","","","","1801.6000000238419","images/feline2.png","","","memory_trial","4","definitely_new","","","","","","",""
"html-keyboard-response","62","239973","0.0-15.0-0.10","1637","2","""event"",""trial"",""time""
""fullscreenenter"",""1"",""2246""
","
","
","""event"",""trial"",""time""
""fullscreenenter"",""1"",""2246""
","
","","","","","","null","<div style=""font-size:60px;"">+</div>","null","","fixation","","","","","","","","",""
"memory-trial","63","242541","0.0-15.0-1.10","1637","2","""event"",""trial"",""time""
""fullscreenenter"",""1"",""2246""
","
","
","""event"",""trial"",""time""
""fullscreenenter"",""1"",""2246""
","
","","","","","","1566","images/orange2.png","","","memory_trial","1","definitely_old","","","","","","",""
"html-keyboard-response","64","243043","0.0-15.0-0.11","1637","2","""event"",""trial"",""time""
""fullscreenenter"",""1"",""2246""
","
","
","""event"",""trial"",""time""
""fullscreenenter"",""1"",""2246""
","
","","","","","","null","<div style=""font-size:60px;"">+</div>","null","","fixation","","","","","","","","",""
"memory-trial","65","245251","0.0-15.0-1.11","1637","2","""event"",""trial"",""time""
""fullscreenenter"",""1"",""2246""
","
","
","""event"",""trial"",""time""
""fullscreenenter"",""1"",""2246""
","
","","","","","","1194.1000000238419","images/sheep3.png","","","memory_trial","1","definitely_old","","","","","","",""
"html-keyboard-response","66","245754","0.0-15.0-0.12","1637","2","""event"",""trial"",""time""
""fullscreenenter"",""1"",""2246""
","
","
","""event"",""trial"",""time""
""fullscreenenter"",""1"",""2246""
","
","","","","","","null","<div style=""font-size:60px;"">+</div>","null","","fixation","","","","","","","","",""
"memory-trial","67","248032","0.0-15.0-1.12","1637","2","""event"",""trial"",""time""
""fullscreenenter"",""1"",""2246""
","
","
","""event"",""trial"",""time""
""fullscreenenter"",""1"",""2246""
","
","","","","","","1264.699999988079","images/sofa3.png","","","memory_trial","3","maybe_new","","","","","","",""
"html-keyboard-response","68","248533","0.0-15.0-0.13","1637","2","""event"",""trial"",""time""
""fullscreenenter"",""1"",""2246""
","
","
","""event"",""trial"",""time""
""fullscreenenter"",""1"",""2246""
","
","","","","","","null","<div style=""font-size:60px;"">+</div>","null","","fixation","","","","","","","","",""
"memory-trial","69","250543","0.0-15.0-1.13","1637","2","""event"",""trial"",""time""
""fullscreenenter"",""1"",""2246""
","
","
","""event"",""trial"",""time""
""fullscreenenter"",""1"",""2246""
","
","","","","","","1007","images/cow4.png","","","memory_trial","1","definitely_old","","","","","","",""
"html-keyboard-response","70","251046","0.0-15.0-0.14","1637","2","""event"",""trial"",""time""
""fullscreenenter"",""1"",""2246""
","
","
","""event"",""trial"",""time""
""fullscreenenter"",""1"",""2246""
","
","","","","","","null","<div style=""font-size:60px;"">+</div>","null","","fixation","","","","","","","","",""
"memory-trial","71","255272","0.0-15.0-1.14","1637","2","""event"",""trial"",""time""
""fullscreenenter"",""1"",""2246""
","
","
","""event"",""trial"",""time""
""fullscreenenter"",""1"",""2246""
","
","","","","","","3224.300000011921","images/flower2.png","","","memory_trial","2","maybe_old","","","","","","",""
"html-keyboard-response","72","255774","0.0-15.0-0.15","1637","2","""event"",""trial"",""time""
""fullscreenenter"",""1"",""2246""
","
","
","""event"",""trial"",""time""
""fullscreenenter"",""1"",""2246""
","
","","","","","","null","<div style=""font-size:60px;"">+</div>","null","","fixation","","","","","","","","",""
"memory-trial","73","258545","0.0-15.0-1.15","1637","2","""event"",""trial"",""time""
""fullscreenenter"",""1"",""2246""
","
","
","""event"",""trial"",""time""
""fullscreenenter"",""1"",""2246""
","
","","","","","","1767.8999999761581","images/dog1.png","","","memory_trial","4","definitely_new","","","","","","",""
"html-keyboard-response","74","259047","0.0-15.0-0.16","1637","2","""event"",""trial"",""time""
""fullscreenenter"",""1"",""2246""
","
","
","""event"",""trial"",""time""
""fullscreenenter"",""1"",""2246""
","
","","","","","","null","<div style=""font-size:60px;"">+</div>","null","","fixation","","","","","","","","",""
"memory-trial","75","261208","0.0-15.0-1.16","1637","2","""event"",""trial"",""time""
""fullscreenenter"",""1"",""2246""
","
","
","""event"",""trial"",""time""
""fullscreenenter"",""1"",""2246""
","
","","","","","","1158.0999999642372","images/sheep1.png","","","memory_trial","1","definitely_old","","","","","","",""
"html-keyboard-response","76","261709","0.0-15.0-0.17","1637","2","""event"",""trial"",""time""
""fullscreenenter"",""1"",""2246""
","
","
","""event"",""trial"",""time""
""fullscreenenter"",""1"",""2246""
","
","","","","","","null","<div style=""font-size:60px;"">+</div>","null","","fixation","","","","","","","","",""
"memory-trial","77","264897","0.0-15.0-1.17","1637","2","""event"",""trial"",""time""
""fullscreenenter"",""1"",""2246""
","
","
","""event"",""trial"",""time""
""fullscreenenter"",""1"",""2246""
","
","","","","","","2184.099999964237","images/boat4.png","","","memory_trial","3","maybe_new","","","","","","",""
"html-keyboard-response","78","265398","0.0-15.0-0.18","1637","2","""event"",""trial"",""time""
""fullscreenenter"",""1"",""2246""
","
","
","""event"",""trial"",""time""
""fullscreenenter"",""1"",""2246""
","
","","","","","","null","<div style=""font-size:60px;"">+</div>","null","","fixation","","","","","","","","",""
"memory-trial","79","267650","0.0-15.0-1.18","1637","2","""event"",""trial"",""time""
""fullscreenenter"",""1"",""2246""
","
","
","""event"",""trial"",""time""
""fullscreenenter"",""1"",""2246""
","
","","","","","","1247.1000000238419","images/truck5.png","","","memory_trial","4","definitely_new","","","","","","",""
"html-keyboard-response","80","268151","0.0-15.0-0.19","1637","2","""event"",""trial"",""time""
""fullscreenenter"",""1"",""2246""
","
","
","""event"",""trial"",""time""
""fullscreenenter"",""1"",""2246""
","
","","","","","","null","<div style=""font-size:60px;"">+</div>","null","","fixation","","","","","","","","",""
"memory-trial","81","270104","0.0-15.0-1.19","1637","2","""event"",""trial"",""time""
""fullscreenenter"",""1"",""2246""
","
","
","""event"",""trial"",""time""
""fullscreenenter"",""1"",""2246""
","
","","","","","","949","images/orange3.png","","","memory_trial","1","definitely_old","","","","","","",""
"html-keyboard-response","82","270605","0.0-15.0-0.20","1637","2","""event"",""trial"",""time""
""fullscreenenter"",""1"",""2246""
","
","
","""event"",""trial"",""time""
""fullscreenenter"",""1"",""2246""
","
","","","","","","null","<div style=""font-size:60px;"">+</div>","null","","fixation","","","","","","","","",""
"memory-trial","83","272769","0.0-15.0-1.20","1637","2","""event"",""trial"",""time""
""fullscreenenter"",""1"",""2246""
","
","
","""event"",""trial"",""time""
""fullscreenenter"",""1"",""2246""
","
","","","","","","1152","images/horse2.png","","","memory_trial","4","definitely_new","","","","","","",""
"html-keyboard-response","84","273270","0.0-15.0-0.21","1637","2","""event"",""trial"",""time""
""fullscreenenter"",""1"",""2246""
","
","
","""event"",""trial"",""time""
""fullscreenenter"",""1"",""2246""
","
","","","","","","null","<div style=""font-size:60px;"">+</div>","null","","fixation","","","","","","","","",""
"memory-trial","85","275169","0.0-15.0-1.21","1637","2","""event"",""trial"",""time""
""fullscreenenter"",""1"",""2246""
","
","
","""event"",""trial"",""time""
""fullscreenenter"",""1"",""2246""
","
","","","","","","896.1000000238419","images/banana1.png","","","memory_trial","1","definitely_old","","","","","","",""
"html-keyboard-response","86","275671","0.0-15.0-0.22","1637","2","""event"",""trial"",""time""
""fullscreenenter"",""1"",""2246""
","
","
","""event"",""trial"",""time""
""fullscreenenter"",""1"",""2246""
","
","","","","","","null","<div style=""font-size:60px;"">+</div>","null","","fixation","","","","","","","","",""
"memory-trial","87","278439","0.0-15.0-1.22","1637","2","""event"",""trial"",""time""
""fullscreenenter"",""1"",""2246""
","
","
","""event"",""trial"",""time""
""fullscreenenter"",""1"",""2246""
","
","","","","","","1766.4000000357628","images/cow1.png","","","memory_trial","3","maybe_new","","","","","","",""
"html-keyboard-response","88","278941","0.0-15.0-0.23","1637","2","""event"",""trial"",""time""
""fullscreenenter"",""1"",""2246""
","
","
","""event"",""trial"",""time""
""fullscreenenter"",""1"",""2246""
","
","","","","","","null","<div style=""font-size:60px;"">+</div>","null","","fixation","","","","","","","","",""
"memory-trial","89","281578","0.0-15.0-1.23","1637","2","""event"",""trial"",""time""
""fullscreenenter"",""1"",""2246""
","
","
","""event"",""trial"",""time""
""fullscreenenter"",""1"",""2246""
","
","","","","","","1635.4000000357628","images/flower3.png","","","memory_trial","2","maybe_old","","","","","","",""
"html-keyboard-response","90","282082","0.0-15.0-0.24","1637","2","""event"",""trial"",""time""
""fullscreenenter"",""1"",""2246""
","
","
","""event"",""trial"",""time""
""fullscreenenter"",""1"",""2246""
","
","","","","","","null","<div style=""font-size:60px;"">+</div>","null","","fixation","","","","","","","","",""
"memory-trial","91","284224","0.0-15.0-1.24","1637","2","""event"",""trial"",""time""
""fullscreenenter"",""1"",""2246""
","
","
","""event"",""trial"",""time""
""fullscreenenter"",""1"",""2246""
","
","","","","","","1138.3999999761581","images/straw5.png","","","memory_trial","4","definitely_new","","","","","","",""
"html-keyboard-response","92","284727","0.0-15.0-0.25","1637","2","""event"",""trial"",""time""
""fullscreenenter"",""1"",""2246""
","
","
","""event"",""trial"",""time""
""fullscreenenter"",""1"",""2246""
","
","","","","","","null","<div style=""font-size:60px;"">+</div>","null","","fixation","","","","","","","","",""
"memory-trial","93","286602","0.0-15.0-1.25","1637","2","""event"",""trial"",""time""
""fullscreenenter"",""1"",""2246""
","
","
","""event"",""trial"",""time""
""fullscreenenter"",""1"",""2246""
","
","","","","","","873.4000000357628","images/truck3.png","","","memory_trial","4","definitely_new","","","","","","",""
"html-keyboard-response","94","287105","0.0-15.0-0.26","1637","2","""event"",""trial"",""time""
""fullscreenenter"",""1"",""2246""
","
","
","""event"",""trial"",""time""
""fullscreenenter"",""1"",""2246""
","
","","","","","","null","<div style=""font-size:60px;"">+</div>","null","","fixation","","","","","","","","",""
"memory-trial","95","289140","0.0-15.0-1.26","1637","2","""event"",""trial"",""time""
""fullscreenenter"",""1"",""2246""
","
","
","""event"",""trial"",""time""
""fullscreenenter"",""1"",""2246""
","
","","","","","","1032.199999988079","images/boat2.png","","","memory_trial","1","definitely_old","","","","","","",""
"html-keyboard-response","96","289641","0.0-15.0-0.27","1637","2","""event"",""trial"",""time""
""fullscreenenter"",""1"",""2246""
","
","
","""event"",""trial"",""time""
""fullscreenenter"",""1"",""2246""
","
","","","","","","null","<div style=""font-size:60px;"">+</div>","null","","fixation","","","","","","","","",""
"memory-trial","97","292091","0.0-15.0-1.27","1637","2","""event"",""trial"",""time""
""fullscreenenter"",""1"",""2246""
","
","
","""event"",""trial"",""time""
""fullscreenenter"",""1"",""2246""
","
","","","","","","1446.300000011921","images/sheep4.png","","","memory_trial","4","definitely_new","","","","","","",""
"html-keyboard-response","98","292592","0.0-15.0-0.28","1637","2","""event"",""trial"",""time""
""fullscreenenter"",""1"",""2246""
","
","
","""event"",""trial"",""time""
""fullscreenenter"",""1"",""2246""
","
","","","","","","null","<div style=""font-size:60px;"">+</div>","null","","fixation","","","","","","","","",""
"memory-trial","99","295761","0.0-15.0-1.28","1637","2","""event"",""trial"",""time""
""fullscreenenter"",""1"",""2246""
","
","
","""event"",""trial"",""time""
""fullscreenenter"",""1"",""2246""
","
","","","","","","2165.2999999523163","images/sofa1.png","","","memory_trial","2","maybe_old","","","","","","",""
"html-keyboard-response","100","296262","0.0-15.0-0.29","1637","2","""event"",""trial"",""time""
""fullscreenenter"",""1"",""2246""
","
","
","""event"",""trial"",""time""
""fullscreenenter"",""1"",""2246""
","
","","","","","","null","<div style=""font-size:60px;"">+</div>","null","","fixation","","","","","","","","",""
"memory-trial","101","299981","0.0-15.0-1.29","1637","2","""event"",""trial"",""time""
""fullscreenenter"",""1"",""2246""
","
","
","""event"",""trial"",""time""
""fullscreenenter"",""1"",""2246""
","
","","","","","","2715.100000023842","images/train5.png","","","memory_trial","3","maybe_new","","","","","","",""
"html-keyboard-response","102","300488","0.0-15.0-0.30","1637","2","""event"",""trial"",""time""
""fullscreenenter"",""1"",""2246""
","
","
","""event"",""trial"",""time""
""fullscreenenter"",""1"",""2246""
","
","","","","","","null","<div style=""font-size:60px;"">+</div>","null","","fixation","","","","","","","","",""
"memory-trial","103","303175","0.0-15.0-1.30","1637","2","""event"",""trial"",""time""
""fullscreenenter"",""1"",""2246""
","
","
","""event"",""trial"",""time""
""fullscreenenter"",""1"",""2246""
","
","","","","","","1658.6000000238419","images/flower5.png","","","memory_trial","4","definitely_new","","","","","","",""
"html-keyboard-response","104","303678","0.0-15.0-0.31","1637","2","""event"",""trial"",""time""
""fullscreenenter"",""1"",""2246""
","
","
","""event"",""trial"",""time""
""fullscreenenter"",""1"",""2246""
","
","","","","","","null","<div style=""font-size:60px;"">+</div>","null","","fixation","","","","","","","","",""
"memory-trial","105","306563","0.0-15.0-1.31","1637","2","""event"",""trial"",""time""
""fullscreenenter"",""1"",""2246""
","
","
","""event"",""trial"",""time""
""fullscreenenter"",""1"",""2246""
","
","","","","","","1870.800000011921","images/flower4.png","","","memory_trial","4","definitely_new","","","","","","",""
"html-keyboard-response","106","307064","0.0-15.0-0.32","1637","2","""event"",""trial"",""time""
""fullscreenenter"",""1"",""2246""
","
","
","""event"",""trial"",""time""
""fullscreenenter"",""1"",""2246""
","
","","","","","","null","<div style=""font-size:60px;"">+</div>","null","","fixation","","","","","","","","",""
"memory-trial","107","309397","0.0-15.0-1.32","1637","2","""event"",""trial"",""time""
""fullscreenenter"",""1"",""2246""
","
","
","""event"",""trial"",""time""
""fullscreenenter"",""1"",""2246""
","
","","","","","","1330.2000000476837","images/banana2.png","","","memory_trial","4","definitely_new","","","","","","",""
"html-keyboard-response","108","309898","0.0-15.0-0.33","1637","2","""event"",""trial"",""time""
""fullscreenenter"",""1"",""2246""
","
","
","""event"",""trial"",""time""
""fullscreenenter"",""1"",""2246""
","
","","","","","","null","<div style=""font-size:60px;"">+</div>","null","","fixation","","","","","","","","",""
"memory-trial","109","313248","0.0-15.0-1.33","1637","2","""event"",""trial"",""time""
""fullscreenenter"",""1"",""2246""
","
","
","""event"",""trial"",""time""
""fullscreenenter"",""1"",""2246""
","
","","","","","","2346.099999964237","images/chair1.png","","","memory_trial","4","definitely_new","","","","","","",""
"html-keyboard-response","110","313750","0.0-15.0-0.34","1637","2","""event"",""trial"",""time""
""fullscreenenter"",""1"",""2246""
","
","
","""event"",""trial"",""time""
""fullscreenenter"",""1"",""2246""
","
","","","","","","null","<div style=""font-size:60px;"">+</div>","null","","fixation","","","","","","","","",""
"memory-trial","111","316292","0.0-15.0-1.34","1637","2","""event"",""trial"",""time""
""fullscreenenter"",""1"",""2246""
","
","
","""event"",""trial"",""time""
""fullscreenenter"",""1"",""2246""
","
","","","","","","1538.699999988079","images/sofa5.png","","","memory_trial","2","maybe_old","","","","","","",""
"html-keyboard-response","112","316793","0.0-15.0-0.35","1637","2","""event"",""trial"",""time""
""fullscreenenter"",""1"",""2246""
","
","
","""event"",""trial"",""time""
""fullscreenenter"",""1"",""2246""
","
","","","","","","null","<div style=""font-size:60px;"">+</div>","null","","fixation","","","","","","","","",""
"memory-trial","113","318882","0.0-15.0-1.35","1637","2","""event"",""trial"",""time""
""fullscreenenter"",""1"",""2246""
","
","
","""event"",""trial"",""time""
""fullscreenenter"",""1"",""2246""
","
","","","","","","1074.300000011921","images/tree5.png","","","memory_trial","4","definitely_new","","","","","","",""
"html-keyboard-response","114","319384","0.0-15.0-0.36","1637","2","""event"",""trial"",""time""
""fullscreenenter"",""1"",""2246""
","
","
","""event"",""trial"",""time""
""fullscreenenter"",""1"",""2246""
","
","","","","","","null","<div style=""font-size:60px;"">+</div>","null","","fixation","","","","","","","","",""
"memory-trial","115","321194","0.0-15.0-1.36","1637","2","""event"",""trial"",""time""
""fullscreenenter"",""1"",""2246""
","
","
","""event"",""trial"",""time""
""fullscreenenter"",""1"",""2246""
","
","","","","","","807.3999999761581","images/rodent2.png","","","memory_trial","4","definitely_new","","","","","","",""
"html-keyboard-response","116","321695","0.0-15.0-0.37","1637","2","""event"",""trial"",""time""
""fullscreenenter"",""1"",""2246""
","
","
","""event"",""trial"",""time""
""fullscreenenter"",""1"",""2246""
","
","","","","","","null","<div style=""font-size:60px;"">+</div>","null","","fixation","","","","","","","","",""
"memory-trial","117","325262","0.0-15.0-1.37","1637","2","""event"",""trial"",""time""
""fullscreenenter"",""1"",""2246""
","
","
","""event"",""trial"",""time""
""fullscreenenter"",""1"",""2246""
","
","","","","","","2563.899999976158","images/orange5.png","","","memory_trial","2","maybe_old","","","","","","",""
"html-keyboard-response","118","325764","0.0-15.0-0.38","1637","2","""event"",""trial"",""time""
""fullscreenenter"",""1"",""2246""
","
","
","""event"",""trial"",""time""
""fullscreenenter"",""1"",""2246""
","
","","","","","","null","<div style=""font-size:60px;"">+</div>","null","","fixation","","","","","","","","",""
"memory-trial","119","328459","0.0-15.0-1.38","1637","2","""event"",""trial"",""time""
""fullscreenenter"",""1"",""2246""
","
","
","""event"",""trial"",""time""
""fullscreenenter"",""1"",""2246""
","
","","","","","","1691.9000000357628","images/flower1.png","","","memory_trial","3","maybe_new","","","","","","",""
"html-keyboard-response","120","328963","0.0-15.0-0.39","1637","2","""event"",""trial"",""time""
""fullscreenenter"",""1"",""2246""
","
","
","""event"",""trial"",""time""
""fullscreenenter"",""1"",""2246""
","
","","","","","","null","<div style=""font-size:60px;"">+</div>","null","","fixation","","","","","","","","",""
"memory-trial","121","331817","0.0-15.0-1.39","1637","2","""event"",""trial"",""time""
""fullscreenenter"",""1"",""2246""
","
","
","""event"",""trial"",""time""
""fullscreenenter"",""1"",""2246""
","
","","","","","","1850.7999999523163","images/cactus2.png","","","memory_trial","4","definitely_new","","","","","","",""
"html-keyboard-response","122","332319","0.0-15.0-0.40","1637","2","""event"",""trial"",""time""
""fullscreenenter"",""1"",""2246""
","
","
","""event"",""trial"",""time""
""fullscreenenter"",""1"",""2246""
","
","","","","","","null","<div style=""font-size:60px;"">+</div>","null","","fixation","","","","","","","","",""
"memory-trial","123","334198","0.0-15.0-1.40","1637","2","""event"",""trial"",""time""
""fullscreenenter"",""1"",""2246""
","
","
","""event"",""trial"",""time""
""fullscreenenter"",""1"",""2246""
","
","","","","","","875.8000000119209","images/feline4.png","","","memory_trial","4","definitely_new","","","","","","",""
"html-keyboard-response","124","334701","0.0-15.0-0.41","1637","2","""event"",""trial"",""time""
""fullscreenenter"",""1"",""2246""
","
","
","""event"",""trial"",""time""
""fullscreenenter"",""1"",""2246""
","
","","","","","","null","<div style=""font-size:60px;"">+</div>","null","","fixation","","","","","","","","",""
"memory-trial","125","338108","0.0-15.0-1.41","1637","2","""event"",""trial"",""time""
""fullscreenenter"",""1"",""2246""
","
","
","""event"",""trial"",""time""
""fullscreenenter"",""1"",""2246""
","
","","","","","","2404.600000023842","images/apple4.png","","","memory_trial","3","maybe_new","","","","","","",""
"html-keyboard-response","126","338609","0.0-15.0-0.42","1637","2","""event"",""trial"",""time""
""fullscreenenter"",""1"",""2246""
","
","
","""event"",""trial"",""time""
""fullscreenenter"",""1"",""2246""
","
","","","","","","null","<div style=""font-size:60px;"">+</div>","null","","fixation","","","","","","","","",""
"memory-trial","127","340742","0.0-15.0-1.42","1637","2","""event"",""trial"",""time""
""fullscreenenter"",""1"",""2246""
","
","
","""event"",""trial"",""time""
""fullscreenenter"",""1"",""2246""
","
","","","","","","1129.199999988079","images/horse1.png","","","memory_trial","4","definitely_new","","","","","","",""
"html-keyboard-response","128","341244","0.0-15.0-0.43","1637","2","""event"",""trial"",""time""
""fullscreenenter"",""1"",""2246""
","
","
","""event"",""trial"",""time""
""fullscreenenter"",""1"",""2246""
","
","","","","","","null","<div style=""font-size:60px;"">+</div>","null","","fixation","","","","","","","","",""
"memory-trial","129","343677","0.0-15.0-1.43","1637","2","""event"",""trial"",""time""
""fullscreenenter"",""1"",""2246""
","
","
","""event"",""trial"",""time""
""fullscreenenter"",""1"",""2246""
","
","","","","","","1430.6000000238419","images/rabbit3.png","","","memory_trial","4","definitely_new","","","","","","",""
"html-keyboard-response","130","344179","0.0-15.0-0.44","1637","2","""event"",""trial"",""time""
""fullscreenenter"",""1"",""2246""
","
","
","""event"",""trial"",""time""
""fullscreenenter"",""1"",""2246""
","
","","","","","","null","<div style=""font-size:60px;"">+</div>","null","","fixation","","","","","","","","",""
"memory-trial","131","346673","0.0-15.0-1.44","1637","2","""event"",""trial"",""time""
""fullscreenenter"",""1"",""2246""
","
","
","""event"",""trial"",""time""
""fullscreenenter"",""1"",""2246""
","
","","","","","","1491.1000000238419","images/banana3.png","","","memory_trial","3","maybe_new","","","","","","",""
"html-keyboard-response","132","347175","0.0-15.0-0.45","1637","2","""event"",""trial"",""time""
""fullscreenenter"",""1"",""2246""
","
","
","""event"",""trial"",""time""
""fullscreenenter"",""1"",""2246""
","
","","","","","","null","<div style=""font-size:60px;"">+</div>","null","","fixation","","","","","","","","",""
"memory-trial","133","349594","0.0-15.0-1.45","1637","2","""event"",""trial"",""time""
""fullscreenenter"",""1"",""2246""
","
","
","""event"",""trial"",""time""
""fullscreenenter"",""1"",""2246""
","
","","","","","","1416.2000000476837","images/train3.png","","","memory_trial","2","maybe_old","","","","","","",""
"html-keyboard-response","134","350096","0.0-15.0-0.46","1637","2","""event"",""trial"",""time""
""fullscreenenter"",""1"",""2246""
","
","
","""event"",""trial"",""time""
""fullscreenenter"",""1"",""2246""
","
","","","","","","null","<div style=""font-size:60px;"">+</div>","null","","fixation","","","","","","","","",""
"memory-trial","135","352282","0.0-15.0-1.46","1637","2","""event"",""trial"",""time""
""fullscreenenter"",""1"",""2246""
","
","
","""event"",""trial"",""time""
""fullscreenenter"",""1"",""2246""
","
","","","","","","1183.699999988079","images/bed3.png","","","memory_trial","4","definitely_new","","","","","","",""
"html-button-response","136","357450","0.0-15.0-2.46-0.46","1637","2","""event"",""trial"",""time""
""fullscreenenter"",""1"",""2246""
","
","
","""event"",""trial"",""time""
""fullscreenenter"",""1"",""2246""
","
","","","","","","5166.200000047684","<p> Take a break! </p><p> Click the button to continue. </p>","0","","break","","","","","","","","",""
"html-keyboard-response","137","357954","0.0-15.0-0.47","1637","2","""event"",""trial"",""time""
""fullscreenenter"",""1"",""2246""
","
","
","""event"",""trial"",""time""
""fullscreenenter"",""1"",""2246""
","
","","","","","","null","<div style=""font-size:60px;"">+</div>","null","","fixation","","","","","","","","",""
"memory-trial","138","361511","0.0-15.0-1.47","1637","2","""event"",""trial"",""time""
""fullscreenenter"",""1"",""2246""
","
","
","""event"",""trial"",""time""
""fullscreenenter"",""1"",""2246""
","
","","","","","","2552.899999976158","images/boat5.png","","","memory_trial","4","definitely_new","","","","","","",""
"html-keyboard-response","139","362012","0.0-15.0-0.48","1637","2","""event"",""trial"",""time""
""fullscreenenter"",""1"",""2246""
","
","
","""event"",""trial"",""time""
""fullscreenenter"",""1"",""2246""
","
","","","","","","null","<div style=""font-size:60px;"">+</div>","null","","fixation","","","","","","","","",""
"memory-trial","140","365733","0.0-15.0-1.48","1637","2","""event"",""trial"",""time""
""fullscreenenter"",""1"",""2246""
","
","
","""event"",""trial"",""time""
""fullscreenenter"",""1"",""2246""
","
","","","","","","2717.199999988079","images/goat5.png","","","memory_trial","3","maybe_new","","","","","","",""
"html-keyboard-response","141","366234","0.0-15.0-0.49","1637","2","""event"",""trial"",""time""
""fullscreenenter"",""1"",""2246""
","
","
","""event"",""trial"",""time""
""fullscreenenter"",""1"",""2246""
","
","","","","","","null","<div style=""font-size:60px;"">+</div>","null","","fixation","","","","","","","","",""
"memory-trial","142","369238","0.0-15.0-1.49","1637","2","""event"",""trial"",""time""
""fullscreenenter"",""1"",""2246""
","
","
","""event"",""trial"",""time""
""fullscreenenter"",""1"",""2246""
","
","","","","","","2000.1000000238419","images/truck4.png","","","memory_trial","4","definitely_new","","","","","","",""
"html-keyboard-response","143","369739","0.0-15.0-0.50","1637","2","""event"",""trial"",""time""
""fullscreenenter"",""1"",""2246""
","
","
","""event"",""trial"",""time""
""fullscreenenter"",""1"",""2246""
","
","","","","","","null","<div style=""font-size:60px;"">+</div>","null","","fixation","","","","","","","","",""
"memory-trial","144","373156","0.0-15.0-1.50","1637","2","""event"",""trial"",""time""
""fullscreenenter"",""1"",""2246""
","
","
","""event"",""trial"",""time""
""fullscreenenter"",""1"",""2246""
","
","","","","","","2413.100000023842","images/straw2.png","","","memory_trial","3","maybe_new","","","","","","",""
"html-keyboard-response","145","373657","0.0-15.0-0.51","1637","2","""event"",""trial"",""time""
""fullscreenenter"",""1"",""2246""
","
","
","""event"",""trial"",""time""
""fullscreenenter"",""1"",""2246""
","
","","","","","","null","<div style=""font-size:60px;"">+</div>","null","","fixation","","","","","","","","",""
"memory-trial","146","376133","0.0-15.0-1.51","1637","2","""event"",""trial"",""time""
""fullscreenenter"",""1"",""2246""
","
","
","""event"",""trial"",""time""
""fullscreenenter"",""1"",""2246""
","
","","","","","","1472.5","images/cow5.png","","","memory_trial","3","maybe_new","","","","","","",""
"html-keyboard-response","147","376635","0.0-15.0-0.52","1637","2","""event"",""trial"",""time""
""fullscreenenter"",""1"",""2246""
","
","
","""event"",""trial"",""time""
""fullscreenenter"",""1"",""2246""
","
","","","","","","null","<div style=""font-size:60px;"">+</div>","null","","fixation","","","","","","","","",""
"memory-trial","148","378623","0.0-15.0-1.52","1637","2","""event"",""trial"",""time""
""fullscreenenter"",""1"",""2246""
","
","
","""event"",""trial"",""time""
""fullscreenenter"",""1"",""2246""
","
","","","","","","982.0999999642372","images/rodent5.png","","","memory_trial","4","definitely_new","","","","","","",""
"html-keyboard-response","149","379125","0.0-15.0-0.53","1637","2","""event"",""trial"",""time""
""fullscreenenter"",""1"",""2246""
","
","
","""event"",""trial"",""time""
""fullscreenenter"",""1"",""2246""
","
","","","","","","null","<div style=""font-size:60px;"">+</div>","null","","fixation","","","","","","","","",""
"memory-trial","150","381691","0.0-15.0-1.53","1637","2","""event"",""trial"",""time""
""fullscreenenter"",""1"",""2246""
","
","
","""event"",""trial"",""time""
""fullscreenenter"",""1"",""2246""
","
","","","","","","1564","images/feline5.png","","","memory_trial","2","maybe_old","","","","","","",""
"html-keyboard-response","151","382192","0.0-15.0-0.54","1637","2","""event"",""trial"",""time""
""fullscreenenter"",""1"",""2246""
","
","
","""event"",""trial"",""time""
""fullscreenenter"",""1"",""2246""
","
","","","","","","null","<div style=""font-size:60px;"">+</div>","null","","fixation","","","","","","","","",""
"memory-trial","152","384554","0.0-15.0-1.54","1637","2","""event"",""trial"",""time""
""fullscreenenter"",""1"",""2246""
","
","
","""event"",""trial"",""time""
""fullscreenenter"",""1"",""2246""
","
","","","","","","1358.800000011921","images/rodent4.png","","","memory_trial","4","definitely_new","","","","","","",""
"html-keyboard-response","153","385056","0.0-15.0-0.55","1637","2","""event"",""trial"",""time""
""fullscreenenter"",""1"",""2246""
","
","
","""event"",""trial"",""time""
""fullscreenenter"",""1"",""2246""
","
","","","","","","null","<div style=""font-size:60px;"">+</div>","null","","fixation","","","","","","","","",""
"memory-trial","154","387260","0.0-15.0-1.55","1637","2","""event"",""trial"",""time""
""fullscreenenter"",""1"",""2246""
","
","
","""event"",""trial"",""time""
""fullscreenenter"",""1"",""2246""
","
","","","","","","1201.2000000476837","images/chair3.png","","","memory_trial","4","definitely_new","","","","","","",""
"html-keyboard-response","155","387763","0.0-15.0-0.56","1637","2","""event"",""trial"",""time""
""fullscreenenter"",""1"",""2246""
","
","
","""event"",""trial"",""time""
""fullscreenenter"",""1"",""2246""
","
","","","","","","null","<div style=""font-size:60px;"">+</div>","null","","fixation","","","","","","","","",""
"memory-trial","156","389768","0.0-15.0-1.56","1637","2","""event"",""trial"",""time""
""fullscreenenter"",""1"",""2246""
","
","
","""event"",""trial"",""time""
""fullscreenenter"",""1"",""2246""
","
","","","","","","1001.5","images/straw3.png","","","memory_trial","4","definitely_new","","","","","","",""
"html-keyboard-response","157","390270","0.0-15.0-0.57","1637","2","""event"",""trial"",""time""
""fullscreenenter"",""1"",""2246""
","
","
","""event"",""trial"",""time""
""fullscreenenter"",""1"",""2246""
","
","","","","","","null","<div style=""font-size:60px;"">+</div>","null","","fixation","","","","","","","","",""
"memory-trial","158","391927","0.0-15.0-1.57","1637","2","""event"",""trial"",""time""
""fullscreenenter"",""1"",""2246""
","
","
","""event"",""trial"",""time""
""fullscreenenter"",""1"",""2246""
","
","","","","","","655.6000000238419","images/rodent3.png","","","memory_trial","4","definitely_new","","","","","","",""
"html-keyboard-response","159","392428","0.0-15.0-0.58","1637","2","""event"",""trial"",""time""
""fullscreenenter"",""1"",""2246""
","
","
","""event"",""trial"",""time""
""fullscreenenter"",""1"",""2246""
","
","","","","","","null","<div style=""font-size:60px;"">+</div>","null","","fixation","","","","","","","","",""
"memory-trial","160","394989","0.0-15.0-1.58","1637","2","""event"",""trial"",""time""
""fullscreenenter"",""1"",""2246""
","
","
","""event"",""trial"",""time""
""fullscreenenter"",""1"",""2246""
","
","","","","","","1557.4000000357628","images/cactus3.png","","","memory_trial","2","maybe_old","","","","","","",""
"html-keyboard-response","161","395491","0.0-15.0-0.59","1637","2","""event"",""trial"",""time""
""fullscreenenter"",""1"",""2246""
","
","
","""event"",""trial"",""time""
""fullscreenenter"",""1"",""2246""
","
","","","","","","null","<div style=""font-size:60px;"">+</div>","null","","fixation","","","","","","","","",""
"memory-trial","162","398853","0.0-15.0-1.59","1637","2","""event"",""trial"",""time""
""fullscreenenter"",""1"",""2246""
","
","
","""event"",""trial"",""time""
""fullscreenenter"",""1"",""2246""
","
","","","","","","2358.800000011921","images/apple2.png","","","memory_trial","3","maybe_new","","","","","","",""
"html-keyboard-response","163","399354","0.0-15.0-0.60","1637","2","""event"",""trial"",""time""
""fullscreenenter"",""1"",""2246""
","
","
","""event"",""trial"",""time""
""fullscreenenter"",""1"",""2246""
","
","","","","","","null","<div style=""font-size:60px;"">+</div>","null","","fixation","","","","","","","","",""
"memory-trial","164","401752","0.0-15.0-1.60","1637","2","""event"",""trial"",""time""
""fullscreenenter"",""1"",""2246""
","
","
","""event"",""trial"",""time""
""fullscreenenter"",""1"",""2246""
","
","","","","","","1395.199999988079","images/boat1.png","","","memory_trial","4","definitely_new","","","","","","",""
"html-keyboard-response","165","402254","0.0-15.0-0.61","1637","2","""event"",""trial"",""time""
""fullscreenenter"",""1"",""2246""
","
","
","""event"",""trial"",""time""
""fullscreenenter"",""1"",""2246""
","
","","","","","","null","<div style=""font-size:60px;"">+</div>","null","","fixation","","","","","","","","",""
"memory-trial","166","405535","0.0-15.0-1.61","1637","2","""event"",""trial"",""time""
""fullscreenenter"",""1"",""2246""
","
","
","""event"",""trial"",""time""
""fullscreenenter"",""1"",""2246""
","
","","","","","","2278.199999988079","images/banana4.png","","","memory_trial","2","maybe_old","","","","","","",""
"html-keyboard-response","167","406036","0.0-15.0-0.62","1637","2","""event"",""trial"",""time""
""fullscreenenter"",""1"",""2246""
","
","
","""event"",""trial"",""time""
""fullscreenenter"",""1"",""2246""
","
","","","","","","null","<div style=""font-size:60px;"">+</div>","null","","fixation","","","","","","","","",""
"memory-trial","168","409444","0.0-15.0-1.62","1637","2","""event"",""trial"",""time""
""fullscreenenter"",""1"",""2246""
","
","
","""event"",""trial"",""time""
""fullscreenenter"",""1"",""2246""
","
","","","","","","2404.600000023842","images/tree2.png","","","memory_trial","4","definitely_new","","","","","","",""
"html-keyboard-response","169","409945","0.0-15.0-0.63","1637","2","""event"",""trial"",""time""
""fullscreenenter"",""1"",""2246""
","
","
","""event"",""trial"",""time""
""fullscreenenter"",""1"",""2246""
","
","","","","","","null","<div style=""font-size:60px;"">+</div>","null","","fixation","","","","","","","","",""
"memory-trial","170","412109","0.0-15.0-1.63","1637","2","""event"",""trial"",""time""
""fullscreenenter"",""1"",""2246""
","
","
","""event"",""trial"",""time""
""fullscreenenter"",""1"",""2246""
","
","","","","","","1159.699999988079","images/boat3.png","","","memory_trial","4","definitely_new","","","","","","",""
"html-keyboard-response","171","412611","0.0-15.0-0.64","1637","2","""event"",""trial"",""time""
""fullscreenenter"",""1"",""2246""
","
","
","""event"",""trial"",""time""
""fullscreenenter"",""1"",""2246""
","
","","","","","","null","<div style=""font-size:60px;"">+</div>","null","","fixation","","","","","","","","",""
"memory-trial","172","415579","0.0-15.0-1.64","1637","2","""event"",""trial"",""time""
""fullscreenenter"",""1"",""2246""
","
","
","""event"",""trial"",""time""
""fullscreenenter"",""1"",""2246""
","
","","","","","","1965.300000011921","images/sheep5.png","","","memory_trial","2","maybe_old","","","","","","",""
"html-keyboard-response","173","416081","0.0-15.0-0.65","1637","2","""event"",""trial"",""time""
""fullscreenenter"",""1"",""2246""
","
","
","""event"",""trial"",""time""
""fullscreenenter"",""1"",""2246""
","
","","","","","","null","<div style=""font-size:60px;"">+</div>","null","","fixation","","","","","","","","",""
"memory-trial","174","419367","0.0-15.0-1.65","1637","2","""event"",""trial"",""time""
""fullscreenenter"",""1"",""2246""
","
","
","""event"",""trial"",""time""
""fullscreenenter"",""1"",""2246""
","
","","","","","","2283.199999988079","images/dog4.png","","","memory_trial","4","definitely_new","","","","","","",""
"html-keyboard-response","175","419869","0.0-15.0-0.66","1637","2","""event"",""trial"",""time""
""fullscreenenter"",""1"",""2246""
","
","
","""event"",""trial"",""time""
""fullscreenenter"",""1"",""2246""
","
","","","","","","null","<div style=""font-size:60px;"">+</div>","null","","fixation","","","","","","","","",""
"memory-trial","176","422908","0.0-15.0-1.66","1637","2","""event"",""trial"",""time""
""fullscreenenter"",""1"",""2246""
","
","
","""event"",""trial"",""time""
""fullscreenenter"",""1"",""2246""
","
","","","","","","2035.3999999761581","images/table3.png","","","memory_trial","3","maybe_new","","","","","","",""
"html-keyboard-response","177","423415","0.0-15.0-0.67","1637","2","""event"",""trial"",""time""
""fullscreenenter"",""1"",""2246""
","
","
","""event"",""trial"",""time""
""fullscreenenter"",""1"",""2246""
","
","","","","","","null","<div style=""font-size:60px;"">+</div>","null","","fixation","","","","","","","","",""
"memory-trial","178","426708","0.0-15.0-1.67","1637","2","""event"",""trial"",""time""
""fullscreenenter"",""1"",""2246""
","
","
","""event"",""trial"",""time""
""fullscreenenter"",""1"",""2246""
","
","","","","","","2291","images/table4.png","","","memory_trial","3","maybe_new","","","","","","",""
"html-keyboard-response","179","427210","0.0-15.0-0.68","1637","2","""event"",""trial"",""time""
""fullscreenenter"",""1"",""2246""
","
","
","""event"",""trial"",""time""
""fullscreenenter"",""1"",""2246""
","
","","","","","","null","<div style=""font-size:60px;"">+</div>","null","","fixation","","","","","","","","",""
"memory-trial","180","429923","0.0-15.0-1.68","1637","2","""event"",""trial"",""time""
""fullscreenenter"",""1"",""2246""
","
","
","""event"",""trial"",""time""
""fullscreenenter"",""1"",""2246""
","
","","","","","","1708.699999988079","images/train4.png","","","memory_trial","1","definitely_old","","","","","","",""
"html-keyboard-response","181","430425","0.0-15.0-0.69","1637","2","""event"",""trial"",""time""
""fullscreenenter"",""1"",""2246""
","
","
","""event"",""trial"",""time""
""fullscreenenter"",""1"",""2246""
","
","","","","","","null","<div style=""font-size:60px;"">+</div>","null","","fixation","","","","","","","","",""
"memory-trial","182","433181","0.0-15.0-1.69","1637","2","""event"",""trial"",""time""
""fullscreenenter"",""1"",""2246""
","
","
","""event"",""trial"",""time""
""fullscreenenter"",""1"",""2246""
","
","","","","","","1752.8999999761581","images/goat3.png","","","memory_trial","2","maybe_old","","","","","","",""
"html-keyboard-response","183","433683","0.0-15.0-0.70","1637","2","""event"",""trial"",""time""
""fullscreenenter"",""1"",""2246""
","
","
","""event"",""trial"",""time""
""fullscreenenter"",""1"",""2246""
","
","","","","","","null","<div style=""font-size:60px;"">+</div>","null","","fixation","","","","","","","","",""
"memory-trial","184","436799","0.0-15.0-1.70","1637","2","""event"",""trial"",""time""
""fullscreenenter"",""1"",""2246""
","
","
","""event"",""trial"",""time""
""fullscreenenter"",""1"",""2246""
","
","","","","","","2112.600000023842","images/rabbit4.png","","","memory_trial","3","maybe_new","","","","","","",""
"html-keyboard-response","185","437301","0.0-15.0-0.71","1637","2","""event"",""trial"",""time""
""fullscreenenter"",""1"",""2246""
","
","
","""event"",""trial"",""time""
""fullscreenenter"",""1"",""2246""
","
","","","","","","null","<div style=""font-size:60px;"">+</div>","null","","fixation","","","","","","","","",""
"memory-trial","186","440226","0.0-15.0-1.71","1637","2","""event"",""trial"",""time""
""fullscreenenter"",""1"",""2246""
","
","
","""event"",""trial"",""time""
""fullscreenenter"",""1"",""2246""
","
","","","","","","1922.699999988079","images/bush5.png","","","memory_trial","4","definitely_new","","","","","","",""
"html-keyboard-response","187","440727","0.0-15.0-0.72","1637","2","""event"",""trial"",""time""
""fullscreenenter"",""1"",""2246""
","
","
","""event"",""trial"",""time""
""fullscreenenter"",""1"",""2246""
","
","","","","","","null","<div style=""font-size:60px;"">+</div>","null","","fixation","","","","","","","","",""
"memory-trial","188","442635","0.0-15.0-1.72","1637","2","""event"",""trial"",""time""
""fullscreenenter"",""1"",""2246""
","
","
","""event"",""trial"",""time""
""fullscreenenter"",""1"",""2246""
","
","","","","","","904.1000000238419","images/bed4.png","","","memory_trial","4","definitely_new","","","","","","",""
"html-keyboard-response","189","443138","0.0-15.0-0.73","1637","2","""event"",""trial"",""time""
""fullscreenenter"",""1"",""2246""
","
","
","""event"",""trial"",""time""
""fullscreenenter"",""1"",""2246""
","
","","","","","","null","<div style=""font-size:60px;"">+</div>","null","","fixation","","","","","","","","",""
"memory-trial","190","445690","0.0-15.0-1.73","1637","2","""event"",""trial"",""time""
""fullscreenenter"",""1"",""2246""
","
","
","""event"",""trial"",""time""
""fullscreenenter"",""1"",""2246""
","
","","","","","","1549.300000011921","images/apple1.png","","","memory_trial","3","maybe_new","","","","","","",""
"html-keyboard-response","191","446192","0.0-15.0-0.74","1637","2","""event"",""trial"",""time""
""fullscreenenter"",""1"",""2246""
","
","
","""event"",""trial"",""time""
""fullscreenenter"",""1"",""2246""
","
","","","","","","null","<div style=""font-size:60px;"">+</div>","null","","fixation","","","","","","","","",""
"memory-trial","192","449175","0.0-15.0-1.74","1637","2","""event"",""trial"",""time""
""fullscreenenter"",""1"",""2246""
","
","
","""event"",""trial"",""time""
""fullscreenenter"",""1"",""2246""
","
","","","","","","1980.199999988079","images/sofa4.png","","","memory_trial","2","maybe_old","","","","","","",""
"html-keyboard-response","193","449677","0.0-15.0-0.75","1637","2","""event"",""trial"",""time""
""fullscreenenter"",""1"",""2246""
","
","
","""event"",""trial"",""time""
""fullscreenenter"",""1"",""2246""
","
","","","","","","null","<div style=""font-size:60px;"">+</div>","null","","fixation","","","","","","","","",""
"memory-trial","194","454675","0.0-15.0-1.75","1637","2","""event"",""trial"",""time""
""fullscreenenter"",""1"",""2246""
","
","
","""event"",""trial"",""time""
""fullscreenenter"",""1"",""2246""
","
","","","","","","3993.800000011921","images/goat2.png","","","memory_trial","4","definitely_new","","","","","","",""
"html-keyboard-response","195","455176","0.0-15.0-0.76","1637","2","""event"",""trial"",""time""
""fullscreenenter"",""1"",""2246""
","
","
","""event"",""trial"",""time""
""fullscreenenter"",""1"",""2246""
","
","","","","","","null","<div style=""font-size:60px;"">+</div>","null","","fixation","","","","","","","","",""
"memory-trial","196","458115","0.0-15.0-1.76","1637","2","""event"",""trial"",""time""
""fullscreenenter"",""1"",""2246""
","
","
","""event"",""trial"",""time""
""fullscreenenter"",""1"",""2246""
","
","","","","","","1935.8999999761581","images/plane3.png","","","memory_trial","4","definitely_new","","","","","","",""
"html-keyboard-response","197","458617","0.0-15.0-0.77","1637","2","""event"",""trial"",""time""
""fullscreenenter"",""1"",""2246""
","
","
","""event"",""trial"",""time""
""fullscreenenter"",""1"",""2246""
","
","","","","","","null","<div style=""font-size:60px;"">+</div>","null","","fixation","","","","","","","","",""
"memory-trial","198","461442","0.0-15.0-1.77","1637","2","""event"",""trial"",""time""
""fullscreenenter"",""1"",""2246""
","
","
","""event"",""trial"",""time""
""fullscreenenter"",""1"",""2246""
","
","","","","","","1821.3999999761581","images/cow3.png","","","memory_trial","2","maybe_old","","","","","","",""
"html-keyboard-response","199","461944","0.0-15.0-0.78","1637","2","""event"",""trial"",""time""
""fullscreenenter"",""1"",""2246""
","
","
","""event"",""trial"",""time""
""fullscreenenter"",""1"",""2246""
","
","","","","","","null","<div style=""font-size:60px;"">+</div>","null","","fixation","","","","","","","","",""
"memory-trial","200","464609","0.0-15.0-1.78","1637","2","""event"",""trial"",""time""
""fullscreenenter"",""1"",""2246""
","
","
","""event"",""trial"",""time""
""fullscreenenter"",""1"",""2246""
","
","","","","","","1661.800000011921","images/apple5.png","","","memory_trial","2","maybe_old","","","","","","",""
"html-keyboard-response","201","465110","0.0-15.0-0.79","1637","2","""event"",""trial"",""time""
""fullscreenenter"",""1"",""2246""
","
","
","""event"",""trial"",""time""
""fullscreenenter"",""1"",""2246""
","
","","","","","","null","<div style=""font-size:60px;"">+</div>","null","","fixation","","","","","","","","",""
"memory-trial","202","467447","0.0-15.0-1.79","1637","2","""event"",""trial"",""time""
""fullscreenenter"",""1"",""2246""
","
","
","""event"",""trial"",""time""
""fullscreenenter"",""1"",""2246""
","
","","","","","","1334.5999999642372","images/chair4.png","","","memory_trial","2","maybe_old","","","","","","",""
"html-keyboard-response","203","467949","0.0-15.0-0.80","1637","2","""event"",""trial"",""time""
""fullscreenenter"",""1"",""2246""
","
","
","""event"",""trial"",""time""
""fullscreenenter"",""1"",""2246""
","
","","","","","","null","<div style=""font-size:60px;"">+</div>","null","","fixation","","","","","","","","",""
"memory-trial","204","470028","0.0-15.0-1.80","1637","2","""event"",""trial"",""time""
""fullscreenenter"",""1"",""2246""
","
","
","""event"",""trial"",""time""
""fullscreenenter"",""1"",""2246""
","
","","","","","","1073.5","images/horse5.png","","","memory_trial","4","definitely_new","","","","","","",""
"html-keyboard-response","205","470529","0.0-15.0-0.81","1637","2","""event"",""trial"",""time""
""fullscreenenter"",""1"",""2246""
","
","
","""event"",""trial"",""time""
""fullscreenenter"",""1"",""2246""
","
","","","","","","null","<div style=""font-size:60px;"">+</div>","null","","fixation","","","","","","","","",""
"memory-trial","206","472509","0.0-15.0-1.81","1637","2","""event"",""trial"",""time""
""fullscreenenter"",""1"",""2246""
","
","
","""event"",""trial"",""time""
""fullscreenenter"",""1"",""2246""
","
","","","","","","976.2999999523163","images/bed1.png","","","memory_trial","4","definitely_new","","","","","","",""
"html-keyboard-response","207","473010","0.0-15.0-0.82","1637","2","""event"",""trial"",""time""
""fullscreenenter"",""1"",""2246""
","
","
","""event"",""trial"",""time""
""fullscreenenter"",""1"",""2246""
","
","","","","","","null","<div style=""font-size:60px;"">+</div>","null","","fixation","","","","","","","","",""
"memory-trial","208","474963","0.0-15.0-1.82","1637","2","""event"",""trial"",""time""
""fullscreenenter"",""1"",""2246""
","
","
","""event"",""trial"",""time""
""fullscreenenter"",""1"",""2246""
","
","","","","","","949.0999999642372","images/rodent1.png","","","memory_trial","4","definitely_new","","","","","","",""
"html-keyboard-response","209","475465","0.0-15.0-0.83","1637","2","""event"",""trial"",""time""
""fullscreenenter"",""1"",""2246""
","
","
","""event"",""trial"",""time""
""fullscreenenter"",""1"",""2246""
","
","","","","","","null","<div style=""font-size:60px;"">+</div>","null","","fixation","","","","","","","","",""
"memory-trial","210","480862","0.0-15.0-1.83","1637","2","""event"",""trial"",""time""
""fullscreenenter"",""1"",""2246""
","
","
","""event"",""trial"",""time""
""fullscreenenter"",""1"",""2246""
","
","","","","","","4394.099999964237","images/truck2.png","","","memory_trial","3","maybe_new","","","","","","",""
"html-keyboard-response","211","481364","0.0-15.0-0.84","1637","2","""event"",""trial"",""time""
""fullscreenenter"",""1"",""2246""
","
","
","""event"",""trial"",""time""
""fullscreenenter"",""1"",""2246""
","
","","","","","","null","<div style=""font-size:60px;"">+</div>","null","","fixation","","","","","","","","",""
"memory-trial","212","484272","0.0-15.0-1.84","1637","2","""event"",""trial"",""time""
""fullscreenenter"",""1"",""2246""
","
","
","""event"",""trial"",""time""
""fullscreenenter"",""1"",""2246""
","
","","","","","","1904.1000000238419","images/tree1.png","","","memory_trial","1","definitely_old","","","","","","",""
"html-keyboard-response","213","484774","0.0-15.0-0.85","1637","2","""event"",""trial"",""time""
""fullscreenenter"",""1"",""2246""
","
","
","""event"",""trial"",""time""
""fullscreenenter"",""1"",""2246""
","
","","","","","","null","<div style=""font-size:60px;"">+</div>","null","","fixation","","","","","","","","",""
"memory-trial","214","486994","0.0-15.0-1.85","1637","2","""event"",""trial"",""time""
""fullscreenenter"",""1"",""2246""
","
","
","""event"",""trial"",""time""
""fullscreenenter"",""1"",""2246""
","
","","","","","","1216.5","images/table1.png","","","memory_trial","4","definitely_new","","","","","","",""
"html-keyboard-response","215","487496","0.0-15.0-0.86","1637","2","""event"",""trial"",""time""
""fullscreenenter"",""1"",""2246""
","
","
","""event"",""trial"",""time""
""fullscreenenter"",""1"",""2246""
","
","","","","","","null","<div style=""font-size:60px;"">+</div>","null","","fixation","","","","","","","","",""
"memory-trial","216","489433","0.0-15.0-1.86","1637","2","""event"",""trial"",""time""
""fullscreenenter"",""1"",""2246""
","
","
","""event"",""trial"",""time""
""fullscreenenter"",""1"",""2246""
","
","","","","","","933.1999999880791","images/truck1.png","","","memory_trial","4","definitely_new","","","","","","",""
"html-keyboard-response","217","489935","0.0-15.0-0.87","1637","2","""event"",""trial"",""time""
""fullscreenenter"",""1"",""2246""
","
","
","""event"",""trial"",""time""
""fullscreenenter"",""1"",""2246""
","
","","","","","","null","<div style=""font-size:60px;"">+</div>","null","","fixation","","","","","","","","",""
"memory-trial","218","492158","0.0-15.0-1.87","1637","2","""event"",""trial"",""time""
""fullscreenenter"",""1"",""2246""
","
","
","""event"",""trial"",""time""
""fullscreenenter"",""1"",""2246""
","
","","","","","","1218.8999999761581","images/orange4.png","","","memory_trial","4","definitely_new","","","","","","",""
"html-keyboard-response","219","492660","0.0-15.0-0.88","1637","2","""event"",""trial"",""time""
""fullscreenenter"",""1"",""2246""
","
","
","""event"",""trial"",""time""
""fullscreenenter"",""1"",""2246""
","
","","","","","","null","<div style=""font-size:60px;"">+</div>","null","","fixation","","","","","","","","",""
"memory-trial","220","495974","0.0-15.0-1.88","1637","2","""event"",""trial"",""time""
""fullscreenenter"",""1"",""2246""
","
","
","""event"",""trial"",""time""
""fullscreenenter"",""1"",""2246""
","
","","","","","","2311.199999988079","images/bush4.png","","","memory_trial","4","definitely_new","","","","","","",""
"html-keyboard-response","221","496476","0.0-15.0-0.89","1637","2","""event"",""trial"",""time""
""fullscreenenter"",""1"",""2246""
","
","
","""event"",""trial"",""time""
""fullscreenenter"",""1"",""2246""
","
","","","","","","null","<div style=""font-size:60px;"">+</div>","null","","fixation","","","","","","","","",""
"memory-trial","222","499007","0.0-15.0-1.89","1637","2","""event"",""trial"",""time""
""fullscreenenter"",""1"",""2246""
","
","
","""event"",""trial"",""time""
""fullscreenenter"",""1"",""2246""
","
","","","","","","1526.8999999761581","images/goat4.png","","","memory_trial","1","definitely_old","","","","","","",""
"html-keyboard-response","223","499513","0.0-15.0-0.90","1637","2","""event"",""trial"",""time""
""fullscreenenter"",""1"",""2246""
","
","
","""event"",""trial"",""time""
""fullscreenenter"",""1"",""2246""
","
","","","","","","null","<div style=""font-size:60px;"">+</div>","null","","fixation","","","","","","","","",""
"memory-trial","224","501352","0.0-15.0-1.90","1637","2","""event"",""trial"",""time""
""fullscreenenter"",""1"",""2246""
","
","
","""event"",""trial"",""time""
""fullscreenenter"",""1"",""2246""
","
","","","","","","836.7000000476837","images/cow2.png","","","memory_trial","1","definitely_old","","","","","","",""
"html-keyboard-response","225","501853","0.0-15.0-0.91","1637","2","""event"",""trial"",""time""
""fullscreenenter"",""1"",""2246""
","
","
","""event"",""trial"",""time""
""fullscreenenter"",""1"",""2246""
","
","","","","","","null","<div style=""font-size:60px;"">+</div>","null","","fixation","","","","","","","","",""
"memory-trial","226","503690","0.0-15.0-1.91","1637","2","""event"",""trial"",""time""
""fullscreenenter"",""1"",""2246""
","
","
","""event"",""trial"",""time""
""fullscreenenter"",""1"",""2246""
","
","","","","","","833.4000000357628","images/train1.png","","","memory_trial","1","definitely_old","","","","","","",""
"html-keyboard-response","227","504193","0.0-15.0-0.92","1637","2","""event"",""trial"",""time""
""fullscreenenter"",""1"",""2246""
","
","
","""event"",""trial"",""time""
""fullscreenenter"",""1"",""2246""
","
","","","","","","null","<div style=""font-size:60px;"">+</div>","null","","fixation","","","","","","","","",""
"memory-trial","228","506820","0.0-15.0-1.92","1637","2","""event"",""trial"",""time""
""fullscreenenter"",""1"",""2246""
","
","
","""event"",""trial"",""time""
""fullscreenenter"",""1"",""2246""
","
","","","","","","1624.199999988079","images/table2.png","","","memory_trial","2","maybe_old","","","","","","",""
"html-keyboard-response","229","507322","0.0-15.0-0.93","1637","2","""event"",""trial"",""time""
""fullscreenenter"",""1"",""2246""
","
","
","""event"",""trial"",""time""
""fullscreenenter"",""1"",""2246""
","
","","","","","","null","<div style=""font-size:60px;"">+</div>","null","","fixation","","","","","","","","",""
"memory-trial","230","509407","0.0-15.0-1.93","1637","2","""event"",""trial"",""time""
""fullscreenenter"",""1"",""2246""
","
","
","""event"",""trial"",""time""
""fullscreenenter"",""1"",""2246""
","
","","","","","","1082.6000000238419","images/cactus5.png","","","memory_trial","2","maybe_old","","","","","","",""
"html-keyboard-response","231","509908","0.0-15.0-0.94","1637","2","""event"",""trial"",""time""
""fullscreenenter"",""1"",""2246""
","
","
","""event"",""trial"",""time""
""fullscreenenter"",""1"",""2246""
","
","","","","","","null","<div style=""font-size:60px;"">+</div>","null","","fixation","","","","","","","","",""
"memory-trial","232","512958","0.0-15.0-1.94","1637","2","""event"",""trial"",""time""
""fullscreenenter"",""1"",""2246""
","
","
","""event"",""trial"",""time""
""fullscreenenter"",""1"",""2246""
","
","","","","","","2045.5","images/sheep2.png","","","memory_trial","3","maybe_new","","","","","","",""
"html-keyboard-response","233","513459","0.0-15.0-0.95","1637","2","""event"",""trial"",""time""
""fullscreenenter"",""1"",""2246""
","
","
","""event"",""trial"",""time""
""fullscreenenter"",""1"",""2246""
","
","","","","","","null","<div style=""font-size:60px;"">+</div>","null","","fixation","","","","","","","","",""
"memory-trial","234","516517","0.0-15.0-1.95","1637","2","""event"",""trial"",""time""
""fullscreenenter"",""1"",""2246""
","
","
","""event"",""trial"",""time""
""fullscreenenter"",""1"",""2246""
","
","","","","","","2054.899999976158","images/bed5.png","","","memory_trial","2","maybe_old","","","","","","",""
"html-keyboard-response","235","517018","0.0-15.0-0.96","1637","2","""event"",""trial"",""time""
""fullscreenenter"",""1"",""2246""
","
","
","""event"",""trial"",""time""
""fullscreenenter"",""1"",""2246""
","
","","","","","","null","<div style=""font-size:60px;"">+</div>","null","","fixation","","","","","","","","",""
"memory-trial","236","519310","0.0-15.0-1.96","1637","2","""event"",""trial"",""time""
""fullscreenenter"",""1"",""2246""
","
","
","""event"",""trial"",""time""
""fullscreenenter"",""1"",""2246""
","
","","","","","","1288","images/sofa2.png","","","memory_trial","2","maybe_old","","","","","","",""
"html-keyboard-response","237","519811","0.0-15.0-0.97","1637","2","""event"",""trial"",""time""
""fullscreenenter"",""1"",""2246""
","
","
","""event"",""trial"",""time""
""fullscreenenter"",""1"",""2246""
","
","","","","","","null","<div style=""font-size:60px;"">+</div>","null","","fixation","","","","","","","","",""
"memory-trial","238","521891","0.0-15.0-1.97","1637","2","""event"",""trial"",""time""
""fullscreenenter"",""1"",""2246""
","
","
","""event"",""trial"",""time""
""fullscreenenter"",""1"",""2246""
","
","","","","","","1077.0999999642372","images/rabbit1.png","","","memory_trial","4","definitely_new","","","","","","",""
"html-keyboard-response","239","522393","0.0-15.0-0.98","1637","2","""event"",""trial"",""time""
""fullscreenenter"",""1"",""2246""
","
","
","""event"",""trial"",""time""
""fullscreenenter"",""1"",""2246""
","
","","","","","","null","<div style=""font-size:60px;"">+</div>","null","","fixation","","","","","","","","",""
"memory-trial","240","525067","0.0-15.0-1.98","1637","2","""event"",""trial"",""time""
""fullscreenenter"",""1"",""2246""
","
","
","""event"",""trial"",""time""
""fullscreenenter"",""1"",""2246""
","
","","","","","","1670.1000000238419","images/train2.png","","","memory_trial","3","maybe_new","","","","","","",""
"html-keyboard-response","241","525568","0.0-15.0-0.99","1637","2","""event"",""trial"",""time""
""fullscreenenter"",""1"",""2246""
","
","
","""event"",""trial"",""time""
""fullscreenenter"",""1"",""2246""
","
","","","","","","null","<div style=""font-size:60px;"">+</div>","null","","fixation","","","","","","","","",""
"memory-trial","242","528122","0.0-15.0-1.99","1637","2","""event"",""trial"",""time""
""fullscreenenter"",""1"",""2246""
","
","
","""event"",""trial"",""time""
""fullscreenenter"",""1"",""2246""
","
","","","","","","1537.4000000357628","images/straw4.png","","","memory_trial","3","maybe_new","","","","","","",""
"html-keyboard-response","243","528624","0.0-15.0-0.100","1637","2","""event"",""trial"",""time""
""fullscreenenter"",""1"",""2246""
","
","
","""event"",""trial"",""time""
""fullscreenenter"",""1"",""2246""
","
","","","","","","null","<div style=""font-size:60px;"">+</div>","null","","fixation","","","","","","","","",""
"memory-trial","244","530522","0.0-15.0-1.100","1637","2","""event"",""trial"",""time""
""fullscreenenter"",""1"",""2246""
","
","
","""event"",""trial"",""time""
""fullscreenenter"",""1"",""2246""
","
","","","","","","894.5999999642372","images/feline3.png","","","memory_trial","4","definitely_new","","","","","","",""
"html-keyboard-response","245","531024","0.0-15.0-0.101","1637","2","""event"",""trial"",""time""
""fullscreenenter"",""1"",""2246""
","
","
","""event"",""trial"",""time""
""fullscreenenter"",""1"",""2246""
","
","","","","","","null","<div style=""font-size:60px;"">+</div>","null","","fixation","","","","","","","","",""
"memory-trial","246","533593","0.0-15.0-1.101","1637","2","""event"",""trial"",""time""
""fullscreenenter"",""1"",""2246""
","
","
","""event"",""trial"",""time""
""fullscreenenter"",""1"",""2246""
","
","","","","","","1557.7000000476837","images/tree3.png","","","memory_trial","2","maybe_old","","","","","","",""
"html-button-response","247","537263","0.0-15.0-2.101-0.101","1637","2","""event"",""trial"",""time""
""fullscreenenter"",""1"",""2246""
","
","
","""event"",""trial"",""time""
""fullscreenenter"",""1"",""2246""
","
","","","","","","3668.399999976158","<p> Take a break! </p><p> Click the button to continue. </p>","0","","break","","","","","","","","",""
"html-keyboard-response","248","537765","0.0-15.0-0.102","1637","2","""event"",""trial"",""time""
""fullscreenenter"",""1"",""2246""
","
","
","""event"",""trial"",""time""
""fullscreenenter"",""1"",""2246""
","
","","","","","","null","<div style=""font-size:60px;"">+</div>","null","","fixation","","","","","","","","",""
"memory-trial","249","539999","0.0-15.0-1.102","1637","2","""event"",""trial"",""time""
""fullscreenenter"",""1"",""2246""
","
","
","""event"",""trial"",""time""
""fullscreenenter"",""1"",""2246""
","
","","","","","","1229.699999988079","images/horse4.png","","","memory_trial","4","definitely_new","","","","","","",""
"html-keyboard-response","250","540501","0.0-15.0-0.103","1637","2","""event"",""trial"",""time""
""fullscreenenter"",""1"",""2246""
","
","
","""event"",""trial"",""time""
""fullscreenenter"",""1"",""2246""
","
","","","","","","null","<div style=""font-size:60px;"">+</div>","null","","fixation","","","","","","","","",""
"memory-trial","251","542478","0.0-15.0-1.103","1637","2","""event"",""trial"",""time""
""fullscreenenter"",""1"",""2246""
","
","
","""event"",""trial"",""time""
""fullscreenenter"",""1"",""2246""
","
","","","","","","973.8000000119209","images/dog2.png","","","memory_trial","4","definitely_new","","","","","","",""
"html-keyboard-response","252","542989","0.0-15.0-0.104","1637","2","""event"",""trial"",""time""
""fullscreenenter"",""1"",""2246""
","
","
","""event"",""trial"",""time""
""fullscreenenter"",""1"",""2246""
","
","","","","","","null","<div style=""font-size:60px;"">+</div>","null","","fixation","","","","","","","","",""
"memory-trial","253","544957","0.0-15.0-1.104","1637","2","""event"",""trial"",""time""
""fullscreenenter"",""1"",""2246""
","
","
","""event"",""trial"",""time""
""fullscreenenter"",""1"",""2246""
","
","","","","","","964.6999999880791","images/goat1.png","","","memory_trial","4","definitely_new","","","","","","",""
"html-keyboard-response","254","545459","0.0-15.0-0.105","1637","2","""event"",""trial"",""time""
""fullscreenenter"",""1"",""2246""
","
","
","""event"",""trial"",""time""
""fullscreenenter"",""1"",""2246""
","
","","","","","","null","<div style=""font-size:60px;"">+</div>","null","","fixation","","","","","","","","",""
"memory-trial","255","547117","0.0-15.0-1.105","1637","2","""event"",""trial"",""time""
""fullscreenenter"",""1"",""2246""
","
","
","""event"",""trial"",""time""
""fullscreenenter"",""1"",""2246""
","
","","","","","","655","images/rabbit2.png","","","memory_trial","4","definitely_new","","","","","","",""
"html-keyboard-response","256","547618","0.0-15.0-0.106","1637","2","""event"",""trial"",""time""
""fullscreenenter"",""1"",""2246""
","
","
","""event"",""trial"",""time""
""fullscreenenter"",""1"",""2246""
","
","","","","","","null","<div style=""font-size:60px;"">+</div>","null","","fixation","","","","","","","","",""
"memory-trial","257","550372","0.0-15.0-1.106","1637","2","""event"",""trial"",""time""
""fullscreenenter"",""1"",""2246""
","
","
","""event"",""trial"",""time""
""fullscreenenter"",""1"",""2246""
","
","","","","","","1749.699999988079","images/orange1.png","","","memory_trial","2","maybe_old","","","","","","",""
"html-keyboard-response","258","550873","0.0-15.0-0.107","1637","2","""event"",""trial"",""time""
""fullscreenenter"",""1"",""2246""
","
","
","""event"",""trial"",""time""
""fullscreenenter"",""1"",""2246""
","
","","","","","","null","<div style=""font-size:60px;"">+</div>","null","","fixation","","","","","","","","",""
"memory-trial","259","553464","0.0-15.0-1.107","1637","2","""event"",""trial"",""time""
""fullscreenenter"",""1"",""2246""
","
","
","""event"",""trial"",""time""
""fullscreenenter"",""1"",""2246""
","
","","","","","","1589.0999999642372","images/bush3.png","","","memory_trial","4","definitely_new","","","","","","",""
"html-keyboard-response","260","553966","0.0-15.0-0.108","1637","2","""event"",""trial"",""time""
""fullscreenenter"",""1"",""2246""
","
","
","""event"",""trial"",""time""
""fullscreenenter"",""1"",""2246""
","
","","","","","","null","<div style=""font-size:60px;"">+</div>","null","","fixation","","","","","","","","",""
"memory-trial","261","556786","0.0-15.0-1.108","1637","2","""event"",""trial"",""time""
""fullscreenenter"",""1"",""2246""
","
","
","""event"",""trial"",""time""
""fullscreenenter"",""1"",""2246""
","
","","","","","","1817.0999999642372","images/apple3.png","","","memory_trial","4","definitely_new","","","","","","",""
"html-keyboard-response","262","557288","0.0-15.0-0.109","1637","2","""event"",""trial"",""time""
""fullscreenenter"",""1"",""2246""
","
","
","""event"",""trial"",""time""
""fullscreenenter"",""1"",""2246""
","
","","","","","","null","<div style=""font-size:60px;"">+</div>","null","","fixation","","","","","","","","",""
"memory-trial","263","559888","0.0-15.0-1.109","1637","2","""event"",""trial"",""time""
""fullscreenenter"",""1"",""2246""
","
","
","""event"",""trial"",""time""
""fullscreenenter"",""1"",""2246""
","
","","","","","","1596.6000000238419","images/cactus1.png","","","memory_trial","2","maybe_old","","","","","","",""
"html-keyboard-response","264","560391","0.0-15.0-0.110","1637","2","""event"",""trial"",""time""
""fullscreenenter"",""1"",""2246""
","
","
","""event"",""trial"",""time""
""fullscreenenter"",""1"",""2246""
","
","","","","","","null","<div style=""font-size:60px;"">+</div>","null","","fixation","","","","","","","","",""
"memory-trial","265","562148","0.0-15.0-1.110","1637","2","""event"",""trial"",""time""
""fullscreenenter"",""1"",""2246""
","
","
","""event"",""trial"",""time""
""fullscreenenter"",""1"",""2246""
","
","","","","","","753.1000000238419","images/horse3.png","","","memory_trial","4","definitely_new","","","","","","",""
"html-keyboard-response","266","562650","0.0-15.0-0.111","1637","2","""event"",""trial"",""time""
""fullscreenenter"",""1"",""2246""
","
","
","""event"",""trial"",""time""
""fullscreenenter"",""1"",""2246""
","
","","","","","","null","<div style=""font-size:60px;"">+</div>","null","","fixation","","","","","","","","",""
"memory-trial","267","566970","0.0-15.0-1.111","1637","2","""event"",""trial"",""time""
""fullscreenenter"",""1"",""2246""
","
","
","""event"",""trial"",""time""
""fullscreenenter"",""1"",""2246""
","
","","","","","","3316.100000023842","images/banana5.png","","","memory_trial","1","definitely_old","","","","","","",""
"html-keyboard-response","268","567471","0.0-15.0-0.112","1637","2","""event"",""trial"",""time""
""fullscreenenter"",""1"",""2246""
","
","
","""event"",""trial"",""time""
""fullscreenenter"",""1"",""2246""
","
","","","","","","null","<div style=""font-size:60px;"">+</div>","null","","fixation","","","","","","","","",""
"memory-trial","269","569399","0.0-15.0-1.112","1637","2","""event"",""trial"",""time""
""fullscreenenter"",""1"",""2246""
","
","
","""event"",""trial"",""time""
""fullscreenenter"",""1"",""2246""
","
","","","","","","925.1999999880791","images/feline1.png","","","memory_trial","4","definitely_new","","","","","","",""
"html-keyboard-response","270","569901","0.0-15.0-0.113","1637","2","""event"",""trial"",""time""
""fullscreenenter"",""1"",""2246""
","
","
","""event"",""trial"",""time""
""fullscreenenter"",""1"",""2246""
","
","","","","","","null","<div style=""font-size:60px;"">+</div>","null","","fixation","","","","","","","","",""
"memory-trial","271","573406","0.0-15.0-1.113","1637","2","""event"",""trial"",""time""
""fullscreenenter"",""1"",""2246""
","
","
","""event"",""trial"",""time""
""fullscreenenter"",""1"",""2246""
","
","","","","","","2501.300000011921","images/plane4.png","","","memory_trial","3","maybe_new","","","","","","",""
"html-keyboard-response","272","573908","0.0-15.0-0.114","1637","2","""event"",""trial"",""time""
""fullscreenenter"",""1"",""2246""
","
","
","""event"",""trial"",""time""
""fullscreenenter"",""1"",""2246""
","
","","","","","","null","<div style=""font-size:60px;"">+</div>","null","","fixation","","","","","","","","",""
"memory-trial","273","575763","0.0-15.0-1.114","1637","2","""event"",""trial"",""time""
""fullscreenenter"",""1"",""2246""
","
","
","""event"",""trial"",""time""
""fullscreenenter"",""1"",""2246""
","
","","","","","","851.1999999880791","images/dog3.png","","","memory_trial","4","definitely_new","","","","","","",""
"html-keyboard-response","274","576264","0.0-15.0-0.115","1637","2","""event"",""trial"",""time""
""fullscreenenter"",""1"",""2246""
","
","
","""event"",""trial"",""time""
""fullscreenenter"",""1"",""2246""
","
","","","","","","null","<div style=""font-size:60px;"">+</div>","null","","fixation","","","","","","","","",""
"memory-trial","275","578040","0.0-15.0-1.115","1637","2","""event"",""trial"",""time""
""fullscreenenter"",""1"",""2246""
","
","
","""event"",""trial"",""time""
""fullscreenenter"",""1"",""2246""
","
","","","","","","772.3000000119209","images/bed2.png","","","memory_trial","4","definitely_new","","","","","","",""
"html-keyboard-response","276","578541","0.0-15.0-0.116","1637","2","""event"",""trial"",""time""
""fullscreenenter"",""1"",""2246""
","
","
","""event"",""trial"",""time""
""fullscreenenter"",""1"",""2246""
","
","","","","","","null","<div style=""font-size:60px;"">+</div>","null","","fixation","","","","","","","","",""
"memory-trial","277","580285","0.0-15.0-1.116","1637","2","""event"",""trial"",""time""
""fullscreenenter"",""1"",""2246""
","
","
","""event"",""trial"",""time""
""fullscreenenter"",""1"",""2246""
","
","","","","","","740.8999999761581","images/rabbit5.png","","","memory_trial","4","definitely_new","","","","","","",""
"html-keyboard-response","278","580786","0.0-15.0-0.117","1637","2","""event"",""trial"",""time""
""fullscreenenter"",""1"",""2246""
","
","
","""event"",""trial"",""time""
""fullscreenenter"",""1"",""2246""
","
","","","","","","null","<div style=""font-size:60px;"">+</div>","null","","fixation","","","","","","","","",""
"memory-trial","279","583237","0.0-15.0-1.117","1637","2","""event"",""trial"",""time""
""fullscreenenter"",""1"",""2246""
","
","
","""event"",""trial"",""time""
""fullscreenenter"",""1"",""2246""
","
","","","","","","1447.699999988079","images/chair5.png","","","memory_trial","4","definitely_new","","","","","","",""
"html-keyboard-response","280","583739","0.0-15.0-0.118","1637","2","""event"",""trial"",""time""
""fullscreenenter"",""1"",""2246""
","
","
","""event"",""trial"",""time""
""fullscreenenter"",""1"",""2246""
","
","","","","","","null","<div style=""font-size:60px;"">+</div>","null","","fixation","","","","","","","","",""
"memory-trial","281","585950","0.0-15.0-1.118","1637","2","""event"",""trial"",""time""
""fullscreenenter"",""1"",""2246""
","
","
","""event"",""trial"",""time""
""fullscreenenter"",""1"",""2246""
","
","","","","","","1207.2000000476837","images/straw1.png","","","memory_trial","4","definitely_new","","","","","","",""
"html-keyboard-response","282","586451","0.0-15.0-0.119","1637","2","""event"",""trial"",""time""
""fullscreenenter"",""1"",""2246""
","
","
","""event"",""trial"",""time""
""fullscreenenter"",""1"",""2246""
","
","","","","","","null","<div style=""font-size:60px;"">+</div>","null","","fixation","","","","","","","","",""
"memory-trial","283","588368","0.0-15.0-1.119","1637","2","""event"",""trial"",""time""
""fullscreenenter"",""1"",""2246""
","
","
","""event"",""trial"",""time""
""fullscreenenter"",""1"",""2246""
","
","","","","","","914.8000000119209","images/plane2.png","","","memory_trial","4","definitely_new","","","","","","",""
"preload","284","597494","0.0-16.0","1637","2","""event"",""trial"",""time""
""fullscreenenter"",""1"",""2246""
","
","
","""event"",""trial"",""time""
""fullscreenenter"",""1"",""2246""
","
","true","false","[]","[]","[]","","","","","","","","","","","","","",""
"learning-instructions","285","603020","0.0-17.0-0.0-0.0-0.0","1637","2","""event"",""trial"",""time""
""fullscreenenter"",""1"",""2246""
","
","
","""event"",""trial"",""time""
""fullscreenenter"",""1"",""2246""
","
","","","","","","1677","<p> We're now going to ask you to buy fruit again. </p>","","0","instructions","","","","","","","","",""
"learning-instructions","286","608533","0.0-17.0-0.0-0.0-0.1","1637","2","""event"",""trial"",""time""
""fullscreenenter"",""1"",""2246""
","
","
","""event"",""trial"",""time""
""fullscreenenter"",""1"",""2246""
","
","","","","","","660.3999999761581","<p> On each trial, you will see a fruit. Select the store where you think you can buy the fruit. </p>","","0","instructions","","","","","","","","",""
"learning-instructions","287","616455","0.0-17.0-0.0-0.0-0.2","1637","2","""event"",""trial"",""time""
""fullscreenenter"",""1"",""2246""
","
","
","""event"",""trial"",""time""
""fullscreenenter"",""1"",""2246""
","
","","","","","","852.1999999880791","<p> To make your selection, think about what you learned last week. You will NOT receive any feedback about your choice. </p>","","0","instructions","","","","","","","","",""
"learning-instructions","288","624587","0.0-17.0-0.0-0.0-0.3","1637","2","""event"",""trial"",""time""
""fullscreenenter"",""1"",""2246""
","
","
","""event"",""trial"",""time""
""fullscreenenter"",""1"",""2246""
","
","","","","","","533.8000000119209","<p> You should use the 1 key to select the store on the left, the 2 key to select the store in the middle, and the 3 key to select the store on the right. </p><br><div class=""choice-mem-instructions-grid""> <div class=""choice-mem-option""><img src=""images/fruit_choice1.png"" class=""choice-mem-option-img"" stage=""instructions"" position=""0"" ><div class=""choice-mem-option-text""> Press ""1."" </div></div><div class=""choice-mem-option""><img src=""images/fruit_choice2.png"" class=""choice-mem-option-img"" stage=""instructions"" position=""1"" ><div class=""choice-mem-option-text""> Press ""2."" </div></div><div class=""choice-mem-option""><img src=""images/fruit_choice3.png"" class=""choice-mem-option-img"" stage=""instructions"" position=""2"" ><div class=""choice-mem-option-text""> Press ""3."" </div></div></div>","","0","instructions","","","","","","","","",""
"learning-instructions","289","632058","0.0-17.0-0.0-0.0-0.4","1637","2","""event"",""trial"",""time""
""fullscreenenter"",""1"",""2246""
","
","
","""event"",""trial"",""time""
""fullscreenenter"",""1"",""2246""
","
","","","","","","1195.3999999761581","<p> You will have 10 seconds to make each selection. Try to respond before time runs out! </p>","","0","instructions","","","","","","","","",""
"learning-instructions","290","636066","0.0-17.0-0.0-1.0","1637","2","""event"",""trial"",""time""
""fullscreenenter"",""1"",""2246""
","
","
","""event"",""trial"",""time""
""fullscreenenter"",""1"",""2246""
","
","","","","","","1943.5","<p> You are now ready to begin the game. </p>","","0","instructions","","","","","","","","",""
"html-keyboard-response","291","636671","0.0-17.0-0.0-2.0-0.0","1637","2","""event"",""trial"",""time""
""fullscreenenter"",""1"",""2246""
","
","
","""event"",""trial"",""time""
""fullscreenenter"",""1"",""2246""
","
","","","","","","null","<div style=""font-size:60px;"">+</div>","null","","fixation","","","","","","","","",""
"choice-memory-trial","292","639168","0.0-17.0-0.0-2.0-1.0","1637","2","""event"",""trial"",""time""
""fullscreenenter"",""1"",""2246""
","
","
","""event"",""trial"",""time""
""fullscreenenter"",""1"",""2246""
","
