"trial_type","trial_index","time_elapsed","internal_node_id","subject_id","task_version","interactions","blur_events","focus_events","fullscreenenter_events","fullscreenexit_events","success","timeout","failed_images","failed_audio","failed_video","rt","stimulus","response","button_pressed","task_part","key_press","answer","correct","left_choice","middle_choice","right_choice","choice_positions","option_selected","block"
"pavlovia","0","6","0.0-0.0","1897","2","""event"",""trial"",""time""
""fullscreenenter"",""1"",""1713""
","
","
","""event"",""trial"",""time""
""fullscreenenter"",""1"",""1713""
","
","","","","","","","","","","","","","","","","","","",""
"fullscreen","1","2674","0.0-1.0","1897","2","""event"",""trial"",""time""
""fullscreenenter"",""1"",""1713""
","
","
","""event"",""trial"",""time""
""fullscreenenter"",""1"",""1713""
","
","true","","","","","","","","","","","","","","","","","",""
"preload","2","2759","0.0-2.0","1897","2","""event"",""trial"",""time""
""fullscreenenter"",""1"",""1713""
","
","
","""event"",""trial"",""time""
""fullscreenenter"",""1"",""1713""
","
","true","false","[]","[]","[]","","","","","","","","","","","","","",""
"audio-keyboard-response","3","10332","0.0-3.0","1897","2","""event"",""trial"",""time""
""fullscreenenter"",""1"",""1713""
","
","
","""event"",""trial"",""time""
""fullscreenenter"",""1"",""1713""
","
","","","","","","7570.666666666667","audio/beep_loop.wav"," ","","","","","","","","","","",""
"audio-button-response","4","12348","0.0-4.0","1897","2","""event"",""trial"",""time""
""fullscreenenter"",""1"",""1713""
","
","
","""event"",""trial"",""time""
""fullscreenenter"",""1"",""1713""
","
","","","","","","2011","audio/turtle.wav","3","","","","","","","","","","",""
"audio-button-response","5","14478","0.0-5.0","1897","2","""event"",""trial"",""time""
""fullscreenenter"",""1"",""1713""
","
","
","""event"",""trial"",""time""
""fullscreenenter"",""1"",""1713""
","
","","","","","","1131","audio/shark.wav","2","","","","","","","","","","",""
"preload","6","15921","0.0-6.0","1897","2","""event"",""trial"",""time""
""fullscreenenter"",""1"",""1713""
","
","
","""event"",""trial"",""time""
""fullscreenenter"",""1"",""1713""
","
","true","false","[]","[]","[]","","","","","","","","","","","","","",""
"learning-instructions","7","24718","0.0-7.0-0.0","1897","2","""event"",""trial"",""time""
""fullscreenenter"",""1"",""1713""
","
","
","""event"",""trial"",""time""
""fullscreenenter"",""1"",""1713""
","
","","","","","","3992","<p> Welcome back! </p><p> Last week, you had to make choices about lots of different items.  </p>","","0","instructions","","","","","","","","",""
"learning-instructions","8","30651","0.0-7.0-0.1","1897","2","""event"",""trial"",""time""
""fullscreenenter"",""1"",""1713""
","
","
","""event"",""trial"",""time""
""fullscreenenter"",""1"",""1713""
","
","","","","","","1625","<p> Today, we are going to ask you to try to remember all the items. </p>","","0","instructions","","","","","","","","",""
"learning-instructions","9","41391","0.0-7.0-0.2","1897","2","""event"",""trial"",""time""
""fullscreenenter"",""1"",""1713""
","
","
","""event"",""trial"",""time""
""fullscreenenter"",""1"",""1713""
","
","","","","","","595.5","<p> On every trial, you will see an image. </p><p> The image may be an OLD image you saw during the games last week or it may be a NEW image that was not presented. </p>","","0","instructions","","","","","","","","",""
"learning-instructions","10","50585","0.0-7.0-0.3","1897","2","""event"",""trial"",""time""
""fullscreenenter"",""1"",""1713""
","
","
","""event"",""trial"",""time""
""fullscreenenter"",""1"",""1713""
","
","","","","","","699.8000000119209","<p> You need to select whether the image is:  </p><p>  'Definitely old', 'Maybe old', 'Maybe new', or 'Definitely new.'  </p><div class=""mem-choice-instructions-grid""><div class=""choice-option"" id=""choice-option-1"" ><img src=""images/definitely_old_1.png"" id=""choice-option-img-1"" class=""choice-option-img"" stage=""1""></div><div class=""choice-option"" id=""choice-option-2"" ><img src=""images/maybe_old_1.png"" id=""choice-option-img-2"" class=""choice-option-img"" stage=""1""></div><div class=""choice-option"" id=""choice-option-3"" ><img src=""images/maybe_new_1.png"" id=""choice-option-img-3"" class=""choice-option-img"" stage=""1""></div><div class=""choice-option"" id=""choice-option-4"" > <img src=""images/definitely_new_1.png"" id=""choice-option-img-4"" class=""choice-option-img"" stage=""1""></div></div>","","0","instructions","","","","","","","","",""
"learning-instructions","11","57854","0.0-7.0-0.4","1897","2","""event"",""trial"",""time""
""fullscreenenter"",""1"",""1713""
","
","
","""event"",""trial"",""time""
""fullscreenenter"",""1"",""1713""
","
","","","","","","567.6000000238419","<p> You should use the 1, 2, 3, and 4 keys to make your responses.  </p><div class=""mem-choice-instructions-grid""><div class=""choice-option"" id=""choice-option-1"" ><img src=""images/definitely_old.png"" id=""choice-option-img-1"" class=""choice-option-img"" stage=""1""></div><div class=""choice-option"" id=""choice-option-2"" ><img src=""images/maybe_old.png"" id=""choice-option-img-2"" class=""choice-option-img"" stage=""1""></div><div class=""choice-option"" id=""choice-option-3"" ><img src=""images/maybe_new.png"" id=""choice-option-img-3"" class=""choice-option-img"" stage=""1""></div><div class=""choice-option"" id=""choice-option-4"" > <img src=""images/definitely_new.png"" id=""choice-option-img-4"" class=""choice-option-img"" stage=""1""></div></div>","","0","instructions","","","","","","","","",""
"learning-instructions","12","65099","0.0-7.0-0.5","1897","2","""event"",""trial"",""time""
""fullscreenenter"",""1"",""1713""
","
","
","""event"",""trial"",""time""
""fullscreenenter"",""1"",""1713""
","
","","","","","","482.9000000357628","<p> You will have 10 seconds to make each response.  </p><p>  Make sure to respond before time runs out! </p>","","0","instructions","","","","","","","","",""
"learning-instructions","13","73318","0.0-7.0-0.6","1897","2","""event"",""trial"",""time""
""fullscreenenter"",""1"",""1713""
","
","
","""event"",""trial"",""time""
""fullscreenenter"",""1"",""1713""
","
","","","","","","632","<p> Today, you will see each image ONCE only.  </p><p>  That means none of the images will repeat. </p>","","0","instructions","","","","","","","","",""
"learning-instructions","14","86766","0.0-7.0-0.7","1897","2","""event"",""trial"",""time""
""fullscreenenter"",""1"",""1713""
","
","
","""event"",""trial"",""time""
""fullscreenenter"",""1"",""1713""
","
","","","","","","769.6000000238419","<p> Before you play the real game, it is time to practice. </p><p>  Just like in the real game, some of the images in the practice will be ones you have seen before. </p><p>  Others will be entirely new. </p>","","0","instructions","","","","","","","","",""
"html-button-response","15","89068","0.0-8.0","1897","2","""event"",""trial"",""time""
""fullscreenenter"",""1"",""1713""
","
","
","""event"",""trial"",""time""
""fullscreenenter"",""1"",""1713""
","
","","","","","","2186.899999976158","<p> Ready to practice? </p><p> Remember, use the 1, 2, 3, and 4 keys to make your responses. </p>","0","","instructions","","","","","","","","",""
"html-keyboard-response","16","89696","0.0-9.0-0.0","1897","2","""event"",""trial"",""time""
""fullscreenenter"",""1"",""1713""
","
","
","""event"",""trial"",""time""
""fullscreenenter"",""1"",""1713""
","
","","","","","","null","<div style=""font-size:60px;"">+</div>","null","","fixation","","","","","","","","",""
"memory-trial","17","95805","0.0-9.0-1.0","1897","2","""event"",""trial"",""time""
""fullscreenenter"",""1"",""1713""
","
","
","""event"",""trial"",""time""
""fullscreenenter"",""1"",""1713""
","
","","","","","","5095.199999988079","images/racket4.png","","","practice","4","definitely_new","","","","","","",""
"html-keyboard-response","18","96325","0.0-9.0-0.1","1897","2","""event"",""trial"",""time""
""fullscreenenter"",""1"",""1713""
","
","
","""event"",""trial"",""time""
""fullscreenenter"",""1"",""1713""
","
","","","","","","null","<div style=""font-size:60px;"">+</div>","null","","fixation","","","","","","","","",""
"memory-trial","19","103632","0.0-9.0-1.1","1897","2","""event"",""trial"",""time""
""fullscreenenter"",""1"",""1713""
","
","
","""event"",""trial"",""time""
""fullscreenenter"",""1"",""1713""
","
","","","","","","6297.900000035763","images/ball3.png","","","practice","1","definitely_old","","","","","","",""
"html-keyboard-response","20","104155","0.0-9.0-0.2","1897","2","""event"",""trial"",""time""
""fullscreenenter"",""1"",""1713""
","
","
","""event"",""trial"",""time""
""fullscreenenter"",""1"",""1713""
","
","","","","","","null","<div style=""font-size:60px;"">+</div>","null","","fixation","","","","","","","","",""
"memory-trial","21","106636","0.0-9.0-1.2","1897","2","""event"",""trial"",""time""
""fullscreenenter"",""1"",""1713""
","
","
","""event"",""trial"",""time""
""fullscreenenter"",""1"",""1713""
","
","","","","","","1475.7999999523163","images/ball2.png","","","practice","1","definitely_old","","","","","","",""
"html-keyboard-response","22","107139","0.0-9.0-0.3","1897","2","""event"",""trial"",""time""
""fullscreenenter"",""1"",""1713""
","
","
","""event"",""trial"",""time""
""fullscreenenter"",""1"",""1713""
","
","","","","","","null","<div style=""font-size:60px;"">+</div>","null","","fixation","","","","","","","","",""
"memory-trial","23","111665","0.0-9.0-1.3","1897","2","""event"",""trial"",""time""
""fullscreenenter"",""1"",""1713""
","
","
","""event"",""trial"",""time""
""fullscreenenter"",""1"",""1713""
","
","","","","","","3513.300000011921","images/racket3.png","","","practice","1","definitely_old","","","","","","",""
"html-keyboard-response","24","112185","0.0-9.0-0.4","1897","2","""event"",""trial"",""time""
""fullscreenenter"",""1"",""1713""
","
","
","""event"",""trial"",""time""
""fullscreenenter"",""1"",""1713""
","
","","","","","","null","<div style=""font-size:60px;"">+</div>","null","","fixation","","","","","","","","",""
"memory-trial","25","115295","0.0-9.0-1.4","1897","2","""event"",""trial"",""time""
""fullscreenenter"",""1"",""1713""
","
","
","""event"",""trial"",""time""
""fullscreenenter"",""1"",""1713""
","
","","","","","","2096.899999976158","images/ball4.png","","","practice","4","definitely_new","","","","","","",""
"html-keyboard-response","26","115805","0.0-9.0-0.5","1897","2","""event"",""trial"",""time""
""fullscreenenter"",""1"",""1713""
","
","
","""event"",""trial"",""time""
""fullscreenenter"",""1"",""1713""
","
","","","","","","null","<div style=""font-size:60px;"">+</div>","null","","fixation","","","","","","","","",""
"memory-trial","27","119655","0.0-9.0-1.5","1897","2","""event"",""trial"",""time""
""fullscreenenter"",""1"",""1713""
","
","
","""event"",""trial"",""time""
""fullscreenenter"",""1"",""1713""
","
","","","","","","2845.899999976158","images/racket2.png","","","practice","1","definitely_old","","","","","","",""
"html-keyboard-response","28","120157","0.0-9.0-0.6","1897","2","""event"",""trial"",""time""
""fullscreenenter"",""1"",""1713""
","
","
","""event"",""trial"",""time""
""fullscreenenter"",""1"",""1713""
","
","","","","","","null","<div style=""font-size:60px;"">+</div>","null","","fixation","","","","","","","","",""
"memory-trial","29","123755","0.0-9.0-1.6","1897","2","""event"",""trial"",""time""
""fullscreenenter"",""1"",""1713""
","
","
","""event"",""trial"",""time""
""fullscreenenter"",""1"",""1713""
","
","","","","","","2593.199999988079","images/racket1.png","","","practice","4","definitely_new","","","","","","",""
"html-keyboard-response","30","124258","0.0-9.0-0.7","1897","2","""event"",""trial"",""time""
""fullscreenenter"",""1"",""1713""
","
","
","""event"",""trial"",""time""
""fullscreenenter"",""1"",""1713""
","
","","","","","","null","<div style=""font-size:60px;"">+</div>","null","","fixation","","","","","","","","",""
"memory-trial","31","126717","0.0-9.0-1.7","1897","2","""event"",""trial"",""time""
""fullscreenenter"",""1"",""1713""
","
","
","""event"",""trial"",""time""
""fullscreenenter"",""1"",""1713""
","
","","","","","","1451.800000011921","images/ball1.png","","","practice","1","definitely_old","","","","","","",""
"learning-instructions","32","138337","0.0-10.0-0.0","1897","2","""event"",""trial"",""time""
""fullscreenenter"",""1"",""1713""
","
","
","""event"",""trial"",""time""
""fullscreenenter"",""1"",""1713""
","
","","","","","","3482.400000035763","<p> Great! You have completed the practice. </p><p> Before you start, we're going to ask you a few questions about how the game works.  </p>","","0","instructions","","","","","","","","",""
"preload","33","138759","0.0-11.0","1897","2","""event"",""trial"",""time""
""fullscreenenter"",""1"",""1713""
","
","
","""event"",""trial"",""time""
""fullscreenenter"",""1"",""1713""
","
","true","false","[]","[]","[]","","","","","","","","","","","","","",""
"comp-q","34","146818","0.0-12.0-0.0","1897","2","""event"",""trial"",""time""
""fullscreenenter"",""1"",""1713""
","
","
","""event"",""trial"",""time""
""fullscreenenter"",""1"",""1713""
","
","","","","","","2233.7000000476837","<p> <b> True or False? </b> </p><p> In this game, you will only see each image once. </p>","","0","comp_question","","","true","","","","","",""
"comp-q","35","155098","0.0-12.0-1.0","1897","2","""event"",""trial"",""time""
""fullscreenenter"",""1"",""1713""
","
","
","""event"",""trial"",""time""
""fullscreenenter"",""1"",""1713""
","
","","","","","","1933.8999999761581","<p> <b> That's right! </b> You will see many different images <i> one time each </i> in this game. </p>","","0","comp_answer","","","","","","","","",""
"comp-q","36","162163","0.0-12.0-0.1","1897","2","""event"",""trial"",""time""
""fullscreenenter"",""1"",""1713""
","
","
","""event"",""trial"",""time""
""fullscreenenter"",""1"",""1713""
","
","","","","","","1249.199999988079","<p> <b> True or False? </b> </p><p> You should use the mouse and click to make your response. </p>","","1","comp_question","","","true","","","","","",""
"comp-q","37","170833","0.0-12.0-1.1","1897","2","""event"",""trial"",""time""
""fullscreenenter"",""1"",""1713""
","
","
","""event"",""trial"",""time""
""fullscreenenter"",""1"",""1713""
","
","","","","","","1298.8999999761581","<p><b> That's right! </b> You should use the '1', '2', '3', and '4' keys to make your response. </p>","","0","comp_answer","","","","","","","","",""
"comp-q","38","178528","0.0-12.0-0.2","1897","2","""event"",""trial"",""time""
""fullscreenenter"",""1"",""1713""
","
","
","""event"",""trial"",""time""
""fullscreenenter"",""1"",""1713""
","
","","","","","","1684.0999999642372","<p> <b> True or False? </b> </p><p> You will have as much time as you want to make each choice. </p>","","1","comp_question","","","true","","","","","",""
"comp-q","39","185248","0.0-12.0-1.2","1897","2","""event"",""trial"",""time""
""fullscreenenter"",""1"",""1713""
","
","
","""event"",""trial"",""time""
""fullscreenenter"",""1"",""1713""
","
","","","","","","1314.0999999642372","<p> <b> That's right! </b> You will only have 10 seconds to make each choice. </p>","","0","comp_answer","","","","","","","","",""
"learning-instructions","40","197263","0.0-13.0","1897","2","""event"",""trial"",""time""
""fullscreenenter"",""1"",""1713""
","
","
","""event"",""trial"",""time""
""fullscreenenter"",""1"",""1713""
","
","","","","","","3338.800000011921","<p> Great! You are now ready to begin the game. </p><p> Remember, use the 1, 2, 3, and 4 keys to make your responses. </p>","","0","instructions","","","","","","","","",""
"preload","41","197704","0.0-14.0","1897","2","""event"",""trial"",""time""
""fullscreenenter"",""1"",""1713""
","
","
","""event"",""trial"",""time""
""fullscreenenter"",""1"",""1713""
","
","true","false","[]","[]","[]","","","","","","","","","","","","","",""
"html-keyboard-response","42","198213","0.0-15.0-0.0","1897","2","""event"",""trial"",""time""
""fullscreenenter"",""1"",""1713""
","
","
","""event"",""trial"",""time""
""fullscreenenter"",""1"",""1713""
","
","","","","","","null","<div style=""font-size:60px;"">+</div>","null","","fixation","","","","","","","","",""
"memory-trial","43","201273","0.0-15.0-1.0","1897","2","""event"",""trial"",""time""
""fullscreenenter"",""1"",""1713""
","
","
","""event"",""trial"",""time""
""fullscreenenter"",""1"",""1713""
","
","","","","","","2048.900000035763","images/banana5.png","","","memory_trial","1","definitely_old","","","","","","",""
"html-keyboard-response","44","201793","0.0-15.0-0.1","1897","2","""event"",""trial"",""time""
""fullscreenenter"",""1"",""1713""
","
","
","""event"",""trial"",""time""
""fullscreenenter"",""1"",""1713""
","
","","","","","","null","<div style=""font-size:60px;"">+</div>","null","","fixation","","","","","","","","",""
"memory-trial","45","206292","0.0-15.0-1.1","1897","2","""event"",""trial"",""time""
""fullscreenenter"",""1"",""1713""
","
","
","""event"",""trial"",""time""
""fullscreenenter"",""1"",""1713""
","
","","","","","","3481.300000011921","images/train3.png","","","memory_trial","3","maybe_new","","","","","","",""
"html-keyboard-response","46","206811","0.0-15.0-0.2","1897","2","""event"",""trial"",""time""
""fullscreenenter"",""1"",""1713""
","
","
","""event"",""trial"",""time""
""fullscreenenter"",""1"",""1713""
","
","","","","","","null","<div style=""font-size:60px;"">+</div>","null","","fixation","","","","","","","","",""
"memory-trial","47","210793","0.0-15.0-1.2","1897","2","""event"",""trial"",""time""
""fullscreenenter"",""1"",""1713""
","
","
","""event"",""trial"",""time""
""fullscreenenter"",""1"",""1713""
","
","","","","","","2962.100000023842","images/sheep4.png","","","memory_trial","4","definitely_new","","","","","","",""
"html-keyboard-response","48","211303","0.0-15.0-0.3","1897","2","""event"",""trial"",""time""
""fullscreenenter"",""1"",""1713""
","
","
","""event"",""trial"",""time""
""fullscreenenter"",""1"",""1713""
","
","","","","","","null","<div style=""font-size:60px;"">+</div>","null","","fixation","","","","","","","","",""
"memory-trial","49","213833","0.0-15.0-1.3","1897","2","""event"",""trial"",""time""
""fullscreenenter"",""1"",""1713""
","
","
","""event"",""trial"",""time""
""fullscreenenter"",""1"",""1713""
","
","","","","","","1511.9000000357628","images/tree4.png","","","memory_trial","1","definitely_old","","","","","","",""
"html-keyboard-response","50","214352","0.0-15.0-0.4","1897","2","""event"",""trial"",""time""
""fullscreenenter"",""1"",""1713""
","
","
","""event"",""trial"",""time""
""fullscreenenter"",""1"",""1713""
","
","","","","","","null","<div style=""font-size:60px;"">+</div>","null","","fixation","","","","","","","","",""
"memory-trial","51","216823","0.0-15.0-1.4","1897","2","""event"",""trial"",""time""
""fullscreenenter"",""1"",""1713""
","
","
","""event"",""trial"",""time""
""fullscreenenter"",""1"",""1713""
","
","","","","","","1451.5999999642372","images/goat5.png","","","memory_trial","1","definitely_old","","","","","","",""
"html-keyboard-response","52","217342","0.0-15.0-0.5","1897","2","""event"",""trial"",""time""
""fullscreenenter"",""1"",""1713""
","
","
","""event"",""trial"",""time""
""fullscreenenter"",""1"",""1713""
","
","","","","","","null","<div style=""font-size:60px;"">+</div>","null","","fixation","","","","","","","","",""
"memory-trial","53","224198","0.0-15.0-1.5","1897","2","""event"",""trial"",""time""
""fullscreenenter"",""1"",""1713""
","
","
","""event"",""trial"",""time""
""fullscreenenter"",""1"",""1713""
","
","","","","","","5851.100000023842","images/boat5.png","","","memory_trial","2","maybe_old","","","","","","",""
"html-keyboard-response","54","224701","0.0-15.0-0.6","1897","2","""event"",""trial"",""time""
""fullscreenenter"",""1"",""1713""
","
","
","""event"",""trial"",""time""
""fullscreenenter"",""1"",""1713""
","
","","","","","","null","<div style=""font-size:60px;"">+</div>","null","","fixation","","","","","","","","",""
"memory-trial","55","228851","0.0-15.0-1.6","1897","2","""event"",""trial"",""time""
""fullscreenenter"",""1"",""1713""
","
","
","""event"",""trial"",""time""
""fullscreenenter"",""1"",""1713""
","
","","","","","","3140.800000011921","images/straw5.png","","","memory_trial","1","definitely_old","","","","","","",""
"html-keyboard-response","56","229355","0.0-15.0-0.7","1897","2","""event"",""trial"",""time""
""fullscreenenter"",""1"",""1713""
","
","
","""event"",""trial"",""time""
""fullscreenenter"",""1"",""1713""
","
","","","","","","null","<div style=""font-size:60px;"">+</div>","null","","fixation","","","","","","","","",""
"memory-trial","57","231769","0.0-15.0-1.7","1897","2","""event"",""trial"",""time""
""fullscreenenter"",""1"",""1713""
","
","
","""event"",""trial"",""time""
""fullscreenenter"",""1"",""1713""
","
","","","","","","1409.8999999761581","images/flower5.png","","","memory_trial","4","definitely_new","","","","","","",""
"html-keyboard-response","58","232271","0.0-15.0-0.8","1897","2","""event"",""trial"",""time""
""fullscreenenter"",""1"",""1713""
","
","
","""event"",""trial"",""time""
""fullscreenenter"",""1"",""1713""
","
","","","","","","null","<div style=""font-size:60px;"">+</div>","null","","fixation","","","","","","","","",""
"memory-trial","59","235871","0.0-15.0-1.8","1897","2","""event"",""trial"",""time""
""fullscreenenter"",""1"",""1713""
","
","
","""event"",""trial"",""time""
""fullscreenenter"",""1"",""1713""
","
","","","","","","2593.5","images/sofa3.png","","","memory_trial","3","maybe_new","","","","","","",""
"html-keyboard-response","60","236375","0.0-15.0-0.9","1897","2","""event"",""trial"",""time""
""fullscreenenter"",""1"",""1713""
","
","
","""event"",""trial"",""time""
""fullscreenenter"",""1"",""1713""
","
","","","","","","null","<div style=""font-size:60px;"">+</div>","null","","fixation","","","","","","","","",""
"memory-trial","61","239600","0.0-15.0-1.9","1897","2","""event"",""trial"",""time""
""fullscreenenter"",""1"",""1713""
","
","
","""event"",""trial"",""time""
""fullscreenenter"",""1"",""1713""
","
","","","","","","2216.5","images/feline1.png","","","memory_trial","3","maybe_new","","","","","","",""
"html-keyboard-response","62","240103","0.0-15.0-0.10","1897","2","""event"",""trial"",""time""
""fullscreenenter"",""1"",""1713""
","
","
","""event"",""trial"",""time""
""fullscreenenter"",""1"",""1713""
","
","","","","","","null","<div style=""font-size:60px;"">+</div>","null","","fixation","","","","","","","","",""
"memory-trial","63","242499","0.0-15.0-1.10","1897","2","""event"",""trial"",""time""
""fullscreenenter"",""1"",""1713""
","
","
","""event"",""trial"",""time""
""fullscreenenter"",""1"",""1713""
","
","","","","","","1388.199999988079","images/tree1.png","","","memory_trial","4","definitely_new","","","","","","",""
"html-keyboard-response","64","243001","0.0-15.0-0.11","1897","2","""event"",""trial"",""time""
""fullscreenenter"",""1"",""1713""
","
","
","""event"",""trial"",""time""
""fullscreenenter"",""1"",""1713""
","
","","","","","","null","<div style=""font-size:60px;"">+</div>","null","","fixation","","","","","","","","",""
"memory-trial","65","245079","0.0-15.0-1.11","1897","2","""event"",""trial"",""time""
""fullscreenenter"",""1"",""1713""
","
","
","""event"",""trial"",""time""
""fullscreenenter"",""1"",""1713""
","
","","","","","","1071.8999999761581","images/sofa5.png","","","memory_trial","4","definitely_new","","","","","","",""
"html-keyboard-response","66","245581","0.0-15.0-0.12","1897","2","""event"",""trial"",""time""
""fullscreenenter"",""1"",""1713""
","
","
","""event"",""trial"",""time""
""fullscreenenter"",""1"",""1713""
","
","","","","","","null","<div style=""font-size:60px;"">+</div>","null","","fixation","","","","","","","","",""
"memory-trial","67","247748","0.0-15.0-1.12","1897","2","""event"",""trial"",""time""
""fullscreenenter"",""1"",""1713""
","
","
","""event"",""trial"",""time""
""fullscreenenter"",""1"",""1713""
","
","","","","","","1162.2999999523163","images/truck4.png","","","memory_trial","4","definitely_new","","","","","","",""
"html-keyboard-response","68","248250","0.0-15.0-0.13","1897","2","""event"",""trial"",""time""
""fullscreenenter"",""1"",""1713""
","
","
","""event"",""trial"",""time""
""fullscreenenter"",""1"",""1713""
","
","","","","","","null","<div style=""font-size:60px;"">+</div>","null","","fixation","","","","","","","","",""
"memory-trial","69","250337","0.0-15.0-1.13","1897","2","""event"",""trial"",""time""
""fullscreenenter"",""1"",""1713""
","
","
","""event"",""trial"",""time""
""fullscreenenter"",""1"",""1713""
","
","","","","","","1082.8999999761581","images/sheep3.png","","","memory_trial","4","definitely_new","","","","","","",""
"html-keyboard-response","70","250839","0.0-15.0-0.14","1897","2","""event"",""trial"",""time""
""fullscreenenter"",""1"",""1713""
","
","
","""event"",""trial"",""time""
""fullscreenenter"",""1"",""1713""
","
","","","","","","null","<div style=""font-size:60px;"">+</div>","null","","fixation","","","","","","","","",""
"memory-trial","71","252877","0.0-15.0-1.14","1897","2","""event"",""trial"",""time""
""fullscreenenter"",""1"",""1713""
","
","
","""event"",""trial"",""time""
""fullscreenenter"",""1"",""1713""
","
","","","","","","1031.0999999642372","images/rodent3.png","","","memory_trial","4","definitely_new","","","","","","",""
"html-keyboard-response","72","253380","0.0-15.0-0.15","1897","2","""event"",""trial"",""time""
""fullscreenenter"",""1"",""1713""
","
","
","""event"",""trial"",""time""
""fullscreenenter"",""1"",""1713""
","
","","","","","","null","<div style=""font-size:60px;"">+</div>","null","","fixation","","","","","","","","",""
"memory-trial","73","255860","0.0-15.0-1.15","1897","2","""event"",""trial"",""time""
""fullscreenenter"",""1"",""1713""
","
","
","""event"",""trial"",""time""
""fullscreenenter"",""1"",""1713""
","
","","","","","","1474.800000011921","images/rabbit5.png","","","memory_trial","1","definitely_old","","","","","","",""
"html-keyboard-response","74","256362","0.0-15.0-0.16","1897","2","""event"",""trial"",""time""
""fullscreenenter"",""1"",""1713""
","
","
","""event"",""trial"",""time""
""fullscreenenter"",""1"",""1713""
","
","","","","","","null","<div style=""font-size:60px;"">+</div>","null","","fixation","","","","","","","","",""
"memory-trial","75","259230","0.0-15.0-1.16","1897","2","""event"",""trial"",""time""
""fullscreenenter"",""1"",""1713""
","
","
","""event"",""trial"",""time""
""fullscreenenter"",""1"",""1713""
","
","","","","","","1864.5","images/truck1.png","","","memory_trial","1","definitely_old","","","","","","",""
"html-keyboard-response","76","259734","0.0-15.0-0.17","1897","2","""event"",""trial"",""time""
""fullscreenenter"",""1"",""1713""
","
","
","""event"",""trial"",""time""
""fullscreenenter"",""1"",""1713""
","
","","","","","","null","<div style=""font-size:60px;"">+</div>","null","","fixation","","","","","","","","",""
"memory-trial","77","261888","0.0-15.0-1.17","1897","2","""event"",""trial"",""time""
""fullscreenenter"",""1"",""1713""
","
","
","""event"",""trial"",""time""
""fullscreenenter"",""1"",""1713""
","
","","","","","","1148.300000011921","images/truck3.png","","","memory_trial","1","definitely_old","","","","","","",""
"html-keyboard-response","78","262390","0.0-15.0-0.18","1897","2","""event"",""trial"",""time""
""fullscreenenter"",""1"",""1713""
","
","
","""event"",""trial"",""time""
""fullscreenenter"",""1"",""1713""
","
","","","","","","null","<div style=""font-size:60px;"">+</div>","null","","fixation","","","","","","","","",""
"memory-trial","79","264399","0.0-15.0-1.18","1897","2","""event"",""trial"",""time""
""fullscreenenter"",""1"",""1713""
","
","
","""event"",""trial"",""time""
""fullscreenenter"",""1"",""1713""
","
","","","","","","1001.6000000238419","images/table5.png","","","memory_trial","1","definitely_old","","","","","","",""
"html-keyboard-response","80","264901","0.0-15.0-0.19","1897","2","""event"",""trial"",""time""
""fullscreenenter"",""1"",""1713""
","
","
","""event"",""trial"",""time""
""fullscreenenter"",""1"",""1713""
","
","","","","","","null","<div style=""font-size:60px;"">+</div>","null","","fixation","","","","","","","","",""
"memory-trial","81","267348","0.0-15.0-1.19","1897","2","""event"",""trial"",""time""
""fullscreenenter"",""1"",""1713""
","
","
","""event"",""trial"",""time""
""fullscreenenter"",""1"",""1713""
","
","","","","","","1441.6000000238419","images/bush3.png","","","memory_trial","1","definitely_old","","","","","","",""
"html-keyboard-response","82","267850","0.0-15.0-0.20","1897","2","""event"",""trial"",""time""
""fullscreenenter"",""1"",""1713""
","
","
","""event"",""trial"",""time""
""fullscreenenter"",""1"",""1713""
","
","","","","","","null","<div style=""font-size:60px;"">+</div>","null","","fixation","","","","","","","","",""
"memory-trial","83","270418","0.0-15.0-1.20","1897","2","""event"",""trial"",""time""
""fullscreenenter"",""1"",""1713""
","
","
","""event"",""trial"",""time""
""fullscreenenter"",""1"",""1713""
","
","","","","","","1566.300000011921","images/dog3.png","","","memory_trial","4","definitely_new","","","","","","",""
"html-keyboard-response","84","270921","0.0-15.0-0.21","1897","2","""event"",""trial"",""time""
""fullscreenenter"",""1"",""1713""
","
","
","""event"",""trial"",""time""
""fullscreenenter"",""1"",""1713""
","
","","","","","","null","<div style=""font-size:60px;"">+</div>","null","","fixation","","","","","","","","",""
"memory-trial","85","276069","0.0-15.0-1.21","1897","2","""event"",""trial"",""time""
""fullscreenenter"",""1"",""1713""
","
","
","""event"",""trial"",""time""
""fullscreenenter"",""1"",""1713""
","
","","","","","","4142.5","images/banana2.png","","","memory_trial","3","maybe_new","","","","","","",""
"html-keyboard-response","86","276572","0.0-15.0-0.22","1897","2","""event"",""trial"",""time""
""fullscreenenter"",""1"",""1713""
","
","
","""event"",""trial"",""time""
""fullscreenenter"",""1"",""1713""
","
","","","","","","null","<div style=""font-size:60px;"">+</div>","null","","fixation","","","","","","","","",""
"memory-trial","87","282219","0.0-15.0-1.22","1897","2","""event"",""trial"",""time""
""fullscreenenter"",""1"",""1713""
","
","
","""event"",""trial"",""time""
""fullscreenenter"",""1"",""1713""
","
","","","","","","4641.599999964237","images/orange2.png","","","memory_trial","2","maybe_old","","","","","","",""
"html-keyboard-response","88","282721","0.0-15.0-0.23","1897","2","""event"",""trial"",""time""
""fullscreenenter"",""1"",""1713""
","
","
","""event"",""trial"",""time""
""fullscreenenter"",""1"",""1713""
","
","","","","","","null","<div style=""font-size:60px;"">+</div>","null","","fixation","","","","","","","","",""
"memory-trial","89","285998","0.0-15.0-1.23","1897","2","""event"",""trial"",""time""
""fullscreenenter"",""1"",""1713""
","
","
","""event"",""trial"",""time""
""fullscreenenter"",""1"",""1713""
","
","","","","","","2271.800000011921","images/flower3.png","","","memory_trial","4","definitely_new","","","","","","",""
"html-keyboard-response","90","286500","0.0-15.0-0.24","1897","2","""event"",""trial"",""time""
""fullscreenenter"",""1"",""1713""
","
","
","""event"",""trial"",""time""
""fullscreenenter"",""1"",""1713""
","
","","","","","","null","<div style=""font-size:60px;"">+</div>","null","","fixation","","","","","","","","",""
"memory-trial","91","288949","0.0-15.0-1.24","1897","2","""event"",""trial"",""time""
""fullscreenenter"",""1"",""1713""
","
","
","""event"",""trial"",""time""
""fullscreenenter"",""1"",""1713""
","
","","","","","","1442.1000000238419","images/straw1.png","","","memory_trial","1","definitely_old","","","","","","",""
"html-keyboard-response","92","289451","0.0-15.0-0.25","1897","2","""event"",""trial"",""time""
""fullscreenenter"",""1"",""1713""
","
","
","""event"",""trial"",""time""
""fullscreenenter"",""1"",""1713""
","
","","","","","","null","<div style=""font-size:60px;"">+</div>","null","","fixation","","","","","","","","",""
"memory-trial","93","291719","0.0-15.0-1.25","1897","2","""event"",""trial"",""time""
""fullscreenenter"",""1"",""1713""
","
","
","""event"",""trial"",""time""
""fullscreenenter"",""1"",""1713""
","
","","","","","","1263.699999988079","images/rodent2.png","","","memory_trial","4","definitely_new","","","","","","",""
"html-keyboard-response","94","292221","0.0-15.0-0.26","1897","2","""event"",""trial"",""time""
""fullscreenenter"",""1"",""1713""
","
","
","""event"",""trial"",""time""
""fullscreenenter"",""1"",""1713""
","
","","","","","","null","<div style=""font-size:60px;"">+</div>","null","","fixation","","","","","","","","",""
"memory-trial","95","294871","0.0-15.0-1.26","1897","2","""event"",""trial"",""time""
""fullscreenenter"",""1"",""1713""
","
","
","""event"",""trial"",""time""
""fullscreenenter"",""1"",""1713""
","
","","","","","","1643.9000000357628","images/bed4.png","","","memory_trial","4","definitely_new","","","","","","",""
"html-keyboard-response","96","295373","0.0-15.0-0.27","1897","2","""event"",""trial"",""time""
""fullscreenenter"",""1"",""1713""
","
","
","""event"",""trial"",""time""
""fullscreenenter"",""1"",""1713""
","
","","","","","","null","<div style=""font-size:60px;"">+</div>","null","","fixation","","","","","","","","",""
"memory-trial","97","297589","0.0-15.0-1.27","1897","2","""event"",""trial"",""time""
""fullscreenenter"",""1"",""1713""
","
","
","""event"",""trial"",""time""
""fullscreenenter"",""1"",""1713""
","
","","","","","","1207.699999988079","images/train5.png","","","memory_trial","4","definitely_new","","","","","","",""
"html-keyboard-response","98","298091","0.0-15.0-0.28","1897","2","""event"",""trial"",""time""
""fullscreenenter"",""1"",""1713""
","
","
","""event"",""trial"",""time""
""fullscreenenter"",""1"",""1713""
","
","","","","","","null","<div style=""font-size:60px;"">+</div>","null","","fixation","","","","","","","","",""
"memory-trial","99","300768","0.0-15.0-1.28","1897","2","""event"",""trial"",""time""
""fullscreenenter"",""1"",""1713""
","
","
","""event"",""trial"",""time""
""fullscreenenter"",""1"",""1713""
","
","","","","","","1672.699999988079","images/rabbit4.png","","","memory_trial","1","definitely_old","","","","","","",""
"html-keyboard-response","100","301272","0.0-15.0-0.29","1897","2","""event"",""trial"",""time""
""fullscreenenter"",""1"",""1713""
","
","
","""event"",""trial"",""time""
""fullscreenenter"",""1"",""1713""
","
","","","","","","null","<div style=""font-size:60px;"">+</div>","null","","fixation","","","","","","","","",""
"memory-trial","101","304649","0.0-15.0-1.29","1897","2","""event"",""trial"",""time""
""fullscreenenter"",""1"",""1713""
","
","
","""event"",""trial"",""time""
""fullscreenenter"",""1"",""1713""
","
","","","","","","2371.100000023842","images/plane2.png","","","memory_trial","4","definitely_new","","","","","","",""
"html-keyboard-response","102","305152","0.0-15.0-0.30","1897","2","""event"",""trial"",""time""
""fullscreenenter"",""1"",""1713""
","
","
","""event"",""trial"",""time""
""fullscreenenter"",""1"",""1713""
","
","","","","","","null","<div style=""font-size:60px;"">+</div>","null","","fixation","","","","","","","","",""
"memory-trial","103","310899","0.0-15.0-1.30","1897","2","""event"",""trial"",""time""
""fullscreenenter"",""1"",""1713""
","
","
","""event"",""trial"",""time""
""fullscreenenter"",""1"",""1713""
","
","","","","","","4740.300000011921","images/apple2.png","","","memory_trial","2","maybe_old","","","","","","",""
"html-keyboard-response","104","311402","0.0-15.0-0.31","1897","2","""event"",""trial"",""time""
""fullscreenenter"",""1"",""1713""
","
","
","""event"",""trial"",""time""
""fullscreenenter"",""1"",""1713""
","
","","","","","","null","<div style=""font-size:60px;"">+</div>","null","","fixation","","","","","","","","",""
"memory-trial","105","314780","0.0-15.0-1.31","1897","2","""event"",""trial"",""time""
""fullscreenenter"",""1"",""1713""
","
","
","""event"",""trial"",""time""
""fullscreenenter"",""1"",""1713""
","
","","","","","","2372.600000023842","images/cow1.png","","","memory_trial","1","definitely_old","","","","","","",""
"html-keyboard-response","106","315283","0.0-15.0-0.32","1897","2","""event"",""trial"",""time""
""fullscreenenter"",""1"",""1713""
","
","
","""event"",""trial"",""time""
""fullscreenenter"",""1"",""1713""
","
","","","","","","null","<div style=""font-size:60px;"">+</div>","null","","fixation","","","","","","","","",""
"memory-trial","107","317740","0.0-15.0-1.32","1897","2","""event"",""trial"",""time""
""fullscreenenter"",""1"",""1713""
","
","
","""event"",""trial"",""time""
""fullscreenenter"",""1"",""1713""
","
","","","","","","1448.699999988079","images/tree2.png","","","memory_trial","4","definitely_new","","","","","","",""
"html-keyboard-response","108","318243","0.0-15.0-0.33","1897","2","""event"",""trial"",""time""
""fullscreenenter"",""1"",""1713""
","
","
","""event"",""trial"",""time""
""fullscreenenter"",""1"",""1713""
","
","","","","","","null","<div style=""font-size:60px;"">+</div>","null","","fixation","","","","","","","","",""
"memory-trial","109","322199","0.0-15.0-1.33","1897","2","""event"",""trial"",""time""
""fullscreenenter"",""1"",""1713""
","
","
","""event"",""trial"",""time""
""fullscreenenter"",""1"",""1713""
","
","","","","","","2950.800000011921","images/boat3.png","","","memory_trial","1","definitely_old","","","","","","",""
"html-keyboard-response","110","322700","0.0-15.0-0.34","1897","2","""event"",""trial"",""time""
""fullscreenenter"",""1"",""1713""
","
","
","""event"",""trial"",""time""
""fullscreenenter"",""1"",""1713""
","
","","","","","","null","<div style=""font-size:60px;"">+</div>","null","","fixation","","","","","","","","",""
"memory-trial","111","325770","0.0-15.0-1.34","1897","2","""event"",""trial"",""time""
""fullscreenenter"",""1"",""1713""
","
","
","""event"",""trial"",""time""
""fullscreenenter"",""1"",""1713""
","
","","","","","","2063.300000011921","images/rodent5.png","","","memory_trial","1","definitely_old","","","","","","",""
"html-keyboard-response","112","326272","0.0-15.0-0.35","1897","2","""event"",""trial"",""time""
""fullscreenenter"",""1"",""1713""
","
","
","""event"",""trial"",""time""
""fullscreenenter"",""1"",""1713""
","
","","","","","","null","<div style=""font-size:60px;"">+</div>","null","","fixation","","","","","","","","",""
"memory-trial","113","328689","0.0-15.0-1.35","1897","2","""event"",""trial"",""time""
""fullscreenenter"",""1"",""1713""
","
","
","""event"",""trial"",""time""
""fullscreenenter"",""1"",""1713""
","
","","","","","","1412.1000000238419","images/rabbit3.png","","","memory_trial","4","definitely_new","","","","","","",""
"html-keyboard-response","114","329191","0.0-15.0-0.36","1897","2","""event"",""trial"",""time""
""fullscreenenter"",""1"",""1713""
","
","
","""event"",""trial"",""time""
""fullscreenenter"",""1"",""1713""
","
","","","","","","null","<div style=""font-size:60px;"">+</div>","null","","fixation","","","","","","","","",""
"memory-trial","115","336109","0.0-15.0-1.36","1897","2","""event"",""trial"",""time""
""fullscreenenter"",""1"",""1713""
","
","
","""event"",""trial"",""time""
""fullscreenenter"",""1"",""1713""
","
","","","","","","5911.699999988079","images/cactus3.png","","","memory_trial","3","maybe_new","","","","","","",""
"html-keyboard-response","116","336612","0.0-15.0-0.37","1897","2","""event"",""trial"",""time""
""fullscreenenter"",""1"",""1713""
","
","
","""event"",""trial"",""time""
""fullscreenenter"",""1"",""1713""
","
","","","","","","null","<div style=""font-size:60px;"">+</div>","null","","fixation","","","","","","","","",""
"memory-trial","117","339218","0.0-15.0-1.37","1897","2","""event"",""trial"",""time""
""fullscreenenter"",""1"",""1713""
","
","
","""event"",""trial"",""time""
""fullscreenenter"",""1"",""1713""
","
","","","","","","1599.800000011921","images/boat1.png","","","memory_trial","1","definitely_old","","","","","","",""
"html-keyboard-response","118","339720","0.0-15.0-0.38","1897","2","""event"",""trial"",""time""
""fullscreenenter"",""1"",""1713""
","
","
","""event"",""trial"",""time""
""fullscreenenter"",""1"",""1713""
","
","","","","","","null","<div style=""font-size:60px;"">+</div>","null","","fixation","","","","","","","","",""
"memory-trial","119","342319","0.0-15.0-1.38","1897","2","""event"",""trial"",""time""
""fullscreenenter"",""1"",""1713""
","
","
","""event"",""trial"",""time""
""fullscreenenter"",""1"",""1713""
","
","","","","","","1594.3999999761581","images/horse1.png","","","memory_trial","1","definitely_old","","","","","","",""
"html-keyboard-response","120","342821","0.0-15.0-0.39","1897","2","""event"",""trial"",""time""
""fullscreenenter"",""1"",""1713""
","
","
","""event"",""trial"",""time""
""fullscreenenter"",""1"",""1713""
","
","","","","","","null","<div style=""font-size:60px;"">+</div>","null","","fixation","","","","","","","","",""
"memory-trial","121","345829","0.0-15.0-1.39","1897","2","""event"",""trial"",""time""
""fullscreenenter"",""1"",""1713""
","
","
","""event"",""trial"",""time""
""fullscreenenter"",""1"",""1713""
","
","","","","","","2001.300000011921","images/dog4.png","","","memory_trial","1","definitely_old","","","","","","",""
"html-keyboard-response","122","346332","0.0-15.0-0.40","1897","2","""event"",""trial"",""time""
""fullscreenenter"",""1"",""1713""
","
","
","""event"",""trial"",""time""
""fullscreenenter"",""1"",""1713""
","
","","","","","","null","<div style=""font-size:60px;"">+</div>","null","","fixation","","","","","","","","",""
"memory-trial","123","348539","0.0-15.0-1.40","1897","2","""event"",""trial"",""time""
""fullscreenenter"",""1"",""1713""
","
","
","""event"",""trial"",""time""
""fullscreenenter"",""1"",""1713""
","
","","","","","","1202.300000011921","images/flower1.png","","","memory_trial","1","definitely_old","","","","","","",""
"html-keyboard-response","124","349050","0.0-15.0-0.41","1897","2","""event"",""trial"",""time""
""fullscreenenter"",""1"",""1713""
","
","
","""event"",""trial"",""time""
""fullscreenenter"",""1"",""1713""
","
","","","","","","null","<div style=""font-size:60px;"">+</div>","null","","fixation","","","","","","","","",""
"memory-trial","125","351298","0.0-15.0-1.41","1897","2","""event"",""trial"",""time""
""fullscreenenter"",""1"",""1713""
","
","
","""event"",""trial"",""time""
""fullscreenenter"",""1"",""1713""
","
","","","","","","1241.800000011921","images/table2.png","","","memory_trial","1","definitely_old","","","","","","",""
"html-keyboard-response","126","351801","0.0-15.0-0.42","1897","2","""event"",""trial"",""time""
""fullscreenenter"",""1"",""1713""
","
","
","""event"",""trial"",""time""
""fullscreenenter"",""1"",""1713""
","
","","","","","","null","<div style=""font-size:60px;"">+</div>","null","","fixation","","","","","","","","",""
"memory-trial","127","354389","0.0-15.0-1.42","1897","2","""event"",""trial"",""time""
""fullscreenenter"",""1"",""1713""
","
","
","""event"",""trial"",""time""
""fullscreenenter"",""1"",""1713""
","
","","","","","","1583.800000011921","images/goat4.png","","","memory_trial","1","definitely_old","","","","","","",""
"html-keyboard-response","128","354892","0.0-15.0-0.43","1897","2","""event"",""trial"",""time""
""fullscreenenter"",""1"",""1713""
","
","
","""event"",""trial"",""time""
""fullscreenenter"",""1"",""1713""
","
","","","","","","null","<div style=""font-size:60px;"">+</div>","null","","fixation","","","","","","","","",""
"memory-trial","129","356830","0.0-15.0-1.43","1897","2","""event"",""trial"",""time""
""fullscreenenter"",""1"",""1713""
","
","
","""event"",""trial"",""time""
""fullscreenenter"",""1"",""1713""
","
","","","","","","930.8000000119209","images/cow3.png","","","memory_trial","1","definitely_old","","","","","","",""
"html-keyboard-response","130","357332","0.0-15.0-0.44","1897","2","""event"",""trial"",""time""
""fullscreenenter"",""1"",""1713""
","
","
","""event"",""trial"",""time""
""fullscreenenter"",""1"",""1713""
","
","","","","","","null","<div style=""font-size:60px;"">+</div>","null","","fixation","","","","","","","","",""
"memory-trial","131","359349","0.0-15.0-1.44","1897","2","""event"",""trial"",""time""
""fullscreenenter"",""1"",""1713""
","
","
","""event"",""trial"",""time""
""fullscreenenter"",""1"",""1713""
","
","","","","","","1012.5","images/cow5.png","","","memory_trial","1","definitely_old","","","","","","",""
"html-keyboard-response","132","359851","0.0-15.0-0.45","1897","2","""event"",""trial"",""time""
""fullscreenenter"",""1"",""1713""
","
","
","""event"",""trial"",""time""
""fullscreenenter"",""1"",""1713""
","
","","","","","","null","<div style=""font-size:60px;"">+</div>","null","","fixation","","","","","","","","",""
"memory-trial","133","362159","0.0-15.0-1.45","1897","2","""event"",""trial"",""time""
""fullscreenenter"",""1"",""1713""
","
","
","""event"",""trial"",""time""
""fullscreenenter"",""1"",""1713""
","
","","","","","","1303.300000011921","images/plane5.png","","","memory_trial","1","definitely_old","","","","","","",""
"html-keyboard-response","134","362662","0.0-15.0-0.46","1897","2","""event"",""trial"",""time""
""fullscreenenter"",""1"",""1713""
","
","
","""event"",""trial"",""time""
""fullscreenenter"",""1"",""1713""
","
","","","","","","null","<div style=""font-size:60px;"">+</div>","null","","fixation","","","","","","","","",""
"memory-trial","135","365308","0.0-15.0-1.46","1897","2","""event"",""trial"",""time""
""fullscreenenter"",""1"",""1713""
","
","
","""event"",""trial"",""time""
""fullscreenenter"",""1"",""1713""
","
","","","","","","1640.199999988079","images/boat2.png","","","memory_trial","1","definitely_old","","","","","","",""
"html-button-response","136","369703","0.0-15.0-2.46-0.46","1897","2","""event"",""trial"",""time""
""fullscreenenter"",""1"",""1713""
","
","
","""event"",""trial"",""time""
""fullscreenenter"",""1"",""1713""
","
","","","","","","4392.800000011921","<p> Take a break! </p><p> Click the button to continue. </p>","0","","break","","","","","","","","",""
"html-keyboard-response","137","370204","0.0-15.0-0.47","1897","2","""event"",""trial"",""time""
""fullscreenenter"",""1"",""1713""
","
","
","""event"",""trial"",""time""
""fullscreenenter"",""1"",""1713""
","
","","","","","","null","<div style=""font-size:60px;"">+</div>","null","","fixation","","","","","","","","",""
"memory-trial","138","375237","0.0-15.0-1.47","1897","2","""event"",""trial"",""time""
""fullscreenenter"",""1"",""1713""
","
","
","""event"",""trial"",""time""
""fullscreenenter"",""1"",""1713""
","
","","","","","","4025.100000023842","images/banana4.png","","","memory_trial","1","definitely_old","","","","","","",""
"html-keyboard-response","139","375741","0.0-15.0-0.48","1897","2","""event"",""trial"",""time""
""fullscreenenter"",""1"",""1713""
","
","
","""event"",""trial"",""time""
""fullscreenenter"",""1"",""1713""
","
","","","","","","null","<div style=""font-size:60px;"">+</div>","null","","fixation","","","","","","","","",""
"memory-trial","140","379527","0.0-15.0-1.48","1897","2","""event"",""trial"",""time""
""fullscreenenter"",""1"",""1713""
","
","
","""event"",""trial"",""time""
""fullscreenenter"",""1"",""1713""
","
","","","","","","2779.800000011921","images/cactus5.png","","","memory_trial","4","definitely_new","","","","","","",""
"html-keyboard-response","141","380030","0.0-15.0-0.49","1897","2","""event"",""trial"",""time""
""fullscreenenter"",""1"",""1713""
","
","
","""event"",""trial"",""time""
""fullscreenenter"",""1"",""1713""
","
","","","","","","null","<div style=""font-size:60px;"">+</div>","null","","fixation","","","","","","","","",""
"memory-trial","142","382110","0.0-15.0-1.49","1897","2","""event"",""trial"",""time""
""fullscreenenter"",""1"",""1713""
","
","
","""event"",""trial"",""time""
""fullscreenenter"",""1"",""1713""
","
","","","","","","1073.300000011921","images/plane1.png","","","memory_trial","1","definitely_old","","","","","","",""
"html-keyboard-response","143","382612","0.0-15.0-0.50","1897","2","""event"",""trial"",""time""
""fullscreenenter"",""1"",""1713""
","
","
","""event"",""trial"",""time""
""fullscreenenter"",""1"",""1713""
","
","","","","","","null","<div style=""font-size:60px;"">+</div>","null","","fixation","","","","","","","","",""
"memory-trial","144","385989","0.0-15.0-1.50","1897","2","""event"",""trial"",""time""
""fullscreenenter"",""1"",""1713""
","
","
","""event"",""trial"",""time""
""fullscreenenter"",""1"",""1713""
","
","","","","","","2371.5","images/apple3.png","","","memory_trial","2","maybe_old","","","","","","",""
"html-keyboard-response","145","386492","0.0-15.0-0.51","1897","2","""event"",""trial"",""time""
""fullscreenenter"",""1"",""1713""
","
","
","""event"",""trial"",""time""
""fullscreenenter"",""1"",""1713""
","
","","","","","","null","<div style=""font-size:60px;"">+</div>","null","","fixation","","","","","","","","",""
"memory-trial","146","389659","0.0-15.0-1.51","1897","2","""event"",""trial"",""time""
""fullscreenenter"",""1"",""1713""
","
","
","""event"",""trial"",""time""
""fullscreenenter"",""1"",""1713""
","
","","","","","","2162.199999988079","images/bed1.png","","","memory_trial","1","definitely_old","","","","","","",""
"html-keyboard-response","147","390160","0.0-15.0-0.52","1897","2","""event"",""trial"",""time""
""fullscreenenter"",""1"",""1713""
","
","
","""event"",""trial"",""time""
""fullscreenenter"",""1"",""1713""
","
","","","","","","null","<div style=""font-size:60px;"">+</div>","null","","fixation","","","","","","","","",""
"memory-trial","148","394329","0.0-15.0-1.52","1897","2","""event"",""trial"",""time""
""fullscreenenter"",""1"",""1713""
","
","
","""event"",""trial"",""time""
""fullscreenenter"",""1"",""1713""
","
","","","","","","3161.899999976158","images/tree3.png","","","memory_trial","2","maybe_old","","","","","","",""
"html-keyboard-response","149","394832","0.0-15.0-0.53","1897","2","""event"",""trial"",""time""
""fullscreenenter"",""1"",""1713""
","
","
","""event"",""trial"",""time""
""fullscreenenter"",""1"",""1713""
","
","","","","","","null","<div style=""font-size:60px;"">+</div>","null","","fixation","","","","","","","","",""
"memory-trial","150","398328","0.0-15.0-1.53","1897","2","""event"",""trial"",""time""
""fullscreenenter"",""1"",""1713""
","
","
","""event"",""trial"",""time""
""fullscreenenter"",""1"",""1713""
","
","","","","","","2489.7999999523163","images/feline3.png","","","memory_trial","4","definitely_new","","","","","","",""
"html-keyboard-response","151","398831","0.0-15.0-0.54","1897","2","""event"",""trial"",""time""
""fullscreenenter"",""1"",""1713""
","
","
","""event"",""trial"",""time""
""fullscreenenter"",""1"",""1713""
","
","","","","","","null","<div style=""font-size:60px;"">+</div>","null","","fixation","","","","","","","","",""
"memory-trial","152","402279","0.0-15.0-1.54","1897","2","""event"",""trial"",""time""
""fullscreenenter"",""1"",""1713""
","
","
","""event"",""trial"",""time""
""fullscreenenter"",""1"",""1713""
","
","","","","","","2441.599999964237","images/bush5.png","","","memory_trial","4","definitely_new","","","","","","",""
"html-keyboard-response","153","402781","0.0-15.0-0.55","1897","2","""event"",""trial"",""time""
""fullscreenenter"",""1"",""1713""
","
","
","""event"",""trial"",""time""
""fullscreenenter"",""1"",""1713""
","
","","","","","","null","<div style=""font-size:60px;"">+</div>","null","","fixation","","","","","","","","",""
"memory-trial","154","404859","0.0-15.0-1.55","1897","2","""event"",""trial"",""time""
""fullscreenenter"",""1"",""1713""
","
","
","""event"",""trial"",""time""
""fullscreenenter"",""1"",""1713""
","
","","","","","","1069.9000000357628","images/sofa4.png","","","memory_trial","4","definitely_new","","","","","","",""
"html-keyboard-response","155","405362","0.0-15.0-0.56","1897","2","""event"",""trial"",""time""
""fullscreenenter"",""1"",""1713""
","
","
","""event"",""trial"",""time""
""fullscreenenter"",""1"",""1713""
","
","","","","","","null","<div style=""font-size:60px;"">+</div>","null","","fixation","","","","","","","","",""
"memory-trial","156","407458","0.0-15.0-1.56","1897","2","""event"",""trial"",""time""
""fullscreenenter"",""1"",""1713""
","
","
","""event"",""trial"",""time""
""fullscreenenter"",""1"",""1713""
","
","","","","","","1091.300000011921","images/sheep2.png","","","memory_trial","4","definitely_new","","","","","","",""
"html-keyboard-response","157","407960","0.0-15.0-0.57","1897","2","""event"",""trial"",""time""
""fullscreenenter"",""1"",""1713""
","
","
","""event"",""trial"",""time""
""fullscreenenter"",""1"",""1713""
","
","","","","","","null","<div style=""font-size:60px;"">+</div>","null","","fixation","","","","","","","","",""
"memory-trial","158","409828","0.0-15.0-1.57","1897","2","""event"",""trial"",""time""
""fullscreenenter"",""1"",""1713""
","
","
","""event"",""trial"",""time""
""fullscreenenter"",""1"",""1713""
","
","","","","","","863.8000000119209","images/straw4.png","","","memory_trial","1","definitely_old","","","","","","",""
"html-keyboard-response","159","410331","0.0-15.0-0.58","1897","2","""event"",""trial"",""time""
""fullscreenenter"",""1"",""1713""
","
","
","""event"",""trial"",""time""
""fullscreenenter"",""1"",""1713""
","
","","","","","","null","<div style=""font-size:60px;"">+</div>","null","","fixation","","","","","","","","",""
"memory-trial","160","412759","0.0-15.0-1.58","1897","2","""event"",""trial"",""time""
""fullscreenenter"",""1"",""1713""
","
","
","""event"",""trial"",""time""
""fullscreenenter"",""1"",""1713""
","
","","","","","","1422.5999999642372","images/table3.png","","","memory_trial","1","definitely_old","","","","","","",""
"html-keyboard-response","161","413262","0.0-15.0-0.59","1897","2","""event"",""trial"",""time""
""fullscreenenter"",""1"",""1713""
","
","
","""event"",""trial"",""time""
""fullscreenenter"",""1"",""1713""
","
","","","","","","null","<div style=""font-size:60px;"">+</div>","null","","fixation","","","","","","","","",""
"memory-trial","162","415859","0.0-15.0-1.59","1897","2","""event"",""trial"",""time""
""fullscreenenter"",""1"",""1713""
","
","
","""event"",""trial"",""time""
""fullscreenenter"",""1"",""1713""
","
","","","","","","1589.8999999761581","images/cactus1.png","","","memory_trial","1","definitely_old","","","","","","",""
"html-keyboard-response","163","416362","0.0-15.0-0.60","1897","2","""event"",""trial"",""time""
""fullscreenenter"",""1"",""1713""
","
","
","""event"",""trial"",""time""
""fullscreenenter"",""1"",""1713""
","
","","","","","","null","<div style=""font-size:60px;"">+</div>","null","","fixation","","","","","","","","",""
"memory-trial","164","419008","0.0-15.0-1.60","1897","2","""event"",""trial"",""time""
""fullscreenenter"",""1"",""1713""
","
","
","""event"",""trial"",""time""
""fullscreenenter"",""1"",""1713""
","
","","","","","","1642","images/chair1.png","","","memory_trial","1","definitely_old","","","","","","",""
"html-keyboard-response","165","419511","0.0-15.0-0.61","1897","2","""event"",""trial"",""time""
""fullscreenenter"",""1"",""1713""
","
","
","""event"",""trial"",""time""
""fullscreenenter"",""1"",""1713""
","
","","","","","","null","<div style=""font-size:60px;"">+</div>","null","","fixation","","","","","","","","",""
"memory-trial","166","421417","0.0-15.0-1.61","1897","2","""event"",""trial"",""time""
""fullscreenenter"",""1"",""1713""
","
","
","""event"",""trial"",""time""
""fullscreenenter"",""1"",""1713""
","
","","","","","","900.2999999523163","images/truck5.png","","","memory_trial","4","definitely_new","","","","","","",""
"html-keyboard-response","167","421920","0.0-15.0-0.62","1897","2","""event"",""trial"",""time""
""fullscreenenter"",""1"",""1713""
","
","
","""event"",""trial"",""time""
""fullscreenenter"",""1"",""1713""
","
","","","","","","null","<div style=""font-size:60px;"">+</div>","null","","fixation","","","","","","","","",""
"memory-trial","168","426298","0.0-15.0-1.62","1897","2","""event"",""trial"",""time""
""fullscreenenter"",""1"",""1713""
","
","
","""event"",""trial"",""time""
""fullscreenenter"",""1"",""1713""
","
","","","","","","3373.400000035763","images/apple5.png","","","memory_trial","4","definitely_new","","","","","","",""
"html-keyboard-response","169","426800","0.0-15.0-0.63","1897","2","""event"",""trial"",""time""
""fullscreenenter"",""1"",""1713""
","
","
","""event"",""trial"",""time""
""fullscreenenter"",""1"",""1713""
","
","","","","","","null","<div style=""font-size:60px;"">+</div>","null","","fixation","","","","","","","","",""
"memory-trial","170","429577","0.0-15.0-1.63","1897","2","""event"",""trial"",""time""
""fullscreenenter"",""1"",""1713""
","
","
","""event"",""trial"",""time""
""fullscreenenter"",""1"",""1713""
","
","","","","","","1771.2000000476837","images/banana1.png","","","memory_trial","1","definitely_old","","","","","","",""
"html-keyboard-response","171","430079","0.0-15.0-0.64","1897","2","""event"",""trial"",""time""
""fullscreenenter"",""1"",""1713""
","
","
","""event"",""trial"",""time""
""fullscreenenter"",""1"",""1713""
","
","","","","","","null","<div style=""font-size:60px;"">+</div>","null","","fixation","","","","","","","","",""
"memory-trial","172","432148","0.0-15.0-1.64","1897","2","""event"",""trial"",""time""
""fullscreenenter"",""1"",""1713""
","
","
","""event"",""trial"",""time""
""fullscreenenter"",""1"",""1713""
","
","","","","","","1063.699999988079","images/flower2.png","","","memory_trial","1","definitely_old","","","","","","",""
"html-keyboard-response","173","432651","0.0-15.0-0.65","1897","2","""event"",""trial"",""time""
""fullscreenenter"",""1"",""1713""
","
","
","""event"",""trial"",""time""
""fullscreenenter"",""1"",""1713""
","
","","","","","","null","<div style=""font-size:60px;"">+</div>","null","","fixation","","","","","","","","",""
"memory-trial","174","436208","0.0-15.0-1.65","1897","2","""event"",""trial"",""time""
""fullscreenenter"",""1"",""1713""
","
","
","""event"",""trial"",""time""
""fullscreenenter"",""1"",""1713""
","
","","","","","","2550","images/train2.png","","","memory_trial","4","definitely_new","","","","","","",""
"html-keyboard-response","175","436710","0.0-15.0-0.66","1897","2","""event"",""trial"",""time""
""fullscreenenter"",""1"",""1713""
","
","
","""event"",""trial"",""time""
""fullscreenenter"",""1"",""1713""
","
","","","","","","null","<div style=""font-size:60px;"">+</div>","null","","fixation","","","","","","","","",""
"memory-trial","176","439708","0.0-15.0-1.66","1897","2","""event"",""trial"",""time""
""fullscreenenter"",""1"",""1713""
","
","
","""event"",""trial"",""time""
""fullscreenenter"",""1"",""1713""
","
","","","","","","1990.199999988079","images/cactus4.png","","","memory_trial","4","definitely_new","","","","","","",""
"html-keyboard-response","177","440211","0.0-15.0-0.67","1897","2","""event"",""trial"",""time""
""fullscreenenter"",""1"",""1713""
","
","
","""event"",""trial"",""time""
""fullscreenenter"",""1"",""1713""
","
","","","","","","null","<div style=""font-size:60px;"">+</div>","null","","fixation","","","","","","","","",""
"memory-trial","178","443578","0.0-15.0-1.67","1897","2","""event"",""trial"",""time""
""fullscreenenter"",""1"",""1713""
","
","
","""event"",""trial"",""time""
""fullscreenenter"",""1"",""1713""
","
","","","","","","2361.800000011921","images/chair4.png","","","memory_trial","1","definitely_old","","","","","","",""
"html-keyboard-response","179","444081","0.0-15.0-0.68","1897","2","""event"",""trial"",""time""
""fullscreenenter"",""1"",""1713""
","
","
","""event"",""trial"",""time""
""fullscreenenter"",""1"",""1713""
","
","","","","","","null","<div style=""font-size:60px;"">+</div>","null","","fixation","","","","","","","","",""
"memory-trial","180","446758","0.0-15.0-1.68","1897","2","""event"",""trial"",""time""
""fullscreenenter"",""1"",""1713""
","
","
","""event"",""trial"",""time""
""fullscreenenter"",""1"",""1713""
","
","","","","","","1672.199999988079","images/dog5.png","","","memory_trial","4","definitely_new","","","","","","",""
"html-keyboard-response","181","447261","0.0-15.0-0.69","1897","2","""event"",""trial"",""time""
""fullscreenenter"",""1"",""1713""
","
","
","""event"",""trial"",""time""
""fullscreenenter"",""1"",""1713""
","
","","","","","","null","<div style=""font-size:60px;"">+</div>","null","","fixation","","","","","","","","",""
"memory-trial","182","453018","0.0-15.0-1.69","1897","2","""event"",""trial"",""time""
""fullscreenenter"",""1"",""1713""
","
","
","""event"",""trial"",""time""
""fullscreenenter"",""1"",""1713""
","
","","","","","","4753.5","images/orange4.png","","","memory_trial","1","definitely_old","","","","","","",""
"html-keyboard-response","183","453520","0.0-15.0-0.70","1897","2","""event"",""trial"",""time""
""fullscreenenter"",""1"",""1713""
","
","
","""event"",""trial"",""time""
""fullscreenenter"",""1"",""1713""
","
","","","","","","null","<div style=""font-size:60px;"">+</div>","null","","fixation","","","","","","","","",""
"memory-trial","184","455517","0.0-15.0-1.70","1897","2","""event"",""trial"",""time""
""fullscreenenter"",""1"",""1713""
","
","
","""event"",""trial"",""time""
""fullscreenenter"",""1"",""1713""
","
","","","","","","990.7000000476837","images/train4.png","","","memory_trial","4","definitely_new","","","","","","",""
"html-keyboard-response","185","456020","0.0-15.0-0.71","1897","2","""event"",""trial"",""time""
""fullscreenenter"",""1"",""1713""
","
","
","""event"",""trial"",""time""
""fullscreenenter"",""1"",""1713""
","
","","","","","","null","<div style=""font-size:60px;"">+</div>","null","","fixation","","","","","","","","",""
"memory-trial","186","457887","0.0-15.0-1.71","1897","2","""event"",""trial"",""time""
""fullscreenenter"",""1"",""1713""
","
","
","""event"",""trial"",""time""
""fullscreenenter"",""1"",""1713""
","
","","","","","","862.9000000357628","images/straw2.png","","","memory_trial","1","definitely_old","","","","","","",""
"html-keyboard-response","187","458389","0.0-15.0-0.72","1897","2","""event"",""trial"",""time""
""fullscreenenter"",""1"",""1713""
","
","
","""event"",""trial"",""time""
""fullscreenenter"",""1"",""1713""
","
","","","","","","null","<div style=""font-size:60px;"">+</div>","null","","fixation","","","","","","","","",""
"memory-trial","188","462208","0.0-15.0-1.72","1897","2","""event"",""trial"",""time""
""fullscreenenter"",""1"",""1713""
","
","
","""event"",""trial"",""time""
""fullscreenenter"",""1"",""1713""
","
","","","","","","2815","images/truck2.png","","","memory_trial","4","definitely_new","","","","","","",""
"html-keyboard-response","189","462711","0.0-15.0-0.73","1897","2","""event"",""trial"",""time""
""fullscreenenter"",""1"",""1713""
","
","
","""event"",""trial"",""time""
""fullscreenenter"",""1"",""1713""
","
","","","","","","null","<div style=""font-size:60px;"">+</div>","null","","fixation","","","","","","","","",""
"memory-trial","190","465228","0.0-15.0-1.73","1897","2","""event"",""trial"",""time""
""fullscreenenter"",""1"",""1713""
","
","
","""event"",""trial"",""time""
""fullscreenenter"",""1"",""1713""
","
","","","","","","1511.699999988079","images/horse3.png","","","memory_trial","4","definitely_new","","","","","","",""
"html-keyboard-response","191","465730","0.0-15.0-0.74","1897","2","""event"",""trial"",""time""
""fullscreenenter"",""1"",""1713""
","
","
","""event"",""trial"",""time""
""fullscreenenter"",""1"",""1713""
","
","","","","","","null","<div style=""font-size:60px;"">+</div>","null","","fixation","","","","","","","","",""
"memory-trial","192","467998","0.0-15.0-1.74","1897","2","""event"",""trial"",""time""
""fullscreenenter"",""1"",""1713""
","
","
","""event"",""trial"",""time""
""fullscreenenter"",""1"",""1713""
","
","","","","","","1265.4000000357628","images/bush2.png","","","memory_trial","1","definitely_old","","","","","","",""
"html-keyboard-response","193","468500","0.0-15.0-0.75","1897","2","""event"",""trial"",""time""
""fullscreenenter"",""1"",""1713""
","
","
","""event"",""trial"",""time""
""fullscreenenter"",""1"",""1713""
","
","","","","","","null","<div style=""font-size:60px;"">+</div>","null","","fixation","","","","","","","","",""
"memory-trial","194","472008","0.0-15.0-1.75","1897","2","""event"",""trial"",""time""
""fullscreenenter"",""1"",""1713""
","
","
","""event"",""trial"",""time""
""fullscreenenter"",""1"",""1713""
","
","","","","","","2503.399999976158","images/goat3.png","","","memory_trial","4","definitely_new","","","","","","",""
"html-keyboard-response","195","472512","0.0-15.0-0.76","1897","2","""event"",""trial"",""time""
""fullscreenenter"",""1"",""1713""
","
","
","""event"",""trial"",""time""
""fullscreenenter"",""1"",""1713""
","
","","","","","","null","<div style=""font-size:60px;"">+</div>","null","","fixation","","","","","","","","",""
"memory-trial","196","474887","0.0-15.0-1.76","1897","2","""event"",""trial"",""time""
""fullscreenenter"",""1"",""1713""
","
","
","""event"",""trial"",""time""
""fullscreenenter"",""1"",""1713""
","
","","","","","","1370.1000000238419","images/sheep1.png","","","memory_trial","4","definitely_new","","","","","","",""
"html-keyboard-response","197","475390","0.0-15.0-0.77","1897","2","""event"",""trial"",""time""
""fullscreenenter"",""1"",""1713""
","
","
","""event"",""trial"",""time""
""fullscreenenter"",""1"",""1713""
","
","","","","","","null","<div style=""font-size:60px;"">+</div>","null","","fixation","","","","","","","","",""
"memory-trial","198","478788","0.0-15.0-1.77","1897","2","""event"",""trial"",""time""
""fullscreenenter"",""1"",""1713""
","
","
","""event"",""trial"",""time""
""fullscreenenter"",""1"",""1713""
","
","","","","","","2389.5","images/goat2.png","","","memory_trial","4","definitely_new","","","","","","",""
"html-keyboard-response","199","479291","0.0-15.0-0.78","1897","2","""event"",""trial"",""time""
""fullscreenenter"",""1"",""1713""
","
","
","""event"",""trial"",""time""
""fullscreenenter"",""1"",""1713""
","
","","","","","","null","<div style=""font-size:60px;"">+</div>","null","","fixation","","","","","","","","",""
"memory-trial","200","482138","0.0-15.0-1.78","1897","2","""event"",""trial"",""time""
""fullscreenenter"",""1"",""1713""
","
","
","""event"",""trial"",""time""
""fullscreenenter"",""1"",""1713""
","
","","","","","","1840.800000011921","images/boat4.png","","","memory_trial","4","definitely_new","","","","","","",""
"html-keyboard-response","201","482642","0.0-15.0-0.79","1897","2","""event"",""trial"",""time""
""fullscreenenter"",""1"",""1713""
","
","
","""event"",""trial"",""time""
""fullscreenenter"",""1"",""1713""
","
","","","","","","null","<div style=""font-size:60px;"">+</div>","null","","fixation","","","","","","","","",""
"memory-trial","202","485437","0.0-15.0-1.79","1897","2","""event"",""trial"",""time""
""fullscreenenter"",""1"",""1713""
","
","
","""event"",""trial"",""time""
""fullscreenenter"",""1"",""1713""
","
","","","","","","1790.2000000476837","images/table4.png","","","memory_trial","1","definitely_old","","","","","","",""
"html-keyboard-response","203","485939","0.0-15.0-0.80","1897","2","""event"",""trial"",""time""
""fullscreenenter"",""1"",""1713""
","
","
","""event"",""trial"",""time""
""fullscreenenter"",""1"",""1713""
","
","","","","","","null","<div style=""font-size:60px;"">+</div>","null","","fixation","","","","","","","","",""
"memory-trial","204","487787","0.0-15.0-1.80","1897","2","""event"",""trial"",""time""
""fullscreenenter"",""1"",""1713""
","
","
","""event"",""trial"",""time""
""fullscreenenter"",""1"",""1713""
","
","","","","","","843.8000000119209","images/straw3.png","","","memory_trial","1","definitely_old","","","","","","",""
"html-keyboard-response","205","488290","0.0-15.0-0.81","1897","2","""event"",""trial"",""time""
""fullscreenenter"",""1"",""1713""
","
","
","""event"",""trial"",""time""
""fullscreenenter"",""1"",""1713""
","
","","","","","","null","<div style=""font-size:60px;"">+</div>","null","","fixation","","","","","","","","",""
"memory-trial","206","490808","0.0-15.0-1.81","1897","2","""event"",""trial"",""time""
""fullscreenenter"",""1"",""1713""
","
","
","""event"",""trial"",""time""
""fullscreenenter"",""1"",""1713""
","
","","","","","","1513.199999988079","images/dog1.png","","","memory_trial","4","definitely_new","","","","","","",""
"html-keyboard-response","207","491310","0.0-15.0-0.82","1897","2","""event"",""trial"",""time""
""fullscreenenter"",""1"",""1713""
","
","
","""event"",""trial"",""time""
""fullscreenenter"",""1"",""1713""
","
","","","","","","null","<div style=""font-size:60px;"">+</div>","null","","fixation","","","","","","","","",""
"memory-trial","208","493368","0.0-15.0-1.82","1897","2","""event"",""trial"",""time""
""fullscreenenter"",""1"",""1713""
","
","
","""event"",""trial"",""time""
""fullscreenenter"",""1"",""1713""
","
","","","","","","1051.800000011921","images/flower4.png","","","memory_trial","1","definitely_old","","","","","","",""
"html-keyboard-response","209","493870","0.0-15.0-0.83","1897","2","""event"",""trial"",""time""
""fullscreenenter"",""1"",""1713""
","
","
","""event"",""trial"",""time""
""fullscreenenter"",""1"",""1713""
","
","","","","","","null","<div style=""font-size:60px;"">+</div>","null","","fixation","","","","","","","","",""
"memory-trial","210","496988","0.0-15.0-1.83","1897","2","""event"",""trial"",""time""
""fullscreenenter"",""1"",""1713""
","
","
","""event"",""trial"",""time""
""fullscreenenter"",""1"",""1713""
","
","","","","","","2110.300000011921","images/sofa1.png","","","memory_trial","4","definitely_new","","","","","","",""
"html-keyboard-response","211","497489","0.0-15.0-0.84","1897","2","""event"",""trial"",""time""
""fullscreenenter"",""1"",""1713""
","
","
","""event"",""trial"",""time""
""fullscreenenter"",""1"",""1713""
","
","","","","","","null","<div style=""font-size:60px;"">+</div>","null","","fixation","","","","","","","","",""
"memory-trial","212","499518","0.0-15.0-1.84","1897","2","""event"",""trial"",""time""
""fullscreenenter"",""1"",""1713""
","
","
","""event"",""trial"",""time""
""fullscreenenter"",""1"",""1713""
","
","","","","","","1023.5","images/bush1.png","","","memory_trial","4","definitely_new","","","","","","",""
"html-keyboard-response","213","500020","0.0-15.0-0.85","1897","2","""event"",""trial"",""time""
""fullscreenenter"",""1"",""1713""
","
","
","""event"",""trial"",""time""
""fullscreenenter"",""1"",""1713""
","
","","","","","","null","<div style=""font-size:60px;"">+</div>","null","","fixation","","","","","","","","",""
"memory-trial","214","501828","0.0-15.0-1.85","1897","2","""event"",""trial"",""time""
""fullscreenenter"",""1"",""1713""
","
","
","""event"",""trial"",""time""
""fullscreenenter"",""1"",""1713""
","
","","","","","","802.5999999642372","images/orange1.png","","","memory_trial","1","definitely_old","","","","","","",""
"html-keyboard-response","215","502330","0.0-15.0-0.86","1897","2","""event"",""trial"",""time""
""fullscreenenter"",""1"",""1713""
","
","
","""event"",""trial"",""time""
""fullscreenenter"",""1"",""1713""
","
","","","","","","null","<div style=""font-size:60px;"">+</div>","null","","fixation","","","","","","","","",""
"memory-trial","216","504648","0.0-15.0-1.86","1897","2","""event"",""trial"",""time""
""fullscreenenter"",""1"",""1713""
","
","
","""event"",""trial"",""time""
""fullscreenenter"",""1"",""1713""
","
","","","","","","1313.1000000238419","images/bush4.png","","","memory_trial","1","definitely_old","","","","","","",""
"html-keyboard-response","217","505151","0.0-15.0-0.87","1897","2","""event"",""trial"",""time""
""fullscreenenter"",""1"",""1713""
","
","
","""event"",""trial"",""time""
""fullscreenenter"",""1"",""1713""
","
","","","","","","null","<div style=""font-size:60px;"">+</div>","null","","fixation","","","","","","","","",""
"memory-trial","218","507767","0.0-15.0-1.87","1897","2","""event"",""trial"",""time""
""fullscreenenter"",""1"",""1713""
","
","
","""event"",""trial"",""time""
""fullscreenenter"",""1"",""1713""
","
","","","","","","1610.9000000357628","images/plane3.png","","","memory_trial","4","definitely_new","","","","","","",""
"html-keyboard-response","219","508270","0.0-15.0-0.88","1897","2","""event"",""trial"",""time""
""fullscreenenter"",""1"",""1713""
","
","
","""event"",""trial"",""time""
""fullscreenenter"",""1"",""1713""
","
","","","","","","null","<div style=""font-size:60px;"">+</div>","null","","fixation","","","","","","","","",""
"memory-trial","220","511397","0.0-15.0-1.88","1897","2","""event"",""trial"",""time""
""fullscreenenter"",""1"",""1713""
","
","
","""event"",""trial"",""time""
""fullscreenenter"",""1"",""1713""
","
","","","","","","2122.2999999523163","images/bed2.png","","","memory_trial","1","definitely_old","","","","","","",""
"html-keyboard-response","221","511899","0.0-15.0-0.89","1897","2","""event"",""trial"",""time""
""fullscreenenter"",""1"",""1713""
","
","
","""event"",""trial"",""time""
""fullscreenenter"",""1"",""1713""
","
","","","","","","null","<div style=""font-size:60px;"">+</div>","null","","fixation","","","","","","","","",""
"memory-trial","222","514129","0.0-15.0-1.89","1897","2","""event"",""trial"",""time""
""fullscreenenter"",""1"",""1713""
","
","
","""event"",""trial"",""time""
""fullscreenenter"",""1"",""1713""
","
","","","","","","1223.2000000476837","images/bed3.png","","","memory_trial","1","definitely_old","","","","","","",""
"html-keyboard-response","223","514631","0.0-15.0-0.90","1897","2","""event"",""trial"",""time""
""fullscreenenter"",""1"",""1713""
","
","
","""event"",""trial"",""time""
""fullscreenenter"",""1"",""1713""
","
","","","","","","null","<div style=""font-size:60px;"">+</div>","null","","fixation","","","","","","","","",""
"memory-trial","224","517089","0.0-15.0-1.90","1897","2","""event"",""trial"",""time""
""fullscreenenter"",""1"",""1713""
","
","
","""event"",""trial"",""time""
""fullscreenenter"",""1"",""1713""
","
","","","","","","1450.8999999761581","images/dog2.png","","","memory_trial","4","definitely_new","","","","","","",""
"html-keyboard-response","225","517591","0.0-15.0-0.91","1897","2","""event"",""trial"",""time""
""fullscreenenter"",""1"",""1713""
","
","
","""event"",""trial"",""time""
""fullscreenenter"",""1"",""1713""
","
","","","","","","null","<div style=""font-size:60px;"">+</div>","null","","fixation","","","","","","","","",""
"memory-trial","226","520337","0.0-15.0-1.91","1897","2","""event"",""trial"",""time""
""fullscreenenter"",""1"",""1713""
","
","
","""event"",""trial"",""time""
""fullscreenenter"",""1"",""1713""
","
","","","","","","1741.6000000238419","images/horse2.png","","","memory_trial","1","definitely_old","","","","","","",""
"html-keyboard-response","227","520840","0.0-15.0-0.92","1897","2","""event"",""trial"",""time""
""fullscreenenter"",""1"",""1713""
","
","
","""event"",""trial"",""time""
""fullscreenenter"",""1"",""1713""
","
","","","","","","null","<div style=""font-size:60px;"">+</div>","null","","fixation","","","","","","","","",""
"memory-trial","228","523128","0.0-15.0-1.92","1897","2","""event"",""trial"",""time""
""fullscreenenter"",""1"",""1713""
","
","
","""event"",""trial"",""time""
""fullscreenenter"",""1"",""1713""
","
","","","","","","1282.2999999523163","images/chair2.png","","","memory_trial","1","definitely_old","","","","","","",""
"html-keyboard-response","229","523631","0.0-15.0-0.93","1897","2","""event"",""trial"",""time""
""fullscreenenter"",""1"",""1713""
","
","
","""event"",""trial"",""time""
""fullscreenenter"",""1"",""1713""
","
","","","","","","null","<div style=""font-size:60px;"">+</div>","null","","fixation","","","","","","","","",""
"memory-trial","230","525428","0.0-15.0-1.93","1897","2","""event"",""trial"",""time""
""fullscreenenter"",""1"",""1713""
","
","
","""event"",""trial"",""time""
""fullscreenenter"",""1"",""1713""
","
","","","","","","793","images/cow4.png","","","memory_trial","1","definitely_old","","","","","","",""
"html-keyboard-response","231","525930","0.0-15.0-0.94","1897","2","""event"",""trial"",""time""
""fullscreenenter"",""1"",""1713""
","
","
","""event"",""trial"",""time""
""fullscreenenter"",""1"",""1713""
","
","","","","","","null","<div style=""font-size:60px;"">+</div>","null","","fixation","","","","","","","","",""
"memory-trial","232","528338","0.0-15.0-1.94","1897","2","""event"",""trial"",""time""
""fullscreenenter"",""1"",""1713""
","
","
","""event"",""trial"",""time""
""fullscreenenter"",""1"",""1713""
","
","","","","","","1403.7000000476837","images/rabbit2.png","","","memory_trial","1","definitely_old","","","","","","",""
"html-keyboard-response","233","528840","0.0-15.0-0.95","1897","2","""event"",""trial"",""time""
""fullscreenenter"",""1"",""1713""
","
","
","""event"",""trial"",""time""
""fullscreenenter"",""1"",""1713""
","
","","","","","","null","<div style=""font-size:60px;"">+</div>","null","","fixation","","","","","","","","",""
"memory-trial","234","531518","0.0-15.0-1.95","1897","2","""event"",""trial"",""time""
""fullscreenenter"",""1"",""1713""
","
","
","""event"",""trial"",""time""
""fullscreenenter"",""1"",""1713""
","
","","","","","","1672.5999999642372","images/cactus2.png","","","memory_trial","4","definitely_new","","","","","","",""
"html-keyboard-response","235","532021","0.0-15.0-0.96","1897","2","""event"",""trial"",""time""
""fullscreenenter"",""1"",""1713""
","
","
","""event"",""trial"",""time""
""fullscreenenter"",""1"",""1713""
","
","","","","","","null","<div style=""font-size:60px;"">+</div>","null","","fixation","","","","","","","","",""
"memory-trial","236","534728","0.0-15.0-1.96","1897","2","""event"",""trial"",""time""
""fullscreenenter"",""1"",""1713""
","
","
","""event"",""trial"",""time""
""fullscreenenter"",""1"",""1713""
","
","","","","","","1702.7000000476837","images/table1.png","","","memory_trial","1","definitely_old","","","","","","",""
"html-keyboard-response","237","535231","0.0-15.0-0.97","1897","2","""event"",""trial"",""time""
""fullscreenenter"",""1"",""1713""
","
","
","""event"",""trial"",""time""
""fullscreenenter"",""1"",""1713""
","
","","","","","","null","<div style=""font-size:60px;"">+</div>","null","","fixation","","","","","","","","",""
"memory-trial","238","537468","0.0-15.0-1.97","1897","2","""event"",""trial"",""time""
""fullscreenenter"",""1"",""1713""
","
","
","""event"",""trial"",""time""
""fullscreenenter"",""1"",""1713""
","
","","","","","","1230.7000000476837","images/plane4.png","","","memory_trial","1","definitely_old","","","","","","",""
"html-keyboard-response","239","537981","0.0-15.0-0.98","1897","2","""event"",""trial"",""time""
""fullscreenenter"",""1"",""1713""
","
","
","""event"",""trial"",""time""
""fullscreenenter"",""1"",""1713""
","
","","","","","","null","<div style=""font-size:60px;"">+</div>","null","","fixation","","","","","","","","",""
"memory-trial","240","540568","0.0-15.0-1.98","1897","2","""event"",""trial"",""time""
""fullscreenenter"",""1"",""1713""
","
","
","""event"",""trial"",""time""
""fullscreenenter"",""1"",""1713""
","
","","","","","","1582.800000011921","images/bed5.png","","","memory_trial","1","definitely_old","","","","","","",""
"html-keyboard-response","241","541070","0.0-15.0-0.99","1897","2","""event"",""trial"",""time""
""fullscreenenter"",""1"",""1713""
","
","
","""event"",""trial"",""time""
""fullscreenenter"",""1"",""1713""
","
","","","","","","null","<div style=""font-size:60px;"">+</div>","null","","fixation","","","","","","","","",""
"memory-trial","242","542988","0.0-15.0-1.99","1897","2","""event"",""trial"",""time""
""fullscreenenter"",""1"",""1713""
","
","
","""event"",""trial"",""time""
""fullscreenenter"",""1"",""1713""
","
","","","","","","912.0999999642372","images/chair3.png","","","memory_trial","1","definitely_old","","","","","","",""
"html-keyboard-response","243","543490","0.0-15.0-0.100","1897","2","""event"",""trial"",""time""
""fullscreenenter"",""1"",""1713""
","
","
","""event"",""trial"",""time""
""fullscreenenter"",""1"",""1713""
","
","","","","","","null","<div style=""font-size:60px;"">+</div>","null","","fixation","","","","","","","","",""
"memory-trial","244","545788","0.0-15.0-1.100","1897","2","""event"",""trial"",""time""
""fullscreenenter"",""1"",""1713""
","
","
","""event"",""trial"",""time""
""fullscreenenter"",""1"",""1713""
","
","","","","","","1293.3999999761581","images/rabbit1.png","","","memory_trial","4","definitely_new","","","","","","",""
"html-keyboard-response","245","546291","0.0-15.0-0.101","1897","2","""event"",""trial"",""time""
""fullscreenenter"",""1"",""1713""
","
","
","""event"",""trial"",""time""
""fullscreenenter"",""1"",""1713""
","
","","","","","","null","<div style=""font-size:60px;"">+</div>","null","","fixation","","","","","","","","",""
"memory-trial","246","549778","0.0-15.0-1.101","1897","2","""event"",""trial"",""time""
""fullscreenenter"",""1"",""1713""
","
","
","""event"",""trial"",""time""
""fullscreenenter"",""1"",""1713""
","
","","","","","","2483.199999988079","images/tree5.png","","","memory_trial","1","definitely_old","","","","","","",""
"html-button-response","247","555154","0.0-15.0-2.101-0.101","1897","2","""event"",""trial"",""time""
""fullscreenenter"",""1"",""1713""
","
","
","""event"",""trial"",""time""
""fullscreenenter"",""1"",""1713""
","
","","","","","","5374.5","<p> Take a break! </p><p> Click the button to continue. </p>","0","","break","","","","","","","","",""
"html-keyboard-response","248","555656","0.0-15.0-0.102","1897","2","""event"",""trial"",""time""
""fullscreenenter"",""1"",""1713""
","
","
","""event"",""trial"",""time""
""fullscreenenter"",""1"",""1713""
","
","","","","","","null","<div style=""font-size:60px;"">+</div>","null","","fixation","","","","","","","","",""
"memory-trial","249","558339","0.0-15.0-1.102","1897","2","""event"",""trial"",""time""
""fullscreenenter"",""1"",""1713""
","
","
","""event"",""trial"",""time""
""fullscreenenter"",""1"",""1713""
","
","","","","","","1680","images/orange3.png","","","memory_trial","1","definitely_old","","","","","","",""
"html-keyboard-response","250","558842","0.0-15.0-0.103","1897","2","""event"",""trial"",""time""
""fullscreenenter"",""1"",""1713""
","
","
","""event"",""trial"",""time""
""fullscreenenter"",""1"",""1713""
","
","","","","","","null","<div style=""font-size:60px;"">+</div>","null","","fixation","","","","","","","","",""
"memory-trial","251","561099","0.0-15.0-1.103","1897","2","""event"",""trial"",""time""
""fullscreenenter"",""1"",""1713""
","
","
","""event"",""trial"",""time""
""fullscreenenter"",""1"",""1713""
","
","","","","","","1249.699999988079","images/feline2.png","","","memory_trial","4","definitely_new","","","","","","",""
"html-keyboard-response","252","561609","0.0-15.0-0.104","1897","2","""event"",""trial"",""time""
""fullscreenenter"",""1"",""1713""
","
","
","""event"",""trial"",""time""
""fullscreenenter"",""1"",""1713""
","
","","","","","","null","<div style=""font-size:60px;"">+</div>","null","","fixation","","","","","","","","",""
"memory-trial","253","564028","0.0-15.0-1.104","1897","2","""event"",""trial"",""time""
""fullscreenenter"",""1"",""1713""
","
","
","""event"",""trial"",""time""
""fullscreenenter"",""1"",""1713""
","
","","","","","","1414","images/sofa2.png","","","memory_trial","1","definitely_old","","","","","","",""
"html-keyboard-response","254","564531","0.0-15.0-0.105","1897","2","""event"",""trial"",""time""
""fullscreenenter"",""1"",""1713""
","
","
","""event"",""trial"",""time""
""fullscreenenter"",""1"",""1713""
","
","","","","","","null","<div style=""font-size:60px;"">+</div>","null","","fixation","","","","","","","","",""
"memory-trial","255","566926","0.0-15.0-1.105","1897","2","""event"",""trial"",""time""
""fullscreenenter"",""1"",""1713""
","
","
","""event"",""trial"",""time""
""fullscreenenter"",""1"",""1713""
","
","","","","","","1391.199999988079","images/rodent4.png","","","memory_trial","1","definitely_old","","","","","","",""
"html-keyboard-response","256","567428","0.0-15.0-0.106","1897","2","""event"",""trial"",""time""
""fullscreenenter"",""1"",""1713""
","
","
","""event"",""trial"",""time""
""fullscreenenter"",""1"",""1713""
","
","","","","","","null","<div style=""font-size:60px;"">+</div>","null","","fixation","","","","","","","","",""
"memory-trial","257","570127","0.0-15.0-1.106","1897","2","""event"",""trial"",""time""
""fullscreenenter"",""1"",""1713""
","
","
","""event"",""trial"",""time""
""fullscreenenter"",""1"",""1713""
","
","","","","","","1693.5","images/rodent1.png","","","memory_trial","4","definitely_new","","","","","","",""
"html-keyboard-response","258","570629","0.0-15.0-0.107","1897","2","""event"",""trial"",""time""
""fullscreenenter"",""1"",""1713""
","
","
","""event"",""trial"",""time""
""fullscreenenter"",""1"",""1713""
","
","","","","","","null","<div style=""font-size:60px;"">+</div>","null","","fixation","","","","","","","","",""
"memory-trial","259","573277","0.0-15.0-1.107","1897","2","""event"",""trial"",""time""
""fullscreenenter"",""1"",""1713""
","
","
","""event"",""trial"",""time""
""fullscreenenter"",""1"",""1713""
","
","","","","","","1641.8999999761581","images/horse5.png","","","memory_trial","4","definitely_new","","","","","","",""
"html-keyboard-response","260","573780","0.0-15.0-0.108","1897","2","""event"",""trial"",""time""
""fullscreenenter"",""1"",""1713""
","
","
","""event"",""trial"",""time""
""fullscreenenter"",""1"",""1713""
","
","","","","","","null","<div style=""font-size:60px;"">+</div>","null","","fixation","","","","","","","","",""
"memory-trial","261","576648","0.0-15.0-1.108","1897","2","""event"",""trial"",""time""
""fullscreenenter"",""1"",""1713""
","
","
","""event"",""trial"",""time""
""fullscreenenter"",""1"",""1713""
","
","","","","","","1863.8999999761581","images/horse4.png","","","memory_trial","1","definitely_old","","","","","","",""
"html-keyboard-response","262","577150","0.0-15.0-0.109","1897","2","""event"",""trial"",""time""
""fullscreenenter"",""1"",""1713""
","
","
","""event"",""trial"",""time""
""fullscreenenter"",""1"",""1713""
","
","","","","","","null","<div style=""font-size:60px;"">+</div>","null","","fixation","","","","","","","","",""
"memory-trial","263","579777","0.0-15.0-1.109","1897","2","""event"",""trial"",""time""
""fullscreenenter"",""1"",""1713""
","
","
","""event"",""trial"",""time""
""fullscreenenter"",""1"",""1713""
","
","","","","","","1623.199999988079","images/feline4.png","","","memory_trial","1","definitely_old","","","","","","",""
"html-keyboard-response","264","580280","0.0-15.0-0.110","1897","2","""event"",""trial"",""time""
""fullscreenenter"",""1"",""1713""
","
","
","""event"",""trial"",""time""
""fullscreenenter"",""1"",""1713""
","
","","","","","","null","<div style=""font-size:60px;"">+</div>","null","","fixation","","","","","","","","",""
"memory-trial","265","583297","0.0-15.0-1.110","1897","2","""event"",""trial"",""time""
""fullscreenenter"",""1"",""1713""
","
","
","""event"",""trial"",""time""
""fullscreenenter"",""1"",""1713""
","
","","","","","","2012.6000000238419","images/orange5.png","","","memory_trial","4","definitely_new","","","","","","",""
"html-keyboard-response","266","583800","0.0-15.0-0.111","1897","2","""event"",""trial"",""time""
""fullscreenenter"",""1"",""1713""
","
","
","""event"",""trial"",""time""
""fullscreenenter"",""1"",""1713""
","
","","","","","","null","<div style=""font-size:60px;"">+</div>","null","","fixation","","","","","","","","",""
"memory-trial","267","585977","0.0-15.0-1.111","1897","2","""event"",""trial"",""time""
""fullscreenenter"",""1"",""1713""
","
","
","""event"",""trial"",""time""
""fullscreenenter"",""1"",""1713""
","
","","","","","","1171.199999988079","images/apple1.png","","","memory_trial","4","definitely_new","","","","","","",""
"html-keyboard-response","268","586480","0.0-15.0-0.112","1897","2","""event"",""trial"",""time""
""fullscreenenter"",""1"",""1713""
","
","
","""event"",""trial"",""time""
""fullscreenenter"",""1"",""1713""
","
","","","","","","null","<div style=""font-size:60px;"">+</div>","null","","fixation","","","","","","","","",""
"memory-trial","269","589077","0.0-15.0-1.112","1897","2","""event"",""trial"",""time""
""fullscreenenter"",""1"",""1713""
","
","
","""event"",""trial"",""time""
""fullscreenenter"",""1"",""1713""
","
","","","","","","1592.699999988079","images/feline5.png","","","memory_trial","1","definitely_old","","","","","","",""
"html-keyboard-response","270","589588","0.0-15.0-0.113","1897","2","""event"",""trial"",""time""
""fullscreenenter"",""1"",""1713""
","
","
","""event"",""trial"",""time""
""fullscreenenter"",""1"",""1713""
","
","","","","","","null","<div style=""font-size:60px;"">+</div>","null","","fixation","","","","","","","","",""
"memory-trial","271","592277","0.0-15.0-1.113","1897","2","""event"",""trial"",""time""
""fullscreenenter"",""1"",""1713""
","
","
","""event"",""trial"",""time""
""fullscreenenter"",""1"",""1713""
","
","","","","","","1683.0999999642372","images/goat1.png","","","memory_trial","1","definitely_old","","","","","","",""
"html-keyboard-response","272","592780","0.0-15.0-0.114","1897","2","""event"",""trial"",""time""
""fullscreenenter"",""1"",""1713""
","
","
","""event"",""trial"",""time""
""fullscreenenter"",""1"",""1713""
","
","","","","","","null","<div style=""font-size:60px;"">+</div>","null","","fixation","","","","","","","","",""
"memory-trial","273","595627","0.0-15.0-1.114","1897","2","""event"",""trial"",""time""
""fullscreenenter"",""1"",""1713""
","
","
","""event"",""trial"",""time""
""fullscreenenter"",""1"",""1713""
","
","","","","","","1841.800000011921","images/train1.png","","","memory_trial","4","definitely_new","","","","","","",""
"html-keyboard-response","274","596130","0.0-15.0-0.115","1897","2","""event"",""trial"",""time""
""fullscreenenter"",""1"",""1713""
","
","
","""event"",""trial"",""time""
""fullscreenenter"",""1"",""1713""
","
","","","","","","null","<div style=""font-size:60px;"">+</div>","null","","fixation","","","","","","","","",""
"memory-trial","275","598306","0.0-15.0-1.115","1897","2","""event"",""trial"",""time""
""fullscreenenter"",""1"",""1713""
","
","
","""event"",""trial"",""time""
""fullscreenenter"",""1"",""1713""
","
","","","","","","1172.8999999761581","images/chair5.png","","","memory_trial","4","definitely_new","","","","","","",""
"html-keyboard-response","276","598810","0.0-15.0-0.116","1897","2","""event"",""trial"",""time""
""fullscreenenter"",""1"",""1713""
","
","
","""event"",""trial"",""time""
""fullscreenenter"",""1"",""1713""
","
","","","","","","null","<div style=""font-size:60px;"">+</div>","null","","fixation","","","","","","","","",""
"memory-trial","277","601837","0.0-15.0-1.116","1897","2","""event"",""trial"",""time""
""fullscreenenter"",""1"",""1713""
","
","
","""event"",""trial"",""time""
""fullscreenenter"",""1"",""1713""
","
","","","","","","2021.2000000476837","images/banana3.png","","","memory_trial","1","definitely_old","","","","","","",""
"html-keyboard-response","278","602339","0.0-15.0-0.117","1897","2","""event"",""trial"",""time""
""fullscreenenter"",""1"",""1713""
","
","
","""event"",""trial"",""time""
""fullscreenenter"",""1"",""1713""
","
","","","","","","null","<div style=""font-size:60px;"">+</div>","null","","fixation","","","","","","","","",""
"memory-trial","279","604468","0.0-15.0-1.117","1897","2","""event"",""trial"",""time""
""fullscreenenter"",""1"",""1713""
","
","
","""event"",""trial"",""time""
""fullscreenenter"",""1"",""1713""
","
","","","","","","1123.2999999523163","images/sheep5.png","","","memory_trial","4","definitely_new","","","","","","",""
"html-keyboard-response","280","604970","0.0-15.0-0.118","1897","2","""event"",""trial"",""time""
""fullscreenenter"",""1"",""1713""
","
","
","""event"",""trial"",""time""
""fullscreenenter"",""1"",""1713""
","
","","","","","","null","<div style=""font-size:60px;"">+</div>","null","","fixation","","","","","","","","",""
"memory-trial","281","607028","0.0-15.0-1.118","1897","2","""event"",""trial"",""time""
""fullscreenenter"",""1"",""1713""
","
","
","""event"",""trial"",""time""
""fullscreenenter"",""1"",""1713""
","
","","","","","","1052.0999999642372","images/cow2.png","","","memory_trial","4","definitely_new","","","","","","",""
"html-keyboard-response","282","607530","0.0-15.0-0.119","1897","2","""event"",""trial"",""time""
""fullscreenenter"",""1"",""1713""
","
","
","""event"",""trial"",""time""
""fullscreenenter"",""1"",""1713""
","
","","","","","","null","<div style=""font-size:60px;"">+</div>","null","","fixation","","","","","","","","",""
"memory-trial","283","612107","0.0-15.0-1.119","1897","2","""event"",""trial"",""time""
""fullscreenenter"",""1"",""1713""
","
","
","""event"",""trial"",""time""
""fullscreenenter"",""1"",""1713""
","
","","","","","","3571.600000023842","images/apple4.png","","","memory_trial","3","maybe_new","","","","","","",""
"preload","284","613299","0.0-16.0","1897","2","""event"",""trial"",""time""
""fullscreenenter"",""1"",""1713""
","
","
","""event"",""trial"",""time""
""fullscreenenter"",""1"",""1713""
","
","true","false","[]","[]","[]","","","","","","","","","","","","","",""
"learning-instructions","285","622489","0.0-17.0-0.0-0.0-0.0","1897","2","""event"",""trial"",""time""
""fullscreenenter"",""1"",""1713""
","
","
","""event"",""trial"",""time""
""fullscreenenter"",""1"",""1713""
","
","","","","","","3349.899999976158","<p> We're now going to ask you to return your farm animals to barns again. </p>","","0","instructions","","","","","","","","",""
"learning-instructions","286","628474","0.0-17.0-0.0-0.0-0.1","1897","2","""event"",""trial"",""time""
""fullscreenenter"",""1"",""1713""
","
","
","""event"",""trial"",""time""
""fullscreenenter"",""1"",""1713""
","
","","","","","","534.6000000238419","<p> On each trial, you will see a farm animal. Select the barn where you think the animal belongs. </p>","","0","instructions","","","","","","","","",""
"learning-instructions","287","636243","0.0-17.0-0.0-0.0-0.2","1897","2","""event"",""trial"",""time""
""fullscreenenter"",""1"",""1713""
","
","
","""event"",""trial"",""time""
""fullscreenenter"",""1"",""1713""
","
","","","","","","703.8000000119209","<p> To make your selection, think about what you learned last week. You will NOT receive any feedback about your choice. </p>","","0","instructions","","","","","","","","",""
"learning-instructions","288","644989","0.0-17.0-0.0-0.0-0.3","1897","2","""event"",""trial"",""time""
""fullscreenenter"",""1"",""1713""
","
","
","""event"",""trial"",""time""
""fullscreenenter"",""1"",""1713""
","
","","","","","","648.8999999761581","<p> You should use the 1 key to select the barn on the left, the 2 key to select the barn in the middle, and the 3 key to select the barn on the right. </p><br><div class=""choice-mem-instructions-grid""> <div class=""choice-mem-option""><img src=""images/animals_choice1.png"" class=""choice-mem-option-img"" stage=""instructions"" position=""0"" ><div class=""choice-mem-option-text""> Press ""1."" </div></div><div class=""choice-mem-option""><img src=""images/animals_choice2.png"" class=""choice-mem-option-img"" stage=""instructions"" position=""1"" ><div class=""choice-mem-option-text""> Press ""2."" </div></div><div class=""choice-mem-option""><img src=""images/animals_choice3.png"" class=""choice-mem-option-img"" stage=""instructions"" position=""2"" ><div class=""choice-mem-option-text""> Press ""3."" </div></div></div>","","0","instructions","","","","","","","","",""
"learning-instructions","289","652077","0.0-17.0-0.0-0.0-0.4","1897","2","""event"",""trial"",""time""
""fullscreenenter"",""1"",""1713""
","
","
","""event"",""trial"",""time""
""fullscreenenter"",""1"",""1713""
","
","","","","","","807.3999999761581","<p> You will have 10 seconds to make each selection. Try to respond before time runs out! </p>","","0","instructions","","","","","","","","",""
"learning-instructions","290","656666","0.0-17.0-0.0-1.0","1897","2","""event"",""trial"",""time""
""fullscreenenter"",""1"",""1713""
","
","
","""event"",""trial"",""time""
""fullscreenenter"",""1"",""1713""
","
","","","","","","2507.7000000476837","<p> You are now ready to begin the game. </p>","","0","instructions","","","","","","","","",""
"html-keyboard-response","291","657288","0.0-17.0-0.0-2.0-0.0","1897","2","""event"",""trial"",""time""
""fullscreenenter"",""1"",""1713""
","
","
","""event"",""trial"",""time""
""fullscreenenter"",""1"",""1713""
","
","","","","","","null","<div style=""font-size:60px;"">+</div>","null","","fixation","","","","","","","","",""
