"trial_type","trial_index","time_elapsed","internal_node_id","subject_id","task_version","interactions","blur_events","focus_events","fullscreenenter_events","fullscreenexit_events","success","timeout","failed_images","failed_audio","failed_video","rt","stimulus","response","button_pressed","task_part","key_press","answer","correct","left_choice","middle_choice","right_choice","choice_positions","option_selected","block"
"pavlovia","0","49","0.0-0.0","1849","2","""event"",""trial"",""time""
""fullscreenenter"",""1"",""2035""
","
","
","""event"",""trial"",""time""
""fullscreenenter"",""1"",""2035""
","
","","","","","","","","","","","","","","","","","","",""
"fullscreen","1","3026","0.0-1.0","1849","2","""event"",""trial"",""time""
""fullscreenenter"",""1"",""2035""
","
","
","""event"",""trial"",""time""
""fullscreenenter"",""1"",""2035""
","
","true","","","","","","","","","","","","","","","","","",""
"preload","2","3678","0.0-2.0","1849","2","""event"",""trial"",""time""
""fullscreenenter"",""1"",""2035""
","
","
","""event"",""trial"",""time""
""fullscreenenter"",""1"",""2035""
","
","true","false","[]","[]","[]","","","","","","","","","","","","","",""
"audio-keyboard-response","3","13444","0.0-3.0","1849","2","""event"",""trial"",""time""
""fullscreenenter"",""1"",""2035""
","
","
","""event"",""trial"",""time""
""fullscreenenter"",""1"",""2035""
","
","","","","","","9763.990929705216","audio/beep_loop.wav"," ","","","","","","","","","","",""
"audio-button-response","4","17518","0.0-4.0","1849","2","""event"",""trial"",""time""
""fullscreenenter"",""1"",""2035""
","
","
","""event"",""trial"",""time""
""fullscreenenter"",""1"",""2035""
","
","","","","","","4075","audio/turtle.wav","3","","","","","","","","","","",""
"audio-button-response","5","19901","0.0-5.0","1849","2","""event"",""trial"",""time""
""fullscreenenter"",""1"",""2035""
","
","
","""event"",""trial"",""time""
""fullscreenenter"",""1"",""2035""
","
","","","","","","1376","audio/shark.wav","2","","","","","","","","","","",""
"preload","6","23957","0.0-6.0","1849","2","""event"",""trial"",""time""
""fullscreenenter"",""1"",""2035""
","
","
","""event"",""trial"",""time""
""fullscreenenter"",""1"",""2035""
","
","true","false","[]","[]","[]","","","","","","","","","","","","","",""
"learning-instructions","7","31669","0.0-7.0-0.0","1849","2","""event"",""trial"",""time""
""fullscreenenter"",""1"",""2035""
","
","
","""event"",""trial"",""time""
""fullscreenenter"",""1"",""2035""
","
","","","","","","2905.899999976158","<p> Welcome back! </p><p> Last week, you had to make choices about lots of different items.  </p>","","0","instructions","","","","","","","","",""
"learning-instructions","8","36713","0.0-7.0-0.1","1849","2","""event"",""trial"",""time""
""fullscreenenter"",""1"",""2035""
","
","
","""event"",""trial"",""time""
""fullscreenenter"",""1"",""2035""
","
","","","","","","745.3000000119209","<p> Today, we are going to ask you to try to remember all the items. </p>","","0","instructions","","","","","","","","",""
"learning-instructions","9","47257","0.0-7.0-0.2","1849","2","""event"",""trial"",""time""
""fullscreenenter"",""1"",""2035""
","
","
","""event"",""trial"",""time""
""fullscreenenter"",""1"",""2035""
","
","","","","","","411","<p> On every trial, you will see an image. </p><p> The image may be an OLD image you saw during the games last week or it may be a NEW image that was not presented. </p>","","0","instructions","","","","","","","","",""
"learning-instructions","10","56937","0.0-7.0-0.3","1849","2","""event"",""trial"",""time""
""fullscreenenter"",""1"",""2035""
","
","
","""event"",""trial"",""time""
""fullscreenenter"",""1"",""2035""
","
","","","","","","1179","<p> You need to select whether the image is:  </p><p>  'Definitely old', 'Maybe old', 'Maybe new', or 'Definitely new.'  </p><div class=""mem-choice-instructions-grid""><div class=""choice-option"" id=""choice-option-1"" ><img src=""images/definitely_old_1.png"" id=""choice-option-img-1"" class=""choice-option-img"" stage=""1""></div><div class=""choice-option"" id=""choice-option-2"" ><img src=""images/maybe_old_1.png"" id=""choice-option-img-2"" class=""choice-option-img"" stage=""1""></div><div class=""choice-option"" id=""choice-option-3"" ><img src=""images/maybe_new_1.png"" id=""choice-option-img-3"" class=""choice-option-img"" stage=""1""></div><div class=""choice-option"" id=""choice-option-4"" > <img src=""images/definitely_new_1.png"" id=""choice-option-img-4"" class=""choice-option-img"" stage=""1""></div></div>","","0","instructions","","","","","","","","",""
"learning-instructions","11","113833","0.0-7.0-0.4","1849","2","""event"",""trial"",""time""
""fullscreenenter"",""1"",""2035""
","
","
","""event"",""trial"",""time""
""fullscreenenter"",""1"",""2035""
","
","","","","","","50184.90000000596","<p> You should use the 1, 2, 3, and 4 keys to make your responses.  </p><div class=""mem-choice-instructions-grid""><div class=""choice-option"" id=""choice-option-1"" ><img src=""images/definitely_old.png"" id=""choice-option-img-1"" class=""choice-option-img"" stage=""1""></div><div class=""choice-option"" id=""choice-option-2"" ><img src=""images/maybe_old.png"" id=""choice-option-img-2"" class=""choice-option-img"" stage=""1""></div><div class=""choice-option"" id=""choice-option-3"" ><img src=""images/maybe_new.png"" id=""choice-option-img-3"" class=""choice-option-img"" stage=""1""></div><div class=""choice-option"" id=""choice-option-4"" > <img src=""images/definitely_new.png"" id=""choice-option-img-4"" class=""choice-option-img"" stage=""1""></div></div>","","0","instructions","","","","","","","","",""
"learning-instructions","12","121551","0.0-7.0-0.5","1849","2","""event"",""trial"",""time""
""fullscreenenter"",""1"",""2035""
","
","
","""event"",""trial"",""time""
""fullscreenenter"",""1"",""2035""
","
","","","","","","847.3999999761581","<p> You will have 10 seconds to make each response.  </p><p>  Make sure to respond before time runs out! </p>","","0","instructions","","","","","","","","",""
"learning-instructions","13","130215","0.0-7.0-0.6","1849","2","""event"",""trial"",""time""
""fullscreenenter"",""1"",""2035""
","
","
","""event"",""trial"",""time""
""fullscreenenter"",""1"",""2035""
","
","","","","","","1081.5999999940395","<p> Today, you will see each image ONCE only.  </p><p>  That means none of the images will repeat. </p>","","0","instructions","","","","","","","","",""
"learning-instructions","14","146256","0.0-7.0-0.7","1849","2","""event"",""trial"",""time""
""fullscreenenter"",""1"",""2035""
","
","
","""event"",""trial"",""time""
""fullscreenenter"",""1"",""2035""
","
","","","","","","3375.300000011921","<p> Before you play the real game, it is time to practice. </p><p>  Just like in the real game, some of the images in the practice will be ones you have seen before. </p><p>  Others will be entirely new. </p>","","0","instructions","","","","","","","","",""
"html-button-response","15","152418","0.0-8.0","1849","2","""event"",""trial"",""time""
""fullscreenenter"",""1"",""2035""
","
","
","""event"",""trial"",""time""
""fullscreenenter"",""1"",""2035""
","
","","","","","","6060.700000017881","<p> Ready to practice? </p><p> Remember, use the 1, 2, 3, and 4 keys to make your responses. </p>","0","","instructions","","","","","","","","",""
"html-keyboard-response","16","153027","0.0-9.0-0.0","1849","2","""event"",""trial"",""time""
""fullscreenenter"",""1"",""2035""
","
","
","""event"",""trial"",""time""
""fullscreenenter"",""1"",""2035""
","
","","","","","","null","<div style=""font-size:60px;"">+</div>","null","","fixation","","","","","","","","",""
"memory-trial","17","157433","0.0-9.0-1.0","1849","2","""event"",""trial"",""time""
""fullscreenenter"",""1"",""2035""
","
","
","""event"",""trial"",""time""
""fullscreenenter"",""1"",""2035""
","
","","","","","","3397","images/ball2.png","","","practice","2","maybe_old","","","","","","",""
"html-keyboard-response","18","157937","0.0-9.0-0.1","1849","2","""event"",""trial"",""time""
""fullscreenenter"",""1"",""2035""
","
","
","""event"",""trial"",""time""
""fullscreenenter"",""1"",""2035""
","
","","","","","","null","<div style=""font-size:60px;"">+</div>","null","","fixation","","","","","","","","",""
"memory-trial","19","164149","0.0-9.0-1.1","1849","2","""event"",""trial"",""time""
""fullscreenenter"",""1"",""2035""
","
","
","""event"",""trial"",""time""
""fullscreenenter"",""1"",""2035""
","
","","","","","","5206.5","images/ball3.png","","","practice","1","definitely_old","","","","","","",""
"html-keyboard-response","20","164654","0.0-9.0-0.2","1849","2","""event"",""trial"",""time""
""fullscreenenter"",""1"",""2035""
","
","
","""event"",""trial"",""time""
""fullscreenenter"",""1"",""2035""
","
","","","","","","null","<div style=""font-size:60px;"">+</div>","null","","fixation","","","","","","","","",""
"memory-trial","21","172520","0.0-9.0-1.2","1849","2","""event"",""trial"",""time""
""fullscreenenter"",""1"",""2035""
","
","
","""event"",""trial"",""time""
""fullscreenenter"",""1"",""2035""
","
","","","","","","6858.199999988079","images/ball1.png","","","practice","1","definitely_old","","","","","","",""
"html-keyboard-response","22","173026","0.0-9.0-0.3","1849","2","""event"",""trial"",""time""
""fullscreenenter"",""1"",""2035""
","
","
","""event"",""trial"",""time""
""fullscreenenter"",""1"",""2035""
","
","","","","","","null","<div style=""font-size:60px;"">+</div>","null","","fixation","","","","","","","","",""
"memory-trial","23","177601","0.0-9.0-1.3","1849","2","""event"",""trial"",""time""
""fullscreenenter"",""1"",""2035""
","
","
","""event"",""trial"",""time""
""fullscreenenter"",""1"",""2035""
","
","","","","","","3568.899999976158","images/ball4.png","","","practice","1","definitely_old","","","","","","",""
"html-keyboard-response","24","178106","0.0-9.0-0.4","1849","2","""event"",""trial"",""time""
""fullscreenenter"",""1"",""2035""
","
","
","""event"",""trial"",""time""
""fullscreenenter"",""1"",""2035""
","
","","","","","","null","<div style=""font-size:60px;"">+</div>","null","","fixation","","","","","","","","",""
"memory-trial","25","183888","0.0-9.0-1.4","1849","2","""event"",""trial"",""time""
""fullscreenenter"",""1"",""2035""
","
","
","""event"",""trial"",""time""
""fullscreenenter"",""1"",""2035""
","
","","","","","","4778.300000011921","images/racket1.png","","","practice","4","definitely_new","","","","","","",""
"html-keyboard-response","26","184393","0.0-9.0-0.5","1849","2","""event"",""trial"",""time""
""fullscreenenter"",""1"",""2035""
","
","
","""event"",""trial"",""time""
""fullscreenenter"",""1"",""2035""
","
","","","","","","null","<div style=""font-size:60px;"">+</div>","null","","fixation","","","","","","","","",""
"memory-trial","27","190245","0.0-9.0-1.5","1849","2","""event"",""trial"",""time""
""fullscreenenter"",""1"",""2035""
","
","
","""event"",""trial"",""time""
""fullscreenenter"",""1"",""2035""
","
","","","","","","4846.9000000059605","images/racket2.png","","","practice","3","maybe_new","","","","","","",""
"html-keyboard-response","28","190750","0.0-9.0-0.6","1849","2","""event"",""trial"",""time""
""fullscreenenter"",""1"",""2035""
","
","
","""event"",""trial"",""time""
""fullscreenenter"",""1"",""2035""
","
","","","","","","null","<div style=""font-size:60px;"">+</div>","null","","fixation","","","","","","","","",""
"memory-trial","29","197291","0.0-9.0-1.6","1849","2","""event"",""trial"",""time""
""fullscreenenter"",""1"",""2035""
","
","
","""event"",""trial"",""time""
""fullscreenenter"",""1"",""2035""
","
","","","","","","5533.4000000059605","images/racket4.png","","","practice","2","maybe_old","","","","","","",""
"html-keyboard-response","30","197796","0.0-9.0-0.7","1849","2","""event"",""trial"",""time""
""fullscreenenter"",""1"",""2035""
","
","
","""event"",""trial"",""time""
""fullscreenenter"",""1"",""2035""
","
","","","","","","null","<div style=""font-size:60px;"">+</div>","null","","fixation","","","","","","","","",""
"memory-trial","31","201977","0.0-9.0-1.7","1849","2","""event"",""trial"",""time""
""fullscreenenter"",""1"",""2035""
","
","
","""event"",""trial"",""time""
""fullscreenenter"",""1"",""2035""
","
","","","","","","3172.699999988079","images/racket3.png","","","practice","4","definitely_new","","","","","","",""
"learning-instructions","32","229378","0.0-10.0-0.0","1849","2","""event"",""trial"",""time""
""fullscreenenter"",""1"",""2035""
","
","
","""event"",""trial"",""time""
""fullscreenenter"",""1"",""2035""
","
","","","","","","19336.90000000596","<p> Great! You have completed the practice. </p><p> Before you start, we're going to ask you a few questions about how the game works.  </p>","","0","instructions","","","","","","","","",""
"preload","33","235594","0.0-11.0","1849","2","""event"",""trial"",""time""
""fullscreenenter"",""1"",""2035""
","
","
","""event"",""trial"",""time""
""fullscreenenter"",""1"",""2035""
","
","true","false","[]","[]","[]","","","","","","","","","","","","","",""
"comp-q","34","243055","0.0-12.0-0.0","1849","2","""event"",""trial"",""time""
""fullscreenenter"",""1"",""2035""
","
","
","""event"",""trial"",""time""
""fullscreenenter"",""1"",""2035""
","
","","","","","","1632.300000011921","<p> <b> True or False? </b> </p><p> In this game, you will only see each image once. </p>","","0","comp_question","","","true","","","","","",""
"comp-q","35","254467","0.0-12.0-1.0","1849","2","""event"",""trial"",""time""
""fullscreenenter"",""1"",""2035""
","
","
","""event"",""trial"",""time""
""fullscreenenter"",""1"",""2035""
","
","","","","","","5073.699999988079","<p> <b> That's right! </b> You will see many different images <i> one time each </i> in this game. </p>","","0","comp_answer","","","","","","","","",""
"comp-q","36","261760","0.0-12.0-0.1","1849","2","""event"",""trial"",""time""
""fullscreenenter"",""1"",""2035""
","
","
","""event"",""trial"",""time""
""fullscreenenter"",""1"",""2035""
","
","","","","","","1493.5999999940395","<p> <b> True or False? </b> </p><p> You should use the mouse and click to make your response. </p>","","1","comp_question","","","true","","","","","",""
"comp-q","37","270378","0.0-12.0-1.1","1849","2","""event"",""trial"",""time""
""fullscreenenter"",""1"",""2035""
","
","
","""event"",""trial"",""time""
""fullscreenenter"",""1"",""2035""
","
","","","","","","1270.0999999940395","<p><b> That's right! </b> You should use the '1', '2', '3', and '4' keys to make your response. </p>","","0","comp_answer","","","","","","","","",""
"comp-q","38","277277","0.0-12.0-0.2","1849","2","""event"",""trial"",""time""
""fullscreenenter"",""1"",""2035""
","
","
","""event"",""trial"",""time""
""fullscreenenter"",""1"",""2035""
","
","","","","","","901.8000000119209","<p> <b> True or False? </b> </p><p> You will have as much time as you want to make each choice. </p>","","1","comp_question","","","true","","","","","",""
"comp-q","39","284594","0.0-12.0-1.2","1849","2","""event"",""trial"",""time""
""fullscreenenter"",""1"",""2035""
","
","
","""event"",""trial"",""time""
""fullscreenenter"",""1"",""2035""
","
","","","","","","1925.800000011921","<p> <b> That's right! </b> You will only have 10 seconds to make each choice. </p>","","0","comp_answer","","","","","","","","",""
"learning-instructions","40","296172","0.0-13.0","1849","2","""event"",""trial"",""time""
""fullscreenenter"",""1"",""2035""
","
","
","""event"",""trial"",""time""
""fullscreenenter"",""1"",""2035""
","
","","","","","","2909.9000000059605","<p> Great! You are now ready to begin the game. </p><p> Remember, use the 1, 2, 3, and 4 keys to make your responses. </p>","","0","instructions","","","","","","","","",""
"preload","41","310618","0.0-14.0","1849","2","""event"",""trial"",""time""
""fullscreenenter"",""1"",""2035""
","
","
","""event"",""trial"",""time""
""fullscreenenter"",""1"",""2035""
","
","true","false","[]","[]","[]","","","","","","","","","","","","","",""
"html-keyboard-response","42","311123","0.0-15.0-0.0","1849","2","""event"",""trial"",""time""
""fullscreenenter"",""1"",""2035""
","
","
","""event"",""trial"",""time""
""fullscreenenter"",""1"",""2035""
","
","","","","","","null","<div style=""font-size:60px;"">+</div>","null","","fixation","","","","","","","","",""
"memory-trial","43","315666","0.0-15.0-1.0","1849","2","""event"",""trial"",""time""
""fullscreenenter"",""1"",""2035""
","
","
","""event"",""trial"",""time""
""fullscreenenter"",""1"",""2035""
","
","","","","","","3532.9000000059605","images/table5.png","","","memory_trial","4","definitely_new","","","","","","",""
"html-keyboard-response","44","316169","0.0-15.0-0.1","1849","2","""event"",""trial"",""time""
""fullscreenenter"",""1"",""2035""
","
","
","""event"",""trial"",""time""
""fullscreenenter"",""1"",""2035""
","
","","","","","","null","<div style=""font-size:60px;"">+</div>","null","","fixation","","","","","","","","",""
"memory-trial","45","319931","0.0-15.0-1.1","1849","2","""event"",""trial"",""time""
""fullscreenenter"",""1"",""2035""
","
","
","""event"",""trial"",""time""
""fullscreenenter"",""1"",""2035""
","
","","","","","","2756.199999988079","images/sheep3.png","","","memory_trial","2","maybe_old","","","","","","",""
"html-keyboard-response","46","320436","0.0-15.0-0.2","1849","2","""event"",""trial"",""time""
""fullscreenenter"",""1"",""2035""
","
","
","""event"",""trial"",""time""
""fullscreenenter"",""1"",""2035""
","
","","","","","","null","<div style=""font-size:60px;"">+</div>","null","","fixation","","","","","","","","",""
"memory-trial","47","323745","0.0-15.0-1.2","1849","2","""event"",""trial"",""time""
""fullscreenenter"",""1"",""2035""
","
","
","""event"",""trial"",""time""
""fullscreenenter"",""1"",""2035""
","
","","","","","","2302.199999988079","images/feline3.png","","","memory_trial","4","definitely_new","","","","","","",""
"html-keyboard-response","48","324251","0.0-15.0-0.3","1849","2","""event"",""trial"",""time""
""fullscreenenter"",""1"",""2035""
","
","
","""event"",""trial"",""time""
""fullscreenenter"",""1"",""2035""
","
","","","","","","null","<div style=""font-size:60px;"">+</div>","null","","fixation","","","","","","","","",""
"memory-trial","49","326865","0.0-15.0-1.3","1849","2","""event"",""trial"",""time""
""fullscreenenter"",""1"",""2035""
","
","
","""event"",""trial"",""time""
""fullscreenenter"",""1"",""2035""
","
","","","","","","1610","images/horse5.png","","","memory_trial","4","definitely_new","","","","","","",""
"html-keyboard-response","50","327368","0.0-15.0-0.4","1849","2","""event"",""trial"",""time""
""fullscreenenter"",""1"",""2035""
","
","
","""event"",""trial"",""time""
""fullscreenenter"",""1"",""2035""
","
","","","","","","null","<div style=""font-size:60px;"">+</div>","null","","fixation","","","","","","","","",""
"memory-trial","51","330867","0.0-15.0-1.4","1849","2","""event"",""trial"",""time""
""fullscreenenter"",""1"",""2035""
","
","
","""event"",""trial"",""time""
""fullscreenenter"",""1"",""2035""
","
","","","","","","2491.399999976158","images/table1.png","","","memory_trial","3","maybe_new","","","","","","",""
"html-keyboard-response","52","331368","0.0-15.0-0.5","1849","2","""event"",""trial"",""time""
""fullscreenenter"",""1"",""2035""
","
","
","""event"",""trial"",""time""
""fullscreenenter"",""1"",""2035""
","
","","","","","","null","<div style=""font-size:60px;"">+</div>","null","","fixation","","","","","","","","",""
"memory-trial","53","334543","0.0-15.0-1.5","1849","2","""event"",""trial"",""time""
""fullscreenenter"",""1"",""2035""
","
","
","""event"",""trial"",""time""
""fullscreenenter"",""1"",""2035""
","
","","","","","","2170.2000000178814","images/plane2.png","","","memory_trial","4","definitely_new","","","","","","",""
"html-keyboard-response","54","335048","0.0-15.0-0.6","1849","2","""event"",""trial"",""time""
""fullscreenenter"",""1"",""2035""
","
","
","""event"",""trial"",""time""
""fullscreenenter"",""1"",""2035""
","
","","","","","","null","<div style=""font-size:60px;"">+</div>","null","","fixation","","","","","","","","",""
"memory-trial","55","338045","0.0-15.0-1.6","1849","2","""event"",""trial"",""time""
""fullscreenenter"",""1"",""2035""
","
","
","""event"",""trial"",""time""
""fullscreenenter"",""1"",""2035""
","
","","","","","","1992.2999999821186","images/train5.png","","","memory_trial","3","maybe_new","","","","","","",""
"html-keyboard-response","56","338551","0.0-15.0-0.7","1849","2","""event"",""trial"",""time""
""fullscreenenter"",""1"",""2035""
","
","
","""event"",""trial"",""time""
""fullscreenenter"",""1"",""2035""
","
","","","","","","null","<div style=""font-size:60px;"">+</div>","null","","fixation","","","","","","","","",""
"memory-trial","57","341318","0.0-15.0-1.7","1849","2","""event"",""trial"",""time""
""fullscreenenter"",""1"",""2035""
","
","
","""event"",""trial"",""time""
""fullscreenenter"",""1"",""2035""
","
","","","","","","1760.5","images/rodent3.png","","","memory_trial","1","definitely_old","","","","","","",""
"html-keyboard-response","58","341823","0.0-15.0-0.8","1849","2","""event"",""trial"",""time""
""fullscreenenter"",""1"",""2035""
","
","
","""event"",""trial"",""time""
""fullscreenenter"",""1"",""2035""
","
","","","","","","null","<div style=""font-size:60px;"">+</div>","null","","fixation","","","","","","","","",""
"memory-trial","59","345103","0.0-15.0-1.8","1849","2","""event"",""trial"",""time""
""fullscreenenter"",""1"",""2035""
","
","
","""event"",""trial"",""time""
""fullscreenenter"",""1"",""2035""
","
","","","","","","2272.399999976158","images/apple1.png","","","memory_trial","4","definitely_new","","","","","","",""
"html-keyboard-response","60","345608","0.0-15.0-0.9","1849","2","""event"",""trial"",""time""
""fullscreenenter"",""1"",""2035""
","
","
","""event"",""trial"",""time""
""fullscreenenter"",""1"",""2035""
","
","","","","","","null","<div style=""font-size:60px;"">+</div>","null","","fixation","","","","","","","","",""
"memory-trial","61","348389","0.0-15.0-1.9","1849","2","""event"",""trial"",""time""
""fullscreenenter"",""1"",""2035""
","
","
","""event"",""trial"",""time""
""fullscreenenter"",""1"",""2035""
","
","","","","","","1773.699999988079","images/rabbit3.png","","","memory_trial","1","definitely_old","","","","","","",""
"html-keyboard-response","62","348894","0.0-15.0-0.10","1849","2","""event"",""trial"",""time""
""fullscreenenter"",""1"",""2035""
","
","
","""event"",""trial"",""time""
""fullscreenenter"",""1"",""2035""
","
","","","","","","null","<div style=""font-size:60px;"">+</div>","null","","fixation","","","","","","","","",""
"memory-trial","63","352386","0.0-15.0-1.10","1849","2","""event"",""trial"",""time""
""fullscreenenter"",""1"",""2035""
","
","
","""event"",""trial"",""time""
""fullscreenenter"",""1"",""2035""
","
","","","","","","2485.199999988079","images/bed1.png","","","memory_trial","4","definitely_new","","","","","","",""
"html-keyboard-response","64","352888","0.0-15.0-0.11","1849","2","""event"",""trial"",""time""
""fullscreenenter"",""1"",""2035""
","
","
","""event"",""trial"",""time""
""fullscreenenter"",""1"",""2035""
","
","","","","","","null","<div style=""font-size:60px;"">+</div>","null","","fixation","","","","","","","","",""
"memory-trial","65","356231","0.0-15.0-1.11","1849","2","""event"",""trial"",""time""
""fullscreenenter"",""1"",""2035""
","
","
","""event"",""trial"",""time""
""fullscreenenter"",""1"",""2035""
","
","","","","","","2335.699999988079","images/banana5.png","","","memory_trial","1","definitely_old","","","","","","",""
"html-keyboard-response","66","356736","0.0-15.0-0.12","1849","2","""event"",""trial"",""time""
""fullscreenenter"",""1"",""2035""
","
","
","""event"",""trial"",""time""
""fullscreenenter"",""1"",""2035""
","
","","","","","","null","<div style=""font-size:60px;"">+</div>","null","","fixation","","","","","","","","",""
"memory-trial","67","360574","0.0-15.0-1.12","1849","2","""event"",""trial"",""time""
""fullscreenenter"",""1"",""2035""
","
","
","""event"",""trial"",""time""
""fullscreenenter"",""1"",""2035""
","
","","","","","","2833.300000011921","images/sofa3.png","","","memory_trial","4","definitely_new","","","","","","",""
"html-keyboard-response","68","361078","0.0-15.0-0.13","1849","2","""event"",""trial"",""time""
""fullscreenenter"",""1"",""2035""
","
","
","""event"",""trial"",""time""
""fullscreenenter"",""1"",""2035""
","
","","","","","","null","<div style=""font-size:60px;"">+</div>","null","","fixation","","","","","","","","",""
"memory-trial","69","363835","0.0-15.0-1.13","1849","2","""event"",""trial"",""time""
""fullscreenenter"",""1"",""2035""
","
","
","""event"",""trial"",""time""
""fullscreenenter"",""1"",""2035""
","
","","","","","","1754","images/boat1.png","","","memory_trial","4","definitely_new","","","","","","",""
"html-keyboard-response","70","364341","0.0-15.0-0.14","1849","2","""event"",""trial"",""time""
""fullscreenenter"",""1"",""2035""
","
","
","""event"",""trial"",""time""
""fullscreenenter"",""1"",""2035""
","
","","","","","","null","<div style=""font-size:60px;"">+</div>","null","","fixation","","","","","","","","",""
"memory-trial","71","367116","0.0-15.0-1.14","1849","2","""event"",""trial"",""time""
""fullscreenenter"",""1"",""2035""
","
","
","""event"",""trial"",""time""
""fullscreenenter"",""1"",""2035""
","
","","","","","","1769.199999988079","images/boat5.png","","","memory_trial","4","definitely_new","","","","","","",""
"html-keyboard-response","72","367621","0.0-15.0-0.15","1849","2","""event"",""trial"",""time""
""fullscreenenter"",""1"",""2035""
","
","
","""event"",""trial"",""time""
""fullscreenenter"",""1"",""2035""
","
","","","","","","null","<div style=""font-size:60px;"">+</div>","null","","fixation","","","","","","","","",""
"memory-trial","73","370918","0.0-15.0-1.15","1849","2","""event"",""trial"",""time""
""fullscreenenter"",""1"",""2035""
","
","
","""event"",""trial"",""time""
""fullscreenenter"",""1"",""2035""
","
","","","","","","2292.600000023842","images/truck3.png","","","memory_trial","2","maybe_old","","","","","","",""
"html-keyboard-response","74","371424","0.0-15.0-0.16","1849","2","""event"",""trial"",""time""
""fullscreenenter"",""1"",""2035""
","
","
","""event"",""trial"",""time""
""fullscreenenter"",""1"",""2035""
","
","","","","","","null","<div style=""font-size:60px;"">+</div>","null","","fixation","","","","","","","","",""
"memory-trial","75","373997","0.0-15.0-1.16","1849","2","""event"",""trial"",""time""
""fullscreenenter"",""1"",""2035""
","
","
","""event"",""trial"",""time""
""fullscreenenter"",""1"",""2035""
","
","","","","","","1565.4000000059605","images/rabbit2.png","","","memory_trial","1","definitely_old","","","","","","",""
"html-keyboard-response","76","374500","0.0-15.0-0.17","1849","2","""event"",""trial"",""time""
""fullscreenenter"",""1"",""2035""
","
","
","""event"",""trial"",""time""
""fullscreenenter"",""1"",""2035""
","
","","","","","","null","<div style=""font-size:60px;"">+</div>","null","","fixation","","","","","","","","",""
"memory-trial","77","377920","0.0-15.0-1.17","1849","2","""event"",""trial"",""time""
""fullscreenenter"",""1"",""2035""
","
","
","""event"",""trial"",""time""
""fullscreenenter"",""1"",""2035""
","
","","","","","","2413.9000000059605","images/plane4.png","","","memory_trial","2","maybe_old","","","","","","",""
"html-keyboard-response","78","378424","0.0-15.0-0.18","1849","2","""event"",""trial"",""time""
""fullscreenenter"",""1"",""2035""
","
","
","""event"",""trial"",""time""
""fullscreenenter"",""1"",""2035""
","
","","","","","","null","<div style=""font-size:60px;"">+</div>","null","","fixation","","","","","","","","",""
"memory-trial","79","381234","0.0-15.0-1.18","1849","2","""event"",""trial"",""time""
""fullscreenenter"",""1"",""2035""
","
","
","""event"",""trial"",""time""
""fullscreenenter"",""1"",""2035""
","
","","","","","","1806.2000000178814","images/goat5.png","","","memory_trial","1","definitely_old","","","","","","",""
"html-keyboard-response","80","381739","0.0-15.0-0.19","1849","2","""event"",""trial"",""time""
""fullscreenenter"",""1"",""2035""
","
","
","""event"",""trial"",""time""
""fullscreenenter"",""1"",""2035""
","
","","","","","","null","<div style=""font-size:60px;"">+</div>","null","","fixation","","","","","","","","",""
"memory-trial","81","384212","0.0-15.0-1.19","1849","2","""event"",""trial"",""time""
""fullscreenenter"",""1"",""2035""
","
","
","""event"",""trial"",""time""
""fullscreenenter"",""1"",""2035""
","
","","","","","","1466.8999999761581","images/banana4.png","","","memory_trial","1","definitely_old","","","","","","",""
"html-keyboard-response","82","384717","0.0-15.0-0.20","1849","2","""event"",""trial"",""time""
""fullscreenenter"",""1"",""2035""
","
","
","""event"",""trial"",""time""
""fullscreenenter"",""1"",""2035""
","
","","","","","","null","<div style=""font-size:60px;"">+</div>","null","","fixation","","","","","","","","",""
"memory-trial","83","388578","0.0-15.0-1.20","1849","2","""event"",""trial"",""time""
""fullscreenenter"",""1"",""2035""
","
","
","""event"",""trial"",""time""
""fullscreenenter"",""1"",""2035""
","
","","","","","","2854.5","images/banana1.png","","","memory_trial","2","maybe_old","","","","","","",""
"html-keyboard-response","84","389083","0.0-15.0-0.21","1849","2","""event"",""trial"",""time""
""fullscreenenter"",""1"",""2035""
","
","
","""event"",""trial"",""time""
""fullscreenenter"",""1"",""2035""
","
","","","","","","null","<div style=""font-size:60px;"">+</div>","null","","fixation","","","","","","","","",""
"memory-trial","85","392270","0.0-15.0-1.21","1849","2","""event"",""trial"",""time""
""fullscreenenter"",""1"",""2035""
","
","
","""event"",""trial"",""time""
""fullscreenenter"",""1"",""2035""
","
","","","","","","2180.5999999940395","images/train2.png","","","memory_trial","1","definitely_old","","","","","","",""
"html-keyboard-response","86","392775","0.0-15.0-0.22","1849","2","""event"",""trial"",""time""
""fullscreenenter"",""1"",""2035""
","
","
","""event"",""trial"",""time""
""fullscreenenter"",""1"",""2035""
","
","","","","","","null","<div style=""font-size:60px;"">+</div>","null","","fixation","","","","","","","","",""
"memory-trial","87","395202","0.0-15.0-1.22","1849","2","""event"",""trial"",""time""
""fullscreenenter"",""1"",""2035""
","
","
","""event"",""trial"",""time""
""fullscreenenter"",""1"",""2035""
","
","","","","","","1424","images/straw5.png","","","memory_trial","1","definitely_old","","","","","","",""
"html-keyboard-response","88","395706","0.0-15.0-0.23","1849","2","""event"",""trial"",""time""
""fullscreenenter"",""1"",""2035""
","
","
","""event"",""trial"",""time""
""fullscreenenter"",""1"",""2035""
","
","","","","","","null","<div style=""font-size:60px;"">+</div>","null","","fixation","","","","","","","","",""
"memory-trial","89","397952","0.0-15.0-1.23","1849","2","""event"",""trial"",""time""
""fullscreenenter"",""1"",""2035""
","
","
","""event"",""trial"",""time""
""fullscreenenter"",""1"",""2035""
","
","","","","","","1242.4000000059605","images/goat4.png","","","memory_trial","1","definitely_old","","","","","","",""
"html-keyboard-response","90","398458","0.0-15.0-0.24","1849","2","""event"",""trial"",""time""
""fullscreenenter"",""1"",""2035""
","
","
","""event"",""trial"",""time""
""fullscreenenter"",""1"",""2035""
","
","","","","","","null","<div style=""font-size:60px;"">+</div>","null","","fixation","","","","","","","","",""
"memory-trial","91","402000","0.0-15.0-1.24","1849","2","""event"",""trial"",""time""
""fullscreenenter"",""1"",""2035""
","
","
","""event"",""trial"",""time""
""fullscreenenter"",""1"",""2035""
","
","","","","","","2536.9000000059605","images/feline4.png","","","memory_trial","1","definitely_old","","","","","","",""
"html-keyboard-response","92","402504","0.0-15.0-0.25","1849","2","""event"",""trial"",""time""
""fullscreenenter"",""1"",""2035""
","
","
","""event"",""trial"",""time""
""fullscreenenter"",""1"",""2035""
","
","","","","","","null","<div style=""font-size:60px;"">+</div>","null","","fixation","","","","","","","","",""
"memory-trial","93","404890","0.0-15.0-1.25","1849","2","""event"",""trial"",""time""
""fullscreenenter"",""1"",""2035""
","
","
","""event"",""trial"",""time""
""fullscreenenter"",""1"",""2035""
","
","","","","","","1382.7999999821186","images/flower3.png","","","memory_trial","1","definitely_old","","","","","","",""
"html-keyboard-response","94","405395","0.0-15.0-0.26","1849","2","""event"",""trial"",""time""
""fullscreenenter"",""1"",""2035""
","
","
","""event"",""trial"",""time""
""fullscreenenter"",""1"",""2035""
","
","","","","","","null","<div style=""font-size:60px;"">+</div>","null","","fixation","","","","","","","","",""
"memory-trial","95","408025","0.0-15.0-1.26","1849","2","""event"",""trial"",""time""
""fullscreenenter"",""1"",""2035""
","
","
","""event"",""trial"",""time""
""fullscreenenter"",""1"",""2035""
","
","","","","","","1622.5","images/apple3.png","","","memory_trial","4","definitely_new","","","","","","",""
"html-keyboard-response","96","408530","0.0-15.0-0.27","1849","2","""event"",""trial"",""time""
""fullscreenenter"",""1"",""2035""
","
","
","""event"",""trial"",""time""
""fullscreenenter"",""1"",""2035""
","
","","","","","","null","<div style=""font-size:60px;"">+</div>","null","","fixation","","","","","","","","",""
"memory-trial","97","413221","0.0-15.0-1.27","1849","2","""event"",""trial"",""time""
""fullscreenenter"",""1"",""2035""
","
","
","""event"",""trial"",""time""
""fullscreenenter"",""1"",""2035""
","
","","","","","","3683.699999988079","images/tree4.png","","","memory_trial","2","maybe_old","","","","","","",""
"html-keyboard-response","98","413726","0.0-15.0-0.28","1849","2","""event"",""trial"",""time""
""fullscreenenter"",""1"",""2035""
","
","
","""event"",""trial"",""time""
""fullscreenenter"",""1"",""2035""
","
","","","","","","null","<div style=""font-size:60px;"">+</div>","null","","fixation","","","","","","","","",""
"memory-trial","99","418880","0.0-15.0-1.28","1849","2","""event"",""trial"",""time""
""fullscreenenter"",""1"",""2035""
","
","
","""event"",""trial"",""time""
""fullscreenenter"",""1"",""2035""
","
","","","","","","4149.5","images/table2.png","","","memory_trial","3","maybe_new","","","","","","",""
"html-keyboard-response","100","419386","0.0-15.0-0.29","1849","2","""event"",""trial"",""time""
""fullscreenenter"",""1"",""2035""
","
","
","""event"",""trial"",""time""
""fullscreenenter"",""1"",""2035""
","
","","","","","","null","<div style=""font-size:60px;"">+</div>","null","","fixation","","","","","","","","",""
"memory-trial","101","422126","0.0-15.0-1.29","1849","2","""event"",""trial"",""time""
""fullscreenenter"",""1"",""2035""
","
","
","""event"",""trial"",""time""
""fullscreenenter"",""1"",""2035""
","
","","","","","","1733.5","images/rabbit1.png","","","memory_trial","1","definitely_old","","","","","","",""
"html-keyboard-response","102","422630","0.0-15.0-0.30","1849","2","""event"",""trial"",""time""
""fullscreenenter"",""1"",""2035""
","
","
","""event"",""trial"",""time""
""fullscreenenter"",""1"",""2035""
","
","","","","","","null","<div style=""font-size:60px;"">+</div>","null","","fixation","","","","","","","","",""
"memory-trial","103","425127","0.0-15.0-1.30","1849","2","""event"",""trial"",""time""
""fullscreenenter"",""1"",""2035""
","
","
","""event"",""trial"",""time""
""fullscreenenter"",""1"",""2035""
","
","","","","","","1491.800000011921","images/cow1.png","","","memory_trial","1","definitely_old","","","","","","",""
"html-keyboard-response","104","425632","0.0-15.0-0.31","1849","2","""event"",""trial"",""time""
""fullscreenenter"",""1"",""2035""
","
","
","""event"",""trial"",""time""
""fullscreenenter"",""1"",""2035""
","
","","","","","","null","<div style=""font-size:60px;"">+</div>","null","","fixation","","","","","","","","",""
"memory-trial","105","428163","0.0-15.0-1.31","1849","2","""event"",""trial"",""time""
""fullscreenenter"",""1"",""2035""
","
","
","""event"",""trial"",""time""
""fullscreenenter"",""1"",""2035""
","
","","","","","","1527.7999999821186","images/train1.png","","","memory_trial","1","definitely_old","","","","","","",""
"html-keyboard-response","106","428668","0.0-15.0-0.32","1849","2","""event"",""trial"",""time""
""fullscreenenter"",""1"",""2035""
","
","
","""event"",""trial"",""time""
""fullscreenenter"",""1"",""2035""
","
","","","","","","null","<div style=""font-size:60px;"">+</div>","null","","fixation","","","","","","","","",""
"memory-trial","107","430979","0.0-15.0-1.32","1849","2","""event"",""trial"",""time""
""fullscreenenter"",""1"",""2035""
","
","
","""event"",""trial"",""time""
""fullscreenenter"",""1"",""2035""
","
","","","","","","1308.199999988079","images/orange5.png","","","memory_trial","1","definitely_old","","","","","","",""
"html-keyboard-response","108","431484","0.0-15.0-0.33","1849","2","""event"",""trial"",""time""
""fullscreenenter"",""1"",""2035""
","
","
","""event"",""trial"",""time""
""fullscreenenter"",""1"",""2035""
","
","","","","","","null","<div style=""font-size:60px;"">+</div>","null","","fixation","","","","","","","","",""
"memory-trial","109","434974","0.0-15.0-1.33","1849","2","""event"",""trial"",""time""
""fullscreenenter"",""1"",""2035""
","
","
","""event"",""trial"",""time""
""fullscreenenter"",""1"",""2035""
","
","","","","","","2482.9000000059605","images/chair2.png","","","memory_trial","4","definitely_new","","","","","","",""
"html-keyboard-response","110","435477","0.0-15.0-0.34","1849","2","""event"",""trial"",""time""
""fullscreenenter"",""1"",""2035""
","
","
","""event"",""trial"",""time""
""fullscreenenter"",""1"",""2035""
","
","","","","","","null","<div style=""font-size:60px;"">+</div>","null","","fixation","","","","","","","","",""
"memory-trial","111","438142","0.0-15.0-1.34","1849","2","""event"",""trial"",""time""
""fullscreenenter"",""1"",""2035""
","
","
","""event"",""trial"",""time""
""fullscreenenter"",""1"",""2035""
","
","","","","","","1659.8999999761581","images/sheep2.png","","","memory_trial","1","definitely_old","","","","","","",""
"html-keyboard-response","112","438647","0.0-15.0-0.35","1849","2","""event"",""trial"",""time""
""fullscreenenter"",""1"",""2035""
","
","
","""event"",""trial"",""time""
""fullscreenenter"",""1"",""2035""
","
","","","","","","null","<div style=""font-size:60px;"">+</div>","null","","fixation","","","","","","","","",""
"memory-trial","113","441224","0.0-15.0-1.35","1849","2","""event"",""trial"",""time""
""fullscreenenter"",""1"",""2035""
","
","
","""event"",""trial"",""time""
""fullscreenenter"",""1"",""2035""
","
","","","","","","1570.800000011921","images/chair5.png","","","memory_trial","1","definitely_old","","","","","","",""
"html-keyboard-response","114","441730","0.0-15.0-0.36","1849","2","""event"",""trial"",""time""
""fullscreenenter"",""1"",""2035""
","
","
","""event"",""trial"",""time""
""fullscreenenter"",""1"",""2035""
","
","","","","","","null","<div style=""font-size:60px;"">+</div>","null","","fixation","","","","","","","","",""
"memory-trial","115","444027","0.0-15.0-1.36","1849","2","""event"",""trial"",""time""
""fullscreenenter"",""1"",""2035""
","
","
","""event"",""trial"",""time""
""fullscreenenter"",""1"",""2035""
","
","","","","","","1290.0999999940395","images/bush4.png","","","memory_trial","1","definitely_old","","","","","","",""
"html-keyboard-response","116","444533","0.0-15.0-0.37","1849","2","""event"",""trial"",""time""
""fullscreenenter"",""1"",""2035""
","
","
","""event"",""trial"",""time""
""fullscreenenter"",""1"",""2035""
","
","","","","","","null","<div style=""font-size:60px;"">+</div>","null","","fixation","","","","","","","","",""
"memory-trial","117","448139","0.0-15.0-1.37","1849","2","""event"",""trial"",""time""
""fullscreenenter"",""1"",""2035""
","
","
","""event"",""trial"",""time""
""fullscreenenter"",""1"",""2035""
","
","","","","","","2602.4000000059605","images/plane5.png","","","memory_trial","2","maybe_old","","","","","","",""
"html-keyboard-response","118","448644","0.0-15.0-0.38","1849","2","""event"",""trial"",""time""
""fullscreenenter"",""1"",""2035""
","
","
","""event"",""trial"",""time""
""fullscreenenter"",""1"",""2035""
","
","","","","","","null","<div style=""font-size:60px;"">+</div>","null","","fixation","","","","","","","","",""
"memory-trial","119","453027","0.0-15.0-1.38","1849","2","""event"",""trial"",""time""
""fullscreenenter"",""1"",""2035""
","
","
","""event"",""trial"",""time""
""fullscreenenter"",""1"",""2035""
","
","","","","","","3379.2999999821186","images/truck4.png","","","memory_trial","3","maybe_new","","","","","","",""
"html-keyboard-response","120","453532","0.0-15.0-0.39","1849","2","""event"",""trial"",""time""
""fullscreenenter"",""1"",""2035""
","
","
","""event"",""trial"",""time""
""fullscreenenter"",""1"",""2035""
","
","","","","","","null","<div style=""font-size:60px;"">+</div>","null","","fixation","","","","","","","","",""
"memory-trial","121","456196","0.0-15.0-1.39","1849","2","""event"",""trial"",""time""
""fullscreenenter"",""1"",""2035""
","
","
","""event"",""trial"",""time""
""fullscreenenter"",""1"",""2035""
","
","","","","","","1659.7000000178814","images/straw3.png","","","memory_trial","1","definitely_old","","","","","","",""
"html-keyboard-response","122","456701","0.0-15.0-0.40","1849","2","""event"",""trial"",""time""
""fullscreenenter"",""1"",""2035""
","
","
","""event"",""trial"",""time""
""fullscreenenter"",""1"",""2035""
","
","","","","","","null","<div style=""font-size:60px;"">+</div>","null","","fixation","","","","","","","","",""
"memory-trial","123","460835","0.0-15.0-1.40","1849","2","""event"",""trial"",""time""
""fullscreenenter"",""1"",""2035""
","
","
","""event"",""trial"",""time""
""fullscreenenter"",""1"",""2035""
","
","","","","","","3129.300000011921","images/cow2.png","","","memory_trial","3","maybe_new","","","","","","",""
"html-keyboard-response","124","461336","0.0-15.0-0.41","1849","2","""event"",""trial"",""time""
""fullscreenenter"",""1"",""2035""
","
","
","""event"",""trial"",""time""
""fullscreenenter"",""1"",""2035""
","
","","","","","","null","<div style=""font-size:60px;"">+</div>","null","","fixation","","","","","","","","",""
"memory-trial","125","464498","0.0-15.0-1.41","1849","2","""event"",""trial"",""time""
""fullscreenenter"",""1"",""2035""
","
","
","""event"",""trial"",""time""
""fullscreenenter"",""1"",""2035""
","
","","","","","","2158.0999999940395","images/boat3.png","","","memory_trial","3","maybe_new","","","","","","",""
"html-keyboard-response","126","465002","0.0-15.0-0.42","1849","2","""event"",""trial"",""time""
""fullscreenenter"",""1"",""2035""
","
","
","""event"",""trial"",""time""
""fullscreenenter"",""1"",""2035""
","
","","","","","","null","<div style=""font-size:60px;"">+</div>","null","","fixation","","","","","","","","",""
"memory-trial","127","467830","0.0-15.0-1.42","1849","2","""event"",""trial"",""time""
""fullscreenenter"",""1"",""2035""
","
","
","""event"",""trial"",""time""
""fullscreenenter"",""1"",""2035""
","
","","","","","","1821.800000011921","images/orange2.png","","","memory_trial","1","definitely_old","","","","","","",""
"html-keyboard-response","128","468335","0.0-15.0-0.43","1849","2","""event"",""trial"",""time""
""fullscreenenter"",""1"",""2035""
","
","
","""event"",""trial"",""time""
""fullscreenenter"",""1"",""2035""
","
","","","","","","null","<div style=""font-size:60px;"">+</div>","null","","fixation","","","","","","","","",""
"memory-trial","129","470405","0.0-15.0-1.43","1849","2","""event"",""trial"",""time""
""fullscreenenter"",""1"",""2035""
","
","
","""event"",""trial"",""time""
""fullscreenenter"",""1"",""2035""
","
","","","","","","1062.4000000059605","images/sheep1.png","","","memory_trial","1","definitely_old","","","","","","",""
"html-keyboard-response","130","470907","0.0-15.0-0.44","1849","2","""event"",""trial"",""time""
""fullscreenenter"",""1"",""2035""
","
","
","""event"",""trial"",""time""
""fullscreenenter"",""1"",""2035""
","
","","","","","","null","<div style=""font-size:60px;"">+</div>","null","","fixation","","","","","","","","",""
"memory-trial","131","473380","0.0-15.0-1.44","1849","2","""event"",""trial"",""time""
""fullscreenenter"",""1"",""2035""
","
","
","""event"",""trial"",""time""
""fullscreenenter"",""1"",""2035""
","
","","","","","","1467.300000011921","images/feline1.png","","","memory_trial","4","definitely_new","","","","","","",""
"html-keyboard-response","132","473885","0.0-15.0-0.45","1849","2","""event"",""trial"",""time""
""fullscreenenter"",""1"",""2035""
","
","
","""event"",""trial"",""time""
""fullscreenenter"",""1"",""2035""
","
","","","","","","null","<div style=""font-size:60px;"">+</div>","null","","fixation","","","","","","","","",""
"memory-trial","133","476549","0.0-15.0-1.45","1849","2","""event"",""trial"",""time""
""fullscreenenter"",""1"",""2035""
","
","
","""event"",""trial"",""time""
""fullscreenenter"",""1"",""2035""
","
","","","","","","1660.199999988079","images/tree5.png","","","memory_trial","4","definitely_new","","","","","","",""
"html-keyboard-response","134","477054","0.0-15.0-0.46","1849","2","""event"",""trial"",""time""
""fullscreenenter"",""1"",""2035""
","
","
","""event"",""trial"",""time""
""fullscreenenter"",""1"",""2035""
","
","","","","","","null","<div style=""font-size:60px;"">+</div>","null","","fixation","","","","","","","","",""
"memory-trial","135","479507","0.0-15.0-1.46","1849","2","""event"",""trial"",""time""
""fullscreenenter"",""1"",""2035""
","
","
","""event"",""trial"",""time""
""fullscreenenter"",""1"",""2035""
","
","","","","","","1447.5999999940395","images/flower4.png","","","memory_trial","1","definitely_old","","","","","","",""
"html-button-response","136","482865","0.0-15.0-2.46-0.46","1849","2","""event"",""trial"",""time""
""fullscreenenter"",""1"",""2035""
","
","
","""event"",""trial"",""time""
""fullscreenenter"",""1"",""2035""
","
","","","","","","3356.2000000178814","<p> Take a break! </p><p> Click the button to continue. </p>","0","","break","","","","","","","","",""
"html-keyboard-response","137","483366","0.0-15.0-0.47","1849","2","""event"",""trial"",""time""
""fullscreenenter"",""1"",""2035""
","
","
","""event"",""trial"",""time""
""fullscreenenter"",""1"",""2035""
","
","","","","","","null","<div style=""font-size:60px;"">+</div>","null","","fixation","","","","","","","","",""
"memory-trial","138","487062","0.0-15.0-1.47","1849","2","""event"",""trial"",""time""
""fullscreenenter"",""1"",""2035""
","
","
","""event"",""trial"",""time""
""fullscreenenter"",""1"",""2035""
","
","","","","","","2687.699999988079","images/rabbit5.png","","","memory_trial","1","definitely_old","","","","","","",""
"html-keyboard-response","139","487567","0.0-15.0-0.48","1849","2","""event"",""trial"",""time""
""fullscreenenter"",""1"",""2035""
","
","
","""event"",""trial"",""time""
""fullscreenenter"",""1"",""2035""
","
","","","","","","null","<div style=""font-size:60px;"">+</div>","null","","fixation","","","","","","","","",""
"memory-trial","140","489901","0.0-15.0-1.48","1849","2","""event"",""trial"",""time""
""fullscreenenter"",""1"",""2035""
","
","
","""event"",""trial"",""time""
""fullscreenenter"",""1"",""2035""
","
","","","","","","1327.5999999940395","images/dog2.png","","","memory_trial","1","definitely_old","","","","","","",""
"html-keyboard-response","141","490406","0.0-15.0-0.49","1849","2","""event"",""trial"",""time""
""fullscreenenter"",""1"",""2035""
","
","
","""event"",""trial"",""time""
""fullscreenenter"",""1"",""2035""
","
","","","","","","null","<div style=""font-size:60px;"">+</div>","null","","fixation","","","","","","","","",""
"memory-trial","142","492615","0.0-15.0-1.49","1849","2","""event"",""trial"",""time""
""fullscreenenter"",""1"",""2035""
","
","
","""event"",""trial"",""time""
""fullscreenenter"",""1"",""2035""
","
","","","","","","1204.199999988079","images/goat2.png","","","memory_trial","1","definitely_old","","","","","","",""
"html-keyboard-response","143","493117","0.0-15.0-0.50","1849","2","""event"",""trial"",""time""
""fullscreenenter"",""1"",""2035""
","
","
","""event"",""trial"",""time""
""fullscreenenter"",""1"",""2035""
","
","","","","","","null","<div style=""font-size:60px;"">+</div>","null","","fixation","","","","","","","","",""
"memory-trial","144","495654","0.0-15.0-1.50","1849","2","""event"",""trial"",""time""
""fullscreenenter"",""1"",""2035""
","
","
","""event"",""trial"",""time""
""fullscreenenter"",""1"",""2035""
","
","","","","","","1531.800000011921","images/sofa1.png","","","memory_trial","4","definitely_new","","","","","","",""
"html-keyboard-response","145","496159","0.0-15.0-0.51","1849","2","""event"",""trial"",""time""
""fullscreenenter"",""1"",""2035""
","
","
","""event"",""trial"",""time""
""fullscreenenter"",""1"",""2035""
","
","","","","","","null","<div style=""font-size:60px;"">+</div>","null","","fixation","","","","","","","","",""
"memory-trial","146","498455","0.0-15.0-1.51","1849","2","""event"",""trial"",""time""
""fullscreenenter"",""1"",""2035""
","
","
","""event"",""trial"",""time""
""fullscreenenter"",""1"",""2035""
","
","","","","","","1290.8999999761581","images/bush1.png","","","memory_trial","1","definitely_old","","","","","","",""
"html-keyboard-response","147","498960","0.0-15.0-0.52","1849","2","""event"",""trial"",""time""
""fullscreenenter"",""1"",""2035""
","
","
","""event"",""trial"",""time""
""fullscreenenter"",""1"",""2035""
","
","","","","","","null","<div style=""font-size:60px;"">+</div>","null","","fixation","","","","","","","","",""
"memory-trial","148","502082","0.0-15.0-1.52","1849","2","""event"",""trial"",""time""
""fullscreenenter"",""1"",""2035""
","
","
","""event"",""trial"",""time""
""fullscreenenter"",""1"",""2035""
","
","","","","","","2114.2000000178814","images/truck1.png","","","memory_trial","2","maybe_old","","","","","","",""
"html-keyboard-response","149","502585","0.0-15.0-0.53","1849","2","""event"",""trial"",""time""
""fullscreenenter"",""1"",""2035""
","
","
","""event"",""trial"",""time""
""fullscreenenter"",""1"",""2035""
","
","","","","","","null","<div style=""font-size:60px;"">+</div>","null","","fixation","","","","","","","","",""
"memory-trial","150","504681","0.0-15.0-1.53","1849","2","""event"",""trial"",""time""
""fullscreenenter"",""1"",""2035""
","
","
","""event"",""trial"",""time""
""fullscreenenter"",""1"",""2035""
","
","","","","","","1090.4000000059605","images/flower2.png","","","memory_trial","1","definitely_old","","","","","","",""
"html-keyboard-response","151","505186","0.0-15.0-0.54","1849","2","""event"",""trial"",""time""
""fullscreenenter"",""1"",""2035""
","
","
","""event"",""trial"",""time""
""fullscreenenter"",""1"",""2035""
","
","","","","","","null","<div style=""font-size:60px;"">+</div>","null","","fixation","","","","","","","","",""
"memory-trial","152","508983","0.0-15.0-1.54","1849","2","""event"",""trial"",""time""
""fullscreenenter"",""1"",""2035""
","
","
","""event"",""trial"",""time""
""fullscreenenter"",""1"",""2035""
","
","","","","","","2794.5","images/boat4.png","","","memory_trial","3","maybe_new","","","","","","",""
"html-keyboard-response","153","509488","0.0-15.0-0.55","1849","2","""event"",""trial"",""time""
""fullscreenenter"",""1"",""2035""
","
","
","""event"",""trial"",""time""
""fullscreenenter"",""1"",""2035""
","
","","","","","","null","<div style=""font-size:60px;"">+</div>","null","","fixation","","","","","","","","",""
"memory-trial","154","512063","0.0-15.0-1.55","1849","2","""event"",""trial"",""time""
""fullscreenenter"",""1"",""2035""
","
","
","""event"",""trial"",""time""
""fullscreenenter"",""1"",""2035""
","
","","","","","","1568.199999988079","images/cactus4.png","","","memory_trial","1","definitely_old","","","","","","",""
"html-keyboard-response","155","512565","0.0-15.0-0.56","1849","2","""event"",""trial"",""time""
""fullscreenenter"",""1"",""2035""
","
","
","""event"",""trial"",""time""
""fullscreenenter"",""1"",""2035""
","
","","","","","","null","<div style=""font-size:60px;"">+</div>","null","","fixation","","","","","","","","",""
"memory-trial","156","515032","0.0-15.0-1.56","1849","2","""event"",""trial"",""time""
""fullscreenenter"",""1"",""2035""
","
","
","""event"",""trial"",""time""
""fullscreenenter"",""1"",""2035""
","
","","","","","","1462.9000000059605","images/horse3.png","","","memory_trial","4","definitely_new","","","","","","",""
"html-keyboard-response","157","515537","0.0-15.0-0.57","1849","2","""event"",""trial"",""time""
""fullscreenenter"",""1"",""2035""
","
","
","""event"",""trial"",""time""
""fullscreenenter"",""1"",""2035""
","
","","","","","","null","<div style=""font-size:60px;"">+</div>","null","","fixation","","","","","","","","",""
"memory-trial","158","517684","0.0-15.0-1.57","1849","2","""event"",""trial"",""time""
""fullscreenenter"",""1"",""2035""
","
","
","""event"",""trial"",""time""
""fullscreenenter"",""1"",""2035""
","
","","","","","","1140.0999999940395","images/cactus3.png","","","memory_trial","1","definitely_old","","","","","","",""
"html-keyboard-response","159","518190","0.0-15.0-0.58","1849","2","""event"",""trial"",""time""
""fullscreenenter"",""1"",""2035""
","
","
","""event"",""trial"",""time""
""fullscreenenter"",""1"",""2035""
","
","","","","","","null","<div style=""font-size:60px;"">+</div>","null","","fixation","","","","","","","","",""
"memory-trial","160","520861","0.0-15.0-1.58","1849","2","""event"",""trial"",""time""
""fullscreenenter"",""1"",""2035""
","
","
","""event"",""trial"",""time""
""fullscreenenter"",""1"",""2035""
","
","","","","","","1667","images/horse2.png","","","memory_trial","4","definitely_new","","","","","","",""
"html-keyboard-response","161","521365","0.0-15.0-0.59","1849","2","""event"",""trial"",""time""
""fullscreenenter"",""1"",""2035""
","
","
","""event"",""trial"",""time""
""fullscreenenter"",""1"",""2035""
","
","","","","","","null","<div style=""font-size:60px;"">+</div>","null","","fixation","","","","","","","","",""
"memory-trial","162","525446","0.0-15.0-1.59","1849","2","""event"",""trial"",""time""
""fullscreenenter"",""1"",""2035""
","
","
","""event"",""trial"",""time""
""fullscreenenter"",""1"",""2035""
","
","","","","","","3074.300000011921","images/dog1.png","","","memory_trial","4","definitely_new","","","","","","",""
"html-keyboard-response","163","525951","0.0-15.0-0.60","1849","2","""event"",""trial"",""time""
""fullscreenenter"",""1"",""2035""
","
","
","""event"",""trial"",""time""
""fullscreenenter"",""1"",""2035""
","
","","","","","","null","<div style=""font-size:60px;"">+</div>","null","","fixation","","","","","","","","",""
"memory-trial","164","529916","0.0-15.0-1.60","1849","2","""event"",""trial"",""time""
""fullscreenenter"",""1"",""2035""
","
","
","""event"",""trial"",""time""
""fullscreenenter"",""1"",""2035""
","
","","","","","","2960.199999988079","images/feline2.png","","","memory_trial","4","definitely_new","","","","","","",""
"html-keyboard-response","165","530421","0.0-15.0-0.61","1849","2","""event"",""trial"",""time""
""fullscreenenter"",""1"",""2035""
","
","
","""event"",""trial"",""time""
""fullscreenenter"",""1"",""2035""
","
","","","","","","null","<div style=""font-size:60px;"">+</div>","null","","fixation","","","","","","","","",""
"memory-trial","166","533302","0.0-15.0-1.61","1849","2","""event"",""trial"",""time""
""fullscreenenter"",""1"",""2035""
","
","
","""event"",""trial"",""time""
""fullscreenenter"",""1"",""2035""
","
","","","","","","1876.6000000238419","images/cow4.png","","","memory_trial","1","definitely_old","","","","","","",""
"html-keyboard-response","167","533805","0.0-15.0-0.62","1849","2","""event"",""trial"",""time""
""fullscreenenter"",""1"",""2035""
","
","
","""event"",""trial"",""time""
""fullscreenenter"",""1"",""2035""
","
","","","","","","null","<div style=""font-size:60px;"">+</div>","null","","fixation","","","","","","","","",""
"memory-trial","168","536330","0.0-15.0-1.62","1849","2","""event"",""trial"",""time""
""fullscreenenter"",""1"",""2035""
","
","
","""event"",""trial"",""time""
""fullscreenenter"",""1"",""2035""
","
","","","","","","1519.2999999821186","images/tree1.png","","","memory_trial","1","definitely_old","","","","","","",""
"html-keyboard-response","169","536835","0.0-15.0-0.63","1849","2","""event"",""trial"",""time""
""fullscreenenter"",""1"",""2035""
","
","
","""event"",""trial"",""time""
""fullscreenenter"",""1"",""2035""
","
","","","","","","null","<div style=""font-size:60px;"">+</div>","null","","fixation","","","","","","","","",""
"memory-trial","170","540252","0.0-15.0-1.63","1849","2","""event"",""trial"",""time""
""fullscreenenter"",""1"",""2035""
","
","
","""event"",""trial"",""time""
""fullscreenenter"",""1"",""2035""
","
","","","","","","2409.5999999940395","images/apple2.png","","","memory_trial","3","maybe_new","","","","","","",""
"html-keyboard-response","171","540753","0.0-15.0-0.64","1849","2","""event"",""trial"",""time""
""fullscreenenter"",""1"",""2035""
","
","
","""event"",""trial"",""time""
""fullscreenenter"",""1"",""2035""
","
","","","","","","null","<div style=""font-size:60px;"">+</div>","null","","fixation","","","","","","","","",""
"memory-trial","172","544232","0.0-15.0-1.64","1849","2","""event"",""trial"",""time""
""fullscreenenter"",""1"",""2035""
","
","
","""event"",""trial"",""time""
""fullscreenenter"",""1"",""2035""
","
","","","","","","2473.7000000178814","images/bed4.png","","","memory_trial","4","definitely_new","","","","","","",""
"html-keyboard-response","173","544737","0.0-15.0-0.65","1849","2","""event"",""trial"",""time""
""fullscreenenter"",""1"",""2035""
","
","
","""event"",""trial"",""time""
""fullscreenenter"",""1"",""2035""
","
","","","","","","null","<div style=""font-size:60px;"">+</div>","null","","fixation","","","","","","","","",""
"memory-trial","174","547366","0.0-15.0-1.65","1849","2","""event"",""trial"",""time""
""fullscreenenter"",""1"",""2035""
","
","
","""event"",""trial"",""time""
""fullscreenenter"",""1"",""2035""
","
","","","","","","1625.8999999761581","images/bush2.png","","","memory_trial","1","definitely_old","","","","","","",""
"html-keyboard-response","175","547871","0.0-15.0-0.66","1849","2","""event"",""trial"",""time""
""fullscreenenter"",""1"",""2035""
","
","
","""event"",""trial"",""time""
""fullscreenenter"",""1"",""2035""
","
","","","","","","null","<div style=""font-size:60px;"">+</div>","null","","fixation","","","","","","","","",""
"memory-trial","176","550597","0.0-15.0-1.66","1849","2","""event"",""trial"",""time""
""fullscreenenter"",""1"",""2035""
","
","
","""event"",""trial"",""time""
""fullscreenenter"",""1"",""2035""
","
","","","","","","1720.199999988079","images/table4.png","","","memory_trial","4","definitely_new","","","","","","",""
"html-keyboard-response","177","551099","0.0-15.0-0.67","1849","2","""event"",""trial"",""time""
""fullscreenenter"",""1"",""2035""
","
","
","""event"",""trial"",""time""
""fullscreenenter"",""1"",""2035""
","
","","","","","","null","<div style=""font-size:60px;"">+</div>","null","","fixation","","","","","","","","",""
"memory-trial","178","553851","0.0-15.0-1.67","1849","2","""event"",""trial"",""time""
""fullscreenenter"",""1"",""2035""
","
","
","""event"",""trial"",""time""
""fullscreenenter"",""1"",""2035""
","
","","","","","","1748.5999999940395","images/tree2.png","","","memory_trial","4","definitely_new","","","","","","",""
"html-keyboard-response","179","554355","0.0-15.0-0.68","1849","2","""event"",""trial"",""time""
""fullscreenenter"",""1"",""2035""
","
","
","""event"",""trial"",""time""
""fullscreenenter"",""1"",""2035""
","
","","","","","","null","<div style=""font-size:60px;"">+</div>","null","","fixation","","","","","","","","",""
"memory-trial","180","556957","0.0-15.0-1.68","1849","2","""event"",""trial"",""time""
""fullscreenenter"",""1"",""2035""
","
","
","""event"",""trial"",""time""
""fullscreenenter"",""1"",""2035""
","
","","","","","","1594.7000000178814","images/orange1.png","","","memory_trial","1","definitely_old","","","","","","",""
"html-keyboard-response","181","557461","0.0-15.0-0.69","1849","2","""event"",""trial"",""time""
""fullscreenenter"",""1"",""2035""
","
","
","""event"",""trial"",""time""
""fullscreenenter"",""1"",""2035""
","
","","","","","","null","<div style=""font-size:60px;"">+</div>","null","","fixation","","","","","","","","",""
"memory-trial","182","562611","0.0-15.0-1.69","1849","2","""event"",""trial"",""time""
""fullscreenenter"",""1"",""2035""
","
","
","""event"",""trial"",""time""
""fullscreenenter"",""1"",""2035""
","
","","","","","","4145.199999988079","images/goat1.png","","","memory_trial","4","definitely_new","","","","","","",""
"html-keyboard-response","183","563116","0.0-15.0-0.70","1849","2","""event"",""trial"",""time""
""fullscreenenter"",""1"",""2035""
","
","
","""event"",""trial"",""time""
""fullscreenenter"",""1"",""2035""
","
","","","","","","null","<div style=""font-size:60px;"">+</div>","null","","fixation","","","","","","","","",""
"memory-trial","184","565246","0.0-15.0-1.70","1849","2","""event"",""trial"",""time""
""fullscreenenter"",""1"",""2035""
","
","
","""event"",""trial"",""time""
""fullscreenenter"",""1"",""2035""
","
","","","","","","1124.800000011921","images/cactus2.png","","","memory_trial","1","definitely_old","","","","","","",""
"html-keyboard-response","185","565751","0.0-15.0-0.71","1849","2","""event"",""trial"",""time""
""fullscreenenter"",""1"",""2035""
","
","
","""event"",""trial"",""time""
""fullscreenenter"",""1"",""2035""
","
","","","","","","null","<div style=""font-size:60px;"">+</div>","null","","fixation","","","","","","","","",""
"memory-trial","186","568787","0.0-15.0-1.71","1849","2","""event"",""trial"",""time""
""fullscreenenter"",""1"",""2035""
","
","
","""event"",""trial"",""time""
""fullscreenenter"",""1"",""2035""
","
","","","","","","2029.300000011921","images/rodent4.png","","","memory_trial","4","definitely_new","","","","","","",""
"html-keyboard-response","187","569293","0.0-15.0-0.72","1849","2","""event"",""trial"",""time""
""fullscreenenter"",""1"",""2035""
","
","
","""event"",""trial"",""time""
""fullscreenenter"",""1"",""2035""
","
","","","","","","null","<div style=""font-size:60px;"">+</div>","null","","fixation","","","","","","","","",""
"memory-trial","188","571649","0.0-15.0-1.72","1849","2","""event"",""trial"",""time""
""fullscreenenter"",""1"",""2035""
","
","
","""event"",""trial"",""time""
""fullscreenenter"",""1"",""2035""
","
","","","","","","1353.300000011921","images/horse1.png","","","memory_trial","4","definitely_new","","","","","","",""
"html-keyboard-response","189","572154","0.0-15.0-0.73","1849","2","""event"",""trial"",""time""
""fullscreenenter"",""1"",""2035""
","
","
","""event"",""trial"",""time""
""fullscreenenter"",""1"",""2035""
","
","","","","","","null","<div style=""font-size:60px;"">+</div>","null","","fixation","","","","","","","","",""
"memory-trial","190","575492","0.0-15.0-1.73","1849","2","""event"",""trial"",""time""
""fullscreenenter"",""1"",""2035""
","
","
","""event"",""trial"",""time""
""fullscreenenter"",""1"",""2035""
","
","","","","","","2334.199999988079","images/chair4.png","","","memory_trial","3","maybe_new","","","","","","",""
"html-keyboard-response","191","575998","0.0-15.0-0.74","1849","2","""event"",""trial"",""time""
""fullscreenenter"",""1"",""2035""
","
","
","""event"",""trial"",""time""
""fullscreenenter"",""1"",""2035""
","
","","","","","","null","<div style=""font-size:60px;"">+</div>","null","","fixation","","","","","","","","",""
"memory-trial","192","578929","0.0-15.0-1.74","1849","2","""event"",""trial"",""time""
""fullscreenenter"",""1"",""2035""
","
","
","""event"",""trial"",""time""
""fullscreenenter"",""1"",""2035""
","
","","","","","","1928.7999999821186","images/table3.png","","","memory_trial","4","definitely_new","","","","","","",""
"html-keyboard-response","193","579434","0.0-15.0-0.75","1849","2","""event"",""trial"",""time""
""fullscreenenter"",""1"",""2035""
","
","
","""event"",""trial"",""time""
""fullscreenenter"",""1"",""2035""
","
","","","","","","null","<div style=""font-size:60px;"">+</div>","null","","fixation","","","","","","","","",""
"memory-trial","194","582372","0.0-15.0-1.75","1849","2","""event"",""trial"",""time""
""fullscreenenter"",""1"",""2035""
","
","
","""event"",""trial"",""time""
""fullscreenenter"",""1"",""2035""
","
","","","","","","1932.1000000238419","images/dog3.png","","","memory_trial","1","definitely_old","","","","","","",""
"html-keyboard-response","195","582876","0.0-15.0-0.76","1849","2","""event"",""trial"",""time""
""fullscreenenter"",""1"",""2035""
","
","
","""event"",""trial"",""time""
""fullscreenenter"",""1"",""2035""
","
","","","","","","null","<div style=""font-size:60px;"">+</div>","null","","fixation","","","","","","","","",""
"memory-trial","196","584943","0.0-15.0-1.76","1849","2","""event"",""trial"",""time""
""fullscreenenter"",""1"",""2035""
","
","
","""event"",""trial"",""time""
""fullscreenenter"",""1"",""2035""
","
","","","","","","1062.5999999940395","images/orange4.png","","","memory_trial","1","definitely_old","","","","","","",""
"html-keyboard-response","197","585448","0.0-15.0-0.77","1849","2","""event"",""trial"",""time""
""fullscreenenter"",""1"",""2035""
","
","
","""event"",""trial"",""time""
""fullscreenenter"",""1"",""2035""
","
","","","","","","null","<div style=""font-size:60px;"">+</div>","null","","fixation","","","","","","","","",""
"memory-trial","198","587648","0.0-15.0-1.77","1849","2","""event"",""trial"",""time""
""fullscreenenter"",""1"",""2035""
","
","
","""event"",""trial"",""time""
""fullscreenenter"",""1"",""2035""
","
","","","","","","1196.9000000059605","images/dog5.png","","","memory_trial","1","definitely_old","","","","","","",""
"html-keyboard-response","199","588153","0.0-15.0-0.78","1849","2","""event"",""trial"",""time""
""fullscreenenter"",""1"",""2035""
","
","
","""event"",""trial"",""time""
""fullscreenenter"",""1"",""2035""
","
","","","","","","null","<div style=""font-size:60px;"">+</div>","null","","fixation","","","","","","","","",""
"memory-trial","200","593361","0.0-15.0-1.78","1849","2","""event"",""trial"",""time""
""fullscreenenter"",""1"",""2035""
","
","
","""event"",""trial"",""time""
""fullscreenenter"",""1"",""2035""
","
","","","","","","4200.699999988079","images/plane3.png","","","memory_trial","3","maybe_new","","","","","","",""
"html-keyboard-response","201","593866","0.0-15.0-0.79","1849","2","""event"",""trial"",""time""
""fullscreenenter"",""1"",""2035""
","
","
","""event"",""trial"",""time""
""fullscreenenter"",""1"",""2035""
","
","","","","","","null","<div style=""font-size:60px;"">+</div>","null","","fixation","","","","","","","","",""
"memory-trial","202","596780","0.0-15.0-1.79","1849","2","""event"",""trial"",""time""
""fullscreenenter"",""1"",""2035""
","
","
","""event"",""trial"",""time""
""fullscreenenter"",""1"",""2035""
","
","","","","","","1907.300000011921","images/apple4.png","","","memory_trial","4","definitely_new","","","","","","",""
"html-keyboard-response","203","597285","0.0-15.0-0.80","1849","2","""event"",""trial"",""time""
""fullscreenenter"",""1"",""2035""
","
","
","""event"",""trial"",""time""
""fullscreenenter"",""1"",""2035""
","
","","","","","","null","<div style=""font-size:60px;"">+</div>","null","","fixation","","","","","","","","",""
"memory-trial","204","599944","0.0-15.0-1.80","1849","2","""event"",""trial"",""time""
""fullscreenenter"",""1"",""2035""
","
","
","""event"",""trial"",""time""
""fullscreenenter"",""1"",""2035""
","
","","","","","","1652.9000000059605","images/bed5.png","","","memory_trial","1","definitely_old","","","","","","",""
"html-keyboard-response","205","600449","0.0-15.0-0.81","1849","2","""event"",""trial"",""time""
""fullscreenenter"",""1"",""2035""
","
","
","""event"",""trial"",""time""
""fullscreenenter"",""1"",""2035""
","
","","","","","","null","<div style=""font-size:60px;"">+</div>","null","","fixation","","","","","","","","",""
"memory-trial","206","603038","0.0-15.0-1.81","1849","2","""event"",""trial"",""time""
""fullscreenenter"",""1"",""2035""
","
","
","""event"",""trial"",""time""
""fullscreenenter"",""1"",""2035""
","
","","","","","","1585.0999999940395","images/apple5.png","","","memory_trial","4","definitely_new","","","","","","",""
"html-keyboard-response","207","603541","0.0-15.0-0.82","1849","2","""event"",""trial"",""time""
""fullscreenenter"",""1"",""2035""
","
","
","""event"",""trial"",""time""
""fullscreenenter"",""1"",""2035""
","
","","","","","","null","<div style=""font-size:60px;"">+</div>","null","","fixation","","","","","","","","",""
"memory-trial","208","605813","0.0-15.0-1.82","1849","2","""event"",""trial"",""time""
""fullscreenenter"",""1"",""2035""
","
","
","""event"",""trial"",""time""
""fullscreenenter"",""1"",""2035""
","
","","","","","","1267.5","images/bed3.png","","","memory_trial","4","definitely_new","","","","","","",""
"html-keyboard-response","209","606318","0.0-15.0-0.83","1849","2","""event"",""trial"",""time""
""fullscreenenter"",""1"",""2035""
","
","
","""event"",""trial"",""time""
""fullscreenenter"",""1"",""2035""
","
","","","","","","null","<div style=""font-size:60px;"">+</div>","null","","fixation","","","","","","","","",""
"memory-trial","210","610573","0.0-15.0-1.83","1849","2","""event"",""trial"",""time""
""fullscreenenter"",""1"",""2035""
","
","
","""event"",""trial"",""time""
""fullscreenenter"",""1"",""2035""
","
","","","","","","3248.7999999821186","images/orange3.png","","","memory_trial","3","maybe_new","","","","","","",""
"html-keyboard-response","211","611078","0.0-15.0-0.84","1849","2","""event"",""trial"",""time""
""fullscreenenter"",""1"",""2035""
","
","
","""event"",""trial"",""time""
""fullscreenenter"",""1"",""2035""
","
","","","","","","null","<div style=""font-size:60px;"">+</div>","null","","fixation","","","","","","","","",""
"memory-trial","212","613499","0.0-15.0-1.84","1849","2","""event"",""trial"",""time""
""fullscreenenter"",""1"",""2035""
","
","
","""event"",""trial"",""time""
""fullscreenenter"",""1"",""2035""
","
","","","","","","1416.699999988079","images/bush3.png","","","memory_trial","1","definitely_old","","","","","","",""
"html-keyboard-response","213","614004","0.0-15.0-0.85","1849","2","""event"",""trial"",""time""
""fullscreenenter"",""1"",""2035""
","
","
","""event"",""trial"",""time""
""fullscreenenter"",""1"",""2035""
","
","","","","","","null","<div style=""font-size:60px;"">+</div>","null","","fixation","","","","","","","","",""
"memory-trial","214","616552","0.0-15.0-1.85","1849","2","""event"",""trial"",""time""
""fullscreenenter"",""1"",""2035""
","
","
","""event"",""trial"",""time""
""fullscreenenter"",""1"",""2035""
","
","","","","","","1543.7000000178814","images/sofa2.png","","","memory_trial","3","maybe_new","","","","","","",""
"html-keyboard-response","215","617057","0.0-15.0-0.86","1849","2","""event"",""trial"",""time""
""fullscreenenter"",""1"",""2035""
","
","
","""event"",""trial"",""time""
""fullscreenenter"",""1"",""2035""
","
","","","","","","null","<div style=""font-size:60px;"">+</div>","null","","fixation","","","","","","","","",""
"memory-trial","216","620035","0.0-15.0-1.86","1849","2","""event"",""trial"",""time""
""fullscreenenter"",""1"",""2035""
","
","
","""event"",""trial"",""time""
""fullscreenenter"",""1"",""2035""
","
","","","","","","1972.199999988079","images/boat2.png","","","memory_trial","1","definitely_old","","","","","","",""
"html-keyboard-response","217","620540","0.0-15.0-0.87","1849","2","""event"",""trial"",""time""
""fullscreenenter"",""1"",""2035""
","
","
","""event"",""trial"",""time""
""fullscreenenter"",""1"",""2035""
","
","","","","","","null","<div style=""font-size:60px;"">+</div>","null","","fixation","","","","","","","","",""
"memory-trial","218","624476","0.0-15.0-1.87","1849","2","""event"",""trial"",""time""
""fullscreenenter"",""1"",""2035""
","
","
","""event"",""trial"",""time""
""fullscreenenter"",""1"",""2035""
","
","","","","","","2929.0999999940395","images/sheep5.png","","","memory_trial","1","definitely_old","","","","","","",""
"html-keyboard-response","219","624981","0.0-15.0-0.88","1849","2","""event"",""trial"",""time""
""fullscreenenter"",""1"",""2035""
","
","
","""event"",""trial"",""time""
""fullscreenenter"",""1"",""2035""
","
","","","","","","null","<div style=""font-size:60px;"">+</div>","null","","fixation","","","","","","","","",""
"memory-trial","220","628836","0.0-15.0-1.88","1849","2","""event"",""trial"",""time""
""fullscreenenter"",""1"",""2035""
","
","
","""event"",""trial"",""time""
""fullscreenenter"",""1"",""2035""
","
","","","","","","2848.600000023842","images/tree3.png","","","memory_trial","2","maybe_old","","","","","","",""
"html-keyboard-response","221","629341","0.0-15.0-0.89","1849","2","""event"",""trial"",""time""
""fullscreenenter"",""1"",""2035""
","
","
","""event"",""trial"",""time""
""fullscreenenter"",""1"",""2035""
","
","","","","","","null","<div style=""font-size:60px;"">+</div>","null","","fixation","","","","","","","","",""
"memory-trial","222","631814","0.0-15.0-1.89","1849","2","""event"",""trial"",""time""
""fullscreenenter"",""1"",""2035""
","
","
","""event"",""trial"",""time""
""fullscreenenter"",""1"",""2035""
","
","","","","","","1469.699999988079","images/train3.png","","","memory_trial","1","definitely_old","","","","","","",""
"html-keyboard-response","223","632318","0.0-15.0-0.90","1849","2","""event"",""trial"",""time""
""fullscreenenter"",""1"",""2035""
","
","
","""event"",""trial"",""time""
""fullscreenenter"",""1"",""2035""
","
","","","","","","null","<div style=""font-size:60px;"">+</div>","null","","fixation","","","","","","","","",""
"memory-trial","224","634869","0.0-15.0-1.90","1849","2","""event"",""trial"",""time""
""fullscreenenter"",""1"",""2035""
","
","
","""event"",""trial"",""time""
""fullscreenenter"",""1"",""2035""
","
","","","","","","1544","images/truck5.png","","","memory_trial","4","definitely_new","","","","","","",""
"html-keyboard-response","225","635373","0.0-15.0-0.91","1849","2","""event"",""trial"",""time""
""fullscreenenter"",""1"",""2035""
","
","
","""event"",""trial"",""time""
""fullscreenenter"",""1"",""2035""
","
","","","","","","null","<div style=""font-size:60px;"">+</div>","null","","fixation","","","","","","","","",""
"memory-trial","226","638223","0.0-15.0-1.91","1849","2","""event"",""trial"",""time""
""fullscreenenter"",""1"",""2035""
","
","
","""event"",""trial"",""time""
""fullscreenenter"",""1"",""2035""
","
","","","","","","1844.800000011921","images/chair1.png","","","memory_trial","1","definitely_old","","","","","","",""
"html-keyboard-response","227","638727","0.0-15.0-0.92","1849","2","""event"",""trial"",""time""
""fullscreenenter"",""1"",""2035""
","
","
","""event"",""trial"",""time""
""fullscreenenter"",""1"",""2035""
","
","","","","","","null","<div style=""font-size:60px;"">+</div>","null","","fixation","","","","","","","","",""
"memory-trial","228","642200","0.0-15.0-1.92","1849","2","""event"",""trial"",""time""
""fullscreenenter"",""1"",""2035""
","
","
","""event"",""trial"",""time""
""fullscreenenter"",""1"",""2035""
","
","","","","","","2469.2999999821186","images/cow5.png","","","memory_trial","4","definitely_new","","","","","","",""
"html-keyboard-response","229","642705","0.0-15.0-0.93","1849","2","""event"",""trial"",""time""
""fullscreenenter"",""1"",""2035""
","
","
","""event"",""trial"",""time""
""fullscreenenter"",""1"",""2035""
","
","","","","","","null","<div style=""font-size:60px;"">+</div>","null","","fixation","","","","","","","","",""
"memory-trial","230","644742","0.0-15.0-1.93","1849","2","""event"",""trial"",""time""
""fullscreenenter"",""1"",""2035""
","
","
","""event"",""trial"",""time""
""fullscreenenter"",""1"",""2035""
","
","","","","","","1033.6000000238419","images/horse4.png","","","memory_trial","4","definitely_new","","","","","","",""
"html-keyboard-response","231","645247","0.0-15.0-0.94","1849","2","""event"",""trial"",""time""
""fullscreenenter"",""1"",""2035""
","
","
","""event"",""trial"",""time""
""fullscreenenter"",""1"",""2035""
","
","","","","","","null","<div style=""font-size:60px;"">+</div>","null","","fixation","","","","","","","","",""
"memory-trial","232","647912","0.0-15.0-1.94","1849","2","""event"",""trial"",""time""
""fullscreenenter"",""1"",""2035""
","
","
","""event"",""trial"",""time""
""fullscreenenter"",""1"",""2035""
","
","","","","","","1661.5","images/straw4.png","","","memory_trial","1","definitely_old","","","","","","",""
"html-keyboard-response","233","648417","0.0-15.0-0.95","1849","2","""event"",""trial"",""time""
""fullscreenenter"",""1"",""2035""
","
","
","""event"",""trial"",""time""
""fullscreenenter"",""1"",""2035""
","
","","","","","","null","<div style=""font-size:60px;"">+</div>","null","","fixation","","","","","","","","",""
"memory-trial","234","651314","0.0-15.0-1.95","1849","2","""event"",""trial"",""time""
""fullscreenenter"",""1"",""2035""
","
","
","""event"",""trial"",""time""
""fullscreenenter"",""1"",""2035""
","
","","","","","","1893.2999999821186","images/bed2.png","","","memory_trial","3","maybe_new","","","","","","",""
"html-keyboard-response","235","651819","0.0-15.0-0.96","1849","2","""event"",""trial"",""time""
""fullscreenenter"",""1"",""2035""
","
","
","""event"",""trial"",""time""
""fullscreenenter"",""1"",""2035""
","
","","","","","","null","<div style=""font-size:60px;"">+</div>","null","","fixation","","","","","","","","",""
"memory-trial","236","653907","0.0-15.0-1.96","1849","2","""event"",""trial"",""time""
""fullscreenenter"",""1"",""2035""
","
","
","""event"",""trial"",""time""
""fullscreenenter"",""1"",""2035""
","
","","","","","","1081.7000000178814","images/cactus1.png","","","memory_trial","1","definitely_old","","","","","","",""
"html-keyboard-response","237","654411","0.0-15.0-0.97","1849","2","""event"",""trial"",""time""
""fullscreenenter"",""1"",""2035""
","
","
","""event"",""trial"",""time""
""fullscreenenter"",""1"",""2035""
","
","","","","","","null","<div style=""font-size:60px;"">+</div>","null","","fixation","","","","","","","","",""
"memory-trial","238","656939","0.0-15.0-1.97","1849","2","""event"",""trial"",""time""
""fullscreenenter"",""1"",""2035""
","
","
","""event"",""trial"",""time""
""fullscreenenter"",""1"",""2035""
","
","","","","","","1525.5","images/truck2.png","","","memory_trial","4","definitely_new","","","","","","",""
"html-keyboard-response","239","657444","0.0-15.0-0.98","1849","2","""event"",""trial"",""time""
""fullscreenenter"",""1"",""2035""
","
","
","""event"",""trial"",""time""
""fullscreenenter"",""1"",""2035""
","
","","","","","","null","<div style=""font-size:60px;"">+</div>","null","","fixation","","","","","","","","",""
"memory-trial","240","660007","0.0-15.0-1.98","1849","2","""event"",""trial"",""time""
""fullscreenenter"",""1"",""2035""
","
","
","""event"",""trial"",""time""
""fullscreenenter"",""1"",""2035""
","
","","","","","","1556.7000000178814","images/rodent1.png","","","memory_trial","1","definitely_old","","","","","","",""
"html-keyboard-response","241","660509","0.0-15.0-0.99","1849","2","""event"",""trial"",""time""
""fullscreenenter"",""1"",""2035""
","
","
","""event"",""trial"",""time""
""fullscreenenter"",""1"",""2035""
","
","","","","","","null","<div style=""font-size:60px;"">+</div>","null","","fixation","","","","","","","","",""
"memory-trial","242","662431","0.0-15.0-1.99","1849","2","""event"",""trial"",""time""
""fullscreenenter"",""1"",""2035""
","
","
","""event"",""trial"",""time""
""fullscreenenter"",""1"",""2035""
","
","","","","","","914.4000000059605","images/flower1.png","","","memory_trial","1","definitely_old","","","","","","",""
"html-keyboard-response","243","662936","0.0-15.0-0.100","1849","2","""event"",""trial"",""time""
""fullscreenenter"",""1"",""2035""
","
","
","""event"",""trial"",""time""
""fullscreenenter"",""1"",""2035""
","
","","","","","","null","<div style=""font-size:60px;"">+</div>","null","","fixation","","","","","","","","",""
"memory-trial","244","667664","0.0-15.0-1.100","1849","2","""event"",""trial"",""time""
""fullscreenenter"",""1"",""2035""
","
","
","""event"",""trial"",""time""
""fullscreenenter"",""1"",""2035""
","
","","","","","","3721.9000000059605","images/plane1.png","","","memory_trial","4","definitely_new","","","","","","",""
"html-keyboard-response","245","668166","0.0-15.0-0.101","1849","2","""event"",""trial"",""time""
""fullscreenenter"",""1"",""2035""
","
","
","""event"",""trial"",""time""
""fullscreenenter"",""1"",""2035""
","
","","","","","","null","<div style=""font-size:60px;"">+</div>","null","","fixation","","","","","","","","",""
"memory-trial","246","672452","0.0-15.0-1.101","1849","2","""event"",""trial"",""time""
""fullscreenenter"",""1"",""2035""
","
","
","""event"",""trial"",""time""
""fullscreenenter"",""1"",""2035""
","
","","","","","","3281.300000011921","images/sofa5.png","","","memory_trial","4","definitely_new","","","","","","",""
"html-button-response","247","678290","0.0-15.0-2.101-0.101","1849","2","""event"",""trial"",""time""
""fullscreenenter"",""1"",""2035""
","
","
","""event"",""trial"",""time""
""fullscreenenter"",""1"",""2035""
","
","","","","","","5836.9000000059605","<p> Take a break! </p><p> Click the button to continue. </p>","0","","break","","","","","","","","",""
"html-keyboard-response","248","678795","0.0-15.0-0.102","1849","2","""event"",""trial"",""time""
""fullscreenenter"",""1"",""2035""
","
","
","""event"",""trial"",""time""
""fullscreenenter"",""1"",""2035""
","
","","","","","","null","<div style=""font-size:60px;"">+</div>","null","","fixation","","","","","","","","",""
"memory-trial","249","681576","0.0-15.0-1.102","1849","2","""event"",""trial"",""time""
""fullscreenenter"",""1"",""2035""
","
","
","""event"",""trial"",""time""
""fullscreenenter"",""1"",""2035""
","
","","","","","","1774.7999999821186","images/bush5.png","","","memory_trial","1","definitely_old","","","","","","",""
"html-keyboard-response","250","682081","0.0-15.0-0.103","1849","2","""event"",""trial"",""time""
""fullscreenenter"",""1"",""2035""
","
","
","""event"",""trial"",""time""
""fullscreenenter"",""1"",""2035""
","
","","","","","","null","<div style=""font-size:60px;"">+</div>","null","","fixation","","","","","","","","",""
"memory-trial","251","684571","0.0-15.0-1.103","1849","2","""event"",""trial"",""time""
""fullscreenenter"",""1"",""2035""
","
","
","""event"",""trial"",""time""
""fullscreenenter"",""1"",""2035""
","
","","","","","","1485.9000000059605","images/straw2.png","","","memory_trial","1","definitely_old","","","","","","",""
"html-keyboard-response","252","685076","0.0-15.0-0.104","1849","2","""event"",""trial"",""time""
""fullscreenenter"",""1"",""2035""
","
","
","""event"",""trial"",""time""
""fullscreenenter"",""1"",""2035""
","
","","","","","","null","<div style=""font-size:60px;"">+</div>","null","","fixation","","","","","","","","",""
"memory-trial","253","687474","0.0-15.0-1.104","1849","2","""event"",""trial"",""time""
""fullscreenenter"",""1"",""2035""
","
","
","""event"",""trial"",""time""
""fullscreenenter"",""1"",""2035""
","
","","","","","","1392.699999988079","images/dog4.png","","","memory_trial","4","definitely_new","","","","","","",""
"html-keyboard-response","254","687979","0.0-15.0-0.105","1849","2","""event"",""trial"",""time""
""fullscreenenter"",""1"",""2035""
","
","
","""event"",""trial"",""time""
""fullscreenenter"",""1"",""2035""
","
","","","","","","null","<div style=""font-size:60px;"">+</div>","null","","fixation","","","","","","","","",""
"memory-trial","255","690679","0.0-15.0-1.105","1849","2","""event"",""trial"",""time""
""fullscreenenter"",""1"",""2035""
","
","
","""event"",""trial"",""time""
""fullscreenenter"",""1"",""2035""
","
","","","","","","1695.7000000178814","images/banana2.png","","","memory_trial","1","definitely_old","","","","","","",""
"html-keyboard-response","256","691183","0.0-15.0-0.106","1849","2","""event"",""trial"",""time""
""fullscreenenter"",""1"",""2035""
","
","
","""event"",""trial"",""time""
""fullscreenenter"",""1"",""2035""
","
","","","","","","null","<div style=""font-size:60px;"">+</div>","null","","fixation","","","","","","","","",""
"memory-trial","257","694063","0.0-15.0-1.106","1849","2","""event"",""trial"",""time""
""fullscreenenter"",""1"",""2035""
","
","
","""event"",""trial"",""time""
""fullscreenenter"",""1"",""2035""
","
","","","","","","1874.5","images/sheep4.png","","","memory_trial","1","definitely_old","","","","","","",""
"html-keyboard-response","258","694568","0.0-15.0-0.107","1849","2","""event"",""trial"",""time""
""fullscreenenter"",""1"",""2035""
","
","
","""event"",""trial"",""time""
""fullscreenenter"",""1"",""2035""
","
","","","","","","null","<div style=""font-size:60px;"">+</div>","null","","fixation","","","","","","","","",""
"memory-trial","259","697493","0.0-15.0-1.107","1849","2","""event"",""trial"",""time""
""fullscreenenter"",""1"",""2035""
","
","
","""event"",""trial"",""time""
""fullscreenenter"",""1"",""2035""
","
","","","","","","1921.9000000059605","images/rodent5.png","","","memory_trial","4","definitely_new","","","","","","",""
"html-keyboard-response","260","697998","0.0-15.0-0.108","1849","2","""event"",""trial"",""time""
""fullscreenenter"",""1"",""2035""
","
","
","""event"",""trial"",""time""
""fullscreenenter"",""1"",""2035""
","
","","","","","","null","<div style=""font-size:60px;"">+</div>","null","","fixation","","","","","","","","",""
"memory-trial","261","700791","0.0-15.0-1.108","1849","2","""event"",""trial"",""time""
""fullscreenenter"",""1"",""2035""
","
","
","""event"",""trial"",""time""
""fullscreenenter"",""1"",""2035""
","
","","","","","","1784.4000000059605","images/banana3.png","","","memory_trial","1","definitely_old","","","","","","",""
"html-keyboard-response","262","701296","0.0-15.0-0.109","1849","2","""event"",""trial"",""time""
""fullscreenenter"",""1"",""2035""
","
","
","""event"",""trial"",""time""
""fullscreenenter"",""1"",""2035""
","
","","","","","","null","<div style=""font-size:60px;"">+</div>","null","","fixation","","","","","","","","",""
"memory-trial","263","705040","0.0-15.0-1.109","1849","2","""event"",""trial"",""time""
""fullscreenenter"",""1"",""2035""
","
","
","""event"",""trial"",""time""
""fullscreenenter"",""1"",""2035""
","
","","","","","","2741.300000011921","images/sofa4.png","","","memory_trial","4","definitely_new","","","","","","",""
"html-keyboard-response","264","705545","0.0-15.0-0.110","1849","2","""event"",""trial"",""time""
""fullscreenenter"",""1"",""2035""
","
","
","""event"",""trial"",""time""
""fullscreenenter"",""1"",""2035""
","
","","","","","","null","<div style=""font-size:60px;"">+</div>","null","","fixation","","","","","","","","",""
"memory-trial","265","709446","0.0-15.0-1.110","1849","2","""event"",""trial"",""time""
""fullscreenenter"",""1"",""2035""
","
","
","""event"",""trial"",""time""
""fullscreenenter"",""1"",""2035""
","
","","","","","","2896.5","images/chair3.png","","","memory_trial","2","maybe_old","","","","","","",""
"html-keyboard-response","266","709952","0.0-15.0-0.111","1849","2","""event"",""trial"",""time""
""fullscreenenter"",""1"",""2035""
","
","
","""event"",""trial"",""time""
""fullscreenenter"",""1"",""2035""
","
","","","","","","null","<div style=""font-size:60px;"">+</div>","null","","fixation","","","","","","","","",""
"memory-trial","267","712216","0.0-15.0-1.111","1849","2","""event"",""trial"",""time""
""fullscreenenter"",""1"",""2035""
","
","
","""event"",""trial"",""time""
""fullscreenenter"",""1"",""2035""
","
","","","","","","1260","images/flower5.png","","","memory_trial","1","definitely_old","","","","","","",""
"html-keyboard-response","268","712721","0.0-15.0-0.112","1849","2","""event"",""trial"",""time""
""fullscreenenter"",""1"",""2035""
","
","
","""event"",""trial"",""time""
""fullscreenenter"",""1"",""2035""
","
","","","","","","null","<div style=""font-size:60px;"">+</div>","null","","fixation","","","","","","","","",""
"memory-trial","269","714735","0.0-15.0-1.112","1849","2","""event"",""trial"",""time""
""fullscreenenter"",""1"",""2035""
","
","
","""event"",""trial"",""time""
""fullscreenenter"",""1"",""2035""
","
","","","","","","1012","images/straw1.png","","","memory_trial","1","definitely_old","","","","","","",""
"html-keyboard-response","270","715240","0.0-15.0-0.113","1849","2","""event"",""trial"",""time""
""fullscreenenter"",""1"",""2035""
","
","
","""event"",""trial"",""time""
""fullscreenenter"",""1"",""2035""
","
","","","","","","null","<div style=""font-size:60px;"">+</div>","null","","fixation","","","","","","","","",""
"memory-trial","271","717875","0.0-15.0-1.113","1849","2","""event"",""trial"",""time""
""fullscreenenter"",""1"",""2035""
","
","
","""event"",""trial"",""time""
""fullscreenenter"",""1"",""2035""
","
","","","","","","1629.2000000178814","images/goat3.png","","","memory_trial","1","definitely_old","","","","","","",""
"html-keyboard-response","272","718380","0.0-15.0-0.114","1849","2","""event"",""trial"",""time""
""fullscreenenter"",""1"",""2035""
","
","
","""event"",""trial"",""time""
""fullscreenenter"",""1"",""2035""
","
","","","","","","null","<div style=""font-size:60px;"">+</div>","null","","fixation","","","","","","","","",""
"memory-trial","273","721173","0.0-15.0-1.114","1849","2","""event"",""trial"",""time""
""fullscreenenter"",""1"",""2035""
","
","
","""event"",""trial"",""time""
""fullscreenenter"",""1"",""2035""
","
","","","","","","1787.2999999821186","images/train4.png","","","memory_trial","1","definitely_old","","","","","","",""
"html-keyboard-response","274","721678","0.0-15.0-0.115","1849","2","""event"",""trial"",""time""
""fullscreenenter"",""1"",""2035""
","
","
","""event"",""trial"",""time""
""fullscreenenter"",""1"",""2035""
","
","","","","","","null","<div style=""font-size:60px;"">+</div>","null","","fixation","","","","","","","","",""
"memory-trial","275","724383","0.0-15.0-1.115","1849","2","""event"",""trial"",""time""
""fullscreenenter"",""1"",""2035""
","
","
","""event"",""trial"",""time""
""fullscreenenter"",""1"",""2035""
","
","","","","","","1701","images/rabbit4.png","","","memory_trial","4","definitely_new","","","","","","",""
"html-keyboard-response","276","724890","0.0-15.0-0.116","1849","2","""event"",""trial"",""time""
""fullscreenenter"",""1"",""2035""
","
","
","""event"",""trial"",""time""
""fullscreenenter"",""1"",""2035""
","
","","","","","","null","<div style=""font-size:60px;"">+</div>","null","","fixation","","","","","","","","",""
"memory-trial","277","727965","0.0-15.0-1.116","1849","2","""event"",""trial"",""time""
""fullscreenenter"",""1"",""2035""
","
","
","""event"",""trial"",""time""
""fullscreenenter"",""1"",""2035""
","
","","","","","","2071.5","images/cactus5.png","","","memory_trial","1","definitely_old","","","","","","",""
"html-keyboard-response","278","728470","0.0-15.0-0.117","1849","2","""event"",""trial"",""time""
""fullscreenenter"",""1"",""2035""
","
","
","""event"",""trial"",""time""
""fullscreenenter"",""1"",""2035""
","
","","","","","","null","<div style=""font-size:60px;"">+</div>","null","","fixation","","","","","","","","",""
"memory-trial","279","731135","0.0-15.0-1.117","1849","2","""event"",""trial"",""time""
""fullscreenenter"",""1"",""2035""
","
","
","""event"",""trial"",""time""
""fullscreenenter"",""1"",""2035""
","
","","","","","","1661.800000011921","images/feline5.png","","","memory_trial","4","definitely_new","","","","","","",""
"html-keyboard-response","280","731640","0.0-15.0-0.118","1849","2","""event"",""trial"",""time""
""fullscreenenter"",""1"",""2035""
","
","
","""event"",""trial"",""time""
""fullscreenenter"",""1"",""2035""
","
","","","","","","null","<div style=""font-size:60px;"">+</div>","null","","fixation","","","","","","","","",""
"memory-trial","281","735158","0.0-15.0-1.118","1849","2","""event"",""trial"",""time""
""fullscreenenter"",""1"",""2035""
","
","
","""event"",""trial"",""time""
""fullscreenenter"",""1"",""2035""
","
","","","","","","2513.600000023842","images/rodent2.png","","","memory_trial","1","definitely_old","","","","","","",""
"html-keyboard-response","282","735663","0.0-15.0-0.119","1849","2","""event"",""trial"",""time""
""fullscreenenter"",""1"",""2035""
","
","
","""event"",""trial"",""time""
""fullscreenenter"",""1"",""2035""
","
","","","","","","null","<div style=""font-size:60px;"">+</div>","null","","fixation","","","","","","","","",""
"memory-trial","283","738252","0.0-15.0-1.119","1849","2","""event"",""trial"",""time""
""fullscreenenter"",""1"",""2035""
","
","
","""event"",""trial"",""time""
""fullscreenenter"",""1"",""2035""
","
","","","","","","1583.4000000059605","images/cow3.png","","","memory_trial","1","definitely_old","","","","","","",""
"preload","284","741103","0.0-16.0","1849","2","""event"",""trial"",""time""
""fullscreenenter"",""1"",""2035""
","
","
","""event"",""trial"",""time""
""fullscreenenter"",""1"",""2035""
","
","true","false","[]","[]","[]","","","","","","","","","","","","","",""
"learning-instructions","285","755865","0.0-17.0-0.0-0.0-0.0","1849","2","""event"",""trial"",""time""
""fullscreenenter"",""1"",""2035""
","
","
","""event"",""trial"",""time""
""fullscreenenter"",""1"",""2035""
","
","","","","","","11890.09999999404","<p> We're now going to ask you to buy fruit again. </p>","","0","instructions","","","","","","","","",""
"learning-instructions","286","762923","0.0-17.0-0.0-0.0-0.1","1849","2","""event"",""trial"",""time""
""fullscreenenter"",""1"",""2035""
","
","
","""event"",""trial"",""time""
""fullscreenenter"",""1"",""2035""
","
","","","","","","2205.7999999821186","<p> On each trial, you will see a fruit. Select the store where you think you can buy the fruit. </p>","","0","instructions","","","","","","","","",""
"learning-instructions","287","778790","0.0-17.0-0.0-0.0-0.2","1849","2","""event"",""trial"",""time""
""fullscreenenter"",""1"",""2035""
","
","
","""event"",""trial"",""time""
""fullscreenenter"",""1"",""2035""
","
","","","","","","8807.799999982119","<p> To make your selection, think about what you learned last week. You will NOT receive any feedback about your choice. </p>","","0","instructions","","","","","","","","",""
"learning-instructions","288","788933","0.0-17.0-0.0-0.0-0.3","1849","2","""event"",""trial"",""time""
""fullscreenenter"",""1"",""2035""
","
","
","""event"",""trial"",""time""
""fullscreenenter"",""1"",""2035""
","
","","","","","","2550.5","<p> You should use the 1 key to select the store on the left, the 2 key to select the store in the middle, and the 3 key to select the store on the right. </p><br><div class=""choice-mem-instructions-grid""> <div class=""choice-mem-option""><img src=""images/fruit_choice1.png"" class=""choice-mem-option-img"" stage=""instructions"" position=""0"" ><div class=""choice-mem-option-text""> Press ""1."" </div></div><div class=""choice-mem-option""><img src=""images/fruit_choice2.png"" class=""choice-mem-option-img"" stage=""instructions"" position=""1"" ><div class=""choice-mem-option-text""> Press ""2."" </div></div><div class=""choice-mem-option""><img src=""images/fruit_choice3.png"" class=""choice-mem-option-img"" stage=""instructions"" position=""2"" ><div class=""choice-mem-option-text""> Press ""3."" </div></div></div>","","0","instructions","","","","","","","","",""
"learning-instructions","289","796851","0.0-17.0-0.0-0.0-0.4","1849","2","""event"",""trial"",""time""
""fullscreenenter"",""1"",""2035""
","
","
","""event"",""trial"",""time""
""fullscreenenter"",""1"",""2035""
","
","","","","","","1651.2000000178814","<p> You will have 10 seconds to make each selection. Try to respond before time runs out! </p>","","0","instructions","","","","","","","","",""
"learning-instructions","290","802469","0.0-17.0-0.0-1.0","1849","2","""event"",""trial"",""time""
""fullscreenenter"",""1"",""2035""
","
","
","""event"",""trial"",""time""
""fullscreenenter"",""1"",""2035""
","
","","","","","","3560","<p> You are now ready to begin the game. </p>","","0","instructions","","","","","","","","",""
"html-keyboard-response","291","803079","0.0-17.0-0.0-2.0-0.0","1849","2","""event"",""trial"",""time""
""fullscreenenter"",""1"",""2035""
","
","
","""event"",""trial"",""time""
""fullscreenenter"",""1"",""2035""
","
","","","","","","null","<div style=""font-size:60px;"">+</div>","null","","fixation","","","","","","","","",""
"choice-memory-trial","292","807581","0.0-17.0-0.0-2.0-1.0","1849","2","""event"",""trial"",""time""
""fullscreenenter"",""1"",""2035""
","
