"trial_type","trial_index","time_elapsed","internal_node_id","subject_id","task_version","interactions","blur_events","focus_events","fullscreenenter_events","fullscreenexit_events","success","timeout","failed_images","failed_audio","failed_video","rt","stimulus","response","button_pressed","task_part","key_press","answer","correct","left_choice","middle_choice","right_choice","choice_positions","option_selected","block"
"pavlovia","0","3","0.0-0.0","1903","2","""event"",""trial"",""time""
""fullscreenenter"",""1"",""1416""
","
","
","""event"",""trial"",""time""
""fullscreenenter"",""1"",""1416""
","
","","","","","","","","","","","","","","","","","","",""
"fullscreen","1","2381","0.0-1.0","1903","2","""event"",""trial"",""time""
""fullscreenenter"",""1"",""1416""
","
","
","""event"",""trial"",""time""
""fullscreenenter"",""1"",""1416""
","
","true","","","","","","","","","","","","","","","","","",""
"preload","2","3081","0.0-2.0","1903","2","""event"",""trial"",""time""
""fullscreenenter"",""1"",""1416""
","
","
","""event"",""trial"",""time""
""fullscreenenter"",""1"",""1416""
","
","true","false","[]","[]","[]","","","","","","","","","","","","","",""
"audio-keyboard-response","3","4663","0.0-3.0","1903","2","""event"",""trial"",""time""
""fullscreenenter"",""1"",""1416""
","
","
","""event"",""trial"",""time""
""fullscreenenter"",""1"",""1416""
","
","","","","","","1578.666666666667","audio/beep_loop.wav"," ","","","","","","","","","","",""
"audio-button-response","4","6508","0.0-4.0","1903","2","""event"",""trial"",""time""
""fullscreenenter"",""1"",""1416""
","
","
","""event"",""trial"",""time""
""fullscreenenter"",""1"",""1416""
","
","","","","","","1845","audio/turtle.wav","3","","","","","","","","","","",""
"audio-button-response","5","9611","0.0-5.0","1903","2","""event"",""trial"",""time""
""fullscreenenter"",""1"",""1416""
","
","
","""event"",""trial"",""time""
""fullscreenenter"",""1"",""1416""
","
","","","","","","2101","audio/shark.wav","2","","","","","","","","","","",""
"preload","6","12049","0.0-6.0","1903","2","""event"",""trial"",""time""
""fullscreenenter"",""1"",""1416""
","
","
","""event"",""trial"",""time""
""fullscreenenter"",""1"",""1416""
","
","true","false","[]","[]","[]","","","","","","","","","","","","","",""
"learning-instructions","7","18612","0.0-7.0-0.0","1903","2","""event"",""trial"",""time""
""fullscreenenter"",""1"",""1416""
","
","
","""event"",""trial"",""time""
""fullscreenenter"",""1"",""1416""
","
","","","","","","1758.2999999970198","<p> Welcome back! </p><p> Last week, you had to make choices about lots of different items.  </p>","","0","instructions","","","","","","","","",""
"learning-instructions","8","23789","0.0-7.0-0.1","1903","2","""event"",""trial"",""time""
""fullscreenenter"",""1"",""1416""
","
","
","""event"",""trial"",""time""
""fullscreenenter"",""1"",""1416""
","
","","","","","","877.0999999940395","<p> Today, we are going to ask you to try to remember all the items. </p>","","0","instructions","","","","","","","","",""
"learning-instructions","9","34373","0.0-7.0-0.2","1903","2","""event"",""trial"",""time""
""fullscreenenter"",""1"",""1416""
","
","
","""event"",""trial"",""time""
""fullscreenenter"",""1"",""1416""
","
","","","","","","447.59999999403954","<p> On every trial, you will see an image. </p><p> The image may be an OLD image you saw during the games last week or it may be a NEW image that was not presented. </p>","","0","instructions","","","","","","","","",""
"learning-instructions","10","44307","0.0-7.0-0.3","1903","2","""event"",""trial"",""time""
""fullscreenenter"",""1"",""1416""
","
","
","""event"",""trial"",""time""
""fullscreenenter"",""1"",""1416""
","
","","","","","","1437.6000000089407","<p> You need to select whether the image is:  </p><p>  'Definitely old', 'Maybe old', 'Maybe new', or 'Definitely new.'  </p><div class=""mem-choice-instructions-grid""><div class=""choice-option"" id=""choice-option-1"" ><img src=""images/definitely_old_1.png"" id=""choice-option-img-1"" class=""choice-option-img"" stage=""1""></div><div class=""choice-option"" id=""choice-option-2"" ><img src=""images/maybe_old_1.png"" id=""choice-option-img-2"" class=""choice-option-img"" stage=""1""></div><div class=""choice-option"" id=""choice-option-3"" ><img src=""images/maybe_new_1.png"" id=""choice-option-img-3"" class=""choice-option-img"" stage=""1""></div><div class=""choice-option"" id=""choice-option-4"" > <img src=""images/definitely_new_1.png"" id=""choice-option-img-4"" class=""choice-option-img"" stage=""1""></div></div>","","0","instructions","","","","","","","","",""
"learning-instructions","11","51643","0.0-7.0-0.4","1903","2","""event"",""trial"",""time""
""fullscreenenter"",""1"",""1416""
","
","
","""event"",""trial"",""time""
""fullscreenenter"",""1"",""1416""
","
","","","","","","644.8999999910593","<p> You should use the 1, 2, 3, and 4 keys to make your responses.  </p><div class=""mem-choice-instructions-grid""><div class=""choice-option"" id=""choice-option-1"" ><img src=""images/definitely_old.png"" id=""choice-option-img-1"" class=""choice-option-img"" stage=""1""></div><div class=""choice-option"" id=""choice-option-2"" ><img src=""images/maybe_old.png"" id=""choice-option-img-2"" class=""choice-option-img"" stage=""1""></div><div class=""choice-option"" id=""choice-option-3"" ><img src=""images/maybe_new.png"" id=""choice-option-img-3"" class=""choice-option-img"" stage=""1""></div><div class=""choice-option"" id=""choice-option-4"" > <img src=""images/definitely_new.png"" id=""choice-option-img-4"" class=""choice-option-img"" stage=""1""></div></div>","","0","instructions","","","","","","","","",""
"learning-instructions","12","59068","0.0-7.0-0.5","1903","2","""event"",""trial"",""time""
""fullscreenenter"",""1"",""1416""
","
","
","""event"",""trial"",""time""
""fullscreenenter"",""1"",""1416""
","
","","","","","","668.7999999970198","<p> You will have 10 seconds to make each response.  </p><p>  Make sure to respond before time runs out! </p>","","0","instructions","","","","","","","","",""
"learning-instructions","13","67414","0.0-7.0-0.6","1903","2","""event"",""trial"",""time""
""fullscreenenter"",""1"",""1416""
","
","
","""event"",""trial"",""time""
""fullscreenenter"",""1"",""1416""
","
","","","","","","763.9000000059605","<p> Today, you will see each image ONCE only.  </p><p>  That means none of the images will repeat. </p>","","0","instructions","","","","","","","","",""
"learning-instructions","14","80639","0.0-7.0-0.7","1903","2","""event"",""trial"",""time""
""fullscreenenter"",""1"",""1416""
","
","
","""event"",""trial"",""time""
""fullscreenenter"",""1"",""1416""
","
","","","","","","554.2000000029802","<p> Before you play the real game, it is time to practice. </p><p>  Just like in the real game, some of the images in the practice will be ones you have seen before. </p><p>  Others will be entirely new. </p>","","0","instructions","","","","","","","","",""
"html-button-response","15","82527","0.0-8.0","1903","2","""event"",""trial"",""time""
""fullscreenenter"",""1"",""1416""
","
","
","""event"",""trial"",""time""
""fullscreenenter"",""1"",""1416""
","
","","","","","","1785.7000000029802","<p> Ready to practice? </p><p> Remember, use the 1, 2, 3, and 4 keys to make your responses. </p>","0","","instructions","","","","","","","","",""
"html-keyboard-response","16","83129","0.0-9.0-0.0","1903","2","""event"",""trial"",""time""
""fullscreenenter"",""1"",""1416""
","
","
","""event"",""trial"",""time""
""fullscreenenter"",""1"",""1416""
","
","","","","","","null","<div style=""font-size:60px;"">+</div>","null","","fixation","","","","","","","","",""
"memory-trial","17","84979","0.0-9.0-1.0","1903","2","""event"",""trial"",""time""
""fullscreenenter"",""1"",""1416""
","
","
","""event"",""trial"",""time""
""fullscreenenter"",""1"",""1416""
","
","","","","","","845.5999999940395","images/ball4.png","","","practice","1","definitely_old","","","","","","",""
"html-keyboard-response","18","85481","0.0-9.0-0.1","1903","2","""event"",""trial"",""time""
""fullscreenenter"",""1"",""1416""
","
","
","""event"",""trial"",""time""
""fullscreenenter"",""1"",""1416""
","
","","","","","","null","<div style=""font-size:60px;"">+</div>","null","","fixation","","","","","","","","",""
"memory-trial","19","87640","0.0-9.0-1.1","1903","2","""event"",""trial"",""time""
""fullscreenenter"",""1"",""1416""
","
","
","""event"",""trial"",""time""
""fullscreenenter"",""1"",""1416""
","
","","","","","","1154.6000000089407","images/ball2.png","","","practice","1","definitely_old","","","","","","",""
"html-keyboard-response","20","88141","0.0-9.0-0.2","1903","2","""event"",""trial"",""time""
""fullscreenenter"",""1"",""1416""
","
","
","""event"",""trial"",""time""
""fullscreenenter"",""1"",""1416""
","
","","","","","","null","<div style=""font-size:60px;"">+</div>","null","","fixation","","","","","","","","",""
"memory-trial","21","90075","0.0-9.0-1.2","1903","2","""event"",""trial"",""time""
""fullscreenenter"",""1"",""1416""
","
","
","""event"",""trial"",""time""
""fullscreenenter"",""1"",""1416""
","
","","","","","","930.7000000029802","images/racket1.png","","","practice","1","definitely_old","","","","","","",""
"html-keyboard-response","22","90579","0.0-9.0-0.3","1903","2","""event"",""trial"",""time""
""fullscreenenter"",""1"",""1416""
","
","
","""event"",""trial"",""time""
""fullscreenenter"",""1"",""1416""
","
","","","","","","null","<div style=""font-size:60px;"">+</div>","null","","fixation","","","","","","","","",""
"memory-trial","23","92151","0.0-9.0-1.3","1903","2","""event"",""trial"",""time""
""fullscreenenter"",""1"",""1416""
","
","
","""event"",""trial"",""time""
""fullscreenenter"",""1"",""1416""
","
","","","","","","568.2999999970198","images/racket4.png","","","practice","1","definitely_old","","","","","","",""
"html-keyboard-response","24","92653","0.0-9.0-0.4","1903","2","""event"",""trial"",""time""
""fullscreenenter"",""1"",""1416""
","
","
","""event"",""trial"",""time""
""fullscreenenter"",""1"",""1416""
","
","","","","","","null","<div style=""font-size:60px;"">+</div>","null","","fixation","","","","","","","","",""
"memory-trial","25","94638","0.0-9.0-1.4","1903","2","""event"",""trial"",""time""
""fullscreenenter"",""1"",""1416""
","
","
","""event"",""trial"",""time""
""fullscreenenter"",""1"",""1416""
","
","","","","","","980.7000000029802","images/racket3.png","","","practice","1","definitely_old","","","","","","",""
"html-keyboard-response","26","95140","0.0-9.0-0.5","1903","2","""event"",""trial"",""time""
""fullscreenenter"",""1"",""1416""
","
","
","""event"",""trial"",""time""
""fullscreenenter"",""1"",""1416""
","
","","","","","","null","<div style=""font-size:60px;"">+</div>","null","","fixation","","","","","","","","",""
"memory-trial","27","98115","0.0-9.0-1.5","1903","2","""event"",""trial"",""time""
""fullscreenenter"",""1"",""1416""
","
","
","""event"",""trial"",""time""
""fullscreenenter"",""1"",""1416""
","
","","","","","","1969","images/ball3.png","","","practice","2","maybe_old","","","","","","",""
"html-keyboard-response","28","98617","0.0-9.0-0.6","1903","2","""event"",""trial"",""time""
""fullscreenenter"",""1"",""1416""
","
","
","""event"",""trial"",""time""
""fullscreenenter"",""1"",""1416""
","
","","","","","","null","<div style=""font-size:60px;"">+</div>","null","","fixation","","","","","","","","",""
"memory-trial","29","101010","0.0-9.0-1.6","1903","2","""event"",""trial"",""time""
""fullscreenenter"",""1"",""1416""
","
","
","""event"",""trial"",""time""
""fullscreenenter"",""1"",""1416""
","
","","","","","","1389","images/ball1.png","","","practice","1","definitely_old","","","","","","",""
"html-keyboard-response","30","101514","0.0-9.0-0.7","1903","2","""event"",""trial"",""time""
""fullscreenenter"",""1"",""1416""
","
","
","""event"",""trial"",""time""
""fullscreenenter"",""1"",""1416""
","
","","","","","","null","<div style=""font-size:60px;"">+</div>","null","","fixation","","","","","","","","",""
"memory-trial","31","103577","0.0-9.0-1.7","1903","2","""event"",""trial"",""time""
""fullscreenenter"",""1"",""1416""
","
","
","""event"",""trial"",""time""
""fullscreenenter"",""1"",""1416""
","
","","","","","","1056.5","images/racket2.png","","","practice","1","definitely_old","","","","","","",""
"learning-instructions","32","112150","0.0-10.0-0.0","1903","2","""event"",""trial"",""time""
""fullscreenenter"",""1"",""1416""
","
","
","""event"",""trial"",""time""
""fullscreenenter"",""1"",""1416""
","
","","","","","","620.5","<p> Great! You have completed the practice. </p><p> Before you start, we're going to ask you a few questions about how the game works.  </p>","","0","instructions","","","","","","","","",""
"preload","33","113390","0.0-11.0","1903","2","""event"",""trial"",""time""
""fullscreenenter"",""1"",""1416""
","
","
","""event"",""trial"",""time""
""fullscreenenter"",""1"",""1416""
","
","true","false","[]","[]","[]","","","","","","","","","","","","","",""
"comp-q","34","120363","0.0-12.0-0.0","1903","2","""event"",""trial"",""time""
""fullscreenenter"",""1"",""1416""
","
","
","""event"",""trial"",""time""
""fullscreenenter"",""1"",""1416""
","
","","","","","","1142.5","<p> <b> True or False? </b> </p><p> In this game, you will only see each image once. </p>","","0","comp_question","","","true","","","","","",""
"comp-q","35","128189","0.0-12.0-1.0","1903","2","""event"",""trial"",""time""
""fullscreenenter"",""1"",""1416""
","
","
","""event"",""trial"",""time""
""fullscreenenter"",""1"",""1416""
","
","","","","","","1492.2999999970198","<p> <b> That's right! </b> You will see many different images <i> one time each </i> in this game. </p>","","0","comp_answer","","","","","","","","",""
"comp-q","36","134972","0.0-12.0-0.1","1903","2","""event"",""trial"",""time""
""fullscreenenter"",""1"",""1416""
","
","
","""event"",""trial"",""time""
""fullscreenenter"",""1"",""1416""
","
","","","","","","984.5","<p> <b> True or False? </b> </p><p> You should use the mouse and click to make your response. </p>","","1","comp_question","","","true","","","","","",""
"comp-q","37","143161","0.0-12.0-1.1","1903","2","""event"",""trial"",""time""
""fullscreenenter"",""1"",""1416""
","
","
","""event"",""trial"",""time""
""fullscreenenter"",""1"",""1416""
","
","","","","","","843.0999999940395","<p><b> That's right! </b> You should use the '1', '2', '3', and '4' keys to make your response. </p>","","0","comp_answer","","","","","","","","",""
"comp-q","38","149720","0.0-12.0-0.2","1903","2","""event"",""trial"",""time""
""fullscreenenter"",""1"",""1416""
","
","
","""event"",""trial"",""time""
""fullscreenenter"",""1"",""1416""
","
","","","","","","565.2000000029802","<p> <b> True or False? </b> </p><p> You will have as much time as you want to make each choice. </p>","","1","comp_question","","","true","","","","","",""
"comp-q","39","155946","0.0-12.0-1.2","1903","2","""event"",""trial"",""time""
""fullscreenenter"",""1"",""1416""
","
","
","""event"",""trial"",""time""
""fullscreenenter"",""1"",""1416""
","
","","","","","","838.9000000059605","<p> <b> That's right! </b> You will only have 10 seconds to make each choice. </p>","","0","comp_answer","","","","","","","","",""
"learning-instructions","40","165795","0.0-13.0","1903","2","""event"",""trial"",""time""
""fullscreenenter"",""1"",""1416""
","
","
","""event"",""trial"",""time""
""fullscreenenter"",""1"",""1416""
","
","","","","","","1184.5999999940395","<p> Great! You are now ready to begin the game. </p><p> Remember, use the 1, 2, 3, and 4 keys to make your responses. </p>","","0","instructions","","","","","","","","",""
"preload","41","168092","0.0-14.0","1903","2","""event"",""trial"",""time""
""fullscreenenter"",""1"",""1416""
","
","
","""event"",""trial"",""time""
""fullscreenenter"",""1"",""1416""
","
","true","false","[]","[]","[]","","","","","","","","","","","","","",""
"html-keyboard-response","42","168593","0.0-15.0-0.0","1903","2","""event"",""trial"",""time""
""fullscreenenter"",""1"",""1416""
","
","
","""event"",""trial"",""time""
""fullscreenenter"",""1"",""1416""
","
","","","","","","null","<div style=""font-size:60px;"">+</div>","null","","fixation","","","","","","","","",""
"memory-trial","43","171088","0.0-15.0-1.0","1903","2","""event"",""trial"",""time""
""fullscreenenter"",""1"",""1416""
","
","
","""event"",""trial"",""time""
""fullscreenenter"",""1"",""1416""
","
","","","","","","1490.9000000059605","images/table1.png","","","memory_trial","2","maybe_old","","","","","","",""
"html-keyboard-response","44","171590","0.0-15.0-0.1","1903","2","""event"",""trial"",""time""
""fullscreenenter"",""1"",""1416""
","
","
","""event"",""trial"",""time""
""fullscreenenter"",""1"",""1416""
","
","","","","","","null","<div style=""font-size:60px;"">+</div>","null","","fixation","","","","","","","","",""
"memory-trial","45","174304","0.0-15.0-1.1","1903","2","""event"",""trial"",""time""
""fullscreenenter"",""1"",""1416""
","
","
","""event"",""trial"",""time""
""fullscreenenter"",""1"",""1416""
","
","","","","","","1706.2000000029802","images/goat4.png","","","memory_trial","4","definitely_new","","","","","","",""
"html-keyboard-response","46","174807","0.0-15.0-0.2","1903","2","""event"",""trial"",""time""
""fullscreenenter"",""1"",""1416""
","
","
","""event"",""trial"",""time""
""fullscreenenter"",""1"",""1416""
","
","","","","","","null","<div style=""font-size:60px;"">+</div>","null","","fixation","","","","","","","","",""
"memory-trial","47","177458","0.0-15.0-1.2","1903","2","""event"",""trial"",""time""
""fullscreenenter"",""1"",""1416""
","
","
","""event"",""trial"",""time""
""fullscreenenter"",""1"",""1416""
","
","","","","","","1647.7000000029802","images/apple4.png","","","memory_trial","2","maybe_old","","","","","","",""
"html-keyboard-response","48","177963","0.0-15.0-0.3","1903","2","""event"",""trial"",""time""
""fullscreenenter"",""1"",""1416""
","
","
","""event"",""trial"",""time""
""fullscreenenter"",""1"",""1416""
","
","","","","","","null","<div style=""font-size:60px;"">+</div>","null","","fixation","","","","","","","","",""
"memory-trial","49","180002","0.0-15.0-1.3","1903","2","""event"",""trial"",""time""
""fullscreenenter"",""1"",""1416""
","
","
","""event"",""trial"",""time""
""fullscreenenter"",""1"",""1416""
","
","","","","","","1032.2999999970198","images/bed3.png","","","memory_trial","1","definitely_old","","","","","","",""
"html-keyboard-response","50","180503","0.0-15.0-0.4","1903","2","""event"",""trial"",""time""
""fullscreenenter"",""1"",""1416""
","
","
","""event"",""trial"",""time""
""fullscreenenter"",""1"",""1416""
","
","","","","","","null","<div style=""font-size:60px;"">+</div>","null","","fixation","","","","","","","","",""
"memory-trial","51","182167","0.0-15.0-1.4","1903","2","""event"",""trial"",""time""
""fullscreenenter"",""1"",""1416""
","
","
","""event"",""trial"",""time""
""fullscreenenter"",""1"",""1416""
","
","","","","","","661.6999999880791","images/bed1.png","","","memory_trial","1","definitely_old","","","","","","",""
"html-keyboard-response","52","182673","0.0-15.0-0.5","1903","2","""event"",""trial"",""time""
""fullscreenenter"",""1"",""1416""
","
","
","""event"",""trial"",""time""
""fullscreenenter"",""1"",""1416""
","
","","","","","","null","<div style=""font-size:60px;"">+</div>","null","","fixation","","","","","","","","",""
"memory-trial","53","184871","0.0-15.0-1.5","1903","2","""event"",""trial"",""time""
""fullscreenenter"",""1"",""1416""
","
","
","""event"",""trial"",""time""
""fullscreenenter"",""1"",""1416""
","
","","","","","","1190.6000000089407","images/horse2.png","","","memory_trial","1","definitely_old","","","","","","",""
"html-keyboard-response","54","185372","0.0-15.0-0.6","1903","2","""event"",""trial"",""time""
""fullscreenenter"",""1"",""1416""
","
","
","""event"",""trial"",""time""
""fullscreenenter"",""1"",""1416""
","
","","","","","","null","<div style=""font-size:60px;"">+</div>","null","","fixation","","","","","","","","",""
"memory-trial","55","187802","0.0-15.0-1.6","1903","2","""event"",""trial"",""time""
""fullscreenenter"",""1"",""1416""
","
","
","""event"",""trial"",""time""
""fullscreenenter"",""1"",""1416""
","
","","","","","","1423.5999999940395","images/tree3.png","","","memory_trial","2","maybe_old","","","","","","",""
"html-keyboard-response","56","188308","0.0-15.0-0.7","1903","2","""event"",""trial"",""time""
""fullscreenenter"",""1"",""1416""
","
","
","""event"",""trial"",""time""
""fullscreenenter"",""1"",""1416""
","
","","","","","","null","<div style=""font-size:60px;"">+</div>","null","","fixation","","","","","","","","",""
"memory-trial","57","190652","0.0-15.0-1.7","1903","2","""event"",""trial"",""time""
""fullscreenenter"",""1"",""1416""
","
","
","""event"",""trial"",""time""
""fullscreenenter"",""1"",""1416""
","
","","","","","","1337.5","images/rodent1.png","","","memory_trial","4","definitely_new","","","","","","",""
"html-keyboard-response","58","191153","0.0-15.0-0.8","1903","2","""event"",""trial"",""time""
""fullscreenenter"",""1"",""1416""
","
","
","""event"",""trial"",""time""
""fullscreenenter"",""1"",""1416""
","
","","","","","","null","<div style=""font-size:60px;"">+</div>","null","","fixation","","","","","","","","",""
"memory-trial","59","193229","0.0-15.0-1.8","1903","2","""event"",""trial"",""time""
""fullscreenenter"",""1"",""1416""
","
","
","""event"",""trial"",""time""
""fullscreenenter"",""1"",""1416""
","
","","","","","","1072.7000000029802","images/train2.png","","","memory_trial","4","definitely_new","","","","","","",""
"html-keyboard-response","60","193735","0.0-15.0-0.9","1903","2","""event"",""trial"",""time""
""fullscreenenter"",""1"",""1416""
","
","
","""event"",""trial"",""time""
""fullscreenenter"",""1"",""1416""
","
","","","","","","null","<div style=""font-size:60px;"">+</div>","null","","fixation","","","","","","","","",""
"memory-trial","61","195801","0.0-15.0-1.9","1903","2","""event"",""trial"",""time""
""fullscreenenter"",""1"",""1416""
","
","
","""event"",""trial"",""time""
""fullscreenenter"",""1"",""1416""
","
","","","","","","1062.1000000089407","images/boat2.png","","","memory_trial","1","definitely_old","","","","","","",""
"html-keyboard-response","62","196307","0.0-15.0-0.10","1903","2","""event"",""trial"",""time""
""fullscreenenter"",""1"",""1416""
","
","
","""event"",""trial"",""time""
""fullscreenenter"",""1"",""1416""
","
","","","","","","null","<div style=""font-size:60px;"">+</div>","null","","fixation","","","","","","","","",""
"memory-trial","63","198515","0.0-15.0-1.10","1903","2","""event"",""trial"",""time""
""fullscreenenter"",""1"",""1416""
","
","
","""event"",""trial"",""time""
""fullscreenenter"",""1"",""1416""
","
","","","","","","1201.7000000029802","images/orange5.png","","","memory_trial","2","maybe_old","","","","","","",""
"html-keyboard-response","64","199019","0.0-15.0-0.11","1903","2","""event"",""trial"",""time""
""fullscreenenter"",""1"",""1416""
","
","
","""event"",""trial"",""time""
""fullscreenenter"",""1"",""1416""
","
","","","","","","null","<div style=""font-size:60px;"">+</div>","null","","fixation","","","","","","","","",""
"memory-trial","65","201656","0.0-15.0-1.11","1903","2","""event"",""trial"",""time""
""fullscreenenter"",""1"",""1416""
","
","
","""event"",""trial"",""time""
""fullscreenenter"",""1"",""1416""
","
","","","","","","1630.7000000029802","images/bed5.png","","","memory_trial","3","maybe_new","","","","","","",""
"html-keyboard-response","66","202157","0.0-15.0-0.12","1903","2","""event"",""trial"",""time""
""fullscreenenter"",""1"",""1416""
","
","
","""event"",""trial"",""time""
""fullscreenenter"",""1"",""1416""
","
","","","","","","null","<div style=""font-size:60px;"">+</div>","null","","fixation","","","","","","","","",""
"memory-trial","67","205122","0.0-15.0-1.12","1903","2","""event"",""trial"",""time""
""fullscreenenter"",""1"",""1416""
","
","
","""event"",""trial"",""time""
""fullscreenenter"",""1"",""1416""
","
","","","","","","1959.699999988079","images/truck5.png","","","memory_trial","3","maybe_new","","","","","","",""
"html-keyboard-response","68","205624","0.0-15.0-0.13","1903","2","""event"",""trial"",""time""
""fullscreenenter"",""1"",""1416""
","
","
","""event"",""trial"",""time""
""fullscreenenter"",""1"",""1416""
","
","","","","","","null","<div style=""font-size:60px;"">+</div>","null","","fixation","","","","","","","","",""
"memory-trial","69","207523","0.0-15.0-1.13","1903","2","""event"",""trial"",""time""
""fullscreenenter"",""1"",""1416""
","
","
","""event"",""trial"",""time""
""fullscreenenter"",""1"",""1416""
","
","","","","","","891.9000000059605","images/table5.png","","","memory_trial","1","definitely_old","","","","","","",""
"html-keyboard-response","70","208024","0.0-15.0-0.14","1903","2","""event"",""trial"",""time""
""fullscreenenter"",""1"",""1416""
","
","
","""event"",""trial"",""time""
""fullscreenenter"",""1"",""1416""
","
","","","","","","null","<div style=""font-size:60px;"">+</div>","null","","fixation","","","","","","","","",""
"memory-trial","71","209725","0.0-15.0-1.14","1903","2","""event"",""trial"",""time""
""fullscreenenter"",""1"",""1416""
","
","
","""event"",""trial"",""time""
""fullscreenenter"",""1"",""1416""
","
","","","","","","698","images/table2.png","","","memory_trial","1","definitely_old","","","","","","",""
"html-keyboard-response","72","210231","0.0-15.0-0.15","1903","2","""event"",""trial"",""time""
""fullscreenenter"",""1"",""1416""
","
","
","""event"",""trial"",""time""
""fullscreenenter"",""1"",""1416""
","
","","","","","","null","<div style=""font-size:60px;"">+</div>","null","","fixation","","","","","","","","",""
"memory-trial","73","212349","0.0-15.0-1.15","1903","2","""event"",""trial"",""time""
""fullscreenenter"",""1"",""1416""
","
","
","""event"",""trial"",""time""
""fullscreenenter"",""1"",""1416""
","
","","","","","","1114.2999999970198","images/cactus5.png","","","memory_trial","2","maybe_old","","","","","","",""
"html-keyboard-response","74","212851","0.0-15.0-0.16","1903","2","""event"",""trial"",""time""
""fullscreenenter"",""1"",""1416""
","
","
","""event"",""trial"",""time""
""fullscreenenter"",""1"",""1416""
","
","","","","","","null","<div style=""font-size:60px;"">+</div>","null","","fixation","","","","","","","","",""
"memory-trial","75","214659","0.0-15.0-1.16","1903","2","""event"",""trial"",""time""
""fullscreenenter"",""1"",""1416""
","
","
","""event"",""trial"",""time""
""fullscreenenter"",""1"",""1416""
","
","","","","","","802.0999999940395","images/cactus4.png","","","memory_trial","1","definitely_old","","","","","","",""
"html-keyboard-response","76","215160","0.0-15.0-0.17","1903","2","""event"",""trial"",""time""
""fullscreenenter"",""1"",""1416""
","
","
","""event"",""trial"",""time""
""fullscreenenter"",""1"",""1416""
","
","","","","","","null","<div style=""font-size:60px;"">+</div>","null","","fixation","","","","","","","","",""
"memory-trial","77","216931","0.0-15.0-1.17","1903","2","""event"",""trial"",""time""
""fullscreenenter"",""1"",""1416""
","
","
","""event"",""trial"",""time""
""fullscreenenter"",""1"",""1416""
","
","","","","","","765.2999999970198","images/dog5.png","","","memory_trial","1","definitely_old","","","","","","",""
"html-keyboard-response","78","217432","0.0-15.0-0.18","1903","2","""event"",""trial"",""time""
""fullscreenenter"",""1"",""1416""
","
","
","""event"",""trial"",""time""
""fullscreenenter"",""1"",""1416""
","
","","","","","","null","<div style=""font-size:60px;"">+</div>","null","","fixation","","","","","","","","",""
"memory-trial","79","220003","0.0-15.0-1.18","1903","2","""event"",""trial"",""time""
""fullscreenenter"",""1"",""1416""
","
","
","""event"",""trial"",""time""
""fullscreenenter"",""1"",""1416""
","
","","","","","","1564.2000000029802","images/horse4.png","","","memory_trial","3","maybe_new","","","","","","",""
"html-keyboard-response","80","220508","0.0-15.0-0.19","1903","2","""event"",""trial"",""time""
""fullscreenenter"",""1"",""1416""
","
","
","""event"",""trial"",""time""
""fullscreenenter"",""1"",""1416""
","
","","","","","","null","<div style=""font-size:60px;"">+</div>","null","","fixation","","","","","","","","",""
"memory-trial","81","222483","0.0-15.0-1.19","1903","2","""event"",""trial"",""time""
""fullscreenenter"",""1"",""1416""
","
","
","""event"",""trial"",""time""
""fullscreenenter"",""1"",""1416""
","
","","","","","","971.5","images/truck3.png","","","memory_trial","4","definitely_new","","","","","","",""
"html-keyboard-response","82","222984","0.0-15.0-0.20","1903","2","""event"",""trial"",""time""
""fullscreenenter"",""1"",""1416""
","
","
","""event"",""trial"",""time""
""fullscreenenter"",""1"",""1416""
","
","","","","","","null","<div style=""font-size:60px;"">+</div>","null","","fixation","","","","","","","","",""
"memory-trial","83","226024","0.0-15.0-1.20","1903","2","""event"",""trial"",""time""
""fullscreenenter"",""1"",""1416""
","
","
","""event"",""trial"",""time""
""fullscreenenter"",""1"",""1416""
","
","","","","","","2033.5","images/feline4.png","","","memory_trial","3","maybe_new","","","","","","",""
"html-keyboard-response","84","226525","0.0-15.0-0.21","1903","2","""event"",""trial"",""time""
""fullscreenenter"",""1"",""1416""
","
","
","""event"",""trial"",""time""
""fullscreenenter"",""1"",""1416""
","
","","","","","","null","<div style=""font-size:60px;"">+</div>","null","","fixation","","","","","","","","",""
"memory-trial","85","228656","0.0-15.0-1.21","1903","2","""event"",""trial"",""time""
""fullscreenenter"",""1"",""1416""
","
","
","""event"",""trial"",""time""
""fullscreenenter"",""1"",""1416""
","
","","","","","","1125.7000000029802","images/boat5.png","","","memory_trial","1","definitely_old","","","","","","",""
"html-keyboard-response","86","229160","0.0-15.0-0.22","1903","2","""event"",""trial"",""time""
""fullscreenenter"",""1"",""1416""
","
","
","""event"",""trial"",""time""
""fullscreenenter"",""1"",""1416""
","
","","","","","","null","<div style=""font-size:60px;"">+</div>","null","","fixation","","","","","","","","",""
"memory-trial","87","231408","0.0-15.0-1.22","1903","2","""event"",""trial"",""time""
""fullscreenenter"",""1"",""1416""
","
","
","""event"",""trial"",""time""
""fullscreenenter"",""1"",""1416""
","
","","","","","","1242.7000000029802","images/apple3.png","","","memory_trial","4","definitely_new","","","","","","",""
"html-keyboard-response","88","231912","0.0-15.0-0.23","1903","2","""event"",""trial"",""time""
""fullscreenenter"",""1"",""1416""
","
","
","""event"",""trial"",""time""
""fullscreenenter"",""1"",""1416""
","
","","","","","","null","<div style=""font-size:60px;"">+</div>","null","","fixation","","","","","","","","",""
"memory-trial","89","235395","0.0-15.0-1.23","1903","2","""event"",""trial"",""time""
""fullscreenenter"",""1"",""1416""
","
","
","""event"",""trial"",""time""
""fullscreenenter"",""1"",""1416""
","
","","","","","","2476.2999999970198","images/train3.png","","","memory_trial","3","maybe_new","","","","","","",""
"html-keyboard-response","90","235896","0.0-15.0-0.24","1903","2","""event"",""trial"",""time""
""fullscreenenter"",""1"",""1416""
","
","
","""event"",""trial"",""time""
""fullscreenenter"",""1"",""1416""
","
","","","","","","null","<div style=""font-size:60px;"">+</div>","null","","fixation","","","","","","","","",""
"memory-trial","91","238850","0.0-15.0-1.24","1903","2","""event"",""trial"",""time""
""fullscreenenter"",""1"",""1416""
","
","
","""event"",""trial"",""time""
""fullscreenenter"",""1"",""1416""
","
","","","","","","1947.2999999970198","images/sofa1.png","","","memory_trial","4","definitely_new","","","","","","",""
"html-keyboard-response","92","239352","0.0-15.0-0.25","1903","2","""event"",""trial"",""time""
""fullscreenenter"",""1"",""1416""
","
","
","""event"",""trial"",""time""
""fullscreenenter"",""1"",""1416""
","
","","","","","","null","<div style=""font-size:60px;"">+</div>","null","","fixation","","","","","","","","",""
"memory-trial","93","241256","0.0-15.0-1.25","1903","2","""event"",""trial"",""time""
""fullscreenenter"",""1"",""1416""
","
","
","""event"",""trial"",""time""
""fullscreenenter"",""1"",""1416""
","
","","","","","","899.2000000029802","images/feline1.png","","","memory_trial","1","definitely_old","","","","","","",""
"html-keyboard-response","94","241757","0.0-15.0-0.26","1903","2","""event"",""trial"",""time""
""fullscreenenter"",""1"",""1416""
","
","
","""event"",""trial"",""time""
""fullscreenenter"",""1"",""1416""
","
","","","","","","null","<div style=""font-size:60px;"">+</div>","null","","fixation","","","","","","","","",""
"memory-trial","95","243844","0.0-15.0-1.26","1903","2","""event"",""trial"",""time""
""fullscreenenter"",""1"",""1416""
","
","
","""event"",""trial"",""time""
""fullscreenenter"",""1"",""1416""
","
","","","","","","1080.7999999970198","images/banana2.png","","","memory_trial","1","definitely_old","","","","","","",""
"html-keyboard-response","96","244349","0.0-15.0-0.27","1903","2","""event"",""trial"",""time""
""fullscreenenter"",""1"",""1416""
","
","
","""event"",""trial"",""time""
""fullscreenenter"",""1"",""1416""
","
","","","","","","null","<div style=""font-size:60px;"">+</div>","null","","fixation","","","","","","","","",""
"memory-trial","97","245997","0.0-15.0-1.27","1903","2","""event"",""trial"",""time""
""fullscreenenter"",""1"",""1416""
","
","
","""event"",""trial"",""time""
""fullscreenenter"",""1"",""1416""
","
","","","","","","643.7999999970198","images/rabbit5.png","","","memory_trial","1","definitely_old","","","","","","",""
"html-keyboard-response","98","246499","0.0-15.0-0.28","1903","2","""event"",""trial"",""time""
""fullscreenenter"",""1"",""1416""
","
","
","""event"",""trial"",""time""
""fullscreenenter"",""1"",""1416""
","
","","","","","","null","<div style=""font-size:60px;"">+</div>","null","","fixation","","","","","","","","",""
"memory-trial","99","248237","0.0-15.0-1.28","1903","2","""event"",""trial"",""time""
""fullscreenenter"",""1"",""1416""
","
","
","""event"",""trial"",""time""
""fullscreenenter"",""1"",""1416""
","
","","","","","","733","images/cactus2.png","","","memory_trial","1","definitely_old","","","","","","",""
"html-keyboard-response","100","248739","0.0-15.0-0.29","1903","2","""event"",""trial"",""time""
""fullscreenenter"",""1"",""1416""
","
","
","""event"",""trial"",""time""
""fullscreenenter"",""1"",""1416""
","
","","","","","","null","<div style=""font-size:60px;"">+</div>","null","","fixation","","","","","","","","",""
"memory-trial","101","250958","0.0-15.0-1.29","1903","2","""event"",""trial"",""time""
""fullscreenenter"",""1"",""1416""
","
","
","""event"",""trial"",""time""
""fullscreenenter"",""1"",""1416""
","
","","","","","","1214.1000000089407","images/flower1.png","","","memory_trial","2","maybe_old","","","","","","",""
"html-keyboard-response","102","251459","0.0-15.0-0.30","1903","2","""event"",""trial"",""time""
""fullscreenenter"",""1"",""1416""
","
","
","""event"",""trial"",""time""
""fullscreenenter"",""1"",""1416""
","
","","","","","","null","<div style=""font-size:60px;"">+</div>","null","","fixation","","","","","","","","",""
"memory-trial","103","254157","0.0-15.0-1.30","1903","2","""event"",""trial"",""time""
""fullscreenenter"",""1"",""1416""
","
","
","""event"",""trial"",""time""
""fullscreenenter"",""1"",""1416""
","
","","","","","","1695.2999999970198","images/banana3.png","","","memory_trial","4","definitely_new","","","","","","",""
"html-keyboard-response","104","254663","0.0-15.0-0.31","1903","2","""event"",""trial"",""time""
""fullscreenenter"",""1"",""1416""
","
","
","""event"",""trial"",""time""
""fullscreenenter"",""1"",""1416""
","
","","","","","","null","<div style=""font-size:60px;"">+</div>","null","","fixation","","","","","","","","",""
"memory-trial","105","257299","0.0-15.0-1.31","1903","2","""event"",""trial"",""time""
""fullscreenenter"",""1"",""1416""
","
","
","""event"",""trial"",""time""
""fullscreenenter"",""1"",""1416""
","
","","","","","","1633.0999999940395","images/banana5.png","","","memory_trial","2","maybe_old","","","","","","",""
"html-keyboard-response","106","257801","0.0-15.0-0.32","1903","2","""event"",""trial"",""time""
""fullscreenenter"",""1"",""1416""
","
","
","""event"",""trial"",""time""
""fullscreenenter"",""1"",""1416""
","
","","","","","","null","<div style=""font-size:60px;"">+</div>","null","","fixation","","","","","","","","",""
"memory-trial","107","259885","0.0-15.0-1.32","1903","2","""event"",""trial"",""time""
""fullscreenenter"",""1"",""1416""
","
","
","""event"",""trial"",""time""
""fullscreenenter"",""1"",""1416""
","
","","","","","","1078.7999999970198","images/bed2.png","","","memory_trial","1","definitely_old","","","","","","",""
"html-keyboard-response","108","260388","0.0-15.0-0.33","1903","2","""event"",""trial"",""time""
""fullscreenenter"",""1"",""1416""
","
","
","""event"",""trial"",""time""
""fullscreenenter"",""1"",""1416""
","
","","","","","","null","<div style=""font-size:60px;"">+</div>","null","","fixation","","","","","","","","",""
"memory-trial","109","262381","0.0-15.0-1.33","1903","2","""event"",""trial"",""time""
""fullscreenenter"",""1"",""1416""
","
","
","""event"",""trial"",""time""
""fullscreenenter"",""1"",""1416""
","
","","","","","","989.0999999940395","images/plane3.png","","","memory_trial","4","definitely_new","","","","","","",""
"html-keyboard-response","110","262883","0.0-15.0-0.34","1903","2","""event"",""trial"",""time""
""fullscreenenter"",""1"",""1416""
","
","
","""event"",""trial"",""time""
""fullscreenenter"",""1"",""1416""
","
","","","","","","null","<div style=""font-size:60px;"">+</div>","null","","fixation","","","","","","","","",""
"memory-trial","111","264653","0.0-15.0-1.34","1903","2","""event"",""trial"",""time""
""fullscreenenter"",""1"",""1416""
","
","
","""event"",""trial"",""time""
""fullscreenenter"",""1"",""1416""
","
","","","","","","768","images/straw4.png","","","memory_trial","4","definitely_new","","","","","","",""
"html-keyboard-response","112","265156","0.0-15.0-0.35","1903","2","""event"",""trial"",""time""
""fullscreenenter"",""1"",""1416""
","
","
","""event"",""trial"",""time""
""fullscreenenter"",""1"",""1416""
","
","","","","","","null","<div style=""font-size:60px;"">+</div>","null","","fixation","","","","","","","","",""
"memory-trial","113","267454","0.0-15.0-1.35","1903","2","""event"",""trial"",""time""
""fullscreenenter"",""1"",""1416""
","
","
","""event"",""trial"",""time""
""fullscreenenter"",""1"",""1416""
","
","","","","","","1293.0999999940395","images/feline5.png","","","memory_trial","4","definitely_new","","","","","","",""
"html-keyboard-response","114","267955","0.0-15.0-0.36","1903","2","""event"",""trial"",""time""
""fullscreenenter"",""1"",""1416""
","
","
","""event"",""trial"",""time""
""fullscreenenter"",""1"",""1416""
","
","","","","","","null","<div style=""font-size:60px;"">+</div>","null","","fixation","","","","","","","","",""
"memory-trial","115","270264","0.0-15.0-1.36","1903","2","""event"",""trial"",""time""
""fullscreenenter"",""1"",""1416""
","
","
","""event"",""trial"",""time""
""fullscreenenter"",""1"",""1416""
","
","","","","","","1306.5","images/train4.png","","","memory_trial","4","definitely_new","","","","","","",""
"html-keyboard-response","116","270765","0.0-15.0-0.37","1903","2","""event"",""trial"",""time""
""fullscreenenter"",""1"",""1416""
","
","
","""event"",""trial"",""time""
""fullscreenenter"",""1"",""1416""
","
","","","","","","null","<div style=""font-size:60px;"">+</div>","null","","fixation","","","","","","","","",""
"memory-trial","117","273656","0.0-15.0-1.37","1903","2","""event"",""trial"",""time""
""fullscreenenter"",""1"",""1416""
","
","
","""event"",""trial"",""time""
""fullscreenenter"",""1"",""1416""
","
","","","","","","1885.0999999940395","images/cow3.png","","","memory_trial","2","maybe_old","","","","","","",""
"html-keyboard-response","118","274157","0.0-15.0-0.38","1903","2","""event"",""trial"",""time""
""fullscreenenter"",""1"",""1416""
","
","
","""event"",""trial"",""time""
""fullscreenenter"",""1"",""1416""
","
","","","","","","null","<div style=""font-size:60px;"">+</div>","null","","fixation","","","","","","","","",""
"memory-trial","119","275997","0.0-15.0-1.38","1903","2","""event"",""trial"",""time""
""fullscreenenter"",""1"",""1416""
","
","
","""event"",""trial"",""time""
""fullscreenenter"",""1"",""1416""
","
","","","","","","837.2000000029802","images/tree5.png","","","memory_trial","1","definitely_old","","","","","","",""
"html-keyboard-response","120","276499","0.0-15.0-0.39","1903","2","""event"",""trial"",""time""
""fullscreenenter"",""1"",""1416""
","
","
","""event"",""trial"",""time""
""fullscreenenter"",""1"",""1416""
","
","","","","","","null","<div style=""font-size:60px;"">+</div>","null","","fixation","","","","","","","","",""
"memory-trial","121","278259","0.0-15.0-1.39","1903","2","""event"",""trial"",""time""
""fullscreenenter"",""1"",""1416""
","
","
","""event"",""trial"",""time""
""fullscreenenter"",""1"",""1416""
","
","","","","","","753.4000000059605","images/boat1.png","","","memory_trial","1","definitely_old","","","","","","",""
"html-keyboard-response","122","278760","0.0-15.0-0.40","1903","2","""event"",""trial"",""time""
""fullscreenenter"",""1"",""1416""
","
","
","""event"",""trial"",""time""
""fullscreenenter"",""1"",""1416""
","
","","","","","","null","<div style=""font-size:60px;"">+</div>","null","","fixation","","","","","","","","",""
"memory-trial","123","281032","0.0-15.0-1.40","1903","2","""event"",""trial"",""time""
""fullscreenenter"",""1"",""1416""
","
","
","""event"",""trial"",""time""
""fullscreenenter"",""1"",""1416""
","
","","","","","","1264.2999999970198","images/table4.png","","","memory_trial","4","definitely_new","","","","","","",""
"html-keyboard-response","124","281533","0.0-15.0-0.41","1903","2","""event"",""trial"",""time""
""fullscreenenter"",""1"",""1416""
","
","
","""event"",""trial"",""time""
""fullscreenenter"",""1"",""1416""
","
","","","","","","null","<div style=""font-size:60px;"">+</div>","null","","fixation","","","","","","","","",""
"memory-trial","125","283224","0.0-15.0-1.41","1903","2","""event"",""trial"",""time""
""fullscreenenter"",""1"",""1416""
","
","
","""event"",""trial"",""time""
""fullscreenenter"",""1"",""1416""
","
","","","","","","684.0999999940395","images/sofa3.png","","","memory_trial","4","definitely_new","","","","","","",""
"html-keyboard-response","126","283725","0.0-15.0-0.42","1903","2","""event"",""trial"",""time""
""fullscreenenter"",""1"",""1416""
","
","
","""event"",""trial"",""time""
""fullscreenenter"",""1"",""1416""
","
","","","","","","null","<div style=""font-size:60px;"">+</div>","null","","fixation","","","","","","","","",""
"memory-trial","127","285416","0.0-15.0-1.42","1903","2","""event"",""trial"",""time""
""fullscreenenter"",""1"",""1416""
","
","
","""event"",""trial"",""time""
""fullscreenenter"",""1"",""1416""
","
","","","","","","686.3000000119209","images/sofa5.png","","","memory_trial","4","definitely_new","","","","","","",""
"html-keyboard-response","128","285920","0.0-15.0-0.43","1903","2","""event"",""trial"",""time""
""fullscreenenter"",""1"",""1416""
","
","
","""event"",""trial"",""time""
""fullscreenenter"",""1"",""1416""
","
","","","","","","null","<div style=""font-size:60px;"">+</div>","null","","fixation","","","","","","","","",""
"memory-trial","129","287699","0.0-15.0-1.43","1903","2","""event"",""trial"",""time""
""fullscreenenter"",""1"",""1416""
","
","
","""event"",""trial"",""time""
""fullscreenenter"",""1"",""1416""
","
","","","","","","772.8000000119209","images/dog1.png","","","memory_trial","4","definitely_new","","","","","","",""
"html-keyboard-response","130","288200","0.0-15.0-0.44","1903","2","""event"",""trial"",""time""
""fullscreenenter"",""1"",""1416""
","
","
","""event"",""trial"",""time""
""fullscreenenter"",""1"",""1416""
","
","","","","","","null","<div style=""font-size:60px;"">+</div>","null","","fixation","","","","","","","","",""
"memory-trial","131","289997","0.0-15.0-1.44","1903","2","""event"",""trial"",""time""
""fullscreenenter"",""1"",""1416""
","
","
","""event"",""trial"",""time""
""fullscreenenter"",""1"",""1416""
","
","","","","","","793.2000000029802","images/rabbit3.png","","","memory_trial","1","definitely_old","","","","","","",""
"html-keyboard-response","132","290499","0.0-15.0-0.45","1903","2","""event"",""trial"",""time""
""fullscreenenter"",""1"",""1416""
","
","
","""event"",""trial"",""time""
""fullscreenenter"",""1"",""1416""
","
","","","","","","null","<div style=""font-size:60px;"">+</div>","null","","fixation","","","","","","","","",""
"memory-trial","133","292298","0.0-15.0-1.45","1903","2","""event"",""trial"",""time""
""fullscreenenter"",""1"",""1416""
","
","
","""event"",""trial"",""time""
""fullscreenenter"",""1"",""1416""
","
","","","","","","792.6999999880791","images/boat3.png","","","memory_trial","4","definitely_new","","","","","","",""
"html-keyboard-response","134","292803","0.0-15.0-0.46","1903","2","""event"",""trial"",""time""
""fullscreenenter"",""1"",""1416""
","
","
","""event"",""trial"",""time""
""fullscreenenter"",""1"",""1416""
","
","","","","","","null","<div style=""font-size:60px;"">+</div>","null","","fixation","","","","","","","","",""
"memory-trial","135","294494","0.0-15.0-1.46","1903","2","""event"",""trial"",""time""
""fullscreenenter"",""1"",""1416""
","
","
","""event"",""trial"",""time""
""fullscreenenter"",""1"",""1416""
","
","","","","","","684.2999999970198","images/rodent3.png","","","memory_trial","4","definitely_new","","","","","","",""
"html-button-response","136","295848","0.0-15.0-2.46-0.46","1903","2","""event"",""trial"",""time""
""fullscreenenter"",""1"",""1416""
","
","
","""event"",""trial"",""time""
""fullscreenenter"",""1"",""1416""
","
","","","","","","1352.7999999970198","<p> Take a break! </p><p> Click the button to continue. </p>","0","","break","","","","","","","","",""
"html-keyboard-response","137","296349","0.0-15.0-0.47","1903","2","""event"",""trial"",""time""
""fullscreenenter"",""1"",""1416""
","
","
","""event"",""trial"",""time""
""fullscreenenter"",""1"",""1416""
","
","","","","","","null","<div style=""font-size:60px;"">+</div>","null","","fixation","","","","","","","","",""
"memory-trial","138","298194","0.0-15.0-1.47","1903","2","""event"",""trial"",""time""
""fullscreenenter"",""1"",""1416""
","
","
","""event"",""trial"",""time""
""fullscreenenter"",""1"",""1416""
","
","","","","","","838.2000000029802","images/flower3.png","","","memory_trial","1","definitely_old","","","","","","",""
"html-keyboard-response","139","298696","0.0-15.0-0.48","1903","2","""event"",""trial"",""time""
""fullscreenenter"",""1"",""1416""
","
","
","""event"",""trial"",""time""
""fullscreenenter"",""1"",""1416""
","
","","","","","","null","<div style=""font-size:60px;"">+</div>","null","","fixation","","","","","","","","",""
"memory-trial","140","300456","0.0-15.0-1.48","1903","2","""event"",""trial"",""time""
""fullscreenenter"",""1"",""1416""
","
","
","""event"",""trial"",""time""
""fullscreenenter"",""1"",""1416""
","
","","","","","","755.4000000059605","images/orange2.png","","","memory_trial","1","definitely_old","","","","","","",""
"html-keyboard-response","141","300957","0.0-15.0-0.49","1903","2","""event"",""trial"",""time""
""fullscreenenter"",""1"",""1416""
","
","
","""event"",""trial"",""time""
""fullscreenenter"",""1"",""1416""
","
","","","","","","null","<div style=""font-size:60px;"">+</div>","null","","fixation","","","","","","","","",""
"memory-trial","142","302707","0.0-15.0-1.49","1903","2","""event"",""trial"",""time""
""fullscreenenter"",""1"",""1416""
","
","
","""event"",""trial"",""time""
""fullscreenenter"",""1"",""1416""
","
","","","","","","743.2999999970198","images/apple2.png","","","memory_trial","1","definitely_old","","","","","","",""
"html-keyboard-response","143","303208","0.0-15.0-0.50","1903","2","""event"",""trial"",""time""
""fullscreenenter"",""1"",""1416""
","
","
","""event"",""trial"",""time""
""fullscreenenter"",""1"",""1416""
","
","","","","","","null","<div style=""font-size:60px;"">+</div>","null","","fixation","","","","","","","","",""
"memory-trial","144","304899","0.0-15.0-1.50","1903","2","""event"",""trial"",""time""
""fullscreenenter"",""1"",""1416""
","
","
","""event"",""trial"",""time""
""fullscreenenter"",""1"",""1416""
","
","","","","","","687.2999999970198","images/rodent4.png","","","memory_trial","4","definitely_new","","","","","","",""
"html-keyboard-response","145","305400","0.0-15.0-0.51","1903","2","""event"",""trial"",""time""
""fullscreenenter"",""1"",""1416""
","
","
","""event"",""trial"",""time""
""fullscreenenter"",""1"",""1416""
","
","","","","","","null","<div style=""font-size:60px;"">+</div>","null","","fixation","","","","","","","","",""
"memory-trial","146","307112","0.0-15.0-1.51","1903","2","""event"",""trial"",""time""
""fullscreenenter"",""1"",""1416""
","
","
","""event"",""trial"",""time""
""fullscreenenter"",""1"",""1416""
","
","","","","","","708.2999999970198","images/orange4.png","","","memory_trial","1","definitely_old","","","","","","",""
"html-keyboard-response","147","307615","0.0-15.0-0.52","1903","2","""event"",""trial"",""time""
""fullscreenenter"",""1"",""1416""
","
","
","""event"",""trial"",""time""
""fullscreenenter"",""1"",""1416""
","
","","","","","","null","<div style=""font-size:60px;"">+</div>","null","","fixation","","","","","","","","",""
"memory-trial","148","309390","0.0-15.0-1.52","1903","2","""event"",""trial"",""time""
""fullscreenenter"",""1"",""1416""
","
","
","""event"",""trial"",""time""
""fullscreenenter"",""1"",""1416""
","
","","","","","","768.7999999970198","images/boat4.png","","","memory_trial","4","definitely_new","","","","","","",""
"html-keyboard-response","149","309891","0.0-15.0-0.53","1903","2","""event"",""trial"",""time""
""fullscreenenter"",""1"",""1416""
","
","
","""event"",""trial"",""time""
""fullscreenenter"",""1"",""1416""
","
","","","","","","null","<div style=""font-size:60px;"">+</div>","null","","fixation","","","","","","","","",""
"memory-trial","150","311528","0.0-15.0-1.53","1903","2","""event"",""trial"",""time""
""fullscreenenter"",""1"",""1416""
","
","
","""event"",""trial"",""time""
""fullscreenenter"",""1"",""1416""
","
","","","","","","631.6999999880791","images/dog2.png","","","memory_trial","4","definitely_new","","","","","","",""
"html-keyboard-response","151","312033","0.0-15.0-0.54","1903","2","""event"",""trial"",""time""
""fullscreenenter"",""1"",""1416""
","
","
","""event"",""trial"",""time""
""fullscreenenter"",""1"",""1416""
","
","","","","","","null","<div style=""font-size:60px;"">+</div>","null","","fixation","","","","","","","","",""
"memory-trial","152","313736","0.0-15.0-1.54","1903","2","""event"",""trial"",""time""
""fullscreenenter"",""1"",""1416""
","
","
","""event"",""trial"",""time""
""fullscreenenter"",""1"",""1416""
","
","","","","","","696.8999999910593","images/bush4.png","","","memory_trial","4","definitely_new","","","","","","",""
"html-keyboard-response","153","314237","0.0-15.0-0.55","1903","2","""event"",""trial"",""time""
""fullscreenenter"",""1"",""1416""
","
","
","""event"",""trial"",""time""
""fullscreenenter"",""1"",""1416""
","
","","","","","","null","<div style=""font-size:60px;"">+</div>","null","","fixation","","","","","","","","",""
"memory-trial","154","315960","0.0-15.0-1.55","1903","2","""event"",""trial"",""time""
""fullscreenenter"",""1"",""1416""
","
","
","""event"",""trial"",""time""
""fullscreenenter"",""1"",""1416""
","
","","","","","","717","images/dog3.png","","","memory_trial","1","definitely_old","","","","","","",""
"html-keyboard-response","155","316461","0.0-15.0-0.56","1903","2","""event"",""trial"",""time""
""fullscreenenter"",""1"",""1416""
","
","
","""event"",""trial"",""time""
""fullscreenenter"",""1"",""1416""
","
","","","","","","null","<div style=""font-size:60px;"">+</div>","null","","fixation","","","","","","","","",""
"memory-trial","156","318238","0.0-15.0-1.56","1903","2","""event"",""trial"",""time""
""fullscreenenter"",""1"",""1416""
","
","
","""event"",""trial"",""time""
""fullscreenenter"",""1"",""1416""
","
","","","","","","772","images/apple5.png","","","memory_trial","1","definitely_old","","","","","","",""
"html-keyboard-response","157","318739","0.0-15.0-0.57","1903","2","""event"",""trial"",""time""
""fullscreenenter"",""1"",""1416""
","
","
","""event"",""trial"",""time""
""fullscreenenter"",""1"",""1416""
","
","","","","","","null","<div style=""font-size:60px;"">+</div>","null","","fixation","","","","","","","","",""
"memory-trial","158","320472","0.0-15.0-1.57","1903","2","""event"",""trial"",""time""
""fullscreenenter"",""1"",""1416""
","
","
","""event"",""trial"",""time""
""fullscreenenter"",""1"",""1416""
","
","","","","","","727.2999999970198","images/chair3.png","","","memory_trial","4","definitely_new","","","","","","",""
"html-keyboard-response","159","320973","0.0-15.0-0.58","1903","2","""event"",""trial"",""time""
""fullscreenenter"",""1"",""1416""
","
","
","""event"",""trial"",""time""
""fullscreenenter"",""1"",""1416""
","
","","","","","","null","<div style=""font-size:60px;"">+</div>","null","","fixation","","","","","","","","",""
"memory-trial","160","323000","0.0-15.0-1.58","1903","2","""event"",""trial"",""time""
""fullscreenenter"",""1"",""1416""
","
","
","""event"",""trial"",""time""
""fullscreenenter"",""1"",""1416""
","
","","","","","","1022.3000000119209","images/chair5.png","","","memory_trial","1","definitely_old","","","","","","",""
"html-keyboard-response","161","323501","0.0-15.0-0.59","1903","2","""event"",""trial"",""time""
""fullscreenenter"",""1"",""1416""
","
","
","""event"",""trial"",""time""
""fullscreenenter"",""1"",""1416""
","
","","","","","","null","<div style=""font-size:60px;"">+</div>","null","","fixation","","","","","","","","",""
"memory-trial","162","325795","0.0-15.0-1.59","1903","2","""event"",""trial"",""time""
""fullscreenenter"",""1"",""1416""
","
","
","""event"",""trial"",""time""
""fullscreenenter"",""1"",""1416""
","
","","","","","","1287.1000000089407","images/horse5.png","","","memory_trial","2","maybe_old","","","","","","",""
"html-keyboard-response","163","326299","0.0-15.0-0.60","1903","2","""event"",""trial"",""time""
""fullscreenenter"",""1"",""1416""
","
","
","""event"",""trial"",""time""
""fullscreenenter"",""1"",""1416""
","
","","","","","","null","<div style=""font-size:60px;"">+</div>","null","","fixation","","","","","","","","",""
"memory-trial","164","328056","0.0-15.0-1.60","1903","2","""event"",""trial"",""time""
""fullscreenenter"",""1"",""1416""
","
","
","""event"",""trial"",""time""
""fullscreenenter"",""1"",""1416""
","
","","","","","","751.5999999940395","images/train5.png","","","memory_trial","4","definitely_new","","","","","","",""
"html-keyboard-response","165","328558","0.0-15.0-0.61","1903","2","""event"",""trial"",""time""
""fullscreenenter"",""1"",""1416""
","
","
","""event"",""trial"",""time""
""fullscreenenter"",""1"",""1416""
","
","","","","","","null","<div style=""font-size:60px;"">+</div>","null","","fixation","","","","","","","","",""
"memory-trial","166","330197","0.0-15.0-1.61","1903","2","""event"",""trial"",""time""
""fullscreenenter"",""1"",""1416""
","
","
","""event"",""trial"",""time""
""fullscreenenter"",""1"",""1416""
","
","","","","","","633.5","images/bush2.png","","","memory_trial","4","definitely_new","","","","","","",""
"html-keyboard-response","167","330701","0.0-15.0-0.62","1903","2","""event"",""trial"",""time""
""fullscreenenter"",""1"",""1416""
","
","
","""event"",""trial"",""time""
""fullscreenenter"",""1"",""1416""
","
","","","","","","null","<div style=""font-size:60px;"">+</div>","null","","fixation","","","","","","","","",""
"memory-trial","168","332878","0.0-15.0-1.62","1903","2","""event"",""trial"",""time""
""fullscreenenter"",""1"",""1416""
","
","
","""event"",""trial"",""time""
""fullscreenenter"",""1"",""1416""
","
","","","","","","1171","images/table3.png","","","memory_trial","2","maybe_old","","","","","","",""
"html-keyboard-response","169","333379","0.0-15.0-0.63","1903","2","""event"",""trial"",""time""
""fullscreenenter"",""1"",""1416""
","
","
","""event"",""trial"",""time""
""fullscreenenter"",""1"",""1416""
","
","","","","","","null","<div style=""font-size:60px;"">+</div>","null","","fixation","","","","","","","","",""
"memory-trial","170","335118","0.0-15.0-1.63","1903","2","""event"",""trial"",""time""
""fullscreenenter"",""1"",""1416""
","
","
","""event"",""trial"",""time""
""fullscreenenter"",""1"",""1416""
","
","","","","","","734.3000000119209","images/feline3.png","","","memory_trial","1","definitely_old","","","","","","",""
"html-keyboard-response","171","335619","0.0-15.0-0.64","1903","2","""event"",""trial"",""time""
""fullscreenenter"",""1"",""1416""
","
","
","""event"",""trial"",""time""
""fullscreenenter"",""1"",""1416""
","
","","","","","","null","<div style=""font-size:60px;"">+</div>","null","","fixation","","","","","","","","",""
"memory-trial","172","337726","0.0-15.0-1.64","1903","2","""event"",""trial"",""time""
""fullscreenenter"",""1"",""1416""
","
","
","""event"",""trial"",""time""
""fullscreenenter"",""1"",""1416""
","
","","","","","","1103","images/rabbit4.png","","","memory_trial","1","definitely_old","","","","","","",""
"html-keyboard-response","173","338227","0.0-15.0-0.65","1903","2","""event"",""trial"",""time""
""fullscreenenter"",""1"",""1416""
","
","
","""event"",""trial"",""time""
""fullscreenenter"",""1"",""1416""
","
","","","","","","null","<div style=""font-size:60px;"">+</div>","null","","fixation","","","","","","","","",""
"memory-trial","174","340541","0.0-15.0-1.65","1903","2","""event"",""trial"",""time""
""fullscreenenter"",""1"",""1416""
","
","
","""event"",""trial"",""time""
""fullscreenenter"",""1"",""1416""
","
","","","","","","1307.7999999970198","images/sheep5.png","","","memory_trial","2","maybe_old","","","","","","",""
"html-keyboard-response","175","341044","0.0-15.0-0.66","1903","2","""event"",""trial"",""time""
""fullscreenenter"",""1"",""1416""
","
","
","""event"",""trial"",""time""
""fullscreenenter"",""1"",""1416""
","
","","","","","","null","<div style=""font-size:60px;"">+</div>","null","","fixation","","","","","","","","",""
"memory-trial","176","342963","0.0-15.0-1.66","1903","2","""event"",""trial"",""time""
""fullscreenenter"",""1"",""1416""
","
","
","""event"",""trial"",""time""
""fullscreenenter"",""1"",""1416""
","
","","","","","","913.5","images/banana1.png","","","memory_trial","1","definitely_old","","","","","","",""
"html-keyboard-response","177","343464","0.0-15.0-0.67","1903","2","""event"",""trial"",""time""
""fullscreenenter"",""1"",""1416""
","
","
","""event"",""trial"",""time""
""fullscreenenter"",""1"",""1416""
","
","","","","","","null","<div style=""font-size:60px;"">+</div>","null","","fixation","","","","","","","","",""
"memory-trial","178","345160","0.0-15.0-1.67","1903","2","""event"",""trial"",""time""
""fullscreenenter"",""1"",""1416""
","
","
","""event"",""trial"",""time""
""fullscreenenter"",""1"",""1416""
","
","","","","","","690.7000000029802","images/rabbit2.png","","","memory_trial","1","definitely_old","","","","","","",""
"html-keyboard-response","179","345665","0.0-15.0-0.68","1903","2","""event"",""trial"",""time""
""fullscreenenter"",""1"",""1416""
","
","
","""event"",""trial"",""time""
""fullscreenenter"",""1"",""1416""
","
","","","","","","null","<div style=""font-size:60px;"">+</div>","null","","fixation","","","","","","","","",""
"memory-trial","180","348062","0.0-15.0-1.68","1903","2","""event"",""trial"",""time""
""fullscreenenter"",""1"",""1416""
","
","
","""event"",""trial"",""time""
""fullscreenenter"",""1"",""1416""
","
","","","","","","1393.7000000029802","images/chair1.png","","","memory_trial","4","definitely_new","","","","","","",""
"html-keyboard-response","181","348563","0.0-15.0-0.69","1903","2","""event"",""trial"",""time""
""fullscreenenter"",""1"",""1416""
","
","
","""event"",""trial"",""time""
""fullscreenenter"",""1"",""1416""
","
","","","","","","null","<div style=""font-size:60px;"">+</div>","null","","fixation","","","","","","","","",""
"memory-trial","182","350312","0.0-15.0-1.69","1903","2","""event"",""trial"",""time""
""fullscreenenter"",""1"",""1416""
","
","
","""event"",""trial"",""time""
""fullscreenenter"",""1"",""1416""
","
","","","","","","745.0999999940395","images/bush3.png","","","memory_trial","4","definitely_new","","","","","","",""
"html-keyboard-response","183","350814","0.0-15.0-0.70","1903","2","""event"",""trial"",""time""
""fullscreenenter"",""1"",""1416""
","
","
","""event"",""trial"",""time""
""fullscreenenter"",""1"",""1416""
","
","","","","","","null","<div style=""font-size:60px;"">+</div>","null","","fixation","","","","","","","","",""
"memory-trial","184","353475","0.0-15.0-1.70","1903","2","""event"",""trial"",""time""
""fullscreenenter"",""1"",""1416""
","
","
","""event"",""trial"",""time""
""fullscreenenter"",""1"",""1416""
","
","","","","","","1655.1000000089407","images/plane1.png","","","memory_trial","1","definitely_old","","","","","","",""
"html-keyboard-response","185","353976","0.0-15.0-0.71","1903","2","""event"",""trial"",""time""
""fullscreenenter"",""1"",""1416""
","
","
","""event"",""trial"",""time""
""fullscreenenter"",""1"",""1416""
","
","","","","","","null","<div style=""font-size:60px;"">+</div>","null","","fixation","","","","","","","","",""
"memory-trial","186","355742","0.0-15.0-1.71","1903","2","""event"",""trial"",""time""
""fullscreenenter"",""1"",""1416""
","
","
","""event"",""trial"",""time""
""fullscreenenter"",""1"",""1416""
","
","","","","","","759.2000000029802","images/horse1.png","","","memory_trial","4","definitely_new","","","","","","",""
"html-keyboard-response","187","356243","0.0-15.0-0.72","1903","2","""event"",""trial"",""time""
""fullscreenenter"",""1"",""1416""
","
","
","""event"",""trial"",""time""
""fullscreenenter"",""1"",""1416""
","
","","","","","","null","<div style=""font-size:60px;"">+</div>","null","","fixation","","","","","","","","",""
"memory-trial","188","357818","0.0-15.0-1.72","1903","2","""event"",""trial"",""time""
""fullscreenenter"",""1"",""1416""
","
","
","""event"",""trial"",""time""
""fullscreenenter"",""1"",""1416""
","
","","","","","","570.7999999970198","images/plane2.png","","","memory_trial","4","definitely_new","","","","","","",""
"html-keyboard-response","189","358323","0.0-15.0-0.73","1903","2","""event"",""trial"",""time""
""fullscreenenter"",""1"",""1416""
","
","
","""event"",""trial"",""time""
""fullscreenenter"",""1"",""1416""
","
","","","","","","null","<div style=""font-size:60px;"">+</div>","null","","fixation","","","","","","","","",""
"memory-trial","190","360568","0.0-15.0-1.73","1903","2","""event"",""trial"",""time""
""fullscreenenter"",""1"",""1416""
","
","
","""event"",""trial"",""time""
""fullscreenenter"",""1"",""1416""
","
","","","","","","1242.199999988079","images/cactus3.png","","","memory_trial","1","definitely_old","","","","","","",""
"html-keyboard-response","191","361075","0.0-15.0-0.74","1903","2","""event"",""trial"",""time""
""fullscreenenter"",""1"",""1416""
","
","
","""event"",""trial"",""time""
""fullscreenenter"",""1"",""1416""
","
","","","","","","null","<div style=""font-size:60px;"">+</div>","null","","fixation","","","","","","","","",""
"memory-trial","192","363834","0.0-15.0-1.74","1903","2","""event"",""trial"",""time""
""fullscreenenter"",""1"",""1416""
","
","
","""event"",""trial"",""time""
""fullscreenenter"",""1"",""1416""
","
","","","","","","1754.7000000029802","images/flower5.png","","","memory_trial","1","definitely_old","","","","","","",""
"html-keyboard-response","193","364339","0.0-15.0-0.75","1903","2","""event"",""trial"",""time""
""fullscreenenter"",""1"",""1416""
","
","
","""event"",""trial"",""time""
""fullscreenenter"",""1"",""1416""
","
","","","","","","null","<div style=""font-size:60px;"">+</div>","null","","fixation","","","","","","","","",""
"memory-trial","194","366280","0.0-15.0-1.75","1903","2","""event"",""trial"",""time""
""fullscreenenter"",""1"",""1416""
","
","
","""event"",""trial"",""time""
""fullscreenenter"",""1"",""1416""
","
","","","","","","936.5999999940395","images/tree4.png","","","memory_trial","4","definitely_new","","","","","","",""
"html-keyboard-response","195","366784","0.0-15.0-0.76","1903","2","""event"",""trial"",""time""
""fullscreenenter"",""1"",""1416""
","
","
","""event"",""trial"",""time""
""fullscreenenter"",""1"",""1416""
","
","","","","","","null","<div style=""font-size:60px;"">+</div>","null","","fixation","","","","","","","","",""
"memory-trial","196","368541","0.0-15.0-1.76","1903","2","""event"",""trial"",""time""
""fullscreenenter"",""1"",""1416""
","
","
","""event"",""trial"",""time""
""fullscreenenter"",""1"",""1416""
","
","","","","","","752","images/tree1.png","","","memory_trial","1","definitely_old","","","","","","",""
"html-keyboard-response","197","369044","0.0-15.0-0.77","1903","2","""event"",""trial"",""time""
""fullscreenenter"",""1"",""1416""
","
","
","""event"",""trial"",""time""
""fullscreenenter"",""1"",""1416""
","
","","","","","","null","<div style=""font-size:60px;"">+</div>","null","","fixation","","","","","","","","",""
"memory-trial","198","371763","0.0-15.0-1.77","1903","2","""event"",""trial"",""time""
""fullscreenenter"",""1"",""1416""
","
","
","""event"",""trial"",""time""
""fullscreenenter"",""1"",""1416""
","
","","","","","","1712.0999999940395","images/chair2.png","","","memory_trial","2","maybe_old","","","","","","",""
"html-keyboard-response","199","372264","0.0-15.0-0.78","1903","2","""event"",""trial"",""time""
""fullscreenenter"",""1"",""1416""
","
","
","""event"",""trial"",""time""
""fullscreenenter"",""1"",""1416""
","
","","","","","","null","<div style=""font-size:60px;"">+</div>","null","","fixation","","","","","","","","",""
"memory-trial","200","374974","0.0-15.0-1.78","1903","2","""event"",""trial"",""time""
""fullscreenenter"",""1"",""1416""
","
","
","""event"",""trial"",""time""
""fullscreenenter"",""1"",""1416""
","
","","","","","","1703.8999999910593","images/straw1.png","","","memory_trial","3","maybe_new","","","","","","",""
"html-keyboard-response","201","375475","0.0-15.0-0.79","1903","2","""event"",""trial"",""time""
""fullscreenenter"",""1"",""1416""
","
","
","""event"",""trial"",""time""
""fullscreenenter"",""1"",""1416""
","
","","","","","","null","<div style=""font-size:60px;"">+</div>","null","","fixation","","","","","","","","",""
"memory-trial","202","377697","0.0-15.0-1.79","1903","2","""event"",""trial"",""time""
""fullscreenenter"",""1"",""1416""
","
","
","""event"",""trial"",""time""
""fullscreenenter"",""1"",""1416""
","
","","","","","","1214","images/bush1.png","","","memory_trial","4","definitely_new","","","","","","",""
"html-keyboard-response","203","378200","0.0-15.0-0.80","1903","2","""event"",""trial"",""time""
""fullscreenenter"",""1"",""1416""
","
","
","""event"",""trial"",""time""
""fullscreenenter"",""1"",""1416""
","
","","","","","","null","<div style=""font-size:60px;"">+</div>","null","","fixation","","","","","","","","",""
"memory-trial","204","380963","0.0-15.0-1.80","1903","2","""event"",""trial"",""time""
""fullscreenenter"",""1"",""1416""
","
","
","""event"",""trial"",""time""
""fullscreenenter"",""1"",""1416""
","
","","","","","","1756.4000000059605","images/truck1.png","","","memory_trial","3","maybe_new","","","","","","",""
"html-keyboard-response","205","381465","0.0-15.0-0.81","1903","2","""event"",""trial"",""time""
""fullscreenenter"",""1"",""1416""
","
","
","""event"",""trial"",""time""
""fullscreenenter"",""1"",""1416""
","
","","","","","","null","<div style=""font-size:60px;"">+</div>","null","","fixation","","","","","","","","",""
"memory-trial","206","383256","0.0-15.0-1.81","1903","2","""event"",""trial"",""time""
""fullscreenenter"",""1"",""1416""
","
","
","""event"",""trial"",""time""
""fullscreenenter"",""1"",""1416""
","
","","","","","","786.3999999910593","images/bush5.png","","","memory_trial","4","definitely_new","","","","","","",""
"html-keyboard-response","207","383758","0.0-15.0-0.82","1903","2","""event"",""trial"",""time""
""fullscreenenter"",""1"",""1416""
","
","
","""event"",""trial"",""time""
""fullscreenenter"",""1"",""1416""
","
","","","","","","null","<div style=""font-size:60px;"">+</div>","null","","fixation","","","","","","","","",""
"memory-trial","208","386739","0.0-15.0-1.82","1903","2","""event"",""trial"",""time""
""fullscreenenter"",""1"",""1416""
","
","
","""event"",""trial"",""time""
""fullscreenenter"",""1"",""1416""
","
","","","","","","1975.1000000089407","images/goat1.png","","","memory_trial","3","maybe_new","","","","","","",""
"html-keyboard-response","209","387240","0.0-15.0-0.83","1903","2","""event"",""trial"",""time""
""fullscreenenter"",""1"",""1416""
","
","
","""event"",""trial"",""time""
""fullscreenenter"",""1"",""1416""
","
","","","","","","null","<div style=""font-size:60px;"">+</div>","null","","fixation","","","","","","","","",""
"memory-trial","210","389923","0.0-15.0-1.83","1903","2","""event"",""trial"",""time""
""fullscreenenter"",""1"",""1416""
","
","
","""event"",""trial"",""time""
""fullscreenenter"",""1"",""1416""
","
","","","","","","1676.5999999940395","images/truck2.png","","","memory_trial","3","maybe_new","","","","","","",""
"html-keyboard-response","211","390426","0.0-15.0-0.84","1903","2","""event"",""trial"",""time""
""fullscreenenter"",""1"",""1416""
","
","
","""event"",""trial"",""time""
""fullscreenenter"",""1"",""1416""
","
","","","","","","null","<div style=""font-size:60px;"">+</div>","null","","fixation","","","","","","","","",""
"memory-trial","212","393016","0.0-15.0-1.84","1903","2","""event"",""trial"",""time""
""fullscreenenter"",""1"",""1416""
","
","
","""event"",""trial"",""time""
""fullscreenenter"",""1"",""1416""
","
","","","","","","1582.9000000059605","images/straw2.png","","","memory_trial","2","maybe_old","","","","","","",""
"html-keyboard-response","213","393518","0.0-15.0-0.85","1903","2","""event"",""trial"",""time""
""fullscreenenter"",""1"",""1416""
","
","
","""event"",""trial"",""time""
""fullscreenenter"",""1"",""1416""
","
","","","","","","null","<div style=""font-size:60px;"">+</div>","null","","fixation","","","","","","","","",""
"memory-trial","214","395208","0.0-15.0-1.85","1903","2","""event"",""trial"",""time""
""fullscreenenter"",""1"",""1416""
","
","
","""event"",""trial"",""time""
""fullscreenenter"",""1"",""1416""
","
","","","","","","683.6000000089407","images/cow1.png","","","memory_trial","1","definitely_old","","","","","","",""
"html-keyboard-response","215","395710","0.0-15.0-0.86","1903","2","""event"",""trial"",""time""
""fullscreenenter"",""1"",""1416""
","
","
","""event"",""trial"",""time""
""fullscreenenter"",""1"",""1416""
","
","","","","","","null","<div style=""font-size:60px;"">+</div>","null","","fixation","","","","","","","","",""
"memory-trial","216","397830","0.0-15.0-1.86","1903","2","""event"",""trial"",""time""
""fullscreenenter"",""1"",""1416""
","
","
","""event"",""trial"",""time""
""fullscreenenter"",""1"",""1416""
","
","","","","","","1113.2000000029802","images/flower2.png","","","memory_trial","1","definitely_old","","","","","","",""
"html-keyboard-response","217","398334","0.0-15.0-0.87","1903","2","""event"",""trial"",""time""
""fullscreenenter"",""1"",""1416""
","
","
","""event"",""trial"",""time""
""fullscreenenter"",""1"",""1416""
","
","","","","","","null","<div style=""font-size:60px;"">+</div>","null","","fixation","","","","","","","","",""
"memory-trial","218","400504","0.0-15.0-1.87","1903","2","""event"",""trial"",""time""
""fullscreenenter"",""1"",""1416""
","
","
","""event"",""trial"",""time""
""fullscreenenter"",""1"",""1416""
","
","","","","","","1163.9000000059605","images/dog4.png","","","memory_trial","1","definitely_old","","","","","","",""
"html-keyboard-response","219","401006","0.0-15.0-0.88","1903","2","""event"",""trial"",""time""
""fullscreenenter"",""1"",""1416""
","
","
","""event"",""trial"",""time""
""fullscreenenter"",""1"",""1416""
","
","","","","","","null","<div style=""font-size:60px;"">+</div>","null","","fixation","","","","","","","","",""
"memory-trial","220","402734","0.0-15.0-1.88","1903","2","""event"",""trial"",""time""
""fullscreenenter"",""1"",""1416""
","
","
","""event"",""trial"",""time""
""fullscreenenter"",""1"",""1416""
","
","","","","","","720.3999999910593","images/rodent2.png","","","memory_trial","4","definitely_new","","","","","","",""
"html-keyboard-response","221","403235","0.0-15.0-0.89","1903","2","""event"",""trial"",""time""
""fullscreenenter"",""1"",""1416""
","
","
","""event"",""trial"",""time""
""fullscreenenter"",""1"",""1416""
","
","","","","","","null","<div style=""font-size:60px;"">+</div>","null","","fixation","","","","","","","","",""
"memory-trial","222","405566","0.0-15.0-1.89","1903","2","""event"",""trial"",""time""
""fullscreenenter"",""1"",""1416""
","
","
","""event"",""trial"",""time""
""fullscreenenter"",""1"",""1416""
","
","","","","","","1324.0999999940395","images/plane5.png","","","memory_trial","3","maybe_new","","","","","","",""
"html-keyboard-response","223","406067","0.0-15.0-0.90","1903","2","""event"",""trial"",""time""
""fullscreenenter"",""1"",""1416""
","
","
","""event"",""trial"",""time""
""fullscreenenter"",""1"",""1416""
","
","","","","","","null","<div style=""font-size:60px;"">+</div>","null","","fixation","","","","","","","","",""
"memory-trial","224","408451","0.0-15.0-1.90","1903","2","""event"",""trial"",""time""
""fullscreenenter"",""1"",""1416""
","
","
","""event"",""trial"",""time""
""fullscreenenter"",""1"",""1416""
","
","","","","","","1380.7999999970198","images/straw3.png","","","memory_trial","3","maybe_new","","","","","","",""
"html-keyboard-response","225","408955","0.0-15.0-0.91","1903","2","""event"",""trial"",""time""
""fullscreenenter"",""1"",""1416""
","
","
","""event"",""trial"",""time""
""fullscreenenter"",""1"",""1416""
","
","","","","","","null","<div style=""font-size:60px;"">+</div>","null","","fixation","","","","","","","","",""
"memory-trial","226","411699","0.0-15.0-1.91","1903","2","""event"",""trial"",""time""
""fullscreenenter"",""1"",""1416""
","
","
","""event"",""trial"",""time""
""fullscreenenter"",""1"",""1416""
","
","","","","","","1737.9000000059605","images/train1.png","","","memory_trial","3","maybe_new","","","","","","",""
"html-keyboard-response","227","412200","0.0-15.0-0.92","1903","2","""event"",""trial"",""time""
""fullscreenenter"",""1"",""1416""
","
","
","""event"",""trial"",""time""
""fullscreenenter"",""1"",""1416""
","
","","","","","","null","<div style=""font-size:60px;"">+</div>","null","","fixation","","","","","","","","",""
"memory-trial","228","414170","0.0-15.0-1.92","1903","2","""event"",""trial"",""time""
""fullscreenenter"",""1"",""1416""
","
","
","""event"",""trial"",""time""
""fullscreenenter"",""1"",""1416""
","
","","","","","","964.3999999910593","images/banana4.png","","","memory_trial","4","definitely_new","","","","","","",""
"html-keyboard-response","229","414675","0.0-15.0-0.93","1903","2","""event"",""trial"",""time""
""fullscreenenter"",""1"",""1416""
","
","
","""event"",""trial"",""time""
""fullscreenenter"",""1"",""1416""
","
","","","","","","null","<div style=""font-size:60px;"">+</div>","null","","fixation","","","","","","","","",""
"memory-trial","230","416503","0.0-15.0-1.93","1903","2","""event"",""trial"",""time""
""fullscreenenter"",""1"",""1416""
","
","
","""event"",""trial"",""time""
""fullscreenenter"",""1"",""1416""
","
","","","","","","822.0999999940395","images/tree2.png","","","memory_trial","1","definitely_old","","","","","","",""
"html-keyboard-response","231","417006","0.0-15.0-0.94","1903","2","""event"",""trial"",""time""
""fullscreenenter"",""1"",""1416""
","
","
","""event"",""trial"",""time""
""fullscreenenter"",""1"",""1416""
","
","","","","","","null","<div style=""font-size:60px;"">+</div>","null","","fixation","","","","","","","","",""
"memory-trial","232","419011","0.0-15.0-1.94","1903","2","""event"",""trial"",""time""
""fullscreenenter"",""1"",""1416""
","
","
","""event"",""trial"",""time""
""fullscreenenter"",""1"",""1416""
","
","","","","","","998.2000000029802","images/apple1.png","","","memory_trial","4","definitely_new","","","","","","",""
"html-keyboard-response","233","419512","0.0-15.0-0.95","1903","2","""event"",""trial"",""time""
""fullscreenenter"",""1"",""1416""
","
","
","""event"",""trial"",""time""
""fullscreenenter"",""1"",""1416""
","
","","","","","","null","<div style=""font-size:60px;"">+</div>","null","","fixation","","","","","","","","",""
"memory-trial","234","422275","0.0-15.0-1.95","1903","2","""event"",""trial"",""time""
""fullscreenenter"",""1"",""1416""
","
","
","""event"",""trial"",""time""
""fullscreenenter"",""1"",""1416""
","
","","","","","","1757.7000000029802","images/goat3.png","","","memory_trial","4","definitely_new","","","","","","",""
"html-keyboard-response","235","422777","0.0-15.0-0.96","1903","2","""event"",""trial"",""time""
""fullscreenenter"",""1"",""1416""
","
","
","""event"",""trial"",""time""
""fullscreenenter"",""1"",""1416""
","
","","","","","","null","<div style=""font-size:60px;"">+</div>","null","","fixation","","","","","","","","",""
"memory-trial","236","425523","0.0-15.0-1.96","1903","2","""event"",""trial"",""time""
""fullscreenenter"",""1"",""1416""
","
","
","""event"",""trial"",""time""
""fullscreenenter"",""1"",""1416""
","
","","","","","","1739.9000000059605","images/sofa2.png","","","memory_trial","4","definitely_new","","","","","","",""
"html-keyboard-response","237","426024","0.0-15.0-0.97","1903","2","""event"",""trial"",""time""
""fullscreenenter"",""1"",""1416""
","
","
","""event"",""trial"",""time""
""fullscreenenter"",""1"",""1416""
","
","","","","","","null","<div style=""font-size:60px;"">+</div>","null","","fixation","","","","","","","","",""
"memory-trial","238","428008","0.0-15.0-1.97","1903","2","""event"",""trial"",""time""
""fullscreenenter"",""1"",""1416""
","
","
","""event"",""trial"",""time""
""fullscreenenter"",""1"",""1416""
","
","","","","","","976.1999999880791","images/sofa4.png","","","memory_trial","4","definitely_new","","","","","","",""
"html-keyboard-response","239","428510","0.0-15.0-0.98","1903","2","""event"",""trial"",""time""
""fullscreenenter"",""1"",""1416""
","
","
","""event"",""trial"",""time""
""fullscreenenter"",""1"",""1416""
","
","","","","","","null","<div style=""font-size:60px;"">+</div>","null","","fixation","","","","","","","","",""
"memory-trial","240","430803","0.0-15.0-1.98","1903","2","""event"",""trial"",""time""
""fullscreenenter"",""1"",""1416""
","
","
","""event"",""trial"",""time""
""fullscreenenter"",""1"",""1416""
","
","","","","","","1289","images/straw5.png","","","memory_trial","3","maybe_new","","","","","","",""
"html-keyboard-response","241","431304","0.0-15.0-0.99","1903","2","""event"",""trial"",""time""
""fullscreenenter"",""1"",""1416""
","
","
","""event"",""trial"",""time""
""fullscreenenter"",""1"",""1416""
","
","","","","","","null","<div style=""font-size:60px;"">+</div>","null","","fixation","","","","","","","","",""
"memory-trial","242","433102","0.0-15.0-1.99","1903","2","""event"",""trial"",""time""
""fullscreenenter"",""1"",""1416""
","
","
","""event"",""trial"",""time""
""fullscreenenter"",""1"",""1416""
","
","","","","","","793.3999999910593","images/sheep1.png","","","memory_trial","1","definitely_old","","","","","","",""
"html-keyboard-response","243","433604","0.0-15.0-0.100","1903","2","""event"",""trial"",""time""
""fullscreenenter"",""1"",""1416""
","
","
","""event"",""trial"",""time""
""fullscreenenter"",""1"",""1416""
","
","","","","","","null","<div style=""font-size:60px;"">+</div>","null","","fixation","","","","","","","","",""
"memory-trial","244","435222","0.0-15.0-1.100","1903","2","""event"",""trial"",""time""
""fullscreenenter"",""1"",""1416""
","
","
","""event"",""trial"",""time""
""fullscreenenter"",""1"",""1416""
","
","","","","","","610.7999999970198","images/sheep3.png","","","memory_trial","1","definitely_old","","","","","","",""
"html-keyboard-response","245","435726","0.0-15.0-0.101","1903","2","""event"",""trial"",""time""
""fullscreenenter"",""1"",""1416""
","
","
","""event"",""trial"",""time""
""fullscreenenter"",""1"",""1416""
","
","","","","","","null","<div style=""font-size:60px;"">+</div>","null","","fixation","","","","","","","","",""
"memory-trial","246","437752","0.0-15.0-1.101","1903","2","""event"",""trial"",""time""
""fullscreenenter"",""1"",""1416""
","
","
","""event"",""trial"",""time""
""fullscreenenter"",""1"",""1416""
","
","","","","","","1023.1000000089407","images/horse3.png","","","memory_trial","4","definitely_new","","","","","","",""
"html-button-response","247","438997","0.0-15.0-2.101-0.101","1903","2","""event"",""trial"",""time""
""fullscreenenter"",""1"",""1416""
","
","
","""event"",""trial"",""time""
""fullscreenenter"",""1"",""1416""
","
","","","","","","1243.7000000029802","<p> Take a break! </p><p> Click the button to continue. </p>","0","","break","","","","","","","","",""
"html-keyboard-response","248","439499","0.0-15.0-0.102","1903","2","""event"",""trial"",""time""
""fullscreenenter"",""1"",""1416""
","
","
","""event"",""trial"",""time""
""fullscreenenter"",""1"",""1416""
","
","","","","","","null","<div style=""font-size:60px;"">+</div>","null","","fixation","","","","","","","","",""
"memory-trial","249","442014","0.0-15.0-1.102","1903","2","""event"",""trial"",""time""
""fullscreenenter"",""1"",""1416""
","
","
","""event"",""trial"",""time""
""fullscreenenter"",""1"",""1416""
","
","","","","","","1510.6000000089407","images/bed4.png","","","memory_trial","2","maybe_old","","","","","","",""
"html-keyboard-response","250","442519","0.0-15.0-0.103","1903","2","""event"",""trial"",""time""
""fullscreenenter"",""1"",""1416""
","
","
","""event"",""trial"",""time""
""fullscreenenter"",""1"",""1416""
","
","","","","","","null","<div style=""font-size:60px;"">+</div>","null","","fixation","","","","","","","","",""
"memory-trial","251","444323","0.0-15.0-1.103","1903","2","""event"",""trial"",""time""
""fullscreenenter"",""1"",""1416""
","
","
","""event"",""trial"",""time""
""fullscreenenter"",""1"",""1416""
","
","","","","","","797","images/flower4.png","","","memory_trial","1","definitely_old","","","","","","",""
"html-keyboard-response","252","444824","0.0-15.0-0.104","1903","2","""event"",""trial"",""time""
""fullscreenenter"",""1"",""1416""
","
","
","""event"",""trial"",""time""
""fullscreenenter"",""1"",""1416""
","
","","","","","","null","<div style=""font-size:60px;"">+</div>","null","","fixation","","","","","","","","",""
"memory-trial","253","446462","0.0-15.0-1.104","1903","2","""event"",""trial"",""time""
""fullscreenenter"",""1"",""1416""
","
","
","""event"",""trial"",""time""
""fullscreenenter"",""1"",""1416""
","
","","","","","","633.8000000119209","images/rodent5.png","","","memory_trial","4","definitely_new","","","","","","",""
"html-keyboard-response","254","446963","0.0-15.0-0.105","1903","2","""event"",""trial"",""time""
""fullscreenenter"",""1"",""1416""
","
","
","""event"",""trial"",""time""
""fullscreenenter"",""1"",""1416""
","
","","","","","","null","<div style=""font-size:60px;"">+</div>","null","","fixation","","","","","","","","",""
"memory-trial","255","448867","0.0-15.0-1.105","1903","2","""event"",""trial"",""time""
""fullscreenenter"",""1"",""1416""
","
","
","""event"",""trial"",""time""
""fullscreenenter"",""1"",""1416""
","
","","","","","","899","images/goat2.png","","","memory_trial","4","definitely_new","","","","","","",""
"html-keyboard-response","256","449368","0.0-15.0-0.106","1903","2","""event"",""trial"",""time""
""fullscreenenter"",""1"",""1416""
","
","
","""event"",""trial"",""time""
""fullscreenenter"",""1"",""1416""
","
","","","","","","null","<div style=""font-size:60px;"">+</div>","null","","fixation","","","","","","","","",""
"memory-trial","257","451796","0.0-15.0-1.106","1903","2","""event"",""trial"",""time""
""fullscreenenter"",""1"",""1416""
","
","
","""event"",""trial"",""time""
""fullscreenenter"",""1"",""1416""
","
","","","","","","1423.4000000059605","images/rabbit1.png","","","memory_trial","3","maybe_new","","","","","","",""
"html-keyboard-response","258","452302","0.0-15.0-0.107","1903","2","""event"",""trial"",""time""
""fullscreenenter"",""1"",""1416""
","
","
","""event"",""trial"",""time""
""fullscreenenter"",""1"",""1416""
","
","","","","","","null","<div style=""font-size:60px;"">+</div>","null","","fixation","","","","","","","","",""
"memory-trial","259","453934","0.0-15.0-1.107","1903","2","""event"",""trial"",""time""
""fullscreenenter"",""1"",""1416""
","
","
","""event"",""trial"",""time""
""fullscreenenter"",""1"",""1416""
","
","","","","","","626.3999999910593","images/feline2.png","","","memory_trial","1","definitely_old","","","","","","",""
"html-keyboard-response","260","454435","0.0-15.0-0.108","1903","2","""event"",""trial"",""time""
""fullscreenenter"",""1"",""1416""
","
","
","""event"",""trial"",""time""
""fullscreenenter"",""1"",""1416""
","
","","","","","","null","<div style=""font-size:60px;"">+</div>","null","","fixation","","","","","","","","",""
"memory-trial","261","456603","0.0-15.0-1.108","1903","2","""event"",""trial"",""time""
""fullscreenenter"",""1"",""1416""
","
","
","""event"",""trial"",""time""
""fullscreenenter"",""1"",""1416""
","
","","","","","","1160.9000000059605","images/orange1.png","","","memory_trial","4","definitely_new","","","","","","",""
"html-keyboard-response","262","457107","0.0-15.0-0.109","1903","2","""event"",""trial"",""time""
""fullscreenenter"",""1"",""1416""
","
","
","""event"",""trial"",""time""
""fullscreenenter"",""1"",""1416""
","
","","","","","","null","<div style=""font-size:60px;"">+</div>","null","","fixation","","","","","","","","",""
"memory-trial","263","459310","0.0-15.0-1.109","1903","2","""event"",""trial"",""time""
""fullscreenenter"",""1"",""1416""
","
","
","""event"",""trial"",""time""
""fullscreenenter"",""1"",""1416""
","
","","","","","","1195.4000000059605","images/plane4.png","","","memory_trial","3","maybe_new","","","","","","",""
"html-keyboard-response","264","459815","0.0-15.0-0.110","1903","2","""event"",""trial"",""time""
""fullscreenenter"",""1"",""1416""
","
","
","""event"",""trial"",""time""
""fullscreenenter"",""1"",""1416""
","
","","","","","","null","<div style=""font-size:60px;"">+</div>","null","","fixation","","","","","","","","",""
"memory-trial","265","461719","0.0-15.0-1.110","1903","2","""event"",""trial"",""time""
""fullscreenenter"",""1"",""1416""
","
","
","""event"",""trial"",""time""
""fullscreenenter"",""1"",""1416""
","
","","","","","","898.4000000059605","images/orange3.png","","","memory_trial","4","definitely_new","","","","","","",""
"html-keyboard-response","266","462222","0.0-15.0-0.111","1903","2","""event"",""trial"",""time""
""fullscreenenter"",""1"",""1416""
","
","
","""event"",""trial"",""time""
""fullscreenenter"",""1"",""1416""
","
","","","","","","null","<div style=""font-size:60px;"">+</div>","null","","fixation","","","","","","","","",""
"memory-trial","267","464702","0.0-15.0-1.111","1903","2","""event"",""trial"",""time""
""fullscreenenter"",""1"",""1416""
","
","
","""event"",""trial"",""time""
""fullscreenenter"",""1"",""1416""
","
","","","","","","1473.6000000089407","images/cactus1.png","","","memory_trial","4","definitely_new","","","","","","",""
"html-keyboard-response","268","465208","0.0-15.0-0.112","1903","2","""event"",""trial"",""time""
""fullscreenenter"",""1"",""1416""
","
","
","""event"",""trial"",""time""
""fullscreenenter"",""1"",""1416""
","
","","","","","","null","<div style=""font-size:60px;"">+</div>","null","","fixation","","","","","","","","",""
"memory-trial","269","468897","0.0-15.0-1.112","1903","2","""event"",""trial"",""time""
""fullscreenenter"",""1"",""1416""
","
","
","""event"",""trial"",""time""
""fullscreenenter"",""1"",""1416""
","
","","","","","","2682.4000000059605","images/sheep2.png","","","memory_trial","2","maybe_old","","","","","","",""
"html-keyboard-response","270","469400","0.0-15.0-0.113","1903","2","""event"",""trial"",""time""
""fullscreenenter"",""1"",""1416""
","
","
","""event"",""trial"",""time""
""fullscreenenter"",""1"",""1416""
","
","","","","","","null","<div style=""font-size:60px;"">+</div>","null","","fixation","","","","","","","","",""
"memory-trial","271","473465","0.0-15.0-1.113","1903","2","""event"",""trial"",""time""
""fullscreenenter"",""1"",""1416""
","
","
","""event"",""trial"",""time""
""fullscreenenter"",""1"",""1416""
","
","","","","","","3056.2999999970198","images/cow4.png","","","memory_trial","2","maybe_old","","","","","","",""
"html-keyboard-response","272","473969","0.0-15.0-0.114","1903","2","""event"",""trial"",""time""
""fullscreenenter"",""1"",""1416""
","
","
","""event"",""trial"",""time""
""fullscreenenter"",""1"",""1416""
","
","","","","","","null","<div style=""font-size:60px;"">+</div>","null","","fixation","","","","","","","","",""
"memory-trial","273","475705","0.0-15.0-1.114","1903","2","""event"",""trial"",""time""
""fullscreenenter"",""1"",""1416""
","
","
","""event"",""trial"",""time""
""fullscreenenter"",""1"",""1416""
","
","","","","","","729.9000000059605","images/cow5.png","","","memory_trial","1","definitely_old","","","","","","",""
"html-keyboard-response","274","476206","0.0-15.0-0.115","1903","2","""event"",""trial"",""time""
""fullscreenenter"",""1"",""1416""
","
","
","""event"",""trial"",""time""
""fullscreenenter"",""1"",""1416""
","
","","","","","","null","<div style=""font-size:60px;"">+</div>","null","","fixation","","","","","","","","",""
"memory-trial","275","478558","0.0-15.0-1.115","1903","2","""event"",""trial"",""time""
""fullscreenenter"",""1"",""1416""
","
","
","""event"",""trial"",""time""
""fullscreenenter"",""1"",""1416""
","
","","","","","","1349.9000000059605","images/truck4.png","","","memory_trial","1","definitely_old","","","","","","",""
"html-keyboard-response","276","479059","0.0-15.0-0.116","1903","2","""event"",""trial"",""time""
""fullscreenenter"",""1"",""1416""
","
","
","""event"",""trial"",""time""
""fullscreenenter"",""1"",""1416""
","
","","","","","","null","<div style=""font-size:60px;"">+</div>","null","","fixation","","","","","","","","",""
"memory-trial","277","480739","0.0-15.0-1.116","1903","2","""event"",""trial"",""time""
""fullscreenenter"",""1"",""1416""
","
","
","""event"",""trial"",""time""
""fullscreenenter"",""1"",""1416""
","
","","","","","","675","images/chair4.png","","","memory_trial","4","definitely_new","","","","","","",""
"html-keyboard-response","278","481241","0.0-15.0-0.117","1903","2","""event"",""trial"",""time""
""fullscreenenter"",""1"",""1416""
","
","
","""event"",""trial"",""time""
""fullscreenenter"",""1"",""1416""
","
","","","","","","null","<div style=""font-size:60px;"">+</div>","null","","fixation","","","","","","","","",""
"memory-trial","279","483049","0.0-15.0-1.117","1903","2","""event"",""trial"",""time""
""fullscreenenter"",""1"",""1416""
","
","
","""event"",""trial"",""time""
""fullscreenenter"",""1"",""1416""
","
","","","","","","805.5","images/cow2.png","","","memory_trial","1","definitely_old","","","","","","",""
"html-keyboard-response","280","483550","0.0-15.0-0.118","1903","2","""event"",""trial"",""time""
""fullscreenenter"",""1"",""1416""
","
","
","""event"",""trial"",""time""
""fullscreenenter"",""1"",""1416""
","
","","","","","","null","<div style=""font-size:60px;"">+</div>","null","","fixation","","","","","","","","",""
"memory-trial","281","486350","0.0-15.0-1.118","1903","2","""event"",""trial"",""time""
""fullscreenenter"",""1"",""1416""
","
","
","""event"",""trial"",""time""
""fullscreenenter"",""1"",""1416""
","
","","","","","","1797","images/sheep4.png","","","memory_trial","2","maybe_old","","","","","","",""
"html-keyboard-response","282","486852","0.0-15.0-0.119","1903","2","""event"",""trial"",""time""
""fullscreenenter"",""1"",""1416""
","
","
","""event"",""trial"",""time""
""fullscreenenter"",""1"",""1416""
","
","","","","","","null","<div style=""font-size:60px;"">+</div>","null","","fixation","","","","","","","","",""
"memory-trial","283","488585","0.0-15.0-1.119","1903","2","""event"",""trial"",""time""
""fullscreenenter"",""1"",""1416""
","
","
","""event"",""trial"",""time""
""fullscreenenter"",""1"",""1416""
","
","","","","","","725.5999999940395","images/goat5.png","","","memory_trial","4","definitely_new","","","","","","",""
"preload","284","491257","0.0-16.0","1903","2","""event"",""trial"",""time""
""fullscreenenter"",""1"",""1416""
","
","
","""event"",""trial"",""time""
""fullscreenenter"",""1"",""1416""
","
","true","false","[]","[]","[]","","","","","","","","","","","","","",""
"learning-instructions","285","506091","0.0-17.0-0.0-0.0-0.0","1903","2","""event"",""trial"",""time""
""fullscreenenter"",""1"",""1416""
","
","
","""event"",""trial"",""time""
""fullscreenenter"",""1"",""1416""
","
","","","","","","11901","<p> We're now going to ask you to feed your pets again. </p>","","0","instructions","","","","","","","","",""
"learning-instructions","286","513175","0.0-17.0-0.0-0.0-0.1","1903","2","""event"",""trial"",""time""
""fullscreenenter"",""1"",""1416""
","
","
","""event"",""trial"",""time""
""fullscreenenter"",""1"",""1416""
","
","","","","","","938.1000000089407","<p> On each trial, you will see a pet. Select the food that you think is most likely to make the pet happy. </p>","","0","instructions","","","","","","","","",""
"learning-instructions","287","520543","0.0-17.0-0.0-0.0-0.2","1903","2","""event"",""trial"",""time""
""fullscreenenter"",""1"",""1416""
","
","
","""event"",""trial"",""time""
""fullscreenenter"",""1"",""1416""
","
","","","","","","306.29999999701977","<p> To make your selection, think about what you learned last week. You will NOT receive any feedback about your choice. </p>","","0","instructions","","","","","","","","",""
"learning-instructions","288","528819","0.0-17.0-0.0-0.0-0.3","1903","2","""event"",""trial"",""time""
""fullscreenenter"",""1"",""1416""
","
","
","""event"",""trial"",""time""
""fullscreenenter"",""1"",""1416""
","
","","","","","","656.2999999970198","<p> You should use the 1 key to select the food on the left, the 2 key to select the food in the middle, and the 3 key to select the food on the right. </p><br><div class=""choice-mem-instructions-grid""> <div class=""choice-mem-option""><img src=""images/pets_choice1.png"" class=""choice-mem-option-img"" stage=""instructions"" position=""0"" ><div class=""choice-mem-option-text""> Press ""1."" </div></div><div class=""choice-mem-option""><img src=""images/pets_choice2.png"" class=""choice-mem-option-img"" stage=""instructions"" position=""1"" ><div class=""choice-mem-option-text""> Press ""2."" </div></div><div class=""choice-mem-option""><img src=""images/pets_choice3.png"" class=""choice-mem-option-img"" stage=""instructions"" position=""2"" ><div class=""choice-mem-option-text""> Press ""3."" </div></div></div>","","0","instructions","","","","","","","","",""
"learning-instructions","289","535811","0.0-17.0-0.0-0.0-0.4","1903","2","""event"",""trial"",""time""
""fullscreenenter"",""1"",""1416""
","
","
","""event"",""trial"",""time""
""fullscreenenter"",""1"",""1416""
","
","","","","","","726.6999999880791","<p> You will have 10 seconds to make each selection. Try to respond before time runs out! </p>","","0","instructions","","","","","","","","",""
"learning-instructions","290","539173","0.0-17.0-0.0-1.0","1903","2","""event"",""trial"",""time""
""fullscreenenter"",""1"",""1416""
","
","
","""event"",""trial"",""time""
""fullscreenenter"",""1"",""1416""
","
","","","","","","1304.5999999940395","<p> You are now ready to begin the game. </p>","","0","instructions","","","","","","","","",""
"html-keyboard-response","291","539784","0.0-17.0-0.0-2.0-0.0","1903","2","""event"",""trial"",""time""
""fullscreenenter"",""1"",""1416""
","
","
","""event"",""trial"",""time""
""fullscreenenter"",""1"",""1416""
","
","","","","","","null","<div style=""font-size:60px;"">+</div>","null","","fixation","","","","","","","","",""
"choice-memory-trial","292","542825","0.0-17.0-0.0-2.0-1.0","1903","2","""event"",""trial"",""time""
""fullscreenenter"",""1"",""1416""
","
","
","""event"",""trial"",""time""
""fullscreenenter"",""1"",""1416""
","
