"trial_type","trial_index","time_elapsed","internal_node_id","subject_id","task_version","interactions","blur_events","focus_events","fullscreenenter_events","fullscreenexit_events","success","timeout","failed_images","failed_audio","failed_video","rt","stimulus","response","button_pressed","task_part","key_press","answer","correct","left_choice","middle_choice","right_choice","choice_positions","option_selected","block"
"pavlovia","0","8","0.0-0.0","1690","2","""event"",""trial"",""time""
""fullscreenenter"",""1"",""3318""
","
","
","""event"",""trial"",""time""
""fullscreenenter"",""1"",""3318""
","
","","","","","","","","","","","","","","","","","","",""
"fullscreen","1","4277","0.0-1.0","1690","2","""event"",""trial"",""time""
""fullscreenenter"",""1"",""3318""
","
","
","""event"",""trial"",""time""
""fullscreenenter"",""1"",""3318""
","
","true","","","","","","","","","","","","","","","","","",""
"preload","2","4366","0.0-2.0","1690","2","""event"",""trial"",""time""
""fullscreenenter"",""1"",""3318""
","
","
","""event"",""trial"",""time""
""fullscreenenter"",""1"",""3318""
","
","true","false","[]","[]","[]","","","","","","","","","","","","","",""
"audio-keyboard-response","3","7787","0.0-3.0","1690","2","""event"",""trial"",""time""
""fullscreenenter"",""1"",""3318""
","
","
","""event"",""trial"",""time""
""fullscreenenter"",""1"",""3318""
","
","","","","","","3392","audio/beep_loop.wav"," ","","","","","","","","","","",""
"audio-button-response","4","16150","0.0-4.0","1690","2","""event"",""trial"",""time""
""fullscreenenter"",""1"",""3318""
""blur"",""5"",""17582""
""focus"",""5"",""24319""
","""event"",""trial"",""time""
""blur"",""5"",""17582""
","""event"",""trial"",""time""
""focus"",""5"",""24319""
","""event"",""trial"",""time""
""fullscreenenter"",""1"",""3318""
","
","","","","","","8363","audio/turtle.wav","0","","","","","","","","","","",""
"audio-button-response","5","26854","0.0-5.0","1690","2","""event"",""trial"",""time""
""fullscreenenter"",""1"",""3318""
""blur"",""5"",""17582""
""focus"",""5"",""24319""
","""event"",""trial"",""time""
""blur"",""5"",""17582""
","""event"",""trial"",""time""
""focus"",""5"",""24319""
","""event"",""trial"",""time""
""fullscreenenter"",""1"",""3318""
","
","","","","","","9675","audio/shark.wav","2","","","","","","","","","","",""
"preload","6","28255","0.0-6.0","1690","2","""event"",""trial"",""time""
""fullscreenenter"",""1"",""3318""
""blur"",""5"",""17582""
""focus"",""5"",""24319""
","""event"",""trial"",""time""
""blur"",""5"",""17582""
","""event"",""trial"",""time""
""focus"",""5"",""24319""
","""event"",""trial"",""time""
""fullscreenenter"",""1"",""3318""
","
","true","false","[]","[]","[]","","","","","","","","","","","","","",""
"learning-instructions","7","47897","0.0-7.0-0.0","1690","2","""event"",""trial"",""time""
""fullscreenenter"",""1"",""3318""
""blur"",""5"",""17582""
""focus"",""5"",""24319""
","""event"",""trial"",""time""
""blur"",""5"",""17582""
","""event"",""trial"",""time""
""focus"",""5"",""24319""
","""event"",""trial"",""time""
""fullscreenenter"",""1"",""3318""
","
","","","","","","14825.799999952316","<p> Welcome back! </p><p> Last week, you had to make choices about lots of different items.  </p>","","0","instructions","","","","","","","","",""
"learning-instructions","8","53760","0.0-7.0-0.1","1690","2","""event"",""trial"",""time""
""fullscreenenter"",""1"",""3318""
""blur"",""5"",""17582""
""focus"",""5"",""24319""
","""event"",""trial"",""time""
""blur"",""5"",""17582""
","""event"",""trial"",""time""
""focus"",""5"",""24319""
","""event"",""trial"",""time""
""fullscreenenter"",""1"",""3318""
","
","","","","","","1542.5","<p> Today, we are going to ask you to try to remember all the items. </p>","","0","instructions","","","","","","","","",""
"learning-instructions","9","67593","0.0-7.0-0.2","1690","2","""event"",""trial"",""time""
""fullscreenenter"",""1"",""3318""
""blur"",""5"",""17582""
""focus"",""5"",""24319""
","""event"",""trial"",""time""
""blur"",""5"",""17582""
","""event"",""trial"",""time""
""focus"",""5"",""24319""
","""event"",""trial"",""time""
""fullscreenenter"",""1"",""3318""
","
","","","","","","3685.2999999523163","<p> On every trial, you will see an image. </p><p> The image may be an OLD image you saw during the games last week or it may be a NEW image that was not presented. </p>","","0","instructions","","","","","","","","",""
"learning-instructions","10","94040","0.0-7.0-0.3","1690","2","""event"",""trial"",""time""
""fullscreenenter"",""1"",""3318""
""blur"",""5"",""17582""
""focus"",""5"",""24319""
","""event"",""trial"",""time""
""blur"",""5"",""17582""
","""event"",""trial"",""time""
""focus"",""5"",""24319""
","""event"",""trial"",""time""
""fullscreenenter"",""1"",""3318""
","
","","","","","","17938.599999904633","<p> You need to select whether the image is:  </p><p>  'Definitely old', 'Maybe old', 'Maybe new', or 'Definitely new.'  </p><div class=""mem-choice-instructions-grid""><div class=""choice-option"" id=""choice-option-1"" ><img src=""images/definitely_old_1.png"" id=""choice-option-img-1"" class=""choice-option-img"" stage=""1""></div><div class=""choice-option"" id=""choice-option-2"" ><img src=""images/maybe_old_1.png"" id=""choice-option-img-2"" class=""choice-option-img"" stage=""1""></div><div class=""choice-option"" id=""choice-option-3"" ><img src=""images/maybe_new_1.png"" id=""choice-option-img-3"" class=""choice-option-img"" stage=""1""></div><div class=""choice-option"" id=""choice-option-4"" > <img src=""images/definitely_new_1.png"" id=""choice-option-img-4"" class=""choice-option-img"" stage=""1""></div></div>","","0","instructions","","","","","","","","",""
"learning-instructions","11","101974","0.0-7.0-0.4","1690","2","""event"",""trial"",""time""
""fullscreenenter"",""1"",""3318""
""blur"",""5"",""17582""
""focus"",""5"",""24319""
","""event"",""trial"",""time""
""blur"",""5"",""17582""
","""event"",""trial"",""time""
""focus"",""5"",""24319""
","""event"",""trial"",""time""
""fullscreenenter"",""1"",""3318""
","
","","","","","","1222.5","<p> You should use the 1, 2, 3, and 4 keys to make your responses.  </p><div class=""mem-choice-instructions-grid""><div class=""choice-option"" id=""choice-option-1"" ><img src=""images/definitely_old.png"" id=""choice-option-img-1"" class=""choice-option-img"" stage=""1""></div><div class=""choice-option"" id=""choice-option-2"" ><img src=""images/maybe_old.png"" id=""choice-option-img-2"" class=""choice-option-img"" stage=""1""></div><div class=""choice-option"" id=""choice-option-3"" ><img src=""images/maybe_new.png"" id=""choice-option-img-3"" class=""choice-option-img"" stage=""1""></div><div class=""choice-option"" id=""choice-option-4"" > <img src=""images/definitely_new.png"" id=""choice-option-img-4"" class=""choice-option-img"" stage=""1""></div></div>","","0","instructions","","","","","","","","",""
"learning-instructions","12","110605","0.0-7.0-0.5","1690","2","""event"",""trial"",""time""
""fullscreenenter"",""1"",""3318""
""blur"",""5"",""17582""
""focus"",""5"",""24319""
","""event"",""trial"",""time""
""blur"",""5"",""17582""
","""event"",""trial"",""time""
""focus"",""5"",""24319""
","""event"",""trial"",""time""
""fullscreenenter"",""1"",""3318""
","
","","","","","","1865.4000000953674","<p> You will have 10 seconds to make each response.  </p><p>  Make sure to respond before time runs out! </p>","","0","instructions","","","","","","","","",""
"learning-instructions","13","474946","0.0-7.0-0.6","1690","2","""event"",""trial"",""time""
""fullscreenenter"",""1"",""3318""
""blur"",""5"",""17582""
""focus"",""5"",""24319""
","""event"",""trial"",""time""
""blur"",""5"",""17582""
","""event"",""trial"",""time""
""focus"",""5"",""24319""
","""event"",""trial"",""time""
""fullscreenenter"",""1"",""3318""
","
","","","","","","356753.7000000477","<p> Today, you will see each image ONCE only.  </p><p>  That means none of the images will repeat. </p>","","0","instructions","","","","","","","","",""
"learning-instructions","14","488532","0.0-7.0-0.7","1690","2","""event"",""trial"",""time""
""fullscreenenter"",""1"",""3318""
""blur"",""5"",""17582""
""focus"",""5"",""24319""
","""event"",""trial"",""time""
""blur"",""5"",""17582""
","""event"",""trial"",""time""
""focus"",""5"",""24319""
","""event"",""trial"",""time""
""fullscreenenter"",""1"",""3318""
","
","","","","","","707.3000001907349","<p> Before you play the real game, it is time to practice. </p><p>  Just like in the real game, some of the images in the practice will be ones you have seen before. </p><p>  Others will be entirely new. </p>","","0","instructions","","","","","","","","",""
"html-button-response","15","493461","0.0-8.0","1690","2","""event"",""trial"",""time""
""fullscreenenter"",""1"",""3318""
""blur"",""5"",""17582""
""focus"",""5"",""24319""
","""event"",""trial"",""time""
""blur"",""5"",""17582""
","""event"",""trial"",""time""
""focus"",""5"",""24319""
","""event"",""trial"",""time""
""fullscreenenter"",""1"",""3318""
","
","","","","","","4813.400000095367","<p> Ready to practice? </p><p> Remember, use the 1, 2, 3, and 4 keys to make your responses. </p>","0","","instructions","","","","","","","","",""
"html-keyboard-response","16","494085","0.0-9.0-0.0","1690","2","""event"",""trial"",""time""
""fullscreenenter"",""1"",""3318""
""blur"",""5"",""17582""
""focus"",""5"",""24319""
","""event"",""trial"",""time""
""blur"",""5"",""17582""
","""event"",""trial"",""time""
""focus"",""5"",""24319""
","""event"",""trial"",""time""
""fullscreenenter"",""1"",""3318""
","
","","","","","","null","<div style=""font-size:60px;"">+</div>","null","","fixation","","","","","","","","",""
"memory-trial","17","495987","0.0-9.0-1.0","1690","2","""event"",""trial"",""time""
""fullscreenenter"",""1"",""3318""
""blur"",""5"",""17582""
""focus"",""5"",""24319""
","""event"",""trial"",""time""
""blur"",""5"",""17582""
","""event"",""trial"",""time""
""focus"",""5"",""24319""
","""event"",""trial"",""time""
""fullscreenenter"",""1"",""3318""
","
","","","","","","889.2999999523163","images/racket4.png","","","practice","1","definitely_old","","","","","","",""
"html-keyboard-response","18","496504","0.0-9.0-0.1","1690","2","""event"",""trial"",""time""
""fullscreenenter"",""1"",""3318""
""blur"",""5"",""17582""
""focus"",""5"",""24319""
","""event"",""trial"",""time""
""blur"",""5"",""17582""
","""event"",""trial"",""time""
""focus"",""5"",""24319""
","""event"",""trial"",""time""
""fullscreenenter"",""1"",""3318""
","
","","","","","","null","<div style=""font-size:60px;"">+</div>","null","","fixation","","","","","","","","",""
"memory-trial","19","498332","0.0-9.0-1.1","1690","2","""event"",""trial"",""time""
""fullscreenenter"",""1"",""3318""
""blur"",""5"",""17582""
""focus"",""5"",""24319""
","""event"",""trial"",""time""
""blur"",""5"",""17582""
","""event"",""trial"",""time""
""focus"",""5"",""24319""
","""event"",""trial"",""time""
""fullscreenenter"",""1"",""3318""
","
","","","","","","807","images/ball1.png","","","practice","1","definitely_old","","","","","","",""
"html-keyboard-response","20","498854","0.0-9.0-0.2","1690","2","""event"",""trial"",""time""
""fullscreenenter"",""1"",""3318""
""blur"",""5"",""17582""
""focus"",""5"",""24319""
","""event"",""trial"",""time""
""blur"",""5"",""17582""
","""event"",""trial"",""time""
""focus"",""5"",""24319""
","""event"",""trial"",""time""
""fullscreenenter"",""1"",""3318""
","
","","","","","","null","<div style=""font-size:60px;"">+</div>","null","","fixation","","","","","","","","",""
"memory-trial","21","501627","0.0-9.0-1.2","1690","2","""event"",""trial"",""time""
""fullscreenenter"",""1"",""3318""
""blur"",""5"",""17582""
""focus"",""5"",""24319""
","""event"",""trial"",""time""
""blur"",""5"",""17582""
","""event"",""trial"",""time""
""focus"",""5"",""24319""
","""event"",""trial"",""time""
""fullscreenenter"",""1"",""3318""
","
","","","","","","1764.8000001907349","images/ball2.png","","","practice","1","definitely_old","","","","","","",""
"html-keyboard-response","22","502129","0.0-9.0-0.3","1690","2","""event"",""trial"",""time""
""fullscreenenter"",""1"",""3318""
""blur"",""5"",""17582""
""focus"",""5"",""24319""
","""event"",""trial"",""time""
""blur"",""5"",""17582""
","""event"",""trial"",""time""
""focus"",""5"",""24319""
","""event"",""trial"",""time""
""fullscreenenter"",""1"",""3318""
","
","","","","","","null","<div style=""font-size:60px;"">+</div>","null","","fixation","","","","","","","","",""
"memory-trial","23","503739","0.0-9.0-1.3","1690","2","""event"",""trial"",""time""
""fullscreenenter"",""1"",""3318""
""blur"",""5"",""17582""
""focus"",""5"",""24319""
","""event"",""trial"",""time""
""blur"",""5"",""17582""
","""event"",""trial"",""time""
""focus"",""5"",""24319""
","""event"",""trial"",""time""
""fullscreenenter"",""1"",""3318""
","
","","","","","","605.9000000953674","images/ball3.png","","","practice","2","maybe_old","","","","","","",""
"html-keyboard-response","24","504262","0.0-9.0-0.4","1690","2","""event"",""trial"",""time""
""fullscreenenter"",""1"",""3318""
""blur"",""5"",""17582""
""focus"",""5"",""24319""
","""event"",""trial"",""time""
""blur"",""5"",""17582""
","""event"",""trial"",""time""
""focus"",""5"",""24319""
","""event"",""trial"",""time""
""fullscreenenter"",""1"",""3318""
","
","","","","","","null","<div style=""font-size:60px;"">+</div>","null","","fixation","","","","","","","","",""
"memory-trial","25","506268","0.0-9.0-1.4","1690","2","""event"",""trial"",""time""
""fullscreenenter"",""1"",""3318""
""blur"",""5"",""17582""
""focus"",""5"",""24319""
","""event"",""trial"",""time""
""blur"",""5"",""17582""
","""event"",""trial"",""time""
""focus"",""5"",""24319""
","""event"",""trial"",""time""
""fullscreenenter"",""1"",""3318""
","
","","","","","","994.7000000476837","images/racket2.png","","","practice","1","definitely_old","","","","","","",""
"html-keyboard-response","26","506789","0.0-9.0-0.5","1690","2","""event"",""trial"",""time""
""fullscreenenter"",""1"",""3318""
""blur"",""5"",""17582""
""focus"",""5"",""24319""
","""event"",""trial"",""time""
""blur"",""5"",""17582""
","""event"",""trial"",""time""
""focus"",""5"",""24319""
","""event"",""trial"",""time""
""fullscreenenter"",""1"",""3318""
","
","","","","","","null","<div style=""font-size:60px;"">+</div>","null","","fixation","","","","","","","","",""
"memory-trial","27","509009","0.0-9.0-1.5","1690","2","""event"",""trial"",""time""
""fullscreenenter"",""1"",""3318""
""blur"",""5"",""17582""
""focus"",""5"",""24319""
","""event"",""trial"",""time""
""blur"",""5"",""17582""
","""event"",""trial"",""time""
""focus"",""5"",""24319""
","""event"",""trial"",""time""
""fullscreenenter"",""1"",""3318""
","
","","","","","","1201.5","images/racket1.png","","","practice","4","definitely_new","","","","","","",""
"html-keyboard-response","28","509520","0.0-9.0-0.6","1690","2","""event"",""trial"",""time""
""fullscreenenter"",""1"",""3318""
""blur"",""5"",""17582""
""focus"",""5"",""24319""
","""event"",""trial"",""time""
""blur"",""5"",""17582""
","""event"",""trial"",""time""
""focus"",""5"",""24319""
","""event"",""trial"",""time""
""fullscreenenter"",""1"",""3318""
","
","","","","","","null","<div style=""font-size:60px;"">+</div>","null","","fixation","","","","","","","","",""
"memory-trial","29","512497","0.0-9.0-1.6","1690","2","""event"",""trial"",""time""
""fullscreenenter"",""1"",""3318""
""blur"",""5"",""17582""
""focus"",""5"",""24319""
","""event"",""trial"",""time""
""blur"",""5"",""17582""
","""event"",""trial"",""time""
""focus"",""5"",""24319""
","""event"",""trial"",""time""
""fullscreenenter"",""1"",""3318""
","
","","","","","","1953.5999999046326","images/ball4.png","","","practice","1","definitely_old","","","","","","",""
"html-keyboard-response","30","513009","0.0-9.0-0.7","1690","2","""event"",""trial"",""time""
""fullscreenenter"",""1"",""3318""
""blur"",""5"",""17582""
""focus"",""5"",""24319""
","""event"",""trial"",""time""
""blur"",""5"",""17582""
","""event"",""trial"",""time""
""focus"",""5"",""24319""
","""event"",""trial"",""time""
""fullscreenenter"",""1"",""3318""
","
","","","","","","null","<div style=""font-size:60px;"">+</div>","null","","fixation","","","","","","","","",""
"memory-trial","31","515217","0.0-9.0-1.7","1690","2","""event"",""trial"",""time""
""fullscreenenter"",""1"",""3318""
""blur"",""5"",""17582""
""focus"",""5"",""24319""
","""event"",""trial"",""time""
""blur"",""5"",""17582""
","""event"",""trial"",""time""
""focus"",""5"",""24319""
","""event"",""trial"",""time""
""fullscreenenter"",""1"",""3318""
","
","","","","","","1203.5","images/racket3.png","","","practice","4","definitely_new","","","","","","",""
"learning-instructions","32","527922","0.0-10.0-0.0","1690","2","""event"",""trial"",""time""
""fullscreenenter"",""1"",""3318""
""blur"",""5"",""17582""
""focus"",""5"",""24319""
","""event"",""trial"",""time""
""blur"",""5"",""17582""
","""event"",""trial"",""time""
""focus"",""5"",""24319""
","""event"",""trial"",""time""
""fullscreenenter"",""1"",""3318""
","
","","","","","","4747.199999809265","<p> Great! You have completed the practice. </p><p> Before you start, we're going to ask you a few questions about how the game works.  </p>","","0","instructions","","","","","","","","",""
"preload","33","528351","0.0-11.0","1690","2","""event"",""trial"",""time""
""fullscreenenter"",""1"",""3318""
""blur"",""5"",""17582""
""focus"",""5"",""24319""
","""event"",""trial"",""time""
""blur"",""5"",""17582""
","""event"",""trial"",""time""
""focus"",""5"",""24319""
","""event"",""trial"",""time""
""fullscreenenter"",""1"",""3318""
","
","true","false","[]","[]","[]","","","","","","","","","","","","","",""
"comp-q","34","537677","0.0-12.0-0.0","1690","2","""event"",""trial"",""time""
""fullscreenenter"",""1"",""3318""
""blur"",""5"",""17582""
""focus"",""5"",""24319""
","""event"",""trial"",""time""
""blur"",""5"",""17582""
","""event"",""trial"",""time""
""focus"",""5"",""24319""
","""event"",""trial"",""time""
""fullscreenenter"",""1"",""3318""
","
","","","","","","3494.100000143051","<p> <b> True or False? </b> </p><p> In this game, you will only see each image once. </p>","","0","comp_question","","","true","","","","","",""
"comp-q","35","547043","0.0-12.0-1.0","1690","2","""event"",""trial"",""time""
""fullscreenenter"",""1"",""3318""
""blur"",""5"",""17582""
""focus"",""5"",""24319""
","""event"",""trial"",""time""
""blur"",""5"",""17582""
","""event"",""trial"",""time""
""focus"",""5"",""24319""
","""event"",""trial"",""time""
""fullscreenenter"",""1"",""3318""
","
","","","","","","3014","<p> <b> That's right! </b> You will see many different images <i> one time each </i> in this game. </p>","","0","comp_answer","","","","","","","","",""
"comp-q","36","553328","0.0-12.0-0.1","1690","2","""event"",""trial"",""time""
""fullscreenenter"",""1"",""3318""
""blur"",""5"",""17582""
""focus"",""5"",""24319""
","""event"",""trial"",""time""
""blur"",""5"",""17582""
","""event"",""trial"",""time""
""focus"",""5"",""24319""
","""event"",""trial"",""time""
""fullscreenenter"",""1"",""3318""
","
","","","","","","477.5","<p> <b> True or False? </b> </p><p> You should use the mouse and click to make your response. </p>","","1","comp_question","","","true","","","","","",""
"comp-q","37","564391","0.0-12.0-1.1","1690","2","""event"",""trial"",""time""
""fullscreenenter"",""1"",""3318""
""blur"",""5"",""17582""
""focus"",""5"",""24319""
","""event"",""trial"",""time""
""blur"",""5"",""17582""
","""event"",""trial"",""time""
""focus"",""5"",""24319""
","""event"",""trial"",""time""
""fullscreenenter"",""1"",""3318""
","
","","","","","","3702","<p><b> That's right! </b> You should use the '1', '2', '3', and '4' keys to make your response. </p>","","0","comp_answer","","","","","","","","",""
"comp-q","38","571256","0.0-12.0-0.2","1690","2","""event"",""trial"",""time""
""fullscreenenter"",""1"",""3318""
""blur"",""5"",""17582""
""focus"",""5"",""24319""
","""event"",""trial"",""time""
""blur"",""5"",""17582""
","""event"",""trial"",""time""
""focus"",""5"",""24319""
","""event"",""trial"",""time""
""fullscreenenter"",""1"",""3318""
","
","","","","","","860.1999998092651","<p> <b> True or False? </b> </p><p> You will have as much time as you want to make each choice. </p>","","1","comp_question","","","true","","","","","",""
"comp-q","39","579451","0.0-12.0-1.2","1690","2","""event"",""trial"",""time""
""fullscreenenter"",""1"",""3318""
""blur"",""5"",""17582""
""focus"",""5"",""24319""
","""event"",""trial"",""time""
""blur"",""5"",""17582""
","""event"",""trial"",""time""
""focus"",""5"",""24319""
","""event"",""trial"",""time""
""fullscreenenter"",""1"",""3318""
","
","","","","","","2782","<p> <b> That's right! </b> You will only have 10 seconds to make each choice. </p>","","0","comp_answer","","","","","","","","",""
"learning-instructions","40","590713","0.0-13.0","1690","2","""event"",""trial"",""time""
""fullscreenenter"",""1"",""3318""
""blur"",""5"",""17582""
""focus"",""5"",""24319""
","""event"",""trial"",""time""
""blur"",""5"",""17582""
","""event"",""trial"",""time""
""focus"",""5"",""24319""
","""event"",""trial"",""time""
""fullscreenenter"",""1"",""3318""
","
","","","","","","2588.899999856949","<p> Great! You are now ready to begin the game. </p><p> Remember, use the 1, 2, 3, and 4 keys to make your responses. </p>","","0","instructions","","","","","","","","",""
"preload","41","591115","0.0-14.0","1690","2","""event"",""trial"",""time""
""fullscreenenter"",""1"",""3318""
""blur"",""5"",""17582""
""focus"",""5"",""24319""
","""event"",""trial"",""time""
""blur"",""5"",""17582""
","""event"",""trial"",""time""
""focus"",""5"",""24319""
","""event"",""trial"",""time""
""fullscreenenter"",""1"",""3318""
","
","true","false","[]","[]","[]","","","","","","","","","","","","","",""
"html-keyboard-response","42","591621","0.0-15.0-0.0","1690","2","""event"",""trial"",""time""
""fullscreenenter"",""1"",""3318""
""blur"",""5"",""17582""
""focus"",""5"",""24319""
","""event"",""trial"",""time""
""blur"",""5"",""17582""
","""event"",""trial"",""time""
""focus"",""5"",""24319""
","""event"",""trial"",""time""
""fullscreenenter"",""1"",""3318""
","
","","","","","","null","<div style=""font-size:60px;"">+</div>","null","","fixation","","","","","","","","",""
"memory-trial","43","594234","0.0-15.0-1.0","1690","2","""event"",""trial"",""time""
""fullscreenenter"",""1"",""3318""
""blur"",""5"",""17582""
""focus"",""5"",""24319""
","""event"",""trial"",""time""
""blur"",""5"",""17582""
","""event"",""trial"",""time""
""focus"",""5"",""24319""
","""event"",""trial"",""time""
""fullscreenenter"",""1"",""3318""
","
","","","","","","1601.7999999523163","images/orange4.png","","","memory_trial","4","definitely_new","","","","","","",""
"html-keyboard-response","44","594746","0.0-15.0-0.1","1690","2","""event"",""trial"",""time""
""fullscreenenter"",""1"",""3318""
""blur"",""5"",""17582""
""focus"",""5"",""24319""
","""event"",""trial"",""time""
""blur"",""5"",""17582""
","""event"",""trial"",""time""
""focus"",""5"",""24319""
","""event"",""trial"",""time""
""fullscreenenter"",""1"",""3318""
","
","","","","","","null","<div style=""font-size:60px;"">+</div>","null","","fixation","","","","","","","","",""
"memory-trial","45","598395","0.0-15.0-1.1","1690","2","""event"",""trial"",""time""
""fullscreenenter"",""1"",""3318""
""blur"",""5"",""17582""
""focus"",""5"",""24319""
","""event"",""trial"",""time""
""blur"",""5"",""17582""
","""event"",""trial"",""time""
""focus"",""5"",""24319""
","""event"",""trial"",""time""
""fullscreenenter"",""1"",""3318""
","
","","","","","","2628.2999999523163","images/goat3.png","","","memory_trial","4","definitely_new","","","","","","",""
"html-keyboard-response","46","598907","0.0-15.0-0.2","1690","2","""event"",""trial"",""time""
""fullscreenenter"",""1"",""3318""
""blur"",""5"",""17582""
""focus"",""5"",""24319""
","""event"",""trial"",""time""
""blur"",""5"",""17582""
","""event"",""trial"",""time""
""focus"",""5"",""24319""
","""event"",""trial"",""time""
""fullscreenenter"",""1"",""3318""
","
","","","","","","null","<div style=""font-size:60px;"">+</div>","null","","fixation","","","","","","","","",""
"memory-trial","47","601530","0.0-15.0-1.2","1690","2","""event"",""trial"",""time""
""fullscreenenter"",""1"",""3318""
""blur"",""5"",""17582""
""focus"",""5"",""24319""
","""event"",""trial"",""time""
""blur"",""5"",""17582""
","""event"",""trial"",""time""
""focus"",""5"",""24319""
","""event"",""trial"",""time""
""fullscreenenter"",""1"",""3318""
","
","","","","","","1607.5","images/sofa2.png","","","memory_trial","4","definitely_new","","","","","","",""
"html-keyboard-response","48","602053","0.0-15.0-0.3","1690","2","""event"",""trial"",""time""
""fullscreenenter"",""1"",""3318""
""blur"",""5"",""17582""
""focus"",""5"",""24319""
","""event"",""trial"",""time""
""blur"",""5"",""17582""
","""event"",""trial"",""time""
""focus"",""5"",""24319""
","""event"",""trial"",""time""
""fullscreenenter"",""1"",""3318""
","
","","","","","","null","<div style=""font-size:60px;"">+</div>","null","","fixation","","","","","","","","",""
"memory-trial","49","603952","0.0-15.0-1.3","1690","2","""event"",""trial"",""time""
""fullscreenenter"",""1"",""3318""
""blur"",""5"",""17582""
""focus"",""5"",""24319""
","""event"",""trial"",""time""
""blur"",""5"",""17582""
","""event"",""trial"",""time""
""focus"",""5"",""24319""
","""event"",""trial"",""time""
""fullscreenenter"",""1"",""3318""
","
","","","","","","892","images/bush3.png","","","memory_trial","1","definitely_old","","","","","","",""
"html-keyboard-response","50","604475","0.0-15.0-0.4","1690","2","""event"",""trial"",""time""
""fullscreenenter"",""1"",""3318""
""blur"",""5"",""17582""
""focus"",""5"",""24319""
","""event"",""trial"",""time""
""blur"",""5"",""17582""
","""event"",""trial"",""time""
""focus"",""5"",""24319""
","""event"",""trial"",""time""
""fullscreenenter"",""1"",""3318""
","
","","","","","","null","<div style=""font-size:60px;"">+</div>","null","","fixation","","","","","","","","",""
"memory-trial","51","606853","0.0-15.0-1.4","1690","2","""event"",""trial"",""time""
""fullscreenenter"",""1"",""3318""
""blur"",""5"",""17582""
""focus"",""5"",""24319""
","""event"",""trial"",""time""
""blur"",""5"",""17582""
","""event"",""trial"",""time""
""focus"",""5"",""24319""
","""event"",""trial"",""time""
""fullscreenenter"",""1"",""3318""
","
","","","","","","1370.6000001430511","images/straw1.png","","","memory_trial","3","maybe_new","","","","","","",""
"html-keyboard-response","52","607364","0.0-15.0-0.5","1690","2","""event"",""trial"",""time""
""fullscreenenter"",""1"",""3318""
""blur"",""5"",""17582""
""focus"",""5"",""24319""
","""event"",""trial"",""time""
""blur"",""5"",""17582""
","""event"",""trial"",""time""
""focus"",""5"",""24319""
","""event"",""trial"",""time""
""fullscreenenter"",""1"",""3318""
","
","","","","","","null","<div style=""font-size:60px;"">+</div>","null","","fixation","","","","","","","","",""
"memory-trial","53","609167","0.0-15.0-1.5","1690","2","""event"",""trial"",""time""
""fullscreenenter"",""1"",""3318""
""blur"",""5"",""17582""
""focus"",""5"",""24319""
","""event"",""trial"",""time""
""blur"",""5"",""17582""
","""event"",""trial"",""time""
""focus"",""5"",""24319""
","""event"",""trial"",""time""
""fullscreenenter"",""1"",""3318""
","
","","","","","","794.7999999523163","images/rodent2.png","","","memory_trial","1","definitely_old","","","","","","",""
"html-keyboard-response","54","609690","0.0-15.0-0.6","1690","2","""event"",""trial"",""time""
""fullscreenenter"",""1"",""3318""
""blur"",""5"",""17582""
""focus"",""5"",""24319""
","""event"",""trial"",""time""
""blur"",""5"",""17582""
","""event"",""trial"",""time""
""focus"",""5"",""24319""
","""event"",""trial"",""time""
""fullscreenenter"",""1"",""3318""
","
","","","","","","null","<div style=""font-size:60px;"">+</div>","null","","fixation","","","","","","","","",""
"memory-trial","55","611461","0.0-15.0-1.6","1690","2","""event"",""trial"",""time""
""fullscreenenter"",""1"",""3318""
""blur"",""5"",""17582""
""focus"",""5"",""24319""
","""event"",""trial"",""time""
""blur"",""5"",""17582""
","""event"",""trial"",""time""
""focus"",""5"",""24319""
","""event"",""trial"",""time""
""fullscreenenter"",""1"",""3318""
","
","","","","","","755.9000000953674","images/sofa5.png","","","memory_trial","4","definitely_new","","","","","","",""
"html-keyboard-response","56","611973","0.0-15.0-0.7","1690","2","""event"",""trial"",""time""
""fullscreenenter"",""1"",""3318""
""blur"",""5"",""17582""
""focus"",""5"",""24319""
","""event"",""trial"",""time""
""blur"",""5"",""17582""
","""event"",""trial"",""time""
""focus"",""5"",""24319""
","""event"",""trial"",""time""
""fullscreenenter"",""1"",""3318""
","
","","","","","","null","<div style=""font-size:60px;"">+</div>","null","","fixation","","","","","","","","",""
"memory-trial","57","614138","0.0-15.0-1.7","1690","2","""event"",""trial"",""time""
""fullscreenenter"",""1"",""3318""
""blur"",""5"",""17582""
""focus"",""5"",""24319""
","""event"",""trial"",""time""
""blur"",""5"",""17582""
","""event"",""trial"",""time""
""focus"",""5"",""24319""
","""event"",""trial"",""time""
""fullscreenenter"",""1"",""3318""
","
","","","","","","1143.7000000476837","images/apple3.png","","","memory_trial","1","definitely_old","","","","","","",""
"html-keyboard-response","58","614661","0.0-15.0-0.8","1690","2","""event"",""trial"",""time""
""fullscreenenter"",""1"",""3318""
""blur"",""5"",""17582""
""focus"",""5"",""24319""
","""event"",""trial"",""time""
""blur"",""5"",""17582""
","""event"",""trial"",""time""
""focus"",""5"",""24319""
","""event"",""trial"",""time""
""fullscreenenter"",""1"",""3318""
","
","","","","","","null","<div style=""font-size:60px;"">+</div>","null","","fixation","","","","","","","","",""
"memory-trial","59","616753","0.0-15.0-1.8","1690","2","""event"",""trial"",""time""
""fullscreenenter"",""1"",""3318""
""blur"",""5"",""17582""
""focus"",""5"",""24319""
","""event"",""trial"",""time""
""blur"",""5"",""17582""
","""event"",""trial"",""time""
""focus"",""5"",""24319""
","""event"",""trial"",""time""
""fullscreenenter"",""1"",""3318""
","
","","","","","","1083","images/feline4.png","","","memory_trial","2","maybe_old","","","","","","",""
"html-keyboard-response","60","617274","0.0-15.0-0.9","1690","2","""event"",""trial"",""time""
""fullscreenenter"",""1"",""3318""
""blur"",""5"",""17582""
""focus"",""5"",""24319""
","""event"",""trial"",""time""
""blur"",""5"",""17582""
","""event"",""trial"",""time""
""focus"",""5"",""24319""
","""event"",""trial"",""time""
""fullscreenenter"",""1"",""3318""
","
","","","","","","null","<div style=""font-size:60px;"">+</div>","null","","fixation","","","","","","","","",""
"memory-trial","61","619334","0.0-15.0-1.9","1690","2","""event"",""trial"",""time""
""fullscreenenter"",""1"",""3318""
""blur"",""5"",""17582""
""focus"",""5"",""24319""
","""event"",""trial"",""time""
""blur"",""5"",""17582""
","""event"",""trial"",""time""
""focus"",""5"",""24319""
","""event"",""trial"",""time""
""fullscreenenter"",""1"",""3318""
","
","","","","","","1052.7999999523163","images/plane1.png","","","memory_trial","1","definitely_old","","","","","","",""
"html-keyboard-response","62","619843","0.0-15.0-0.10","1690","2","""event"",""trial"",""time""
""fullscreenenter"",""1"",""3318""
""blur"",""5"",""17582""
""focus"",""5"",""24319""
","""event"",""trial"",""time""
""blur"",""5"",""17582""
","""event"",""trial"",""time""
""focus"",""5"",""24319""
","""event"",""trial"",""time""
""fullscreenenter"",""1"",""3318""
","
","","","","","","null","<div style=""font-size:60px;"">+</div>","null","","fixation","","","","","","","","",""
"memory-trial","63","622002","0.0-15.0-1.10","1690","2","""event"",""trial"",""time""
""fullscreenenter"",""1"",""3318""
""blur"",""5"",""17582""
""focus"",""5"",""24319""
","""event"",""trial"",""time""
""blur"",""5"",""17582""
","""event"",""trial"",""time""
""focus"",""5"",""24319""
","""event"",""trial"",""time""
""fullscreenenter"",""1"",""3318""
","
","","","","","","1149.2999999523163","images/flower1.png","","","memory_trial","1","definitely_old","","","","","","",""
"html-keyboard-response","64","622507","0.0-15.0-0.11","1690","2","""event"",""trial"",""time""
""fullscreenenter"",""1"",""3318""
""blur"",""5"",""17582""
""focus"",""5"",""24319""
","""event"",""trial"",""time""
""blur"",""5"",""17582""
","""event"",""trial"",""time""
""focus"",""5"",""24319""
","""event"",""trial"",""time""
""fullscreenenter"",""1"",""3318""
","
","","","","","","null","<div style=""font-size:60px;"">+</div>","null","","fixation","","","","","","","","",""
"memory-trial","65","624700","0.0-15.0-1.11","1690","2","""event"",""trial"",""time""
""fullscreenenter"",""1"",""3318""
""blur"",""5"",""17582""
""focus"",""5"",""24319""
","""event"",""trial"",""time""
""blur"",""5"",""17582""
","""event"",""trial"",""time""
""focus"",""5"",""24319""
","""event"",""trial"",""time""
""fullscreenenter"",""1"",""3318""
","
","","","","","","1183.5","images/goat1.png","","","memory_trial","1","definitely_old","","","","","","",""
"html-keyboard-response","66","625214","0.0-15.0-0.12","1690","2","""event"",""trial"",""time""
""fullscreenenter"",""1"",""3318""
""blur"",""5"",""17582""
""focus"",""5"",""24319""
","""event"",""trial"",""time""
""blur"",""5"",""17582""
","""event"",""trial"",""time""
""focus"",""5"",""24319""
","""event"",""trial"",""time""
""fullscreenenter"",""1"",""3318""
","
","","","","","","null","<div style=""font-size:60px;"">+</div>","null","","fixation","","","","","","","","",""
"memory-trial","67","628316","0.0-15.0-1.12","1690","2","""event"",""trial"",""time""
""fullscreenenter"",""1"",""3318""
""blur"",""5"",""17582""
""focus"",""5"",""24319""
","""event"",""trial"",""time""
""blur"",""5"",""17582""
","""event"",""trial"",""time""
""focus"",""5"",""24319""
","""event"",""trial"",""time""
""fullscreenenter"",""1"",""3318""
","
","","","","","","2093.9000000953674","images/orange1.png","","","memory_trial","3","maybe_new","","","","","","",""
"html-keyboard-response","68","628825","0.0-15.0-0.13","1690","2","""event"",""trial"",""time""
""fullscreenenter"",""1"",""3318""
""blur"",""5"",""17582""
""focus"",""5"",""24319""
","""event"",""trial"",""time""
""blur"",""5"",""17582""
","""event"",""trial"",""time""
""focus"",""5"",""24319""
","""event"",""trial"",""time""
""fullscreenenter"",""1"",""3318""
","
","","","","","","null","<div style=""font-size:60px;"">+</div>","null","","fixation","","","","","","","","",""
"memory-trial","69","632561","0.0-15.0-1.13","1690","2","""event"",""trial"",""time""
""fullscreenenter"",""1"",""3318""
""blur"",""5"",""17582""
""focus"",""5"",""24319""
","""event"",""trial"",""time""
""blur"",""5"",""17582""
","""event"",""trial"",""time""
""focus"",""5"",""24319""
","""event"",""trial"",""time""
""fullscreenenter"",""1"",""3318""
","
","","","","","","2732.5","images/bed2.png","","","memory_trial","4","definitely_new","","","","","","",""
"html-keyboard-response","70","633067","0.0-15.0-0.14","1690","2","""event"",""trial"",""time""
""fullscreenenter"",""1"",""3318""
""blur"",""5"",""17582""
""focus"",""5"",""24319""
","""event"",""trial"",""time""
""blur"",""5"",""17582""
","""event"",""trial"",""time""
""focus"",""5"",""24319""
","""event"",""trial"",""time""
""fullscreenenter"",""1"",""3318""
","
","","","","","","null","<div style=""font-size:60px;"">+</div>","null","","fixation","","","","","","","","",""
"memory-trial","71","634975","0.0-15.0-1.14","1690","2","""event"",""trial"",""time""
""fullscreenenter"",""1"",""3318""
""blur"",""5"",""17582""
""focus"",""5"",""24319""
","""event"",""trial"",""time""
""blur"",""5"",""17582""
","""event"",""trial"",""time""
""focus"",""5"",""24319""
","""event"",""trial"",""time""
""fullscreenenter"",""1"",""3318""
","
","","","","","","901.0999999046326","images/boat5.png","","","memory_trial","1","definitely_old","","","","","","",""
"html-keyboard-response","72","635487","0.0-15.0-0.15","1690","2","""event"",""trial"",""time""
""fullscreenenter"",""1"",""3318""
""blur"",""5"",""17582""
""focus"",""5"",""24319""
","""event"",""trial"",""time""
""blur"",""5"",""17582""
","""event"",""trial"",""time""
""focus"",""5"",""24319""
","""event"",""trial"",""time""
""fullscreenenter"",""1"",""3318""
","
","","","","","","null","<div style=""font-size:60px;"">+</div>","null","","fixation","","","","","","","","",""
"memory-trial","73","637917","0.0-15.0-1.15","1690","2","""event"",""trial"",""time""
""fullscreenenter"",""1"",""3318""
""blur"",""5"",""17582""
""focus"",""5"",""24319""
","""event"",""trial"",""time""
""blur"",""5"",""17582""
","""event"",""trial"",""time""
""focus"",""5"",""24319""
","""event"",""trial"",""time""
""fullscreenenter"",""1"",""3318""
","
","","","","","","1415.5","images/sofa1.png","","","memory_trial","1","definitely_old","","","","","","",""
"html-keyboard-response","74","638423","0.0-15.0-0.16","1690","2","""event"",""trial"",""time""
""fullscreenenter"",""1"",""3318""
""blur"",""5"",""17582""
""focus"",""5"",""24319""
","""event"",""trial"",""time""
""blur"",""5"",""17582""
","""event"",""trial"",""time""
""focus"",""5"",""24319""
","""event"",""trial"",""time""
""fullscreenenter"",""1"",""3318""
","
","","","","","","null","<div style=""font-size:60px;"">+</div>","null","","fixation","","","","","","","","",""
"memory-trial","75","641135","0.0-15.0-1.16","1690","2","""event"",""trial"",""time""
""fullscreenenter"",""1"",""3318""
""blur"",""5"",""17582""
""focus"",""5"",""24319""
","""event"",""trial"",""time""
""blur"",""5"",""17582""
","""event"",""trial"",""time""
""focus"",""5"",""24319""
","""event"",""trial"",""time""
""fullscreenenter"",""1"",""3318""
","
","","","","","","1702.4000000953674","images/feline1.png","","","memory_trial","1","definitely_old","","","","","","",""
"html-keyboard-response","76","641642","0.0-15.0-0.17","1690","2","""event"",""trial"",""time""
""fullscreenenter"",""1"",""3318""
""blur"",""5"",""17582""
""focus"",""5"",""24319""
","""event"",""trial"",""time""
""blur"",""5"",""17582""
","""event"",""trial"",""time""
""focus"",""5"",""24319""
","""event"",""trial"",""time""
""fullscreenenter"",""1"",""3318""
","
","","","","","","null","<div style=""font-size:60px;"">+</div>","null","","fixation","","","","","","","","",""
"memory-trial","77","643559","0.0-15.0-1.17","1690","2","""event"",""trial"",""time""
""fullscreenenter"",""1"",""3318""
""blur"",""5"",""17582""
""focus"",""5"",""24319""
","""event"",""trial"",""time""
""blur"",""5"",""17582""
","""event"",""trial"",""time""
""focus"",""5"",""24319""
","""event"",""trial"",""time""
""fullscreenenter"",""1"",""3318""
","
","","","","","","908.5","images/plane2.png","","","memory_trial","2","maybe_old","","","","","","",""
"html-keyboard-response","78","644065","0.0-15.0-0.18","1690","2","""event"",""trial"",""time""
""fullscreenenter"",""1"",""3318""
""blur"",""5"",""17582""
""focus"",""5"",""24319""
","""event"",""trial"",""time""
""blur"",""5"",""17582""
","""event"",""trial"",""time""
""focus"",""5"",""24319""
","""event"",""trial"",""time""
""fullscreenenter"",""1"",""3318""
","
","","","","","","null","<div style=""font-size:60px;"">+</div>","null","","fixation","","","","","","","","",""
"memory-trial","79","645950","0.0-15.0-1.18","1690","2","""event"",""trial"",""time""
""fullscreenenter"",""1"",""3318""
""blur"",""5"",""17582""
""focus"",""5"",""24319""
","""event"",""trial"",""time""
""blur"",""5"",""17582""
","""event"",""trial"",""time""
""focus"",""5"",""24319""
","""event"",""trial"",""time""
""fullscreenenter"",""1"",""3318""
","
","","","","","","880.8999998569489","images/horse1.png","","","memory_trial","4","definitely_new","","","","","","",""
"html-keyboard-response","80","646458","0.0-15.0-0.19","1690","2","""event"",""trial"",""time""
""fullscreenenter"",""1"",""3318""
""blur"",""5"",""17582""
""focus"",""5"",""24319""
","""event"",""trial"",""time""
""blur"",""5"",""17582""
","""event"",""trial"",""time""
""focus"",""5"",""24319""
","""event"",""trial"",""time""
""fullscreenenter"",""1"",""3318""
","
","","","","","","null","<div style=""font-size:60px;"">+</div>","null","","fixation","","","","","","","","",""
"memory-trial","81","648981","0.0-15.0-1.19","1690","2","""event"",""trial"",""time""
""fullscreenenter"",""1"",""3318""
""blur"",""5"",""17582""
""focus"",""5"",""24319""
","""event"",""trial"",""time""
""blur"",""5"",""17582""
","""event"",""trial"",""time""
""focus"",""5"",""24319""
","""event"",""trial"",""time""
""fullscreenenter"",""1"",""3318""
","
","","","","","","1509.5999999046326","images/plane4.png","","","memory_trial","1","definitely_old","","","","","","",""
"html-keyboard-response","82","649491","0.0-15.0-0.20","1690","2","""event"",""trial"",""time""
""fullscreenenter"",""1"",""3318""
""blur"",""5"",""17582""
""focus"",""5"",""24319""
","""event"",""trial"",""time""
""blur"",""5"",""17582""
","""event"",""trial"",""time""
""focus"",""5"",""24319""
","""event"",""trial"",""time""
""fullscreenenter"",""1"",""3318""
","
","","","","","","null","<div style=""font-size:60px;"">+</div>","null","","fixation","","","","","","","","",""
"memory-trial","83","652954","0.0-15.0-1.20","1690","2","""event"",""trial"",""time""
""fullscreenenter"",""1"",""3318""
""blur"",""5"",""17582""
""focus"",""5"",""24319""
","""event"",""trial"",""time""
""blur"",""5"",""17582""
","""event"",""trial"",""time""
""focus"",""5"",""24319""
","""event"",""trial"",""time""
""fullscreenenter"",""1"",""3318""
","
","","","","","","2459","images/straw3.png","","","memory_trial","3","maybe_new","","","","","","",""
"html-keyboard-response","84","653457","0.0-15.0-0.21","1690","2","""event"",""trial"",""time""
""fullscreenenter"",""1"",""3318""
""blur"",""5"",""17582""
""focus"",""5"",""24319""
","""event"",""trial"",""time""
""blur"",""5"",""17582""
","""event"",""trial"",""time""
""focus"",""5"",""24319""
","""event"",""trial"",""time""
""fullscreenenter"",""1"",""3318""
","
","","","","","","null","<div style=""font-size:60px;"">+</div>","null","","fixation","","","","","","","","",""
"memory-trial","85","656853","0.0-15.0-1.21","1690","2","""event"",""trial"",""time""
""fullscreenenter"",""1"",""3318""
""blur"",""5"",""17582""
""focus"",""5"",""24319""
","""event"",""trial"",""time""
""blur"",""5"",""17582""
","""event"",""trial"",""time""
""focus"",""5"",""24319""
","""event"",""trial"",""time""
""fullscreenenter"",""1"",""3318""
","
","","","","","","2386.9000000953674","images/dog5.png","","","memory_trial","4","definitely_new","","","","","","",""
"html-keyboard-response","86","657360","0.0-15.0-0.22","1690","2","""event"",""trial"",""time""
""fullscreenenter"",""1"",""3318""
""blur"",""5"",""17582""
""focus"",""5"",""24319""
","""event"",""trial"",""time""
""blur"",""5"",""17582""
","""event"",""trial"",""time""
""focus"",""5"",""24319""
","""event"",""trial"",""time""
""fullscreenenter"",""1"",""3318""
","
","","","","","","null","<div style=""font-size:60px;"">+</div>","null","","fixation","","","","","","","","",""
"memory-trial","87","660054","0.0-15.0-1.22","1690","2","""event"",""trial"",""time""
""fullscreenenter"",""1"",""3318""
""blur"",""5"",""17582""
""focus"",""5"",""24319""
","""event"",""trial"",""time""
""blur"",""5"",""17582""
","""event"",""trial"",""time""
""focus"",""5"",""24319""
","""event"",""trial"",""time""
""fullscreenenter"",""1"",""3318""
","
","","","","","","1685","images/plane5.png","","","memory_trial","4","definitely_new","","","","","","",""
"html-keyboard-response","88","660563","0.0-15.0-0.23","1690","2","""event"",""trial"",""time""
""fullscreenenter"",""1"",""3318""
""blur"",""5"",""17582""
""focus"",""5"",""24319""
","""event"",""trial"",""time""
""blur"",""5"",""17582""
","""event"",""trial"",""time""
""focus"",""5"",""24319""
","""event"",""trial"",""time""
""fullscreenenter"",""1"",""3318""
","
","","","","","","null","<div style=""font-size:60px;"">+</div>","null","","fixation","","","","","","","","",""
"memory-trial","89","664607","0.0-15.0-1.23","1690","2","""event"",""trial"",""time""
""fullscreenenter"",""1"",""3318""
""blur"",""5"",""17582""
""focus"",""5"",""24319""
","""event"",""trial"",""time""
""blur"",""5"",""17582""
","""event"",""trial"",""time""
""focus"",""5"",""24319""
","""event"",""trial"",""time""
""fullscreenenter"",""1"",""3318""
","
","","","","","","3032.9000000953674","images/rabbit1.png","","","memory_trial","1","definitely_old","","","","","","",""
"html-keyboard-response","90","665116","0.0-15.0-0.24","1690","2","""event"",""trial"",""time""
""fullscreenenter"",""1"",""3318""
""blur"",""5"",""17582""
""focus"",""5"",""24319""
","""event"",""trial"",""time""
""blur"",""5"",""17582""
","""event"",""trial"",""time""
""focus"",""5"",""24319""
","""event"",""trial"",""time""
""fullscreenenter"",""1"",""3318""
","
","","","","","","null","<div style=""font-size:60px;"">+</div>","null","","fixation","","","","","","","","",""
"memory-trial","91","667604","0.0-15.0-1.24","1690","2","""event"",""trial"",""time""
""fullscreenenter"",""1"",""3318""
""blur"",""5"",""17582""
""focus"",""5"",""24319""
","""event"",""trial"",""time""
""blur"",""5"",""17582""
","""event"",""trial"",""time""
""focus"",""5"",""24319""
","""event"",""trial"",""time""
""fullscreenenter"",""1"",""3318""
","
","","","","","","1481.7000000476837","images/cow2.png","","","memory_trial","1","definitely_old","","","","","","",""
"html-keyboard-response","92","668107","0.0-15.0-0.25","1690","2","""event"",""trial"",""time""
""fullscreenenter"",""1"",""3318""
""blur"",""5"",""17582""
""focus"",""5"",""24319""
","""event"",""trial"",""time""
""blur"",""5"",""17582""
","""event"",""trial"",""time""
""focus"",""5"",""24319""
","""event"",""trial"",""time""
""fullscreenenter"",""1"",""3318""
","
","","","","","","null","<div style=""font-size:60px;"">+</div>","null","","fixation","","","","","","","","",""
"memory-trial","93","670028","0.0-15.0-1.25","1690","2","""event"",""trial"",""time""
""fullscreenenter"",""1"",""3318""
""blur"",""5"",""17582""
""focus"",""5"",""24319""
","""event"",""trial"",""time""
""blur"",""5"",""17582""
","""event"",""trial"",""time""
""focus"",""5"",""24319""
","""event"",""trial"",""time""
""fullscreenenter"",""1"",""3318""
","
","","","","","","910","images/orange2.png","","","memory_trial","3","maybe_new","","","","","","",""
"html-keyboard-response","94","670537","0.0-15.0-0.26","1690","2","""event"",""trial"",""time""
""fullscreenenter"",""1"",""3318""
""blur"",""5"",""17582""
""focus"",""5"",""24319""
","""event"",""trial"",""time""
""blur"",""5"",""17582""
","""event"",""trial"",""time""
""focus"",""5"",""24319""
","""event"",""trial"",""time""
""fullscreenenter"",""1"",""3318""
","
","","","","","","null","<div style=""font-size:60px;"">+</div>","null","","fixation","","","","","","","","",""
"memory-trial","95","672380","0.0-15.0-1.26","1690","2","""event"",""trial"",""time""
""fullscreenenter"",""1"",""3318""
""blur"",""5"",""17582""
""focus"",""5"",""24319""
","""event"",""trial"",""time""
""blur"",""5"",""17582""
","""event"",""trial"",""time""
""focus"",""5"",""24319""
","""event"",""trial"",""time""
""fullscreenenter"",""1"",""3318""
","
","","","","","","831.2999999523163","images/sheep4.png","","","memory_trial","1","definitely_old","","","","","","",""
"html-keyboard-response","96","672890","0.0-15.0-0.27","1690","2","""event"",""trial"",""time""
""fullscreenenter"",""1"",""3318""
""blur"",""5"",""17582""
""focus"",""5"",""24319""
","""event"",""trial"",""time""
""blur"",""5"",""17582""
","""event"",""trial"",""time""
""focus"",""5"",""24319""
","""event"",""trial"",""time""
""fullscreenenter"",""1"",""3318""
","
","","","","","","null","<div style=""font-size:60px;"">+</div>","null","","fixation","","","","","","","","",""
"memory-trial","97","679464","0.0-15.0-1.27","1690","2","""event"",""trial"",""time""
""fullscreenenter"",""1"",""3318""
""blur"",""5"",""17582""
""focus"",""5"",""24319""
","""event"",""trial"",""time""
""blur"",""5"",""17582""
","""event"",""trial"",""time""
""focus"",""5"",""24319""
","""event"",""trial"",""time""
""fullscreenenter"",""1"",""3318""
","
","","","","","","5570","images/bed4.png","","","memory_trial","3","maybe_new","","","","","","",""
"html-keyboard-response","98","679969","0.0-15.0-0.28","1690","2","""event"",""trial"",""time""
""fullscreenenter"",""1"",""3318""
""blur"",""5"",""17582""
""focus"",""5"",""24319""
","""event"",""trial"",""time""
""blur"",""5"",""17582""
","""event"",""trial"",""time""
""focus"",""5"",""24319""
","""event"",""trial"",""time""
""fullscreenenter"",""1"",""3318""
","
","","","","","","null","<div style=""font-size:60px;"">+</div>","null","","fixation","","","","","","","","",""
"memory-trial","99","682247","0.0-15.0-1.28","1690","2","""event"",""trial"",""time""
""fullscreenenter"",""1"",""3318""
""blur"",""5"",""17582""
""focus"",""5"",""24319""
","""event"",""trial"",""time""
""blur"",""5"",""17582""
","""event"",""trial"",""time""
""focus"",""5"",""24319""
","""event"",""trial"",""time""
""fullscreenenter"",""1"",""3318""
","
","","","","","","1268.4000000953674","images/chair3.png","","","memory_trial","1","definitely_old","","","","","","",""
"html-keyboard-response","100","682754","0.0-15.0-0.29","1690","2","""event"",""trial"",""time""
""fullscreenenter"",""1"",""3318""
""blur"",""5"",""17582""
""focus"",""5"",""24319""
","""event"",""trial"",""time""
""blur"",""5"",""17582""
","""event"",""trial"",""time""
""focus"",""5"",""24319""
","""event"",""trial"",""time""
""fullscreenenter"",""1"",""3318""
","
","","","","","","null","<div style=""font-size:60px;"">+</div>","null","","fixation","","","","","","","","",""
"memory-trial","101","684724","0.0-15.0-1.29","1690","2","""event"",""trial"",""time""
""fullscreenenter"",""1"",""3318""
""blur"",""5"",""17582""
""focus"",""5"",""24319""
","""event"",""trial"",""time""
""blur"",""5"",""17582""
","""event"",""trial"",""time""
""focus"",""5"",""24319""
","""event"",""trial"",""time""
""fullscreenenter"",""1"",""3318""
","
","","","","","","963.0999999046326","images/table2.png","","","memory_trial","1","definitely_old","","","","","","",""
"html-keyboard-response","102","685232","0.0-15.0-0.30","1690","2","""event"",""trial"",""time""
""fullscreenenter"",""1"",""3318""
""blur"",""5"",""17582""
""focus"",""5"",""24319""
","""event"",""trial"",""time""
""blur"",""5"",""17582""
","""event"",""trial"",""time""
""focus"",""5"",""24319""
","""event"",""trial"",""time""
""fullscreenenter"",""1"",""3318""
","
","","","","","","null","<div style=""font-size:60px;"">+</div>","null","","fixation","","","","","","","","",""
"memory-trial","103","687482","0.0-15.0-1.30","1690","2","""event"",""trial"",""time""
""fullscreenenter"",""1"",""3318""
""blur"",""5"",""17582""
""focus"",""5"",""24319""
","""event"",""trial"",""time""
""blur"",""5"",""17582""
","""event"",""trial"",""time""
""focus"",""5"",""24319""
","""event"",""trial"",""time""
""fullscreenenter"",""1"",""3318""
","
","","","","","","1244.7999999523163","images/apple5.png","","","memory_trial","1","definitely_old","","","","","","",""
"html-keyboard-response","104","687985","0.0-15.0-0.31","1690","2","""event"",""trial"",""time""
""fullscreenenter"",""1"",""3318""
""blur"",""5"",""17582""
""focus"",""5"",""24319""
","""event"",""trial"",""time""
""blur"",""5"",""17582""
","""event"",""trial"",""time""
""focus"",""5"",""24319""
","""event"",""trial"",""time""
""fullscreenenter"",""1"",""3318""
","
","","","","","","null","<div style=""font-size:60px;"">+</div>","null","","fixation","","","","","","","","",""
"memory-trial","105","691382","0.0-15.0-1.31","1690","2","""event"",""trial"",""time""
""fullscreenenter"",""1"",""3318""
""blur"",""5"",""17582""
""focus"",""5"",""24319""
","""event"",""trial"",""time""
""blur"",""5"",""17582""
","""event"",""trial"",""time""
""focus"",""5"",""24319""
","""event"",""trial"",""time""
""fullscreenenter"",""1"",""3318""
","
","","","","","","2389.199999809265","images/dog2.png","","","memory_trial","4","definitely_new","","","","","","",""
"html-keyboard-response","106","691884","0.0-15.0-0.32","1690","2","""event"",""trial"",""time""
""fullscreenenter"",""1"",""3318""
""blur"",""5"",""17582""
""focus"",""5"",""24319""
","""event"",""trial"",""time""
""blur"",""5"",""17582""
","""event"",""trial"",""time""
""focus"",""5"",""24319""
","""event"",""trial"",""time""
""fullscreenenter"",""1"",""3318""
","
","","","","","","null","<div style=""font-size:60px;"">+</div>","null","","fixation","","","","","","","","",""
"memory-trial","107","695587","0.0-15.0-1.32","1690","2","""event"",""trial"",""time""
""fullscreenenter"",""1"",""3318""
""blur"",""5"",""17582""
""focus"",""5"",""24319""
","""event"",""trial"",""time""
""blur"",""5"",""17582""
","""event"",""trial"",""time""
""focus"",""5"",""24319""
","""event"",""trial"",""time""
""fullscreenenter"",""1"",""3318""
","
","","","","","","2696.7999999523163","images/banana5.png","","","memory_trial","2","maybe_old","","","","","","",""
"html-keyboard-response","108","696092","0.0-15.0-0.33","1690","2","""event"",""trial"",""time""
""fullscreenenter"",""1"",""3318""
""blur"",""5"",""17582""
""focus"",""5"",""24319""
","""event"",""trial"",""time""
""blur"",""5"",""17582""
","""event"",""trial"",""time""
""focus"",""5"",""24319""
","""event"",""trial"",""time""
""fullscreenenter"",""1"",""3318""
","
","","","","","","null","<div style=""font-size:60px;"">+</div>","null","","fixation","","","","","","","","",""
"memory-trial","109","698737","0.0-15.0-1.33","1690","2","""event"",""trial"",""time""
""fullscreenenter"",""1"",""3318""
""blur"",""5"",""17582""
""focus"",""5"",""24319""
","""event"",""trial"",""time""
""blur"",""5"",""17582""
","""event"",""trial"",""time""
""focus"",""5"",""24319""
","""event"",""trial"",""time""
""fullscreenenter"",""1"",""3318""
","
","","","","","","1634","images/train1.png","","","memory_trial","1","definitely_old","","","","","","",""
"html-keyboard-response","110","699243","0.0-15.0-0.34","1690","2","""event"",""trial"",""time""
""fullscreenenter"",""1"",""3318""
""blur"",""5"",""17582""
""focus"",""5"",""24319""
","""event"",""trial"",""time""
""blur"",""5"",""17582""
","""event"",""trial"",""time""
""focus"",""5"",""24319""
","""event"",""trial"",""time""
""fullscreenenter"",""1"",""3318""
","
","","","","","","null","<div style=""font-size:60px;"">+</div>","null","","fixation","","","","","","","","",""
"memory-trial","111","702284","0.0-15.0-1.34","1690","2","""event"",""trial"",""time""
""fullscreenenter"",""1"",""3318""
""blur"",""5"",""17582""
""focus"",""5"",""24319""
","""event"",""trial"",""time""
""blur"",""5"",""17582""
","""event"",""trial"",""time""
""focus"",""5"",""24319""
","""event"",""trial"",""time""
""fullscreenenter"",""1"",""3318""
","
","","","","","","2032.7000000476837","images/truck3.png","","","memory_trial","4","definitely_new","","","","","","",""
"html-keyboard-response","112","702786","0.0-15.0-0.35","1690","2","""event"",""trial"",""time""
""fullscreenenter"",""1"",""3318""
""blur"",""5"",""17582""
""focus"",""5"",""24319""
","""event"",""trial"",""time""
""blur"",""5"",""17582""
","""event"",""trial"",""time""
""focus"",""5"",""24319""
","""event"",""trial"",""time""
""fullscreenenter"",""1"",""3318""
","
","","","","","","null","<div style=""font-size:60px;"">+</div>","null","","fixation","","","","","","","","",""
"memory-trial","113","705977","0.0-15.0-1.35","1690","2","""event"",""trial"",""time""
""fullscreenenter"",""1"",""3318""
""blur"",""5"",""17582""
""focus"",""5"",""24319""
","""event"",""trial"",""time""
""blur"",""5"",""17582""
","""event"",""trial"",""time""
""focus"",""5"",""24319""
","""event"",""trial"",""time""
""fullscreenenter"",""1"",""3318""
","
","","","","","","2185","images/boat3.png","","","memory_trial","1","definitely_old","","","","","","",""
"html-keyboard-response","114","706488","0.0-15.0-0.36","1690","2","""event"",""trial"",""time""
""fullscreenenter"",""1"",""3318""
""blur"",""5"",""17582""
""focus"",""5"",""24319""
","""event"",""trial"",""time""
""blur"",""5"",""17582""
","""event"",""trial"",""time""
""focus"",""5"",""24319""
","""event"",""trial"",""time""
""fullscreenenter"",""1"",""3318""
","
","","","","","","null","<div style=""font-size:60px;"">+</div>","null","","fixation","","","","","","","","",""
"memory-trial","115","710536","0.0-15.0-1.36","1690","2","""event"",""trial"",""time""
""fullscreenenter"",""1"",""3318""
""blur"",""5"",""17582""
""focus"",""5"",""24319""
","""event"",""trial"",""time""
""blur"",""5"",""17582""
","""event"",""trial"",""time""
""focus"",""5"",""24319""
","""event"",""trial"",""time""
""fullscreenenter"",""1"",""3318""
","
","","","","","","3043","images/tree3.png","","","memory_trial","4","definitely_new","","","","","","",""
"html-keyboard-response","116","711047","0.0-15.0-0.37","1690","2","""event"",""trial"",""time""
""fullscreenenter"",""1"",""3318""
""blur"",""5"",""17582""
""focus"",""5"",""24319""
","""event"",""trial"",""time""
""blur"",""5"",""17582""
","""event"",""trial"",""time""
""focus"",""5"",""24319""
","""event"",""trial"",""time""
""fullscreenenter"",""1"",""3318""
","
","","","","","","null","<div style=""font-size:60px;"">+</div>","null","","fixation","","","","","","","","",""
"memory-trial","117","713431","0.0-15.0-1.37","1690","2","""event"",""trial"",""time""
""fullscreenenter"",""1"",""3318""
""blur"",""5"",""17582""
""focus"",""5"",""24319""
","""event"",""trial"",""time""
""blur"",""5"",""17582""
","""event"",""trial"",""time""
""focus"",""5"",""24319""
","""event"",""trial"",""time""
""fullscreenenter"",""1"",""3318""
","
","","","","","","1378.6999998092651","images/tree1.png","","","memory_trial","4","definitely_new","","","","","","",""
"html-keyboard-response","118","713936","0.0-15.0-0.38","1690","2","""event"",""trial"",""time""
""fullscreenenter"",""1"",""3318""
""blur"",""5"",""17582""
""focus"",""5"",""24319""
","""event"",""trial"",""time""
""blur"",""5"",""17582""
","""event"",""trial"",""time""
""focus"",""5"",""24319""
","""event"",""trial"",""time""
""fullscreenenter"",""1"",""3318""
","
","","","","","","null","<div style=""font-size:60px;"">+</div>","null","","fixation","","","","","","","","",""
"memory-trial","119","719175","0.0-15.0-1.38","1690","2","""event"",""trial"",""time""
""fullscreenenter"",""1"",""3318""
""blur"",""5"",""17582""
""focus"",""5"",""24319""
","""event"",""trial"",""time""
""blur"",""5"",""17582""
","""event"",""trial"",""time""
""focus"",""5"",""24319""
","""event"",""trial"",""time""
""fullscreenenter"",""1"",""3318""
","
","","","","","","4225.699999809265","images/banana4.png","","","memory_trial","3","maybe_new","","","","","","",""
"html-keyboard-response","120","719684","0.0-15.0-0.39","1690","2","""event"",""trial"",""time""
""fullscreenenter"",""1"",""3318""
""blur"",""5"",""17582""
""focus"",""5"",""24319""
","""event"",""trial"",""time""
""blur"",""5"",""17582""
","""event"",""trial"",""time""
""focus"",""5"",""24319""
","""event"",""trial"",""time""
""fullscreenenter"",""1"",""3318""
","
","","","","","","null","<div style=""font-size:60px;"">+</div>","null","","fixation","","","","","","","","",""
"memory-trial","121","721928","0.0-15.0-1.39","1690","2","""event"",""trial"",""time""
""fullscreenenter"",""1"",""3318""
""blur"",""5"",""17582""
""focus"",""5"",""24319""
","""event"",""trial"",""time""
""blur"",""5"",""17582""
","""event"",""trial"",""time""
""focus"",""5"",""24319""
","""event"",""trial"",""time""
""fullscreenenter"",""1"",""3318""
","
","","","","","","1239.4000000953674","images/table1.png","","","memory_trial","1","definitely_old","","","","","","",""
"html-keyboard-response","122","722437","0.0-15.0-0.40","1690","2","""event"",""trial"",""time""
""fullscreenenter"",""1"",""3318""
""blur"",""5"",""17582""
""focus"",""5"",""24319""
","""event"",""trial"",""time""
""blur"",""5"",""17582""
","""event"",""trial"",""time""
""focus"",""5"",""24319""
","""event"",""trial"",""time""
""fullscreenenter"",""1"",""3318""
","
","","","","","","null","<div style=""font-size:60px;"">+</div>","null","","fixation","","","","","","","","",""
"memory-trial","123","725492","0.0-15.0-1.40","1690","2","""event"",""trial"",""time""
""fullscreenenter"",""1"",""3318""
""blur"",""5"",""17582""
""focus"",""5"",""24319""
","""event"",""trial"",""time""
""blur"",""5"",""17582""
","""event"",""trial"",""time""
""focus"",""5"",""24319""
","""event"",""trial"",""time""
""fullscreenenter"",""1"",""3318""
","
","","","","","","2043.7999999523163","images/cactus5.png","","","memory_trial","3","maybe_new","","","","","","",""
"html-keyboard-response","124","725999","0.0-15.0-0.41","1690","2","""event"",""trial"",""time""
""fullscreenenter"",""1"",""3318""
""blur"",""5"",""17582""
""focus"",""5"",""24319""
","""event"",""trial"",""time""
""blur"",""5"",""17582""
","""event"",""trial"",""time""
""focus"",""5"",""24319""
","""event"",""trial"",""time""
""fullscreenenter"",""1"",""3318""
","
","","","","","","null","<div style=""font-size:60px;"">+</div>","null","","fixation","","","","","","","","",""
"memory-trial","125","729128","0.0-15.0-1.41","1690","2","""event"",""trial"",""time""
""fullscreenenter"",""1"",""3318""
""blur"",""5"",""17582""
""focus"",""5"",""24319""
","""event"",""trial"",""time""
""blur"",""5"",""17582""
","""event"",""trial"",""time""
""focus"",""5"",""24319""
","""event"",""trial"",""time""
""fullscreenenter"",""1"",""3318""
","
","","","","","","2112.2000000476837","images/straw2.png","","","memory_trial","2","maybe_old","","","","","","",""
"html-keyboard-response","126","729634","0.0-15.0-0.42","1690","2","""event"",""trial"",""time""
""fullscreenenter"",""1"",""3318""
""blur"",""5"",""17582""
""focus"",""5"",""24319""
","""event"",""trial"",""time""
""blur"",""5"",""17582""
","""event"",""trial"",""time""
""focus"",""5"",""24319""
","""event"",""trial"",""time""
""fullscreenenter"",""1"",""3318""
","
","","","","","","null","<div style=""font-size:60px;"">+</div>","null","","fixation","","","","","","","","",""
"memory-trial","127","732692","0.0-15.0-1.42","1690","2","""event"",""trial"",""time""
""fullscreenenter"",""1"",""3318""
""blur"",""5"",""17582""
""focus"",""5"",""24319""
","""event"",""trial"",""time""
""blur"",""5"",""17582""
","""event"",""trial"",""time""
""focus"",""5"",""24319""
","""event"",""trial"",""time""
""fullscreenenter"",""1"",""3318""
","
","","","","","","2049.4000000953674","images/table3.png","","","memory_trial","3","maybe_new","","","","","","",""
"html-keyboard-response","128","733197","0.0-15.0-0.43","1690","2","""event"",""trial"",""time""
""fullscreenenter"",""1"",""3318""
""blur"",""5"",""17582""
""focus"",""5"",""24319""
","""event"",""trial"",""time""
""blur"",""5"",""17582""
","""event"",""trial"",""time""
""focus"",""5"",""24319""
","""event"",""trial"",""time""
""fullscreenenter"",""1"",""3318""
","
","","","","","","null","<div style=""font-size:60px;"">+</div>","null","","fixation","","","","","","","","",""
"memory-trial","129","739905","0.0-15.0-1.43","1690","2","""event"",""trial"",""time""
""fullscreenenter"",""1"",""3318""
""blur"",""5"",""17582""
""focus"",""5"",""24319""
","""event"",""trial"",""time""
""blur"",""5"",""17582""
","""event"",""trial"",""time""
""focus"",""5"",""24319""
","""event"",""trial"",""time""
""fullscreenenter"",""1"",""3318""
","
","","","","","","5702.099999904633","images/boat2.png","","","memory_trial","3","maybe_new","","","","","","",""
"html-keyboard-response","130","740414","0.0-15.0-0.44","1690","2","""event"",""trial"",""time""
""fullscreenenter"",""1"",""3318""
""blur"",""5"",""17582""
""focus"",""5"",""24319""
","""event"",""trial"",""time""
""blur"",""5"",""17582""
","""event"",""trial"",""time""
""focus"",""5"",""24319""
","""event"",""trial"",""time""
""fullscreenenter"",""1"",""3318""
","
","","","","","","null","<div style=""font-size:60px;"">+</div>","null","","fixation","","","","","","","","",""
"memory-trial","131","743143","0.0-15.0-1.44","1690","2","""event"",""trial"",""time""
""fullscreenenter"",""1"",""3318""
""blur"",""5"",""17582""
""focus"",""5"",""24319""
","""event"",""trial"",""time""
""blur"",""5"",""17582""
","""event"",""trial"",""time""
""focus"",""5"",""24319""
","""event"",""trial"",""time""
""fullscreenenter"",""1"",""3318""
","
","","","","","","1722.7999999523163","images/sheep1.png","","","memory_trial","1","definitely_old","","","","","","",""
"html-keyboard-response","132","743646","0.0-15.0-0.45","1690","2","""event"",""trial"",""time""
""fullscreenenter"",""1"",""3318""
""blur"",""5"",""17582""
""focus"",""5"",""24319""
","""event"",""trial"",""time""
""blur"",""5"",""17582""
","""event"",""trial"",""time""
""focus"",""5"",""24319""
","""event"",""trial"",""time""
""fullscreenenter"",""1"",""3318""
","
","","","","","","null","<div style=""font-size:60px;"">+</div>","null","","fixation","","","","","","","","",""
"memory-trial","133","747271","0.0-15.0-1.45","1690","2","""event"",""trial"",""time""
""fullscreenenter"",""1"",""3318""
""blur"",""5"",""17582""
""focus"",""5"",""24319""
","""event"",""trial"",""time""
""blur"",""5"",""17582""
","""event"",""trial"",""time""
""focus"",""5"",""24319""
","""event"",""trial"",""time""
""fullscreenenter"",""1"",""3318""
","
","","","","","","2617.9000000953674","images/rabbit4.png","","","memory_trial","2","maybe_old","","","","","","",""
"html-keyboard-response","134","747778","0.0-15.0-0.46","1690","2","""event"",""trial"",""time""
""fullscreenenter"",""1"",""3318""
""blur"",""5"",""17582""
""focus"",""5"",""24319""
","""event"",""trial"",""time""
""blur"",""5"",""17582""
","""event"",""trial"",""time""
""focus"",""5"",""24319""
","""event"",""trial"",""time""
""fullscreenenter"",""1"",""3318""
","
","","","","","","null","<div style=""font-size:60px;"">+</div>","null","","fixation","","","","","","","","",""
"memory-trial","135","750520","0.0-15.0-1.46","1690","2","""event"",""trial"",""time""
""fullscreenenter"",""1"",""3318""
""blur"",""5"",""17582""
""focus"",""5"",""24319""
","""event"",""trial"",""time""
""blur"",""5"",""17582""
","""event"",""trial"",""time""
""focus"",""5"",""24319""
","""event"",""trial"",""time""
""fullscreenenter"",""1"",""3318""
","
","","","","","","1730.9000000953674","images/straw4.png","","","memory_trial","4","definitely_new","","","","","","",""
"html-button-response","136","753330","0.0-15.0-2.46-0.46","1690","2","""event"",""trial"",""time""
""fullscreenenter"",""1"",""3318""
""blur"",""5"",""17582""
""focus"",""5"",""24319""
","""event"",""trial"",""time""
""blur"",""5"",""17582""
","""event"",""trial"",""time""
""focus"",""5"",""24319""
","""event"",""trial"",""time""
""fullscreenenter"",""1"",""3318""
","
","","","","","","2809.100000143051","<p> Take a break! </p><p> Click the button to continue. </p>","0","","break","","","","","","","","",""
"html-keyboard-response","137","753836","0.0-15.0-0.47","1690","2","""event"",""trial"",""time""
""fullscreenenter"",""1"",""3318""
""blur"",""5"",""17582""
""focus"",""5"",""24319""
","""event"",""trial"",""time""
""blur"",""5"",""17582""
","""event"",""trial"",""time""
""focus"",""5"",""24319""
","""event"",""trial"",""time""
""fullscreenenter"",""1"",""3318""
","
","","","","","","null","<div style=""font-size:60px;"">+</div>","null","","fixation","","","","","","","","",""
"memory-trial","138","756504","0.0-15.0-1.47","1690","2","""event"",""trial"",""time""
""fullscreenenter"",""1"",""3318""
""blur"",""5"",""17582""
""focus"",""5"",""24319""
","""event"",""trial"",""time""
""blur"",""5"",""17582""
","""event"",""trial"",""time""
""focus"",""5"",""24319""
","""event"",""trial"",""time""
""fullscreenenter"",""1"",""3318""
","
","","","","","","1664","images/banana1.png","","","memory_trial","3","maybe_new","","","","","","",""
"html-keyboard-response","139","757016","0.0-15.0-0.48","1690","2","""event"",""trial"",""time""
""fullscreenenter"",""1"",""3318""
""blur"",""5"",""17582""
""focus"",""5"",""24319""
","""event"",""trial"",""time""
""blur"",""5"",""17582""
","""event"",""trial"",""time""
""focus"",""5"",""24319""
","""event"",""trial"",""time""
""fullscreenenter"",""1"",""3318""
","
","","","","","","null","<div style=""font-size:60px;"">+</div>","null","","fixation","","","","","","","","",""
"memory-trial","140","758926","0.0-15.0-1.48","1690","2","""event"",""trial"",""time""
""fullscreenenter"",""1"",""3318""
""blur"",""5"",""17582""
""focus"",""5"",""24319""
","""event"",""trial"",""time""
""blur"",""5"",""17582""
","""event"",""trial"",""time""
""focus"",""5"",""24319""
","""event"",""trial"",""time""
""fullscreenenter"",""1"",""3318""
","
","","","","","","897.1000001430511","images/feline5.png","","","memory_trial","2","maybe_old","","","","","","",""
"html-keyboard-response","141","759433","0.0-15.0-0.49","1690","2","""event"",""trial"",""time""
""fullscreenenter"",""1"",""3318""
""blur"",""5"",""17582""
""focus"",""5"",""24319""
","""event"",""trial"",""time""
""blur"",""5"",""17582""
","""event"",""trial"",""time""
""focus"",""5"",""24319""
","""event"",""trial"",""time""
""fullscreenenter"",""1"",""3318""
","
","","","","","","null","<div style=""font-size:60px;"">+</div>","null","","fixation","","","","","","","","",""
"memory-trial","142","762709","0.0-15.0-1.49","1690","2","""event"",""trial"",""time""
""fullscreenenter"",""1"",""3318""
""blur"",""5"",""17582""
""focus"",""5"",""24319""
","""event"",""trial"",""time""
""blur"",""5"",""17582""
","""event"",""trial"",""time""
""focus"",""5"",""24319""
","""event"",""trial"",""time""
""fullscreenenter"",""1"",""3318""
","
","","","","","","2264.7000000476837","images/train4.png","","","memory_trial","4","definitely_new","","","","","","",""
"html-keyboard-response","143","763222","0.0-15.0-0.50","1690","2","""event"",""trial"",""time""
""fullscreenenter"",""1"",""3318""
""blur"",""5"",""17582""
""focus"",""5"",""24319""
","""event"",""trial"",""time""
""blur"",""5"",""17582""
","""event"",""trial"",""time""
""focus"",""5"",""24319""
","""event"",""trial"",""time""
""fullscreenenter"",""1"",""3318""
","
","","","","","","null","<div style=""font-size:60px;"">+</div>","null","","fixation","","","","","","","","",""
"memory-trial","144","767115","0.0-15.0-1.50","1690","2","""event"",""trial"",""time""
""fullscreenenter"",""1"",""3318""
""blur"",""5"",""17582""
""focus"",""5"",""24319""
","""event"",""trial"",""time""
""blur"",""5"",""17582""
","""event"",""trial"",""time""
""focus"",""5"",""24319""
","""event"",""trial"",""time""
""fullscreenenter"",""1"",""3318""
","
","","","","","","2883.0999999046326","images/rabbit2.png","","","memory_trial","2","maybe_old","","","","","","",""
"html-keyboard-response","145","767625","0.0-15.0-0.51","1690","2","""event"",""trial"",""time""
""fullscreenenter"",""1"",""3318""
""blur"",""5"",""17582""
""focus"",""5"",""24319""
","""event"",""trial"",""time""
""blur"",""5"",""17582""
","""event"",""trial"",""time""
""focus"",""5"",""24319""
","""event"",""trial"",""time""
""fullscreenenter"",""1"",""3318""
","
","","","","","","null","<div style=""font-size:60px;"">+</div>","null","","fixation","","","","","","","","",""
"memory-trial","146","770941","0.0-15.0-1.51","1690","2","""event"",""trial"",""time""
""fullscreenenter"",""1"",""3318""
""blur"",""5"",""17582""
""focus"",""5"",""24319""
","""event"",""trial"",""time""
""blur"",""5"",""17582""
","""event"",""trial"",""time""
""focus"",""5"",""24319""
","""event"",""trial"",""time""
""fullscreenenter"",""1"",""3318""
","
","","","","","","2306.300000190735","images/horse2.png","","","memory_trial","4","definitely_new","","","","","","",""
"html-keyboard-response","147","771452","0.0-15.0-0.52","1690","2","""event"",""trial"",""time""
""fullscreenenter"",""1"",""3318""
""blur"",""5"",""17582""
""focus"",""5"",""24319""
","""event"",""trial"",""time""
""blur"",""5"",""17582""
","""event"",""trial"",""time""
""focus"",""5"",""24319""
","""event"",""trial"",""time""
""fullscreenenter"",""1"",""3318""
","
","","","","","","null","<div style=""font-size:60px;"">+</div>","null","","fixation","","","","","","","","",""
"memory-trial","148","774228","0.0-15.0-1.52","1690","2","""event"",""trial"",""time""
""fullscreenenter"",""1"",""3318""
""blur"",""5"",""17582""
""focus"",""5"",""24319""
","""event"",""trial"",""time""
""blur"",""5"",""17582""
","""event"",""trial"",""time""
""focus"",""5"",""24319""
","""event"",""trial"",""time""
""fullscreenenter"",""1"",""3318""
","
","","","","","","1767.3000001907349","images/flower4.png","","","memory_trial","2","maybe_old","","","","","","",""
"html-keyboard-response","149","774733","0.0-15.0-0.53","1690","2","""event"",""trial"",""time""
""fullscreenenter"",""1"",""3318""
""blur"",""5"",""17582""
""focus"",""5"",""24319""
","""event"",""trial"",""time""
""blur"",""5"",""17582""
","""event"",""trial"",""time""
""focus"",""5"",""24319""
","""event"",""trial"",""time""
""fullscreenenter"",""1"",""3318""
","
","","","","","","null","<div style=""font-size:60px;"">+</div>","null","","fixation","","","","","","","","",""
"memory-trial","150","777594","0.0-15.0-1.53","1690","2","""event"",""trial"",""time""
""fullscreenenter"",""1"",""3318""
""blur"",""5"",""17582""
""focus"",""5"",""24319""
","""event"",""trial"",""time""
""blur"",""5"",""17582""
","""event"",""trial"",""time""
""focus"",""5"",""24319""
","""event"",""trial"",""time""
""fullscreenenter"",""1"",""3318""
","
","","","","","","1850.9000000953674","images/chair4.png","","","memory_trial","3","maybe_new","","","","","","",""
"html-keyboard-response","151","778101","0.0-15.0-0.54","1690","2","""event"",""trial"",""time""
""fullscreenenter"",""1"",""3318""
""blur"",""5"",""17582""
""focus"",""5"",""24319""
","""event"",""trial"",""time""
""blur"",""5"",""17582""
","""event"",""trial"",""time""
""focus"",""5"",""24319""
","""event"",""trial"",""time""
""fullscreenenter"",""1"",""3318""
","
","","","","","","null","<div style=""font-size:60px;"">+</div>","null","","fixation","","","","","","","","",""
"memory-trial","152","781005","0.0-15.0-1.54","1690","2","""event"",""trial"",""time""
""fullscreenenter"",""1"",""3318""
""blur"",""5"",""17582""
""focus"",""5"",""24319""
","""event"",""trial"",""time""
""blur"",""5"",""17582""
","""event"",""trial"",""time""
""focus"",""5"",""24319""
","""event"",""trial"",""time""
""fullscreenenter"",""1"",""3318""
","
","","","","","","1891.5","images/boat4.png","","","memory_trial","4","definitely_new","","","","","","",""
"html-keyboard-response","153","781514","0.0-15.0-0.55","1690","2","""event"",""trial"",""time""
""fullscreenenter"",""1"",""3318""
""blur"",""5"",""17582""
""focus"",""5"",""24319""
","""event"",""trial"",""time""
""blur"",""5"",""17582""
","""event"",""trial"",""time""
""focus"",""5"",""24319""
","""event"",""trial"",""time""
""fullscreenenter"",""1"",""3318""
","
","","","","","","null","<div style=""font-size:60px;"">+</div>","null","","fixation","","","","","","","","",""
"memory-trial","154","784709","0.0-15.0-1.55","1690","2","""event"",""trial"",""time""
""fullscreenenter"",""1"",""3318""
""blur"",""5"",""17582""
""focus"",""5"",""24319""
","""event"",""trial"",""time""
""blur"",""5"",""17582""
","""event"",""trial"",""time""
""focus"",""5"",""24319""
","""event"",""trial"",""time""
""fullscreenenter"",""1"",""3318""
","
","","","","","","2189.0999999046326","images/straw5.png","","","memory_trial","3","maybe_new","","","","","","",""
"html-keyboard-response","155","785219","0.0-15.0-0.56","1690","2","""event"",""trial"",""time""
""fullscreenenter"",""1"",""3318""
""blur"",""5"",""17582""
""focus"",""5"",""24319""
","""event"",""trial"",""time""
""blur"",""5"",""17582""
","""event"",""trial"",""time""
""focus"",""5"",""24319""
","""event"",""trial"",""time""
""fullscreenenter"",""1"",""3318""
","
","","","","","","null","<div style=""font-size:60px;"">+</div>","null","","fixation","","","","","","","","",""
"memory-trial","156","787930","0.0-15.0-1.56","1690","2","""event"",""trial"",""time""
""fullscreenenter"",""1"",""3318""
""blur"",""5"",""17582""
""focus"",""5"",""24319""
","""event"",""trial"",""time""
""blur"",""5"",""17582""
","""event"",""trial"",""time""
""focus"",""5"",""24319""
","""event"",""trial"",""time""
""fullscreenenter"",""1"",""3318""
","
","","","","","","1705","images/rodent3.png","","","memory_trial","1","definitely_old","","","","","","",""
"html-keyboard-response","157","788433","0.0-15.0-0.57","1690","2","""event"",""trial"",""time""
""fullscreenenter"",""1"",""3318""
""blur"",""5"",""17582""
""focus"",""5"",""24319""
","""event"",""trial"",""time""
""blur"",""5"",""17582""
","""event"",""trial"",""time""
""focus"",""5"",""24319""
","""event"",""trial"",""time""
""fullscreenenter"",""1"",""3318""
","
","","","","","","null","<div style=""font-size:60px;"">+</div>","null","","fixation","","","","","","","","",""
"memory-trial","158","791550","0.0-15.0-1.57","1690","2","""event"",""trial"",""time""
""fullscreenenter"",""1"",""3318""
""blur"",""5"",""17582""
""focus"",""5"",""24319""
","""event"",""trial"",""time""
""blur"",""5"",""17582""
","""event"",""trial"",""time""
""focus"",""5"",""24319""
","""event"",""trial"",""time""
""fullscreenenter"",""1"",""3318""
","
","","","","","","2105.2999999523163","images/chair5.png","","","memory_trial","3","maybe_new","","","","","","",""
"html-keyboard-response","159","792061","0.0-15.0-0.58","1690","2","""event"",""trial"",""time""
""fullscreenenter"",""1"",""3318""
""blur"",""5"",""17582""
""focus"",""5"",""24319""
","""event"",""trial"",""time""
""blur"",""5"",""17582""
","""event"",""trial"",""time""
""focus"",""5"",""24319""
","""event"",""trial"",""time""
""fullscreenenter"",""1"",""3318""
","
","","","","","","null","<div style=""font-size:60px;"">+</div>","null","","fixation","","","","","","","","",""
"memory-trial","160","795491","0.0-15.0-1.58","1690","2","""event"",""trial"",""time""
""fullscreenenter"",""1"",""3318""
""blur"",""5"",""17582""
""focus"",""5"",""24319""
","""event"",""trial"",""time""
""blur"",""5"",""17582""
","""event"",""trial"",""time""
""focus"",""5"",""24319""
","""event"",""trial"",""time""
""fullscreenenter"",""1"",""3318""
","
","","","","","","2416.5999999046326","images/goat5.png","","","memory_trial","2","maybe_old","","","","","","",""
"html-keyboard-response","161","796000","0.0-15.0-0.59","1690","2","""event"",""trial"",""time""
""fullscreenenter"",""1"",""3318""
""blur"",""5"",""17582""
""focus"",""5"",""24319""
","""event"",""trial"",""time""
""blur"",""5"",""17582""
","""event"",""trial"",""time""
""focus"",""5"",""24319""
","""event"",""trial"",""time""
""fullscreenenter"",""1"",""3318""
","
","","","","","","null","<div style=""font-size:60px;"">+</div>","null","","fixation","","","","","","","","",""
"memory-trial","162","799410","0.0-15.0-1.59","1690","2","""event"",""trial"",""time""
""fullscreenenter"",""1"",""3318""
""blur"",""5"",""17582""
""focus"",""5"",""24319""
","""event"",""trial"",""time""
""blur"",""5"",""17582""
","""event"",""trial"",""time""
""focus"",""5"",""24319""
","""event"",""trial"",""time""
""fullscreenenter"",""1"",""3318""
","
","","","","","","2400.399999856949","images/cactus3.png","","","memory_trial","4","definitely_new","","","","","","",""
"html-keyboard-response","163","799914","0.0-15.0-0.60","1690","2","""event"",""trial"",""time""
""fullscreenenter"",""1"",""3318""
""blur"",""5"",""17582""
""focus"",""5"",""24319""
","""event"",""trial"",""time""
""blur"",""5"",""17582""
","""event"",""trial"",""time""
""focus"",""5"",""24319""
","""event"",""trial"",""time""
""fullscreenenter"",""1"",""3318""
","
","","","","","","null","<div style=""font-size:60px;"">+</div>","null","","fixation","","","","","","","","",""
"memory-trial","164","803030","0.0-15.0-1.60","1690","2","""event"",""trial"",""time""
""fullscreenenter"",""1"",""3318""
""blur"",""5"",""17582""
""focus"",""5"",""24319""
","""event"",""trial"",""time""
""blur"",""5"",""17582""
","""event"",""trial"",""time""
""focus"",""5"",""24319""
","""event"",""trial"",""time""
""fullscreenenter"",""1"",""3318""
","
","","","","","","2112.2999999523163","images/rabbit5.png","","","memory_trial","2","maybe_old","","","","","","",""
"html-keyboard-response","165","803549","0.0-15.0-0.61","1690","2","""event"",""trial"",""time""
""fullscreenenter"",""1"",""3318""
""blur"",""5"",""17582""
""focus"",""5"",""24319""
","""event"",""trial"",""time""
""blur"",""5"",""17582""
","""event"",""trial"",""time""
""focus"",""5"",""24319""
","""event"",""trial"",""time""
""fullscreenenter"",""1"",""3318""
","
","","","","","","null","<div style=""font-size:60px;"">+</div>","null","","fixation","","","","","","","","",""
"memory-trial","166","805880","0.0-15.0-1.61","1690","2","""event"",""trial"",""time""
""fullscreenenter"",""1"",""3318""
""blur"",""5"",""17582""
""focus"",""5"",""24319""
","""event"",""trial"",""time""
""blur"",""5"",""17582""
","""event"",""trial"",""time""
""focus"",""5"",""24319""
","""event"",""trial"",""time""
""fullscreenenter"",""1"",""3318""
","
","","","","","","1321.7000000476837","images/rodent1.png","","","memory_trial","1","definitely_old","","","","","","",""
"html-keyboard-response","167","806389","0.0-15.0-0.62","1690","2","""event"",""trial"",""time""
""fullscreenenter"",""1"",""3318""
""blur"",""5"",""17582""
""focus"",""5"",""24319""
","""event"",""trial"",""time""
""blur"",""5"",""17582""
","""event"",""trial"",""time""
""focus"",""5"",""24319""
","""event"",""trial"",""time""
""fullscreenenter"",""1"",""3318""
","
","","","","","","null","<div style=""font-size:60px;"">+</div>","null","","fixation","","","","","","","","",""
"memory-trial","168","808456","0.0-15.0-1.62","1690","2","""event"",""trial"",""time""
""fullscreenenter"",""1"",""3318""
""blur"",""5"",""17582""
""focus"",""5"",""24319""
","""event"",""trial"",""time""
""blur"",""5"",""17582""
","""event"",""trial"",""time""
""focus"",""5"",""24319""
","""event"",""trial"",""time""
""fullscreenenter"",""1"",""3318""
","
","","","","","","1055.5999999046326","images/cactus1.png","","","memory_trial","1","definitely_old","","","","","","",""
"html-keyboard-response","169","808960","0.0-15.0-0.63","1690","2","""event"",""trial"",""time""
""fullscreenenter"",""1"",""3318""
""blur"",""5"",""17582""
""focus"",""5"",""24319""
","""event"",""trial"",""time""
""blur"",""5"",""17582""
","""event"",""trial"",""time""
""focus"",""5"",""24319""
","""event"",""trial"",""time""
""fullscreenenter"",""1"",""3318""
","
","","","","","","null","<div style=""font-size:60px;"">+</div>","null","","fixation","","","","","","","","",""
"memory-trial","170","811954","0.0-15.0-1.63","1690","2","""event"",""trial"",""time""
""fullscreenenter"",""1"",""3318""
""blur"",""5"",""17582""
""focus"",""5"",""24319""
","""event"",""trial"",""time""
""blur"",""5"",""17582""
","""event"",""trial"",""time""
""focus"",""5"",""24319""
","""event"",""trial"",""time""
""fullscreenenter"",""1"",""3318""
","
","","","","","","1983.0999999046326","images/truck1.png","","","memory_trial","4","definitely_new","","","","","","",""
"html-keyboard-response","171","812463","0.0-15.0-0.64","1690","2","""event"",""trial"",""time""
""fullscreenenter"",""1"",""3318""
""blur"",""5"",""17582""
""focus"",""5"",""24319""
","""event"",""trial"",""time""
""blur"",""5"",""17582""
","""event"",""trial"",""time""
""focus"",""5"",""24319""
","""event"",""trial"",""time""
""fullscreenenter"",""1"",""3318""
","
","","","","","","null","<div style=""font-size:60px;"">+</div>","null","","fixation","","","","","","","","",""
"memory-trial","172","815071","0.0-15.0-1.64","1690","2","""event"",""trial"",""time""
""fullscreenenter"",""1"",""3318""
""blur"",""5"",""17582""
""focus"",""5"",""24319""
","""event"",""trial"",""time""
""blur"",""5"",""17582""
","""event"",""trial"",""time""
""focus"",""5"",""24319""
","""event"",""trial"",""time""
""fullscreenenter"",""1"",""3318""
","
","","","","","","1596.0999999046326","images/banana2.png","","","memory_trial","4","definitely_new","","","","","","",""
"html-keyboard-response","173","815577","0.0-15.0-0.65","1690","2","""event"",""trial"",""time""
""fullscreenenter"",""1"",""3318""
""blur"",""5"",""17582""
""focus"",""5"",""24319""
","""event"",""trial"",""time""
""blur"",""5"",""17582""
","""event"",""trial"",""time""
""focus"",""5"",""24319""
","""event"",""trial"",""time""
""fullscreenenter"",""1"",""3318""
","
","","","","","","null","<div style=""font-size:60px;"">+</div>","null","","fixation","","","","","","","","",""
"memory-trial","174","818342","0.0-15.0-1.65","1690","2","""event"",""trial"",""time""
""fullscreenenter"",""1"",""3318""
""blur"",""5"",""17582""
""focus"",""5"",""24319""
","""event"",""trial"",""time""
""blur"",""5"",""17582""
","""event"",""trial"",""time""
""focus"",""5"",""24319""
","""event"",""trial"",""time""
""fullscreenenter"",""1"",""3318""
","
","","","","","","1756.2000000476837","images/tree5.png","","","memory_trial","2","maybe_old","","","","","","",""
"html-keyboard-response","175","818849","0.0-15.0-0.66","1690","2","""event"",""trial"",""time""
""fullscreenenter"",""1"",""3318""
""blur"",""5"",""17582""
""focus"",""5"",""24319""
","""event"",""trial"",""time""
""blur"",""5"",""17582""
","""event"",""trial"",""time""
""focus"",""5"",""24319""
","""event"",""trial"",""time""
""fullscreenenter"",""1"",""3318""
","
","","","","","","null","<div style=""font-size:60px;"">+</div>","null","","fixation","","","","","","","","",""
"memory-trial","176","822388","0.0-15.0-1.66","1690","2","""event"",""trial"",""time""
""fullscreenenter"",""1"",""3318""
""blur"",""5"",""17582""
""focus"",""5"",""24319""
","""event"",""trial"",""time""
""blur"",""5"",""17582""
","""event"",""trial"",""time""
""focus"",""5"",""24319""
","""event"",""trial"",""time""
""fullscreenenter"",""1"",""3318""
","
","","","","","","2530","images/cow4.png","","","memory_trial","1","definitely_old","","","","","","",""
"html-keyboard-response","177","822894","0.0-15.0-0.67","1690","2","""event"",""trial"",""time""
""fullscreenenter"",""1"",""3318""
""blur"",""5"",""17582""
""focus"",""5"",""24319""
","""event"",""trial"",""time""
""blur"",""5"",""17582""
","""event"",""trial"",""time""
""focus"",""5"",""24319""
","""event"",""trial"",""time""
""fullscreenenter"",""1"",""3318""
","
","","","","","","null","<div style=""font-size:60px;"">+</div>","null","","fixation","","","","","","","","",""
"memory-trial","178","825682","0.0-15.0-1.67","1690","2","""event"",""trial"",""time""
""fullscreenenter"",""1"",""3318""
""blur"",""5"",""17582""
""focus"",""5"",""24319""
","""event"",""trial"",""time""
""blur"",""5"",""17582""
","""event"",""trial"",""time""
""focus"",""5"",""24319""
","""event"",""trial"",""time""
""fullscreenenter"",""1"",""3318""
","
","","","","","","1777.7999999523163","images/bush1.png","","","memory_trial","1","definitely_old","","","","","","",""
"html-keyboard-response","179","826193","0.0-15.0-0.68","1690","2","""event"",""trial"",""time""
""fullscreenenter"",""1"",""3318""
""blur"",""5"",""17582""
""focus"",""5"",""24319""
","""event"",""trial"",""time""
""blur"",""5"",""17582""
","""event"",""trial"",""time""
""focus"",""5"",""24319""
","""event"",""trial"",""time""
""fullscreenenter"",""1"",""3318""
","
","","","","","","null","<div style=""font-size:60px;"">+</div>","null","","fixation","","","","","","","","",""
"memory-trial","180","828399","0.0-15.0-1.68","1690","2","""event"",""trial"",""time""
""fullscreenenter"",""1"",""3318""
""blur"",""5"",""17582""
""focus"",""5"",""24319""
","""event"",""trial"",""time""
""blur"",""5"",""17582""
","""event"",""trial"",""time""
""focus"",""5"",""24319""
","""event"",""trial"",""time""
""fullscreenenter"",""1"",""3318""
","
","","","","","","1193.2999999523163","images/train3.png","","","memory_trial","1","definitely_old","","","","","","",""
"html-keyboard-response","181","828902","0.0-15.0-0.69","1690","2","""event"",""trial"",""time""
""fullscreenenter"",""1"",""3318""
""blur"",""5"",""17582""
""focus"",""5"",""24319""
","""event"",""trial"",""time""
""blur"",""5"",""17582""
","""event"",""trial"",""time""
""focus"",""5"",""24319""
","""event"",""trial"",""time""
""fullscreenenter"",""1"",""3318""
","
","","","","","","null","<div style=""font-size:60px;"">+</div>","null","","fixation","","","","","","","","",""
"memory-trial","182","831471","0.0-15.0-1.69","1690","2","""event"",""trial"",""time""
""fullscreenenter"",""1"",""3318""
""blur"",""5"",""17582""
""focus"",""5"",""24319""
","""event"",""trial"",""time""
""blur"",""5"",""17582""
","""event"",""trial"",""time""
""focus"",""5"",""24319""
","""event"",""trial"",""time""
""fullscreenenter"",""1"",""3318""
","
","","","","","","1564.2000000476837","images/horse4.png","","","memory_trial","4","definitely_new","","","","","","",""
"html-keyboard-response","183","831975","0.0-15.0-0.70","1690","2","""event"",""trial"",""time""
""fullscreenenter"",""1"",""3318""
""blur"",""5"",""17582""
""focus"",""5"",""24319""
","""event"",""trial"",""time""
""blur"",""5"",""17582""
","""event"",""trial"",""time""
""focus"",""5"",""24319""
","""event"",""trial"",""time""
""fullscreenenter"",""1"",""3318""
","
","","","","","","null","<div style=""font-size:60px;"">+</div>","null","","fixation","","","","","","","","",""
"memory-trial","184","833852","0.0-15.0-1.70","1690","2","""event"",""trial"",""time""
""fullscreenenter"",""1"",""3318""
""blur"",""5"",""17582""
""focus"",""5"",""24319""
","""event"",""trial"",""time""
""blur"",""5"",""17582""
","""event"",""trial"",""time""
""focus"",""5"",""24319""
","""event"",""trial"",""time""
""fullscreenenter"",""1"",""3318""
","
","","","","","","864.6000001430511","images/bush2.png","","","memory_trial","1","definitely_old","","","","","","",""
"html-keyboard-response","185","834355","0.0-15.0-0.71","1690","2","""event"",""trial"",""time""
""fullscreenenter"",""1"",""3318""
""blur"",""5"",""17582""
""focus"",""5"",""24319""
","""event"",""trial"",""time""
""blur"",""5"",""17582""
","""event"",""trial"",""time""
""focus"",""5"",""24319""
","""event"",""trial"",""time""
""fullscreenenter"",""1"",""3318""
","
","","","","","","null","<div style=""font-size:60px;"">+</div>","null","","fixation","","","","","","","","",""
"memory-trial","186","836440","0.0-15.0-1.71","1690","2","""event"",""trial"",""time""
""fullscreenenter"",""1"",""3318""
""blur"",""5"",""17582""
""focus"",""5"",""24319""
","""event"",""trial"",""time""
""blur"",""5"",""17582""
","""event"",""trial"",""time""
""focus"",""5"",""24319""
","""event"",""trial"",""time""
""fullscreenenter"",""1"",""3318""
","
","","","","","","1078.0999999046326","images/cactus4.png","","","memory_trial","1","definitely_old","","","","","","",""
"html-keyboard-response","187","836949","0.0-15.0-0.72","1690","2","""event"",""trial"",""time""
""fullscreenenter"",""1"",""3318""
""blur"",""5"",""17582""
""focus"",""5"",""24319""
","""event"",""trial"",""time""
""blur"",""5"",""17582""
","""event"",""trial"",""time""
""focus"",""5"",""24319""
","""event"",""trial"",""time""
""fullscreenenter"",""1"",""3318""
","
","","","","","","null","<div style=""font-size:60px;"">+</div>","null","","fixation","","","","","","","","",""
"memory-trial","188","839066","0.0-15.0-1.72","1690","2","""event"",""trial"",""time""
""fullscreenenter"",""1"",""3318""
""blur"",""5"",""17582""
""focus"",""5"",""24319""
","""event"",""trial"",""time""
""blur"",""5"",""17582""
","""event"",""trial"",""time""
""focus"",""5"",""24319""
","""event"",""trial"",""time""
""fullscreenenter"",""1"",""3318""
","
","","","","","","1104","images/goat4.png","","","memory_trial","2","maybe_old","","","","","","",""
"html-keyboard-response","189","839576","0.0-15.0-0.73","1690","2","""event"",""trial"",""time""
""fullscreenenter"",""1"",""3318""
""blur"",""5"",""17582""
""focus"",""5"",""24319""
","""event"",""trial"",""time""
""blur"",""5"",""17582""
","""event"",""trial"",""time""
""focus"",""5"",""24319""
","""event"",""trial"",""time""
""fullscreenenter"",""1"",""3318""
","
","","","","","","null","<div style=""font-size:60px;"">+</div>","null","","fixation","","","","","","","","",""
"memory-trial","190","842016","0.0-15.0-1.73","1690","2","""event"",""trial"",""time""
""fullscreenenter"",""1"",""3318""
""blur"",""5"",""17582""
""focus"",""5"",""24319""
","""event"",""trial"",""time""
""blur"",""5"",""17582""
","""event"",""trial"",""time""
""focus"",""5"",""24319""
","""event"",""trial"",""time""
""fullscreenenter"",""1"",""3318""
","
","","","","","","1436","images/cow3.png","","","memory_trial","2","maybe_old","","","","","","",""
"html-keyboard-response","191","842524","0.0-15.0-0.74","1690","2","""event"",""trial"",""time""
""fullscreenenter"",""1"",""3318""
""blur"",""5"",""17582""
""focus"",""5"",""24319""
","""event"",""trial"",""time""
""blur"",""5"",""17582""
","""event"",""trial"",""time""
""focus"",""5"",""24319""
","""event"",""trial"",""time""
""fullscreenenter"",""1"",""3318""
","
","","","","","","null","<div style=""font-size:60px;"">+</div>","null","","fixation","","","","","","","","",""
"memory-trial","192","845313","0.0-15.0-1.74","1690","2","""event"",""trial"",""time""
""fullscreenenter"",""1"",""3318""
""blur"",""5"",""17582""
""focus"",""5"",""24319""
","""event"",""trial"",""time""
""blur"",""5"",""17582""
","""event"",""trial"",""time""
""focus"",""5"",""24319""
","""event"",""trial"",""time""
""fullscreenenter"",""1"",""3318""
","
","","","","","","1777.4000000953674","images/tree2.png","","","memory_trial","4","definitely_new","","","","","","",""
"html-keyboard-response","193","845817","0.0-15.0-0.75","1690","2","""event"",""trial"",""time""
""fullscreenenter"",""1"",""3318""
""blur"",""5"",""17582""
""focus"",""5"",""24319""
","""event"",""trial"",""time""
""blur"",""5"",""17582""
","""event"",""trial"",""time""
""focus"",""5"",""24319""
","""event"",""trial"",""time""
""fullscreenenter"",""1"",""3318""
","
","","","","","","null","<div style=""font-size:60px;"">+</div>","null","","fixation","","","","","","","","",""
"memory-trial","194","848338","0.0-15.0-1.75","1690","2","""event"",""trial"",""time""
""fullscreenenter"",""1"",""3318""
""blur"",""5"",""17582""
""focus"",""5"",""24319""
","""event"",""trial"",""time""
""blur"",""5"",""17582""
","""event"",""trial"",""time""
""focus"",""5"",""24319""
","""event"",""trial"",""time""
""fullscreenenter"",""1"",""3318""
","
","","","","","","1506.8000001907349","images/sheep3.png","","","memory_trial","4","definitely_new","","","","","","",""
"html-keyboard-response","195","848841","0.0-15.0-0.76","1690","2","""event"",""trial"",""time""
""fullscreenenter"",""1"",""3318""
""blur"",""5"",""17582""
""focus"",""5"",""24319""
","""event"",""trial"",""time""
""blur"",""5"",""17582""
","""event"",""trial"",""time""
""focus"",""5"",""24319""
","""event"",""trial"",""time""
""fullscreenenter"",""1"",""3318""
","
","","","","","","null","<div style=""font-size:60px;"">+</div>","null","","fixation","","","","","","","","",""
"memory-trial","196","854373","0.0-15.0-1.76","1690","2","""event"",""trial"",""time""
""fullscreenenter"",""1"",""3318""
""blur"",""5"",""17582""
""focus"",""5"",""24319""
","""event"",""trial"",""time""
""blur"",""5"",""17582""
","""event"",""trial"",""time""
""focus"",""5"",""24319""
","""event"",""trial"",""time""
""fullscreenenter"",""1"",""3318""
","
","","","","","","4512.200000047684","images/horse5.png","","","memory_trial","4","definitely_new","","","","","","",""
"html-keyboard-response","197","854881","0.0-15.0-0.77","1690","2","""event"",""trial"",""time""
""fullscreenenter"",""1"",""3318""
""blur"",""5"",""17582""
""focus"",""5"",""24319""
","""event"",""trial"",""time""
""blur"",""5"",""17582""
","""event"",""trial"",""time""
""focus"",""5"",""24319""
","""event"",""trial"",""time""
""fullscreenenter"",""1"",""3318""
","
","","","","","","null","<div style=""font-size:60px;"">+</div>","null","","fixation","","","","","","","","",""
"memory-trial","198","857811","0.0-15.0-1.77","1690","2","""event"",""trial"",""time""
""fullscreenenter"",""1"",""3318""
""blur"",""5"",""17582""
""focus"",""5"",""24319""
","""event"",""trial"",""time""
""blur"",""5"",""17582""
","""event"",""trial"",""time""
""focus"",""5"",""24319""
","""event"",""trial"",""time""
""fullscreenenter"",""1"",""3318""
","
","","","","","","1924.6999998092651","images/apple2.png","","","memory_trial","3","maybe_new","","","","","","",""
"html-keyboard-response","199","858328","0.0-15.0-0.78","1690","2","""event"",""trial"",""time""
""fullscreenenter"",""1"",""3318""
""blur"",""5"",""17582""
""focus"",""5"",""24319""
","""event"",""trial"",""time""
""blur"",""5"",""17582""
","""event"",""trial"",""time""
""focus"",""5"",""24319""
","""event"",""trial"",""time""
""fullscreenenter"",""1"",""3318""
","
","","","","","","null","<div style=""font-size:60px;"">+</div>","null","","fixation","","","","","","","","",""
