"trial_type","trial_index","time_elapsed","internal_node_id","subject_id","task_version","interactions","blur_events","focus_events","fullscreenenter_events","fullscreenexit_events","success","timeout","failed_images","failed_audio","failed_video","rt","stimulus","response","button_pressed","task_part","key_press","answer","correct","left_choice","middle_choice","right_choice","choice_positions","option_selected","block"
"pavlovia","0","8","0.0-0.0","1916","2","""event"",""trial"",""time""
""fullscreenenter"",""1"",""1764""
","
","
","""event"",""trial"",""time""
""fullscreenenter"",""1"",""1764""
","
","","","","","","","","","","","","","","","","","","",""
"fullscreen","1","2731","0.0-1.0","1916","2","""event"",""trial"",""time""
""fullscreenenter"",""1"",""1764""
","
","
","""event"",""trial"",""time""
""fullscreenenter"",""1"",""1764""
","
","true","","","","","","","","","","","","","","","","","",""
"preload","2","3552","0.0-2.0","1916","2","""event"",""trial"",""time""
""fullscreenenter"",""1"",""1764""
","
","
","""event"",""trial"",""time""
""fullscreenenter"",""1"",""1764""
","
","true","false","[]","[]","[]","","","","","","","","","","","","","",""
"audio-keyboard-response","3","5555","0.0-3.0","1916","2","""event"",""trial"",""time""
""fullscreenenter"",""1"",""1764""
","
","
","""event"",""trial"",""time""
""fullscreenenter"",""1"",""1764""
","
","","","","","","2002.7210884353744","audio/beep_loop.wav"," ","","","","","","","","","","",""
"audio-button-response","4","9120","0.0-4.0","1916","2","""event"",""trial"",""time""
""fullscreenenter"",""1"",""1764""
","
","
","""event"",""trial"",""time""
""fullscreenenter"",""1"",""1764""
","
","","","","","","3564","audio/turtle.wav","3","","","","","","","","","","",""
"audio-button-response","5","11573","0.0-5.0","1916","2","""event"",""trial"",""time""
""fullscreenenter"",""1"",""1764""
","
","
","""event"",""trial"",""time""
""fullscreenenter"",""1"",""1764""
","
","","","","","","1451","audio/shark.wav","2","","","","","","","","","","",""
"preload","6","22852","0.0-6.0","1916","2","""event"",""trial"",""time""
""fullscreenenter"",""1"",""1764""
","
","
","""event"",""trial"",""time""
""fullscreenenter"",""1"",""1764""
","
","true","false","[]","[]","[]","","","","","","","","","","","","","",""
"learning-instructions","7","29777","0.0-7.0-0.0","1916","2","""event"",""trial"",""time""
""fullscreenenter"",""1"",""1764""
","
","
","""event"",""trial"",""time""
""fullscreenenter"",""1"",""1764""
","
","","","","","","2118.9000000059605","<p> Welcome back! </p><p> Last week, you had to make choices about lots of different items.  </p>","","0","instructions","","","","","","","","",""
"learning-instructions","8","34569","0.0-7.0-0.1","1916","2","""event"",""trial"",""time""
""fullscreenenter"",""1"",""1764""
","
","
","""event"",""trial"",""time""
""fullscreenenter"",""1"",""1764""
","
","","","","","","491.40000000596046","<p> Today, we are going to ask you to try to remember all the items. </p>","","0","instructions","","","","","","","","",""
"learning-instructions","9","45212","0.0-7.0-0.2","1916","2","""event"",""trial"",""time""
""fullscreenenter"",""1"",""1764""
","
","
","""event"",""trial"",""time""
""fullscreenenter"",""1"",""1764""
","
","","","","","","511.5","<p> On every trial, you will see an image. </p><p> The image may be an OLD image you saw during the games last week or it may be a NEW image that was not presented. </p>","","0","instructions","","","","","","","","",""
"learning-instructions","10","54573","0.0-7.0-0.3","1916","2","""event"",""trial"",""time""
""fullscreenenter"",""1"",""1764""
","
","
","""event"",""trial"",""time""
""fullscreenenter"",""1"",""1764""
","
","","","","","","862.2000000178814","<p> You need to select whether the image is:  </p><p>  'Definitely old', 'Maybe old', 'Maybe new', or 'Definitely new.'  </p><div class=""mem-choice-instructions-grid""><div class=""choice-option"" id=""choice-option-1"" ><img src=""images/definitely_old_1.png"" id=""choice-option-img-1"" class=""choice-option-img"" stage=""1""></div><div class=""choice-option"" id=""choice-option-2"" ><img src=""images/maybe_old_1.png"" id=""choice-option-img-2"" class=""choice-option-img"" stage=""1""></div><div class=""choice-option"" id=""choice-option-3"" ><img src=""images/maybe_new_1.png"" id=""choice-option-img-3"" class=""choice-option-img"" stage=""1""></div><div class=""choice-option"" id=""choice-option-4"" > <img src=""images/definitely_new_1.png"" id=""choice-option-img-4"" class=""choice-option-img"" stage=""1""></div></div>","","0","instructions","","","","","","","","",""
"learning-instructions","11","63539","0.0-7.0-0.4","1916","2","""event"",""trial"",""time""
""fullscreenenter"",""1"",""1764""
","
","
","""event"",""trial"",""time""
""fullscreenenter"",""1"",""1764""
","
","","","","","","2276.9000000059605","<p> You should use the 1, 2, 3, and 4 keys to make your responses.  </p><div class=""mem-choice-instructions-grid""><div class=""choice-option"" id=""choice-option-1"" ><img src=""images/definitely_old.png"" id=""choice-option-img-1"" class=""choice-option-img"" stage=""1""></div><div class=""choice-option"" id=""choice-option-2"" ><img src=""images/maybe_old.png"" id=""choice-option-img-2"" class=""choice-option-img"" stage=""1""></div><div class=""choice-option"" id=""choice-option-3"" ><img src=""images/maybe_new.png"" id=""choice-option-img-3"" class=""choice-option-img"" stage=""1""></div><div class=""choice-option"" id=""choice-option-4"" > <img src=""images/definitely_new.png"" id=""choice-option-img-4"" class=""choice-option-img"" stage=""1""></div></div>","","0","instructions","","","","","","","","",""
"learning-instructions","12","71662","0.0-7.0-0.5","1916","2","""event"",""trial"",""time""
""fullscreenenter"",""1"",""1764""
","
","
","""event"",""trial"",""time""
""fullscreenenter"",""1"",""1764""
","
","","","","","","1362.0999999940395","<p> You will have 10 seconds to make each response.  </p><p>  Make sure to respond before time runs out! </p>","","0","instructions","","","","","","","","",""
"learning-instructions","13","80888","0.0-7.0-0.6","1916","2","""event"",""trial"",""time""
""fullscreenenter"",""1"",""1764""
","
","
","""event"",""trial"",""time""
""fullscreenenter"",""1"",""1764""
","
","","","","","","1648.6000000238419","<p> Today, you will see each image ONCE only.  </p><p>  That means none of the images will repeat. </p>","","0","instructions","","","","","","","","",""
"learning-instructions","14","94501","0.0-7.0-0.7","1916","2","""event"",""trial"",""time""
""fullscreenenter"",""1"",""1764""
","
","
","""event"",""trial"",""time""
""fullscreenenter"",""1"",""1764""
","
","","","","","","952.7000000178814","<p> Before you play the real game, it is time to practice. </p><p>  Just like in the real game, some of the images in the practice will be ones you have seen before. </p><p>  Others will be entirely new. </p>","","0","instructions","","","","","","","","",""
"html-button-response","15","106517","0.0-8.0","1916","2","""event"",""trial"",""time""
""fullscreenenter"",""1"",""1764""
","
","
","""event"",""trial"",""time""
""fullscreenenter"",""1"",""1764""
","
","","","","","","11913.90000000596","<p> Ready to practice? </p><p> Remember, use the 1, 2, 3, and 4 keys to make your responses. </p>","0","","instructions","","","","","","","","",""
"html-keyboard-response","16","107119","0.0-9.0-0.0","1916","2","""event"",""trial"",""time""
""fullscreenenter"",""1"",""1764""
","
","
","""event"",""trial"",""time""
""fullscreenenter"",""1"",""1764""
","
","","","","","","null","<div style=""font-size:60px;"">+</div>","null","","fixation","","","","","","","","",""
"memory-trial","17","110591","0.0-9.0-1.0","1916","2","""event"",""trial"",""time""
""fullscreenenter"",""1"",""1764""
","
","
","""event"",""trial"",""time""
""fullscreenenter"",""1"",""1764""
","
","","","","","","2467.2000000178814","images/ball1.png","","","practice","1","definitely_old","","","","","","",""
"html-keyboard-response","18","111096","0.0-9.0-0.1","1916","2","""event"",""trial"",""time""
""fullscreenenter"",""1"",""1764""
","
","
","""event"",""trial"",""time""
""fullscreenenter"",""1"",""1764""
","
","","","","","","null","<div style=""font-size:60px;"">+</div>","null","","fixation","","","","","","","","",""
"memory-trial","19","114236","0.0-9.0-1.1","1916","2","""event"",""trial"",""time""
""fullscreenenter"",""1"",""1764""
","
","
","""event"",""trial"",""time""
""fullscreenenter"",""1"",""1764""
","
","","","","","","2136.2999999821186","images/ball2.png","","","practice","1","definitely_old","","","","","","",""
"html-keyboard-response","20","114742","0.0-9.0-0.2","1916","2","""event"",""trial"",""time""
""fullscreenenter"",""1"",""1764""
","
","
","""event"",""trial"",""time""
""fullscreenenter"",""1"",""1764""
","
","","","","","","null","<div style=""font-size:60px;"">+</div>","null","","fixation","","","","","","","","",""
"memory-trial","21","118613","0.0-9.0-1.2","1916","2","""event"",""trial"",""time""
""fullscreenenter"",""1"",""1764""
","
","
","""event"",""trial"",""time""
""fullscreenenter"",""1"",""1764""
","
","","","","","","2866.9000000059605","images/racket3.png","","","practice","3","maybe_new","","","","","","",""
"html-keyboard-response","22","119117","0.0-9.0-0.3","1916","2","""event"",""trial"",""time""
""fullscreenenter"",""1"",""1764""
","
","
","""event"",""trial"",""time""
""fullscreenenter"",""1"",""1764""
","
","","","","","","null","<div style=""font-size:60px;"">+</div>","null","","fixation","","","","","","","","",""
"memory-trial","23","121494","0.0-9.0-1.3","1916","2","""event"",""trial"",""time""
""fullscreenenter"",""1"",""1764""
","
","
","""event"",""trial"",""time""
""fullscreenenter"",""1"",""1764""
","
","","","","","","1370.9000000059605","images/racket1.png","","","practice","3","maybe_new","","","","","","",""
"html-keyboard-response","24","121997","0.0-9.0-0.4","1916","2","""event"",""trial"",""time""
""fullscreenenter"",""1"",""1764""
","
","
","""event"",""trial"",""time""
""fullscreenenter"",""1"",""1764""
","
","","","","","","null","<div style=""font-size:60px;"">+</div>","null","","fixation","","","","","","","","",""
"memory-trial","25","124691","0.0-9.0-1.4","1916","2","""event"",""trial"",""time""
""fullscreenenter"",""1"",""1764""
","
","
","""event"",""trial"",""time""
""fullscreenenter"",""1"",""1764""
","
","","","","","","1692.2000000178814","images/racket4.png","","","practice","1","definitely_old","","","","","","",""
"html-keyboard-response","26","125197","0.0-9.0-0.5","1916","2","""event"",""trial"",""time""
""fullscreenenter"",""1"",""1764""
","
","
","""event"",""trial"",""time""
""fullscreenenter"",""1"",""1764""
","
","","","","","","null","<div style=""font-size:60px;"">+</div>","null","","fixation","","","","","","","","",""
"memory-trial","27","128151","0.0-9.0-1.5","1916","2","""event"",""trial"",""time""
""fullscreenenter"",""1"",""1764""
","
","
","""event"",""trial"",""time""
""fullscreenenter"",""1"",""1764""
","
","","","","","","1952.1000000238419","images/ball3.png","","","practice","1","definitely_old","","","","","","",""
"html-keyboard-response","28","128656","0.0-9.0-0.6","1916","2","""event"",""trial"",""time""
""fullscreenenter"",""1"",""1764""
","
","
","""event"",""trial"",""time""
""fullscreenenter"",""1"",""1764""
","
","","","","","","null","<div style=""font-size:60px;"">+</div>","null","","fixation","","","","","","","","",""
"memory-trial","29","131739","0.0-9.0-1.6","1916","2","""event"",""trial"",""time""
""fullscreenenter"",""1"",""1764""
","
","
","""event"",""trial"",""time""
""fullscreenenter"",""1"",""1764""
","
","","","","","","2076.2000000178814","images/ball4.png","","","practice","1","definitely_old","","","","","","",""
"html-keyboard-response","30","132244","0.0-9.0-0.7","1916","2","""event"",""trial"",""time""
""fullscreenenter"",""1"",""1764""
","
","
","""event"",""trial"",""time""
""fullscreenenter"",""1"",""1764""
","
","","","","","","null","<div style=""font-size:60px;"">+</div>","null","","fixation","","","","","","","","",""
"memory-trial","31","135059","0.0-9.0-1.7","1916","2","""event"",""trial"",""time""
""fullscreenenter"",""1"",""1764""
","
","
","""event"",""trial"",""time""
""fullscreenenter"",""1"",""1764""
","
","","","","","","1812.5999999940395","images/racket2.png","","","practice","2","maybe_old","","","","","","",""
"learning-instructions","32","147761","0.0-10.0-0.0","1916","2","""event"",""trial"",""time""
""fullscreenenter"",""1"",""1764""
","
","
","""event"",""trial"",""time""
""fullscreenenter"",""1"",""1764""
","
","","","","","","4742.9000000059605","<p> Great! You have completed the practice. </p><p> Before you start, we're going to ask you a few questions about how the game works.  </p>","","0","instructions","","","","","","","","",""
"preload","33","151966","0.0-11.0","1916","2","""event"",""trial"",""time""
""fullscreenenter"",""1"",""1764""
","
","
","""event"",""trial"",""time""
""fullscreenenter"",""1"",""1764""
","
","true","false","[]","[]","[]","","","","","","","","","","","","","",""
"comp-q","34","158887","0.0-12.0-0.0","1916","2","""event"",""trial"",""time""
""fullscreenenter"",""1"",""1764""
","
","
","""event"",""trial"",""time""
""fullscreenenter"",""1"",""1764""
","
","","","","","","1096.0999999940395","<p> <b> True or False? </b> </p><p> In this game, you will only see each image once. </p>","","0","comp_question","","","true","","","","","",""
"comp-q","35","166031","0.0-12.0-1.0","1916","2","""event"",""trial"",""time""
""fullscreenenter"",""1"",""1764""
","
","
","""event"",""trial"",""time""
""fullscreenenter"",""1"",""1764""
","
","","","","","","804.0999999940395","<p> <b> That's right! </b> You will see many different images <i> one time each </i> in this game. </p>","","0","comp_answer","","","","","","","","",""
"comp-q","36","172928","0.0-12.0-0.1","1916","2","""event"",""trial"",""time""
""fullscreenenter"",""1"",""1764""
","
","
","""event"",""trial"",""time""
""fullscreenenter"",""1"",""1764""
","
","","","","","","1100.7999999821186","<p> <b> True or False? </b> </p><p> You should use the mouse and click to make your response. </p>","","1","comp_question","","","true","","","","","",""
"comp-q","37","182030","0.0-12.0-1.1","1916","2","""event"",""trial"",""time""
""fullscreenenter"",""1"",""1764""
","
","
","""event"",""trial"",""time""
""fullscreenenter"",""1"",""1764""
","
","","","","","","1756.4000000059605","<p><b> That's right! </b> You should use the '1', '2', '3', and '4' keys to make your response. </p>","","0","comp_answer","","","","","","","","",""
"comp-q","38","188577","0.0-12.0-0.2","1916","2","""event"",""trial"",""time""
""fullscreenenter"",""1"",""1764""
","
","
","""event"",""trial"",""time""
""fullscreenenter"",""1"",""1764""
","
","","","","","","554.7000000178814","<p> <b> True or False? </b> </p><p> You will have as much time as you want to make each choice. </p>","","1","comp_question","","","true","","","","","",""
"comp-q","39","195249","0.0-12.0-1.2","1916","2","""event"",""trial"",""time""
""fullscreenenter"",""1"",""1764""
","
","
","""event"",""trial"",""time""
""fullscreenenter"",""1"",""1764""
","
","","","","","","1282.2000000178814","<p> <b> That's right! </b> You will only have 10 seconds to make each choice. </p>","","0","comp_answer","","","","","","","","",""
"learning-instructions","40","206263","0.0-13.0","1916","2","""event"",""trial"",""time""
""fullscreenenter"",""1"",""1764""
","
","
","""event"",""trial"",""time""
""fullscreenenter"",""1"",""1764""
","
","","","","","","2341","<p> Great! You are now ready to begin the game. </p><p> Remember, use the 1, 2, 3, and 4 keys to make your responses. </p>","","0","instructions","","","","","","","","",""
"preload","41","211824","0.0-14.0","1916","2","""event"",""trial"",""time""
""fullscreenenter"",""1"",""1764""
","
","
","""event"",""trial"",""time""
""fullscreenenter"",""1"",""1764""
","
","true","false","[]","[]","[]","","","","","","","","","","","","","",""
"html-keyboard-response","42","212327","0.0-15.0-0.0","1916","2","""event"",""trial"",""time""
""fullscreenenter"",""1"",""1764""
","
","
","""event"",""trial"",""time""
""fullscreenenter"",""1"",""1764""
","
","","","","","","null","<div style=""font-size:60px;"">+</div>","null","","fixation","","","","","","","","",""
"memory-trial","43","214951","0.0-15.0-1.0","1916","2","""event"",""trial"",""time""
""fullscreenenter"",""1"",""1764""
","
","
","""event"",""trial"",""time""
""fullscreenenter"",""1"",""1764""
","
","","","","","","1618.300000011921","images/train4.png","","","memory_trial","1","definitely_old","","","","","","",""
"html-keyboard-response","44","215456","0.0-15.0-0.1","1916","2","""event"",""trial"",""time""
""fullscreenenter"",""1"",""1764""
","
","
","""event"",""trial"",""time""
""fullscreenenter"",""1"",""1764""
","
","","","","","","null","<div style=""font-size:60px;"">+</div>","null","","fixation","","","","","","","","",""
"memory-trial","45","218136","0.0-15.0-1.1","1916","2","""event"",""trial"",""time""
""fullscreenenter"",""1"",""1764""
","
","
","""event"",""trial"",""time""
""fullscreenenter"",""1"",""1764""
","
","","","","","","1674.800000011921","images/apple2.png","","","memory_trial","4","definitely_new","","","","","","",""
"html-keyboard-response","46","218637","0.0-15.0-0.2","1916","2","""event"",""trial"",""time""
""fullscreenenter"",""1"",""1764""
","
","
","""event"",""trial"",""time""
""fullscreenenter"",""1"",""1764""
","
","","","","","","null","<div style=""font-size:60px;"">+</div>","null","","fixation","","","","","","","","",""
"memory-trial","47","220654","0.0-15.0-1.2","1916","2","""event"",""trial"",""time""
""fullscreenenter"",""1"",""1764""
","
","
","""event"",""trial"",""time""
""fullscreenenter"",""1"",""1764""
","
","","","","","","1013.0999999940395","images/chair3.png","","","memory_trial","4","definitely_new","","","","","","",""
"html-keyboard-response","48","221156","0.0-15.0-0.3","1916","2","""event"",""trial"",""time""
""fullscreenenter"",""1"",""1764""
","
","
","""event"",""trial"",""time""
""fullscreenenter"",""1"",""1764""
","
","","","","","","null","<div style=""font-size:60px;"">+</div>","null","","fixation","","","","","","","","",""
"memory-trial","49","223228","0.0-15.0-1.3","1916","2","""event"",""trial"",""time""
""fullscreenenter"",""1"",""1764""
","
","
","""event"",""trial"",""time""
""fullscreenenter"",""1"",""1764""
","
","","","","","","1070.800000011921","images/flower5.png","","","memory_trial","4","definitely_new","","","","","","",""
"html-keyboard-response","50","223733","0.0-15.0-0.4","1916","2","""event"",""trial"",""time""
""fullscreenenter"",""1"",""1764""
","
","
","""event"",""trial"",""time""
""fullscreenenter"",""1"",""1764""
","
","","","","","","null","<div style=""font-size:60px;"">+</div>","null","","fixation","","","","","","","","",""
"memory-trial","51","226188","0.0-15.0-1.4","1916","2","""event"",""trial"",""time""
""fullscreenenter"",""1"",""1764""
","
","
","""event"",""trial"",""time""
""fullscreenenter"",""1"",""1764""
","
","","","","","","1452.5999999940395","images/sheep1.png","","","memory_trial","4","definitely_new","","","","","","",""
"html-keyboard-response","52","226693","0.0-15.0-0.5","1916","2","""event"",""trial"",""time""
""fullscreenenter"",""1"",""1764""
","
","
","""event"",""trial"",""time""
""fullscreenenter"",""1"",""1764""
","
","","","","","","null","<div style=""font-size:60px;"">+</div>","null","","fixation","","","","","","","","",""
"memory-trial","53","229194","0.0-15.0-1.5","1916","2","""event"",""trial"",""time""
""fullscreenenter"",""1"",""1764""
","
","
","""event"",""trial"",""time""
""fullscreenenter"",""1"",""1764""
","
","","","","","","1496","images/truck1.png","","","memory_trial","4","definitely_new","","","","","","",""
"html-keyboard-response","54","229695","0.0-15.0-0.6","1916","2","""event"",""trial"",""time""
""fullscreenenter"",""1"",""1764""
","
","
","""event"",""trial"",""time""
""fullscreenenter"",""1"",""1764""
","
","","","","","","null","<div style=""font-size:60px;"">+</div>","null","","fixation","","","","","","","","",""
"memory-trial","55","232510","0.0-15.0-1.6","1916","2","""event"",""trial"",""time""
""fullscreenenter"",""1"",""1764""
","
","
","""event"",""trial"",""time""
""fullscreenenter"",""1"",""1764""
","
","","","","","","1813.4000000059605","images/orange2.png","","","memory_trial","1","definitely_old","","","","","","",""
"html-keyboard-response","56","233015","0.0-15.0-0.7","1916","2","""event"",""trial"",""time""
""fullscreenenter"",""1"",""1764""
","
","
","""event"",""trial"",""time""
""fullscreenenter"",""1"",""1764""
","
","","","","","","null","<div style=""font-size:60px;"">+</div>","null","","fixation","","","","","","","","",""
"memory-trial","57","235820","0.0-15.0-1.7","1916","2","""event"",""trial"",""time""
""fullscreenenter"",""1"",""1764""
","
","
","""event"",""trial"",""time""
""fullscreenenter"",""1"",""1764""
","
","","","","","","1800.5999999940395","images/goat2.png","","","memory_trial","2","maybe_old","","","","","","",""
"html-keyboard-response","58","236325","0.0-15.0-0.8","1916","2","""event"",""trial"",""time""
""fullscreenenter"",""1"",""1764""
","
","
","""event"",""trial"",""time""
""fullscreenenter"",""1"",""1764""
","
","","","","","","null","<div style=""font-size:60px;"">+</div>","null","","fixation","","","","","","","","",""
"memory-trial","59","238984","0.0-15.0-1.8","1916","2","""event"",""trial"",""time""
""fullscreenenter"",""1"",""1764""
","
","
","""event"",""trial"",""time""
""fullscreenenter"",""1"",""1764""
","
","","","","","","1652.6000000238419","images/train5.png","","","memory_trial","2","maybe_old","","","","","","",""
"html-keyboard-response","60","239489","0.0-15.0-0.9","1916","2","""event"",""trial"",""time""
""fullscreenenter"",""1"",""1764""
","
","
","""event"",""trial"",""time""
""fullscreenenter"",""1"",""1764""
","
","","","","","","null","<div style=""font-size:60px;"">+</div>","null","","fixation","","","","","","","","",""
"memory-trial","61","242786","0.0-15.0-1.9","1916","2","""event"",""trial"",""time""
""fullscreenenter"",""1"",""1764""
","
","
","""event"",""trial"",""time""
""fullscreenenter"",""1"",""1764""
","
","","","","","","2291.4000000059605","images/truck4.png","","","memory_trial","1","definitely_old","","","","","","",""
"html-keyboard-response","62","243291","0.0-15.0-0.10","1916","2","""event"",""trial"",""time""
""fullscreenenter"",""1"",""1764""
","
","
","""event"",""trial"",""time""
""fullscreenenter"",""1"",""1764""
","
","","","","","","null","<div style=""font-size:60px;"">+</div>","null","","fixation","","","","","","","","",""
"memory-trial","63","245595","0.0-15.0-1.10","1916","2","""event"",""trial"",""time""
""fullscreenenter"",""1"",""1764""
","
","
","""event"",""trial"",""time""
""fullscreenenter"",""1"",""1764""
","
","","","","","","1301.800000011921","images/tree4.png","","","memory_trial","1","definitely_old","","","","","","",""
"html-keyboard-response","64","246096","0.0-15.0-0.11","1916","2","""event"",""trial"",""time""
""fullscreenenter"",""1"",""1764""
","
","
","""event"",""trial"",""time""
""fullscreenenter"",""1"",""1764""
","
","","","","","","null","<div style=""font-size:60px;"">+</div>","null","","fixation","","","","","","","","",""
"memory-trial","65","248103","0.0-15.0-1.11","1916","2","""event"",""trial"",""time""
""fullscreenenter"",""1"",""1764""
","
","
","""event"",""trial"",""time""
""fullscreenenter"",""1"",""1764""
","
","","","","","","1005.1999999880791","images/feline5.png","","","memory_trial","4","definitely_new","","","","","","",""
"html-keyboard-response","66","248607","0.0-15.0-0.12","1916","2","""event"",""trial"",""time""
""fullscreenenter"",""1"",""1764""
","
","
","""event"",""trial"",""time""
""fullscreenenter"",""1"",""1764""
","
","","","","","","null","<div style=""font-size:60px;"">+</div>","null","","fixation","","","","","","","","",""
"memory-trial","67","251412","0.0-15.0-1.12","1916","2","""event"",""trial"",""time""
""fullscreenenter"",""1"",""1764""
","
","
","""event"",""trial"",""time""
""fullscreenenter"",""1"",""1764""
","
","","","","","","1802.199999988079","images/flower3.png","","","memory_trial","1","definitely_old","","","","","","",""
"html-keyboard-response","68","251917","0.0-15.0-0.13","1916","2","""event"",""trial"",""time""
""fullscreenenter"",""1"",""1764""
","
","
","""event"",""trial"",""time""
""fullscreenenter"",""1"",""1764""
","
","","","","","","null","<div style=""font-size:60px;"">+</div>","null","","fixation","","","","","","","","",""
"memory-trial","69","253920","0.0-15.0-1.13","1916","2","""event"",""trial"",""time""
""fullscreenenter"",""1"",""1764""
","
","
","""event"",""trial"",""time""
""fullscreenenter"",""1"",""1764""
","
","","","","","","1001.5999999940395","images/flower4.png","","","memory_trial","1","definitely_old","","","","","","",""
"html-keyboard-response","70","254424","0.0-15.0-0.14","1916","2","""event"",""trial"",""time""
""fullscreenenter"",""1"",""1764""
","
","
","""event"",""trial"",""time""
""fullscreenenter"",""1"",""1764""
","
","","","","","","null","<div style=""font-size:60px;"">+</div>","null","","fixation","","","","","","","","",""
"memory-trial","71","257356","0.0-15.0-1.14","1916","2","""event"",""trial"",""time""
""fullscreenenter"",""1"",""1764""
","
","
","""event"",""trial"",""time""
""fullscreenenter"",""1"",""1764""
","
","","","","","","1925.0999999940395","images/apple4.png","","","memory_trial","4","definitely_new","","","","","","",""
"html-keyboard-response","72","257860","0.0-15.0-0.15","1916","2","""event"",""trial"",""time""
""fullscreenenter"",""1"",""1764""
","
","
","""event"",""trial"",""time""
""fullscreenenter"",""1"",""1764""
","
","","","","","","null","<div style=""font-size:60px;"">+</div>","null","","fixation","","","","","","","","",""
"memory-trial","73","260258","0.0-15.0-1.15","1916","2","""event"",""trial"",""time""
""fullscreenenter"",""1"",""1764""
","
","
","""event"",""trial"",""time""
""fullscreenenter"",""1"",""1764""
","
","","","","","","1392.0999999940395","images/bush4.png","","","memory_trial","1","definitely_old","","","","","","",""
"html-keyboard-response","74","260763","0.0-15.0-0.16","1916","2","""event"",""trial"",""time""
""fullscreenenter"",""1"",""1764""
","
","
","""event"",""trial"",""time""
""fullscreenenter"",""1"",""1764""
","
","","","","","","null","<div style=""font-size:60px;"">+</div>","null","","fixation","","","","","","","","",""
"memory-trial","75","262822","0.0-15.0-1.16","1916","2","""event"",""trial"",""time""
""fullscreenenter"",""1"",""1764""
","
","
","""event"",""trial"",""time""
""fullscreenenter"",""1"",""1764""
","
","","","","","","1053.800000011921","images/tree2.png","","","memory_trial","4","definitely_new","","","","","","",""
"html-keyboard-response","76","263323","0.0-15.0-0.17","1916","2","""event"",""trial"",""time""
""fullscreenenter"",""1"",""1764""
","
","
","""event"",""trial"",""time""
""fullscreenenter"",""1"",""1764""
","
","","","","","","null","<div style=""font-size:60px;"">+</div>","null","","fixation","","","","","","","","",""
"memory-trial","77","265295","0.0-15.0-1.17","1916","2","""event"",""trial"",""time""
""fullscreenenter"",""1"",""1764""
","
","
","""event"",""trial"",""time""
""fullscreenenter"",""1"",""1764""
","
","","","","","","969.5","images/plane4.png","","","memory_trial","4","definitely_new","","","","","","",""
"html-keyboard-response","78","265796","0.0-15.0-0.18","1916","2","""event"",""trial"",""time""
""fullscreenenter"",""1"",""1764""
","
","
","""event"",""trial"",""time""
""fullscreenenter"",""1"",""1764""
","
","","","","","","null","<div style=""font-size:60px;"">+</div>","null","","fixation","","","","","","","","",""
"memory-trial","79","267851","0.0-15.0-1.18","1916","2","""event"",""trial"",""time""
""fullscreenenter"",""1"",""1764""
","
","
","""event"",""trial"",""time""
""fullscreenenter"",""1"",""1764""
","
","","","","","","1050.5","images/feline4.png","","","memory_trial","4","definitely_new","","","","","","",""
"html-keyboard-response","80","268356","0.0-15.0-0.19","1916","2","""event"",""trial"",""time""
""fullscreenenter"",""1"",""1764""
","
","
","""event"",""trial"",""time""
""fullscreenenter"",""1"",""1764""
","
","","","","","","null","<div style=""font-size:60px;"">+</div>","null","","fixation","","","","","","","","",""
"memory-trial","81","270481","0.0-15.0-1.19","1916","2","""event"",""trial"",""time""
""fullscreenenter"",""1"",""1764""
","
","
","""event"",""trial"",""time""
""fullscreenenter"",""1"",""1764""
","
","","","","","","1123.199999988079","images/sofa5.png","","","memory_trial","1","definitely_old","","","","","","",""
"html-keyboard-response","82","270985","0.0-15.0-0.20","1916","2","""event"",""trial"",""time""
""fullscreenenter"",""1"",""1764""
","
","
","""event"",""trial"",""time""
""fullscreenenter"",""1"",""1764""
","
","","","","","","null","<div style=""font-size:60px;"">+</div>","null","","fixation","","","","","","","","",""
"memory-trial","83","272854","0.0-15.0-1.20","1916","2","""event"",""trial"",""time""
""fullscreenenter"",""1"",""1764""
","
","
","""event"",""trial"",""time""
""fullscreenenter"",""1"",""1764""
","
","","","","","","866.9000000059605","images/sofa2.png","","","memory_trial","1","definitely_old","","","","","","",""
"html-keyboard-response","84","273360","0.0-15.0-0.21","1916","2","""event"",""trial"",""time""
""fullscreenenter"",""1"",""1764""
","
","
","""event"",""trial"",""time""
""fullscreenenter"",""1"",""1764""
","
","","","","","","null","<div style=""font-size:60px;"">+</div>","null","","fixation","","","","","","","","",""
"memory-trial","85","275757","0.0-15.0-1.21","1916","2","""event"",""trial"",""time""
""fullscreenenter"",""1"",""1764""
","
","
","""event"",""trial"",""time""
""fullscreenenter"",""1"",""1764""
","
","","","","","","1396","images/plane2.png","","","memory_trial","1","definitely_old","","","","","","",""
"html-keyboard-response","86","276262","0.0-15.0-0.22","1916","2","""event"",""trial"",""time""
""fullscreenenter"",""1"",""1764""
","
","
","""event"",""trial"",""time""
""fullscreenenter"",""1"",""1764""
","
","","","","","","null","<div style=""font-size:60px;"">+</div>","null","","fixation","","","","","","","","",""
"memory-trial","87","278439","0.0-15.0-1.22","1916","2","""event"",""trial"",""time""
""fullscreenenter"",""1"",""1764""
","
","
","""event"",""trial"",""time""
""fullscreenenter"",""1"",""1764""
","
","","","","","","1170.800000011921","images/goat4.png","","","memory_trial","4","definitely_new","","","","","","",""
"html-keyboard-response","88","278944","0.0-15.0-0.23","1916","2","""event"",""trial"",""time""
""fullscreenenter"",""1"",""1764""
","
","
","""event"",""trial"",""time""
""fullscreenenter"",""1"",""1764""
","
","","","","","","null","<div style=""font-size:60px;"">+</div>","null","","fixation","","","","","","","","",""
"memory-trial","89","281353","0.0-15.0-1.23","1916","2","""event"",""trial"",""time""
""fullscreenenter"",""1"",""1764""
","
","
","""event"",""trial"",""time""
""fullscreenenter"",""1"",""1764""
","
","","","","","","1402.5","images/bush5.png","","","memory_trial","4","definitely_new","","","","","","",""
"html-keyboard-response","90","281858","0.0-15.0-0.24","1916","2","""event"",""trial"",""time""
""fullscreenenter"",""1"",""1764""
","
","
","""event"",""trial"",""time""
""fullscreenenter"",""1"",""1764""
","
","","","","","","null","<div style=""font-size:60px;"">+</div>","null","","fixation","","","","","","","","",""
"memory-trial","91","284093","0.0-15.0-1.24","1916","2","""event"",""trial"",""time""
""fullscreenenter"",""1"",""1764""
","
","
","""event"",""trial"",""time""
""fullscreenenter"",""1"",""1764""
","
","","","","","","1233.800000011921","images/table4.png","","","memory_trial","4","definitely_new","","","","","","",""
"html-keyboard-response","92","284594","0.0-15.0-0.25","1916","2","""event"",""trial"",""time""
""fullscreenenter"",""1"",""1764""
","
","
","""event"",""trial"",""time""
""fullscreenenter"",""1"",""1764""
","
","","","","","","null","<div style=""font-size:60px;"">+</div>","null","","fixation","","","","","","","","",""
"memory-trial","93","286571","0.0-15.0-1.25","1916","2","""event"",""trial"",""time""
""fullscreenenter"",""1"",""1764""
","
","
","""event"",""trial"",""time""
""fullscreenenter"",""1"",""1764""
","
","","","","","","973","images/flower1.png","","","memory_trial","4","definitely_new","","","","","","",""
"html-keyboard-response","94","287076","0.0-15.0-0.26","1916","2","""event"",""trial"",""time""
""fullscreenenter"",""1"",""1764""
","
","
","""event"",""trial"",""time""
""fullscreenenter"",""1"",""1764""
","
","","","","","","null","<div style=""font-size:60px;"">+</div>","null","","fixation","","","","","","","","",""
"memory-trial","95","289044","0.0-15.0-1.26","1916","2","""event"",""trial"",""time""
""fullscreenenter"",""1"",""1764""
","
","
","""event"",""trial"",""time""
""fullscreenenter"",""1"",""1764""
","
","","","","","","965.6999999880791","images/truck5.png","","","memory_trial","4","definitely_new","","","","","","",""
"html-keyboard-response","96","289549","0.0-15.0-0.27","1916","2","""event"",""trial"",""time""
""fullscreenenter"",""1"",""1764""
","
","
","""event"",""trial"",""time""
""fullscreenenter"",""1"",""1764""
","
","","","","","","null","<div style=""font-size:60px;"">+</div>","null","","fixation","","","","","","","","",""
"memory-trial","97","291523","0.0-15.0-1.27","1916","2","""event"",""trial"",""time""
""fullscreenenter"",""1"",""1764""
","
","
","""event"",""trial"",""time""
""fullscreenenter"",""1"",""1764""
","
","","","","","","968.2000000178814","images/banana2.png","","","memory_trial","1","definitely_old","","","","","","",""
"html-keyboard-response","98","292028","0.0-15.0-0.28","1916","2","""event"",""trial"",""time""
""fullscreenenter"",""1"",""1764""
","
","
","""event"",""trial"",""time""
""fullscreenenter"",""1"",""1764""
","
","","","","","","null","<div style=""font-size:60px;"">+</div>","null","","fixation","","","","","","","","",""
"memory-trial","99","294129","0.0-15.0-1.28","1916","2","""event"",""trial"",""time""
""fullscreenenter"",""1"",""1764""
","
","
","""event"",""trial"",""time""
""fullscreenenter"",""1"",""1764""
","
","","","","","","1099.699999988079","images/dog3.png","","","memory_trial","4","definitely_new","","","","","","",""
"html-keyboard-response","100","294634","0.0-15.0-0.29","1916","2","""event"",""trial"",""time""
""fullscreenenter"",""1"",""1764""
","
","
","""event"",""trial"",""time""
""fullscreenenter"",""1"",""1764""
","
","","","","","","null","<div style=""font-size:60px;"">+</div>","null","","fixation","","","","","","","","",""
"memory-trial","101","296695","0.0-15.0-1.29","1916","2","""event"",""trial"",""time""
""fullscreenenter"",""1"",""1764""
","
","
","""event"",""trial"",""time""
""fullscreenenter"",""1"",""1764""
","
","","","","","","1058.300000011921","images/banana4.png","","","memory_trial","1","definitely_old","","","","","","",""
"html-keyboard-response","102","297198","0.0-15.0-0.30","1916","2","""event"",""trial"",""time""
""fullscreenenter"",""1"",""1764""
","
","
","""event"",""trial"",""time""
""fullscreenenter"",""1"",""1764""
","
","","","","","","null","<div style=""font-size:60px;"">+</div>","null","","fixation","","","","","","","","",""
"memory-trial","103","299116","0.0-15.0-1.30","1916","2","""event"",""trial"",""time""
""fullscreenenter"",""1"",""1764""
","
","
","""event"",""trial"",""time""
""fullscreenenter"",""1"",""1764""
","
","","","","","","913.5999999940395","images/horse3.png","","","memory_trial","1","definitely_old","","","","","","",""
"html-keyboard-response","104","299621","0.0-15.0-0.31","1916","2","""event"",""trial"",""time""
""fullscreenenter"",""1"",""1764""
","
","
","""event"",""trial"",""time""
""fullscreenenter"",""1"",""1764""
","
","","","","","","null","<div style=""font-size:60px;"">+</div>","null","","fixation","","","","","","","","",""
"memory-trial","105","301467","0.0-15.0-1.31","1916","2","""event"",""trial"",""time""
""fullscreenenter"",""1"",""1764""
","
","
","""event"",""trial"",""time""
""fullscreenenter"",""1"",""1764""
","
","","","","","","842.0999999940395","images/horse1.png","","","memory_trial","1","definitely_old","","","","","","",""
"html-keyboard-response","106","301972","0.0-15.0-0.32","1916","2","""event"",""trial"",""time""
""fullscreenenter"",""1"",""1764""
","
","
","""event"",""trial"",""time""
""fullscreenenter"",""1"",""1764""
","
","","","","","","null","<div style=""font-size:60px;"">+</div>","null","","fixation","","","","","","","","",""
"memory-trial","107","303849","0.0-15.0-1.32","1916","2","""event"",""trial"",""time""
""fullscreenenter"",""1"",""1764""
","
","
","""event"",""trial"",""time""
""fullscreenenter"",""1"",""1764""
","
","","","","","","876.2999999821186","images/bed2.png","","","memory_trial","4","definitely_new","","","","","","",""
"html-keyboard-response","108","304351","0.0-15.0-0.33","1916","2","""event"",""trial"",""time""
""fullscreenenter"",""1"",""1764""
","
","
","""event"",""trial"",""time""
""fullscreenenter"",""1"",""1764""
","
","","","","","","null","<div style=""font-size:60px;"">+</div>","null","","fixation","","","","","","","","",""
"memory-trial","109","306935","0.0-15.0-1.33","1916","2","""event"",""trial"",""time""
""fullscreenenter"",""1"",""1764""
","
","
","""event"",""trial"",""time""
""fullscreenenter"",""1"",""1764""
","
","","","","","","1579.2999999821186","images/chair2.png","","","memory_trial","1","definitely_old","","","","","","",""
"html-keyboard-response","110","307440","0.0-15.0-0.34","1916","2","""event"",""trial"",""time""
""fullscreenenter"",""1"",""1764""
","
","
","""event"",""trial"",""time""
""fullscreenenter"",""1"",""1764""
","
","","","","","","null","<div style=""font-size:60px;"">+</div>","null","","fixation","","","","","","","","",""
"memory-trial","111","309320","0.0-15.0-1.34","1916","2","""event"",""trial"",""time""
""fullscreenenter"",""1"",""1764""
","
","
","""event"",""trial"",""time""
""fullscreenenter"",""1"",""1764""
","
","","","","","","875.4000000059605","images/rodent5.png","","","memory_trial","1","definitely_old","","","","","","",""
"html-keyboard-response","112","309825","0.0-15.0-0.35","1916","2","""event"",""trial"",""time""
""fullscreenenter"",""1"",""1764""
","
","
","""event"",""trial"",""time""
""fullscreenenter"",""1"",""1764""
","
","","","","","","null","<div style=""font-size:60px;"">+</div>","null","","fixation","","","","","","","","",""
"memory-trial","113","312895","0.0-15.0-1.35","1916","2","""event"",""trial"",""time""
""fullscreenenter"",""1"",""1764""
","
","
","""event"",""trial"",""time""
""fullscreenenter"",""1"",""1764""
","
","","","","","","2068.0999999940395","images/tree1.png","","","memory_trial","4","definitely_new","","","","","","",""
"html-keyboard-response","114","313397","0.0-15.0-0.36","1916","2","""event"",""trial"",""time""
""fullscreenenter"",""1"",""1764""
","
","
","""event"",""trial"",""time""
""fullscreenenter"",""1"",""1764""
","
","","","","","","null","<div style=""font-size:60px;"">+</div>","null","","fixation","","","","","","","","",""
"memory-trial","115","315555","0.0-15.0-1.36","1916","2","""event"",""trial"",""time""
""fullscreenenter"",""1"",""1764""
","
","
","""event"",""trial"",""time""
""fullscreenenter"",""1"",""1764""
","
","","","","","","1151.2000000178814","images/train1.png","","","memory_trial","1","definitely_old","","","","","","",""
"html-keyboard-response","116","316060","0.0-15.0-0.37","1916","2","""event"",""trial"",""time""
""fullscreenenter"",""1"",""1764""
","
","
","""event"",""trial"",""time""
""fullscreenenter"",""1"",""1764""
","
","","","","","","null","<div style=""font-size:60px;"">+</div>","null","","fixation","","","","","","","","",""
"memory-trial","117","318093","0.0-15.0-1.37","1916","2","""event"",""trial"",""time""
""fullscreenenter"",""1"",""1764""
","
","
","""event"",""trial"",""time""
""fullscreenenter"",""1"",""1764""
","
","","","","","","1031.5999999940395","images/orange1.png","","","memory_trial","1","definitely_old","","","","","","",""
"html-keyboard-response","118","318595","0.0-15.0-0.38","1916","2","""event"",""trial"",""time""
""fullscreenenter"",""1"",""1764""
","
","
","""event"",""trial"",""time""
""fullscreenenter"",""1"",""1764""
","
","","","","","","null","<div style=""font-size:60px;"">+</div>","null","","fixation","","","","","","","","",""
"memory-trial","119","320860","0.0-15.0-1.38","1916","2","""event"",""trial"",""time""
""fullscreenenter"",""1"",""1764""
","
","
","""event"",""trial"",""time""
""fullscreenenter"",""1"",""1764""
","
","","","","","","1263.199999988079","images/cactus3.png","","","memory_trial","1","definitely_old","","","","","","",""
"html-keyboard-response","120","321365","0.0-15.0-0.39","1916","2","""event"",""trial"",""time""
""fullscreenenter"",""1"",""1764""
","
","
","""event"",""trial"",""time""
""fullscreenenter"",""1"",""1764""
","
","","","","","","null","<div style=""font-size:60px;"">+</div>","null","","fixation","","","","","","","","",""
"memory-trial","121","323369","0.0-15.0-1.39","1916","2","""event"",""trial"",""time""
""fullscreenenter"",""1"",""1764""
","
","
","""event"",""trial"",""time""
""fullscreenenter"",""1"",""1764""
","
","","","","","","1002.0999999940395","images/tree3.png","","","memory_trial","4","definitely_new","","","","","","",""
"html-keyboard-response","122","323871","0.0-15.0-0.40","1916","2","""event"",""trial"",""time""
""fullscreenenter"",""1"",""1764""
","
","
","""event"",""trial"",""time""
""fullscreenenter"",""1"",""1764""
","
","","","","","","null","<div style=""font-size:60px;"">+</div>","null","","fixation","","","","","","","","",""
"memory-trial","123","326543","0.0-15.0-1.40","1916","2","""event"",""trial"",""time""
""fullscreenenter"",""1"",""1764""
","
","
","""event"",""trial"",""time""
""fullscreenenter"",""1"",""1764""
","
","","","","","","1669.800000011921","images/cow1.png","","","memory_trial","1","definitely_old","","","","","","",""
"html-keyboard-response","124","327048","0.0-15.0-0.41","1916","2","""event"",""trial"",""time""
""fullscreenenter"",""1"",""1764""
","
","
","""event"",""trial"",""time""
""fullscreenenter"",""1"",""1764""
","
","","","","","","null","<div style=""font-size:60px;"">+</div>","null","","fixation","","","","","","","","",""
"memory-trial","125","329190","0.0-15.0-1.41","1916","2","""event"",""trial"",""time""
""fullscreenenter"",""1"",""1764""
","
","
","""event"",""trial"",""time""
""fullscreenenter"",""1"",""1764""
","
","","","","","","1135.5","images/sofa1.png","","","memory_trial","1","definitely_old","","","","","","",""
"html-keyboard-response","126","329691","0.0-15.0-0.42","1916","2","""event"",""trial"",""time""
""fullscreenenter"",""1"",""1764""
","
","
","""event"",""trial"",""time""
""fullscreenenter"",""1"",""1764""
","
","","","","","","null","<div style=""font-size:60px;"">+</div>","null","","fixation","","","","","","","","",""
"memory-trial","127","331605","0.0-15.0-1.42","1916","2","""event"",""trial"",""time""
""fullscreenenter"",""1"",""1764""
","
","
","""event"",""trial"",""time""
""fullscreenenter"",""1"",""1764""
","
","","","","","","911.4000000059605","images/goat3.png","","","memory_trial","4","definitely_new","","","","","","",""
"html-keyboard-response","128","332110","0.0-15.0-0.43","1916","2","""event"",""trial"",""time""
""fullscreenenter"",""1"",""1764""
","
","
","""event"",""trial"",""time""
""fullscreenenter"",""1"",""1764""
","
","","","","","","null","<div style=""font-size:60px;"">+</div>","null","","fixation","","","","","","","","",""
"memory-trial","129","334780","0.0-15.0-1.43","1916","2","""event"",""trial"",""time""
""fullscreenenter"",""1"",""1764""
","
","
","""event"",""trial"",""time""
""fullscreenenter"",""1"",""1764""
","
","","","","","","1665.5","images/rodent3.png","","","memory_trial","1","definitely_old","","","","","","",""
"html-keyboard-response","130","335285","0.0-15.0-0.44","1916","2","""event"",""trial"",""time""
""fullscreenenter"",""1"",""1764""
","
","
","""event"",""trial"",""time""
""fullscreenenter"",""1"",""1764""
","
","","","","","","null","<div style=""font-size:60px;"">+</div>","null","","fixation","","","","","","","","",""
"memory-trial","131","339099","0.0-15.0-1.44","1916","2","""event"",""trial"",""time""
""fullscreenenter"",""1"",""1764""
","
","
","""event"",""trial"",""time""
""fullscreenenter"",""1"",""1764""
","
","","","","","","2810","images/cow4.png","","","memory_trial","1","definitely_old","","","","","","",""
"html-keyboard-response","132","339603","0.0-15.0-0.45","1916","2","""event"",""trial"",""time""
""fullscreenenter"",""1"",""1764""
","
","
","""event"",""trial"",""time""
""fullscreenenter"",""1"",""1764""
","
","","","","","","null","<div style=""font-size:60px;"">+</div>","null","","fixation","","","","","","","","",""
"memory-trial","133","341584","0.0-15.0-1.45","1916","2","""event"",""trial"",""time""
""fullscreenenter"",""1"",""1764""
","
","
","""event"",""trial"",""time""
""fullscreenenter"",""1"",""1764""
","
","","","","","","977.8999999761581","images/boat4.png","","","memory_trial","1","definitely_old","","","","","","",""
"html-keyboard-response","134","342089","0.0-15.0-0.46","1916","2","""event"",""trial"",""time""
""fullscreenenter"",""1"",""1764""
","
","
","""event"",""trial"",""time""
""fullscreenenter"",""1"",""1764""
","
","","","","","","null","<div style=""font-size:60px;"">+</div>","null","","fixation","","","","","","","","",""
"memory-trial","135","344677","0.0-15.0-1.46","1916","2","""event"",""trial"",""time""
""fullscreenenter"",""1"",""1764""
","
","
","""event"",""trial"",""time""
""fullscreenenter"",""1"",""1764""
","
","","","","","","1587.1000000238419","images/train3.png","","","memory_trial","1","definitely_old","","","","","","",""
"html-button-response","136","348064","0.0-15.0-2.46-0.46","1916","2","""event"",""trial"",""time""
""fullscreenenter"",""1"",""1764""
","
","
","""event"",""trial"",""time""
""fullscreenenter"",""1"",""1764""
","
","","","","","","3385.899999976158","<p> Take a break! </p><p> Click the button to continue. </p>","0","","break","","","","","","","","",""
"html-keyboard-response","137","348567","0.0-15.0-0.47","1916","2","""event"",""trial"",""time""
""fullscreenenter"",""1"",""1764""
","
","
","""event"",""trial"",""time""
""fullscreenenter"",""1"",""1764""
","
","","","","","","null","<div style=""font-size:60px;"">+</div>","null","","fixation","","","","","","","","",""
"memory-trial","138","350854","0.0-15.0-1.47","1916","2","""event"",""trial"",""time""
""fullscreenenter"",""1"",""1764""
","
","
","""event"",""trial"",""time""
""fullscreenenter"",""1"",""1764""
","
","","","","","","1285.5","images/cow5.png","","","memory_trial","1","definitely_old","","","","","","",""
"html-keyboard-response","139","351359","0.0-15.0-0.48","1916","2","""event"",""trial"",""time""
""fullscreenenter"",""1"",""1764""
","
","
","""event"",""trial"",""time""
""fullscreenenter"",""1"",""1764""
","
","","","","","","null","<div style=""font-size:60px;"">+</div>","null","","fixation","","","","","","","","",""
"memory-trial","140","353559","0.0-15.0-1.48","1916","2","""event"",""trial"",""time""
""fullscreenenter"",""1"",""1764""
","
","
","""event"",""trial"",""time""
""fullscreenenter"",""1"",""1764""
","
","","","","","","1194.2000000178814","images/straw3.png","","","memory_trial","1","definitely_old","","","","","","",""
"html-keyboard-response","141","354064","0.0-15.0-0.49","1916","2","""event"",""trial"",""time""
""fullscreenenter"",""1"",""1764""
","
","
","""event"",""trial"",""time""
""fullscreenenter"",""1"",""1764""
","
","","","","","","null","<div style=""font-size:60px;"">+</div>","null","","fixation","","","","","","","","",""
"memory-trial","142","359282","0.0-15.0-1.49","1916","2","""event"",""trial"",""time""
""fullscreenenter"",""1"",""1764""
","
","
","""event"",""trial"",""time""
""fullscreenenter"",""1"",""1764""
","
","","","","","","4214.9000000059605","images/rodent1.png","","","memory_trial","1","definitely_old","","","","","","",""
"html-keyboard-response","143","359787","0.0-15.0-0.50","1916","2","""event"",""trial"",""time""
""fullscreenenter"",""1"",""1764""
","
","
","""event"",""trial"",""time""
""fullscreenenter"",""1"",""1764""
","
","","","","","","null","<div style=""font-size:60px;"">+</div>","null","","fixation","","","","","","","","",""
"memory-trial","144","361599","0.0-15.0-1.50","1916","2","""event"",""trial"",""time""
""fullscreenenter"",""1"",""1764""
","
","
","""event"",""trial"",""time""
""fullscreenenter"",""1"",""1764""
","
","","","","","","809","images/rodent2.png","","","memory_trial","1","definitely_old","","","","","","",""
"html-keyboard-response","145","362103","0.0-15.0-0.51","1916","2","""event"",""trial"",""time""
""fullscreenenter"",""1"",""1764""
","
","
","""event"",""trial"",""time""
""fullscreenenter"",""1"",""1764""
","
","","","","","","null","<div style=""font-size:60px;"">+</div>","null","","fixation","","","","","","","","",""
"memory-trial","146","364121","0.0-15.0-1.51","1916","2","""event"",""trial"",""time""
""fullscreenenter"",""1"",""1764""
","
","
","""event"",""trial"",""time""
""fullscreenenter"",""1"",""1764""
","
","","","","","","1014.5","images/cactus1.png","","","memory_trial","1","definitely_old","","","","","","",""
"html-keyboard-response","147","364623","0.0-15.0-0.52","1916","2","""event"",""trial"",""time""
""fullscreenenter"",""1"",""1764""
","
","
","""event"",""trial"",""time""
""fullscreenenter"",""1"",""1764""
","
","","","","","","null","<div style=""font-size:60px;"">+</div>","null","","fixation","","","","","","","","",""
"memory-trial","148","366428","0.0-15.0-1.52","1916","2","""event"",""trial"",""time""
""fullscreenenter"",""1"",""1764""
","
","
","""event"",""trial"",""time""
""fullscreenenter"",""1"",""1764""
","
","","","","","","800.2000000178814","images/banana5.png","","","memory_trial","1","definitely_old","","","","","","",""
"html-keyboard-response","149","366933","0.0-15.0-0.53","1916","2","""event"",""trial"",""time""
""fullscreenenter"",""1"",""1764""
","
","
","""event"",""trial"",""time""
""fullscreenenter"",""1"",""1764""
","
","","","","","","null","<div style=""font-size:60px;"">+</div>","null","","fixation","","","","","","","","",""
"memory-trial","150","369002","0.0-15.0-1.53","1916","2","""event"",""trial"",""time""
""fullscreenenter"",""1"",""1764""
","
","
","""event"",""trial"",""time""
""fullscreenenter"",""1"",""1764""
","
","","","","","","1066.4000000059605","images/rabbit3.png","","","memory_trial","4","definitely_new","","","","","","",""
"html-keyboard-response","151","369505","0.0-15.0-0.54","1916","2","""event"",""trial"",""time""
""fullscreenenter"",""1"",""1764""
","
","
","""event"",""trial"",""time""
""fullscreenenter"",""1"",""1764""
","
","","","","","","null","<div style=""font-size:60px;"">+</div>","null","","fixation","","","","","","","","",""
"memory-trial","152","371466","0.0-15.0-1.54","1916","2","""event"",""trial"",""time""
""fullscreenenter"",""1"",""1764""
","
","
","""event"",""trial"",""time""
""fullscreenenter"",""1"",""1764""
","
","","","","","","958.8000000119209","images/bush1.png","","","memory_trial","1","definitely_old","","","","","","",""
"html-keyboard-response","153","371972","0.0-15.0-0.55","1916","2","""event"",""trial"",""time""
""fullscreenenter"",""1"",""1764""
","
","
","""event"",""trial"",""time""
""fullscreenenter"",""1"",""1764""
","
","","","","","","null","<div style=""font-size:60px;"">+</div>","null","","fixation","","","","","","","","",""
"memory-trial","154","374121","0.0-15.0-1.55","1916","2","""event"",""trial"",""time""
""fullscreenenter"",""1"",""1764""
","
","
","""event"",""trial"",""time""
""fullscreenenter"",""1"",""1764""
","
","","","","","","1147.1000000238419","images/plane1.png","","","memory_trial","1","definitely_old","","","","","","",""
"html-keyboard-response","155","374624","0.0-15.0-0.56","1916","2","""event"",""trial"",""time""
""fullscreenenter"",""1"",""1764""
","
","
","""event"",""trial"",""time""
""fullscreenenter"",""1"",""1764""
","
","","","","","","null","<div style=""font-size:60px;"">+</div>","null","","fixation","","","","","","","","",""
"memory-trial","156","376551","0.0-15.0-1.56","1916","2","""event"",""trial"",""time""
""fullscreenenter"",""1"",""1764""
","
","
","""event"",""trial"",""time""
""fullscreenenter"",""1"",""1764""
","
","","","","","","923.9000000059605","images/sofa4.png","","","memory_trial","4","definitely_new","","","","","","",""
"html-keyboard-response","157","377057","0.0-15.0-0.57","1916","2","""event"",""trial"",""time""
""fullscreenenter"",""1"",""1764""
","
","
","""event"",""trial"",""time""
""fullscreenenter"",""1"",""1764""
","
","","","","","","null","<div style=""font-size:60px;"">+</div>","null","","fixation","","","","","","","","",""
"memory-trial","158","379739","0.0-15.0-1.57","1916","2","""event"",""trial"",""time""
""fullscreenenter"",""1"",""1764""
","
","
","""event"",""trial"",""time""
""fullscreenenter"",""1"",""1764""
","
","","","","","","1675.699999988079","images/feline1.png","","","memory_trial","4","definitely_new","","","","","","",""
"html-keyboard-response","159","380243","0.0-15.0-0.58","1916","2","""event"",""trial"",""time""
""fullscreenenter"",""1"",""1764""
","
","
","""event"",""trial"",""time""
""fullscreenenter"",""1"",""1764""
","
","","","","","","null","<div style=""font-size:60px;"">+</div>","null","","fixation","","","","","","","","",""
"memory-trial","160","382054","0.0-15.0-1.58","1916","2","""event"",""trial"",""time""
""fullscreenenter"",""1"",""1764""
","
","
","""event"",""trial"",""time""
""fullscreenenter"",""1"",""1764""
","
","","","","","","807.2000000178814","images/cactus2.png","","","memory_trial","1","definitely_old","","","","","","",""
"html-keyboard-response","161","382560","0.0-15.0-0.59","1916","2","""event"",""trial"",""time""
""fullscreenenter"",""1"",""1764""
","
","
","""event"",""trial"",""time""
""fullscreenenter"",""1"",""1764""
","
","","","","","","null","<div style=""font-size:60px;"">+</div>","null","","fixation","","","","","","","","",""
"memory-trial","162","384742","0.0-15.0-1.59","1916","2","""event"",""trial"",""time""
""fullscreenenter"",""1"",""1764""
","
","
","""event"",""trial"",""time""
""fullscreenenter"",""1"",""1764""
","
","","","","","","1179.2999999821186","images/dog1.png","","","memory_trial","4","definitely_new","","","","","","",""
"html-keyboard-response","163","385247","0.0-15.0-0.60","1916","2","""event"",""trial"",""time""
""fullscreenenter"",""1"",""1764""
","
","
","""event"",""trial"",""time""
""fullscreenenter"",""1"",""1764""
","
","","","","","","null","<div style=""font-size:60px;"">+</div>","null","","fixation","","","","","","","","",""
"memory-trial","164","387488","0.0-15.0-1.60","1916","2","""event"",""trial"",""time""
""fullscreenenter"",""1"",""1764""
","
","
","""event"",""trial"",""time""
""fullscreenenter"",""1"",""1764""
","
","","","","","","1236.800000011921","images/horse2.png","","","memory_trial","4","definitely_new","","","","","","",""
"html-keyboard-response","165","387989","0.0-15.0-0.61","1916","2","""event"",""trial"",""time""
""fullscreenenter"",""1"",""1764""
","
","
","""event"",""trial"",""time""
""fullscreenenter"",""1"",""1764""
","
","","","","","","null","<div style=""font-size:60px;"">+</div>","null","","fixation","","","","","","","","",""
"memory-trial","166","390762","0.0-15.0-1.61","1916","2","""event"",""trial"",""time""
""fullscreenenter"",""1"",""1764""
","
","
","""event"",""trial"",""time""
""fullscreenenter"",""1"",""1764""
","
","","","","","","1768.9000000059605","images/chair1.png","","","memory_trial","4","definitely_new","","","","","","",""
"html-keyboard-response","167","391267","0.0-15.0-0.62","1916","2","""event"",""trial"",""time""
""fullscreenenter"",""1"",""1764""
","
","
","""event"",""trial"",""time""
""fullscreenenter"",""1"",""1764""
","
","","","","","","null","<div style=""font-size:60px;"">+</div>","null","","fixation","","","","","","","","",""
"memory-trial","168","393246","0.0-15.0-1.62","1916","2","""event"",""trial"",""time""
""fullscreenenter"",""1"",""1764""
","
","
","""event"",""trial"",""time""
""fullscreenenter"",""1"",""1764""
","
","","","","","","977.3999999761581","images/goat1.png","","","memory_trial","1","definitely_old","","","","","","",""
"html-keyboard-response","169","393751","0.0-15.0-0.63","1916","2","""event"",""trial"",""time""
""fullscreenenter"",""1"",""1764""
","
","
","""event"",""trial"",""time""
""fullscreenenter"",""1"",""1764""
","
","","","","","","null","<div style=""font-size:60px;"">+</div>","null","","fixation","","","","","","","","",""
"memory-trial","170","396669","0.0-15.0-1.63","1916","2","""event"",""trial"",""time""
""fullscreenenter"",""1"",""1764""
","
","
","""event"",""trial"",""time""
""fullscreenenter"",""1"",""1764""
","
","","","","","","1913.300000011921","images/train2.png","","","memory_trial","1","definitely_old","","","","","","",""
"html-keyboard-response","171","397170","0.0-15.0-0.64","1916","2","""event"",""trial"",""time""
""fullscreenenter"",""1"",""1764""
","
","
","""event"",""trial"",""time""
""fullscreenenter"",""1"",""1764""
","
","","","","","","null","<div style=""font-size:60px;"">+</div>","null","","fixation","","","","","","","","",""
"memory-trial","172","399819","0.0-15.0-1.64","1916","2","""event"",""trial"",""time""
""fullscreenenter"",""1"",""1764""
","
","
","""event"",""trial"",""time""
""fullscreenenter"",""1"",""1764""
","
","","","","","","1644","images/straw1.png","","","memory_trial","1","definitely_old","","","","","","",""
"html-keyboard-response","173","400324","0.0-15.0-0.65","1916","2","""event"",""trial"",""time""
""fullscreenenter"",""1"",""1764""
","
","
","""event"",""trial"",""time""
""fullscreenenter"",""1"",""1764""
","
","","","","","","null","<div style=""font-size:60px;"">+</div>","null","","fixation","","","","","","","","",""
"memory-trial","174","403027","0.0-15.0-1.65","1916","2","""event"",""trial"",""time""
""fullscreenenter"",""1"",""1764""
","
","
","""event"",""trial"",""time""
""fullscreenenter"",""1"",""1764""
","
","","","","","","1696.9000000059605","images/apple5.png","","","memory_trial","1","definitely_old","","","","","","",""
"html-keyboard-response","175","403532","0.0-15.0-0.66","1916","2","""event"",""trial"",""time""
""fullscreenenter"",""1"",""1764""
","
","
","""event"",""trial"",""time""
""fullscreenenter"",""1"",""1764""
","
","","","","","","null","<div style=""font-size:60px;"">+</div>","null","","fixation","","","","","","","","",""
"memory-trial","176","405611","0.0-15.0-1.66","1916","2","""event"",""trial"",""time""
""fullscreenenter"",""1"",""1764""
","
","
","""event"",""trial"",""time""
""fullscreenenter"",""1"",""1764""
","
","","","","","","1076","images/sofa3.png","","","memory_trial","4","definitely_new","","","","","","",""
"html-keyboard-response","177","406116","0.0-15.0-0.67","1916","2","""event"",""trial"",""time""
""fullscreenenter"",""1"",""1764""
","
","
","""event"",""trial"",""time""
""fullscreenenter"",""1"",""1764""
","
","","","","","","null","<div style=""font-size:60px;"">+</div>","null","","fixation","","","","","","","","",""
"memory-trial","178","407954","0.0-15.0-1.67","1916","2","""event"",""trial"",""time""
""fullscreenenter"",""1"",""1764""
","
","
","""event"",""trial"",""time""
""fullscreenenter"",""1"",""1764""
","
","","","","","","833.3000000119209","images/sheep3.png","","","memory_trial","4","definitely_new","","","","","","",""
"html-keyboard-response","179","408455","0.0-15.0-0.68","1916","2","""event"",""trial"",""time""
""fullscreenenter"",""1"",""1764""
","
","
","""event"",""trial"",""time""
""fullscreenenter"",""1"",""1764""
","
","","","","","","null","<div style=""font-size:60px;"">+</div>","null","","fixation","","","","","","","","",""
"memory-trial","180","410539","0.0-15.0-1.68","1916","2","""event"",""trial"",""time""
""fullscreenenter"",""1"",""1764""
","
","
","""event"",""trial"",""time""
""fullscreenenter"",""1"",""1764""
","
","","","","","","1081.5999999940395","images/straw4.png","","","memory_trial","4","definitely_new","","","","","","",""
"html-keyboard-response","181","411044","0.0-15.0-0.69","1916","2","""event"",""trial"",""time""
""fullscreenenter"",""1"",""1764""
","
","
","""event"",""trial"",""time""
""fullscreenenter"",""1"",""1764""
","
","","","","","","null","<div style=""font-size:60px;"">+</div>","null","","fixation","","","","","","","","",""
"memory-trial","182","413917","0.0-15.0-1.69","1916","2","""event"",""trial"",""time""
""fullscreenenter"",""1"",""1764""
","
","
","""event"",""trial"",""time""
""fullscreenenter"",""1"",""1764""
","
","","","","","","1867.0999999940395","images/dog5.png","","","memory_trial","1","definitely_old","","","","","","",""
"html-keyboard-response","183","414422","0.0-15.0-0.70","1916","2","""event"",""trial"",""time""
""fullscreenenter"",""1"",""1764""
","
","
","""event"",""trial"",""time""
""fullscreenenter"",""1"",""1764""
","
","","","","","","null","<div style=""font-size:60px;"">+</div>","null","","fixation","","","","","","","","",""
"memory-trial","184","416591","0.0-15.0-1.70","1916","2","""event"",""trial"",""time""
""fullscreenenter"",""1"",""1764""
","
","
","""event"",""trial"",""time""
""fullscreenenter"",""1"",""1764""
","
","","","","","","1167.0999999940395","images/rabbit4.png","","","memory_trial","4","definitely_new","","","","","","",""
"html-keyboard-response","185","417092","0.0-15.0-0.71","1916","2","""event"",""trial"",""time""
""fullscreenenter"",""1"",""1764""
","
","
","""event"",""trial"",""time""
""fullscreenenter"",""1"",""1764""
","
","","","","","","null","<div style=""font-size:60px;"">+</div>","null","","fixation","","","","","","","","",""
"memory-trial","186","419362","0.0-15.0-1.71","1916","2","""event"",""trial"",""time""
""fullscreenenter"",""1"",""1764""
","
","
","""event"",""trial"",""time""
""fullscreenenter"",""1"",""1764""
","
","","","","","","1264.2000000178814","images/orange3.png","","","memory_trial","4","definitely_new","","","","","","",""
"html-keyboard-response","187","419867","0.0-15.0-0.72","1916","2","""event"",""trial"",""time""
""fullscreenenter"",""1"",""1764""
","
","
","""event"",""trial"",""time""
""fullscreenenter"",""1"",""1764""
","
","","","","","","null","<div style=""font-size:60px;"">+</div>","null","","fixation","","","","","","","","",""
"memory-trial","188","421870","0.0-15.0-1.72","1916","2","""event"",""trial"",""time""
""fullscreenenter"",""1"",""1764""
","
","
","""event"",""trial"",""time""
""fullscreenenter"",""1"",""1764""
","
","","","","","","998.4000000059605","images/orange5.png","","","memory_trial","4","definitely_new","","","","","","",""
"html-keyboard-response","189","422375","0.0-15.0-0.73","1916","2","""event"",""trial"",""time""
""fullscreenenter"",""1"",""1764""
","
","
","""event"",""trial"",""time""
""fullscreenenter"",""1"",""1764""
","
","","","","","","null","<div style=""font-size:60px;"">+</div>","null","","fixation","","","","","","","","",""
"memory-trial","190","424737","0.0-15.0-1.73","1916","2","""event"",""trial"",""time""
""fullscreenenter"",""1"",""1764""
","
","
","""event"",""trial"",""time""
""fullscreenenter"",""1"",""1764""
","
","","","","","","1359.9000000059605","images/flower2.png","","","memory_trial","4","definitely_new","","","","","","",""
"html-keyboard-response","191","425242","0.0-15.0-0.74","1916","2","""event"",""trial"",""time""
""fullscreenenter"",""1"",""1764""
","
","
","""event"",""trial"",""time""
""fullscreenenter"",""1"",""1764""
","
","","","","","","null","<div style=""font-size:60px;"">+</div>","null","","fixation","","","","","","","","",""
"memory-trial","192","427471","0.0-15.0-1.74","1916","2","""event"",""trial"",""time""
""fullscreenenter"",""1"",""1764""
","
","
","""event"",""trial"",""time""
""fullscreenenter"",""1"",""1764""
","
","","","","","","1225.699999988079","images/boat1.png","","","memory_trial","4","definitely_new","","","","","","",""
"html-keyboard-response","193","427976","0.0-15.0-0.75","1916","2","""event"",""trial"",""time""
""fullscreenenter"",""1"",""1764""
","
","
","""event"",""trial"",""time""
""fullscreenenter"",""1"",""1764""
","
","","","","","","null","<div style=""font-size:60px;"">+</div>","null","","fixation","","","","","","","","",""
"memory-trial","194","429822","0.0-15.0-1.75","1916","2","""event"",""trial"",""time""
""fullscreenenter"",""1"",""1764""
","
","
","""event"",""trial"",""time""
""fullscreenenter"",""1"",""1764""
","
","","","","","","843.3999999761581","images/straw5.png","","","memory_trial","4","definitely_new","","","","","","",""
"html-keyboard-response","195","430327","0.0-15.0-0.76","1916","2","""event"",""trial"",""time""
""fullscreenenter"",""1"",""1764""
","
","
","""event"",""trial"",""time""
""fullscreenenter"",""1"",""1764""
","
","","","","","","null","<div style=""font-size:60px;"">+</div>","null","","fixation","","","","","","","","",""
"memory-trial","196","433143","0.0-15.0-1.76","1916","2","""event"",""trial"",""time""
""fullscreenenter"",""1"",""1764""
","
","
","""event"",""trial"",""time""
""fullscreenenter"",""1"",""1764""
","
","","","","","","1811.5999999940395","images/sheep4.png","","","memory_trial","4","definitely_new","","","","","","",""
"html-keyboard-response","197","433648","0.0-15.0-0.77","1916","2","""event"",""trial"",""time""
""fullscreenenter"",""1"",""1764""
","
","
","""event"",""trial"",""time""
""fullscreenenter"",""1"",""1764""
","
","","","","","","null","<div style=""font-size:60px;"">+</div>","null","","fixation","","","","","","","","",""
"memory-trial","198","436045","0.0-15.0-1.77","1916","2","""event"",""trial"",""time""
""fullscreenenter"",""1"",""1764""
","
","
","""event"",""trial"",""time""
""fullscreenenter"",""1"",""1764""
","
","","","","","","1393.0999999940395","images/cactus4.png","","","memory_trial","1","definitely_old","","","","","","",""
"html-keyboard-response","199","436550","0.0-15.0-0.78","1916","2","""event"",""trial"",""time""
""fullscreenenter"",""1"",""1764""
","
","
","""event"",""trial"",""time""
""fullscreenenter"",""1"",""1764""
","
","","","","","","null","<div style=""font-size:60px;"">+</div>","null","","fixation","","","","","","","","",""
"memory-trial","200","438588","0.0-15.0-1.78","1916","2","""event"",""trial"",""time""
""fullscreenenter"",""1"",""1764""
","
","
","""event"",""trial"",""time""
""fullscreenenter"",""1"",""1764""
","
","","","","","","1033.5999999940395","images/goat5.png","","","memory_trial","1","definitely_old","","","","","","",""
"html-keyboard-response","201","439089","0.0-15.0-0.79","1916","2","""event"",""trial"",""time""
""fullscreenenter"",""1"",""1764""
","
","
","""event"",""trial"",""time""
""fullscreenenter"",""1"",""1764""
","
","","","","","","null","<div style=""font-size:60px;"">+</div>","null","","fixation","","","","","","","","",""
"memory-trial","202","441211","0.0-15.0-1.79","1916","2","""event"",""trial"",""time""
""fullscreenenter"",""1"",""1764""
","
","
","""event"",""trial"",""time""
""fullscreenenter"",""1"",""1764""
","
","","","","","","1116.3999999761581","images/table3.png","","","memory_trial","4","definitely_new","","","","","","",""
"html-keyboard-response","203","441716","0.0-15.0-0.80","1916","2","""event"",""trial"",""time""
""fullscreenenter"",""1"",""1764""
","
","
","""event"",""trial"",""time""
""fullscreenenter"",""1"",""1764""
","
","","","","","","null","<div style=""font-size:60px;"">+</div>","null","","fixation","","","","","","","","",""
"memory-trial","204","443820","0.0-15.0-1.80","1916","2","""event"",""trial"",""time""
""fullscreenenter"",""1"",""1764""
","
","
","""event"",""trial"",""time""
""fullscreenenter"",""1"",""1764""
","
","","","","","","1099.0999999940395","images/apple1.png","","","memory_trial","1","definitely_old","","","","","","",""
"html-keyboard-response","205","444323","0.0-15.0-0.81","1916","2","""event"",""trial"",""time""
""fullscreenenter"",""1"",""1764""
","
","
","""event"",""trial"",""time""
""fullscreenenter"",""1"",""1764""
","
","","","","","","null","<div style=""font-size:60px;"">+</div>","null","","fixation","","","","","","","","",""
"memory-trial","206","446204","0.0-15.0-1.81","1916","2","""event"",""trial"",""time""
""fullscreenenter"",""1"",""1764""
","
","
","""event"",""trial"",""time""
""fullscreenenter"",""1"",""1764""
","
","","","","","","878","images/sheep2.png","","","memory_trial","4","definitely_new","","","","","","",""
"html-keyboard-response","207","446709","0.0-15.0-0.82","1916","2","""event"",""trial"",""time""
""fullscreenenter"",""1"",""1764""
","
","
","""event"",""trial"",""time""
""fullscreenenter"",""1"",""1764""
","
","","","","","","null","<div style=""font-size:60px;"">+</div>","null","","fixation","","","","","","","","",""
"memory-trial","208","448961","0.0-15.0-1.82","1916","2","""event"",""trial"",""time""
""fullscreenenter"",""1"",""1764""
","
","
","""event"",""trial"",""time""
""fullscreenenter"",""1"",""1764""
","
","","","","","","1248.2000000178814","images/truck2.png","","","memory_trial","1","definitely_old","","","","","","",""
"html-keyboard-response","209","449466","0.0-15.0-0.83","1916","2","""event"",""trial"",""time""
""fullscreenenter"",""1"",""1764""
","
","
","""event"",""trial"",""time""
""fullscreenenter"",""1"",""1764""
","
","","","","","","null","<div style=""font-size:60px;"">+</div>","null","","fixation","","","","","","","","",""
"memory-trial","210","451389","0.0-15.0-1.83","1916","2","""event"",""trial"",""time""
""fullscreenenter"",""1"",""1764""
","
","
","""event"",""trial"",""time""
""fullscreenenter"",""1"",""1764""
","
","","","","","","921.4000000059605","images/horse5.png","","","memory_trial","1","definitely_old","","","","","","",""
"html-keyboard-response","211","451890","0.0-15.0-0.84","1916","2","""event"",""trial"",""time""
""fullscreenenter"",""1"",""1764""
","
","
","""event"",""trial"",""time""
""fullscreenenter"",""1"",""1764""
","
","","","","","","null","<div style=""font-size:60px;"">+</div>","null","","fixation","","","","","","","","",""
"memory-trial","212","454069","0.0-15.0-1.84","1916","2","""event"",""trial"",""time""
""fullscreenenter"",""1"",""1764""
","
","
","""event"",""trial"",""time""
""fullscreenenter"",""1"",""1764""
","
","","","","","","1173.8999999761581","images/rabbit2.png","","","memory_trial","1","definitely_old","","","","","","",""
"html-keyboard-response","213","454574","0.0-15.0-0.85","1916","2","""event"",""trial"",""time""
""fullscreenenter"",""1"",""1764""
","
","
","""event"",""trial"",""time""
""fullscreenenter"",""1"",""1764""
","
","","","","","","null","<div style=""font-size:60px;"">+</div>","null","","fixation","","","","","","","","",""
"memory-trial","214","456634","0.0-15.0-1.85","1916","2","""event"",""trial"",""time""
""fullscreenenter"",""1"",""1764""
","
","
","""event"",""trial"",""time""
""fullscreenenter"",""1"",""1764""
","
","","","","","","1055.5","images/rabbit5.png","","","memory_trial","4","definitely_new","","","","","","",""
"html-keyboard-response","215","457140","0.0-15.0-0.86","1916","2","""event"",""trial"",""time""
""fullscreenenter"",""1"",""1764""
","
","
","""event"",""trial"",""time""
""fullscreenenter"",""1"",""1764""
","
","","","","","","null","<div style=""font-size:60px;"">+</div>","null","","fixation","","","","","","","","",""
"memory-trial","216","458939","0.0-15.0-1.86","1916","2","""event"",""trial"",""time""
""fullscreenenter"",""1"",""1764""
","
","
","""event"",""trial"",""time""
""fullscreenenter"",""1"",""1764""
","
","","","","","","796","images/rodent4.png","","","memory_trial","1","definitely_old","","","","","","",""
"html-keyboard-response","217","459444","0.0-15.0-0.87","1916","2","""event"",""trial"",""time""
""fullscreenenter"",""1"",""1764""
","
","
","""event"",""trial"",""time""
""fullscreenenter"",""1"",""1764""
","
","","","","","","null","<div style=""font-size:60px;"">+</div>","null","","fixation","","","","","","","","",""
"memory-trial","218","461719","0.0-15.0-1.87","1916","2","""event"",""trial"",""time""
""fullscreenenter"",""1"",""1764""
","
","
","""event"",""trial"",""time""
""fullscreenenter"",""1"",""1764""
","
","","","","","","1271.0999999940395","images/bed4.png","","","memory_trial","1","definitely_old","","","","","","",""
"html-keyboard-response","219","462225","0.0-15.0-0.88","1916","2","""event"",""trial"",""time""
""fullscreenenter"",""1"",""1764""
","
","
","""event"",""trial"",""time""
""fullscreenenter"",""1"",""1764""
","
","","","","","","null","<div style=""font-size:60px;"">+</div>","null","","fixation","","","","","","","","",""
"memory-trial","220","464318","0.0-15.0-1.88","1916","2","""event"",""trial"",""time""
""fullscreenenter"",""1"",""1764""
","
","
","""event"",""trial"",""time""
""fullscreenenter"",""1"",""1764""
","
","","","","","","1088.9000000059605","images/banana3.png","","","memory_trial","1","definitely_old","","","","","","",""
"html-keyboard-response","221","464823","0.0-15.0-0.89","1916","2","""event"",""trial"",""time""
""fullscreenenter"",""1"",""1764""
","
","
","""event"",""trial"",""time""
""fullscreenenter"",""1"",""1764""
","
","","","","","","null","<div style=""font-size:60px;"">+</div>","null","","fixation","","","","","","","","",""
"memory-trial","222","467345","0.0-15.0-1.89","1916","2","""event"",""trial"",""time""
""fullscreenenter"",""1"",""1764""
","
","
","""event"",""trial"",""time""
""fullscreenenter"",""1"",""1764""
","
","","","","","","1516.5","images/feline3.png","","","memory_trial","1","definitely_old","","","","","","",""
"html-keyboard-response","223","467850","0.0-15.0-0.90","1916","2","""event"",""trial"",""time""
""fullscreenenter"",""1"",""1764""
","
","
","""event"",""trial"",""time""
""fullscreenenter"",""1"",""1764""
","
","","","","","","null","<div style=""font-size:60px;"">+</div>","null","","fixation","","","","","","","","",""
"memory-trial","224","469765","0.0-15.0-1.90","1916","2","""event"",""trial"",""time""
""fullscreenenter"",""1"",""1764""
","
","
","""event"",""trial"",""time""
""fullscreenenter"",""1"",""1764""
","
","","","","","","909.0999999940395","images/chair4.png","","","memory_trial","1","definitely_old","","","","","","",""
"html-keyboard-response","225","470270","0.0-15.0-0.91","1916","2","""event"",""trial"",""time""
""fullscreenenter"",""1"",""1764""
","
","
","""event"",""trial"",""time""
""fullscreenenter"",""1"",""1764""
","
","","","","","","null","<div style=""font-size:60px;"">+</div>","null","","fixation","","","","","","","","",""
"memory-trial","226","472214","0.0-15.0-1.91","1916","2","""event"",""trial"",""time""
""fullscreenenter"",""1"",""1764""
","
","
","""event"",""trial"",""time""
""fullscreenenter"",""1"",""1764""
","
","","","","","","941.5","images/dog4.png","","","memory_trial","1","definitely_old","","","","","","",""
"html-keyboard-response","227","472720","0.0-15.0-0.92","1916","2","""event"",""trial"",""time""
""fullscreenenter"",""1"",""1764""
","
","
","""event"",""trial"",""time""
""fullscreenenter"",""1"",""1764""
","
","","","","","","null","<div style=""font-size:60px;"">+</div>","null","","fixation","","","","","","","","",""
"memory-trial","228","475285","0.0-15.0-1.92","1916","2","""event"",""trial"",""time""
""fullscreenenter"",""1"",""1764""
","
","
","""event"",""trial"",""time""
""fullscreenenter"",""1"",""1764""
","
","","","","","","1562.5999999940395","images/truck3.png","","","memory_trial","1","definitely_old","","","","","","",""
"html-keyboard-response","229","475786","0.0-15.0-0.93","1916","2","""event"",""trial"",""time""
""fullscreenenter"",""1"",""1764""
","
","
","""event"",""trial"",""time""
""fullscreenenter"",""1"",""1764""
","
","","","","","","null","<div style=""font-size:60px;"">+</div>","null","","fixation","","","","","","","","",""
"memory-trial","230","478548","0.0-15.0-1.93","1916","2","""event"",""trial"",""time""
""fullscreenenter"",""1"",""1764""
","
","
","""event"",""trial"",""time""
""fullscreenenter"",""1"",""1764""
","
","","","","","","1759.5","images/boat2.png","","","memory_trial","4","definitely_new","","","","","","",""
"html-keyboard-response","231","479052","0.0-15.0-0.94","1916","2","""event"",""trial"",""time""
""fullscreenenter"",""1"",""1764""
","
","
","""event"",""trial"",""time""
""fullscreenenter"",""1"",""1764""
","
","","","","","","null","<div style=""font-size:60px;"">+</div>","null","","fixation","","","","","","","","",""
"memory-trial","232","481002","0.0-15.0-1.94","1916","2","""event"",""trial"",""time""
""fullscreenenter"",""1"",""1764""
","
","
","""event"",""trial"",""time""
""fullscreenenter"",""1"",""1764""
","
","","","","","","945.4000000059605","images/chair5.png","","","memory_trial","1","definitely_old","","","","","","",""
"html-keyboard-response","233","481508","0.0-15.0-0.95","1916","2","""event"",""trial"",""time""
""fullscreenenter"",""1"",""1764""
","
","
","""event"",""trial"",""time""
""fullscreenenter"",""1"",""1764""
","
","","","","","","null","<div style=""font-size:60px;"">+</div>","null","","fixation","","","","","","","","",""
"memory-trial","234","483749","0.0-15.0-1.95","1916","2","""event"",""trial"",""time""
""fullscreenenter"",""1"",""1764""
","
","
","""event"",""trial"",""time""
""fullscreenenter"",""1"",""1764""
","
","","","","","","1236.0999999940395","images/rabbit1.png","","","memory_trial","4","definitely_new","","","","","","",""
"html-keyboard-response","235","484254","0.0-15.0-0.96","1916","2","""event"",""trial"",""time""
""fullscreenenter"",""1"",""1764""
","
","
","""event"",""trial"",""time""
""fullscreenenter"",""1"",""1764""
","
","","","","","","null","<div style=""font-size:60px;"">+</div>","null","","fixation","","","","","","","","",""
"memory-trial","236","486222","0.0-15.0-1.96","1916","2","""event"",""trial"",""time""
""fullscreenenter"",""1"",""1764""
","
","
","""event"",""trial"",""time""
""fullscreenenter"",""1"",""1764""
","
","","","","","","964.5999999940395","images/cow3.png","","","memory_trial","1","definitely_old","","","","","","",""
"html-keyboard-response","237","486727","0.0-15.0-0.97","1916","2","""event"",""trial"",""time""
""fullscreenenter"",""1"",""1764""
","
","
","""event"",""trial"",""time""
""fullscreenenter"",""1"",""1764""
","
","","","","","","null","<div style=""font-size:60px;"">+</div>","null","","fixation","","","","","","","","",""
"memory-trial","238","488508","0.0-15.0-1.97","1916","2","""event"",""trial"",""time""
""fullscreenenter"",""1"",""1764""
","
","
","""event"",""trial"",""time""
""fullscreenenter"",""1"",""1764""
","
","","","","","","775.0999999940395","images/cow2.png","","","memory_trial","1","definitely_old","","","","","","",""
"html-keyboard-response","239","489014","0.0-15.0-0.98","1916","2","""event"",""trial"",""time""
""fullscreenenter"",""1"",""1764""
","
","
","""event"",""trial"",""time""
""fullscreenenter"",""1"",""1764""
","
","","","","","","null","<div style=""font-size:60px;"">+</div>","null","","fixation","","","","","","","","",""
"memory-trial","240","490732","0.0-15.0-1.98","1916","2","""event"",""trial"",""time""
""fullscreenenter"",""1"",""1764""
","
","
","""event"",""trial"",""time""
""fullscreenenter"",""1"",""1764""
","
","","","","","","715.8999999761581","images/banana1.png","","","memory_trial","1","definitely_old","","","","","","",""
"html-keyboard-response","241","491237","0.0-15.0-0.99","1916","2","""event"",""trial"",""time""
""fullscreenenter"",""1"",""1764""
","
","
","""event"",""trial"",""time""
""fullscreenenter"",""1"",""1764""
","
","","","","","","null","<div style=""font-size:60px;"">+</div>","null","","fixation","","","","","","","","",""
"memory-trial","242","494166","0.0-15.0-1.99","1916","2","""event"",""trial"",""time""
""fullscreenenter"",""1"",""1764""
","
","
","""event"",""trial"",""time""
""fullscreenenter"",""1"",""1764""
","
","","","","","","1924.300000011921","images/tree5.png","","","memory_trial","1","definitely_old","","","","","","",""
"html-keyboard-response","243","494668","0.0-15.0-0.100","1916","2","""event"",""trial"",""time""
""fullscreenenter"",""1"",""1764""
","
","
","""event"",""trial"",""time""
""fullscreenenter"",""1"",""1764""
","
","","","","","","null","<div style=""font-size:60px;"">+</div>","null","","fixation","","","","","","","","",""
"memory-trial","244","496845","0.0-15.0-1.100","1916","2","""event"",""trial"",""time""
""fullscreenenter"",""1"",""1764""
","
","
","""event"",""trial"",""time""
""fullscreenenter"",""1"",""1764""
","
","","","","","","1170.7000000178814","images/cactus5.png","","","memory_trial","4","definitely_new","","","","","","",""
"html-keyboard-response","245","497350","0.0-15.0-0.101","1916","2","""event"",""trial"",""time""
""fullscreenenter"",""1"",""1764""
","
","
","""event"",""trial"",""time""
""fullscreenenter"",""1"",""1764""
","
","","","","","","null","<div style=""font-size:60px;"">+</div>","null","","fixation","","","","","","","","",""
"memory-trial","246","502121","0.0-15.0-1.101","1916","2","""event"",""trial"",""time""
""fullscreenenter"",""1"",""1764""
","
","
","""event"",""trial"",""time""
""fullscreenenter"",""1"",""1764""
","
","","","","","","3765.9000000059605","images/bed3.png","","","memory_trial","1","definitely_old","","","","","","",""
"html-button-response","247","504008","0.0-15.0-2.101-0.101","1916","2","""event"",""trial"",""time""
""fullscreenenter"",""1"",""1764""
","
","
","""event"",""trial"",""time""
""fullscreenenter"",""1"",""1764""
","
","","","","","","1886.199999988079","<p> Take a break! </p><p> Click the button to continue. </p>","0","","break","","","","","","","","",""
"html-keyboard-response","248","504513","0.0-15.0-0.102","1916","2","""event"",""trial"",""time""
""fullscreenenter"",""1"",""1764""
","
","
","""event"",""trial"",""time""
""fullscreenenter"",""1"",""1764""
","
","","","","","","null","<div style=""font-size:60px;"">+</div>","null","","fixation","","","","","","","","",""
"memory-trial","249","506573","0.0-15.0-1.102","1916","2","""event"",""trial"",""time""
""fullscreenenter"",""1"",""1764""
","
","
","""event"",""trial"",""time""
""fullscreenenter"",""1"",""1764""
","
","","","","","","1057.800000011921","images/plane5.png","","","memory_trial","2","maybe_old","","","","","","",""
"html-keyboard-response","250","507079","0.0-15.0-0.103","1916","2","""event"",""trial"",""time""
""fullscreenenter"",""1"",""1764""
","
","
","""event"",""trial"",""time""
""fullscreenenter"",""1"",""1764""
","
","","","","","","null","<div style=""font-size:60px;"">+</div>","null","","fixation","","","","","","","","",""
"memory-trial","251","509185","0.0-15.0-1.103","1916","2","""event"",""trial"",""time""
""fullscreenenter"",""1"",""1764""
","
","
","""event"",""trial"",""time""
""fullscreenenter"",""1"",""1764""
","
","","","","","","1101.800000011921","images/bed1.png","","","memory_trial","4","definitely_new","","","","","","",""
"html-keyboard-response","252","509686","0.0-15.0-0.104","1916","2","""event"",""trial"",""time""
""fullscreenenter"",""1"",""1764""
","
","
","""event"",""trial"",""time""
""fullscreenenter"",""1"",""1764""
","
","","","","","","null","<div style=""font-size:60px;"">+</div>","null","","fixation","","","","","","","","",""
"memory-trial","253","512145","0.0-15.0-1.104","1916","2","""event"",""trial"",""time""
""fullscreenenter"",""1"",""1764""
","
","
","""event"",""trial"",""time""
""fullscreenenter"",""1"",""1764""
","
","","","","","","1453.699999988079","images/horse4.png","","","memory_trial","1","definitely_old","","","","","","",""
"html-keyboard-response","254","512646","0.0-15.0-0.105","1916","2","""event"",""trial"",""time""
""fullscreenenter"",""1"",""1764""
","
","
","""event"",""trial"",""time""
""fullscreenenter"",""1"",""1764""
","
","","","","","","null","<div style=""font-size:60px;"">+</div>","null","","fixation","","","","","","","","",""
"memory-trial","255","514596","0.0-15.0-1.105","1916","2","""event"",""trial"",""time""
""fullscreenenter"",""1"",""1764""
","
","
","""event"",""trial"",""time""
""fullscreenenter"",""1"",""1764""
","
","","","","","","946.9000000059605","images/apple3.png","","","memory_trial","4","definitely_new","","","","","","",""
"html-keyboard-response","256","515100","0.0-15.0-0.106","1916","2","""event"",""trial"",""time""
""fullscreenenter"",""1"",""1764""
","
","
","""event"",""trial"",""time""
""fullscreenenter"",""1"",""1764""
","
","","","","","","null","<div style=""font-size:60px;"">+</div>","null","","fixation","","","","","","","","",""
"memory-trial","257","516970","0.0-15.0-1.106","1916","2","""event"",""trial"",""time""
""fullscreenenter"",""1"",""1764""
","
","
","""event"",""trial"",""time""
""fullscreenenter"",""1"",""1764""
","
","","","","","","865.8999999761581","images/dog2.png","","","memory_trial","4","definitely_new","","","","","","",""
"html-keyboard-response","258","517475","0.0-15.0-0.107","1916","2","""event"",""trial"",""time""
""fullscreenenter"",""1"",""1764""
","
","
","""event"",""trial"",""time""
""fullscreenenter"",""1"",""1764""
","
","","","","","","null","<div style=""font-size:60px;"">+</div>","null","","fixation","","","","","","","","",""
"memory-trial","259","519400","0.0-15.0-1.107","1916","2","""event"",""trial"",""time""
""fullscreenenter"",""1"",""1764""
","
","
","""event"",""trial"",""time""
""fullscreenenter"",""1"",""1764""
","
","","","","","","921","images/table1.png","","","memory_trial","4","definitely_new","","","","","","",""
"html-keyboard-response","260","519905","0.0-15.0-0.108","1916","2","""event"",""trial"",""time""
""fullscreenenter"",""1"",""1764""
","
","
","""event"",""trial"",""time""
""fullscreenenter"",""1"",""1764""
","
","","","","","","null","<div style=""font-size:60px;"">+</div>","null","","fixation","","","","","","","","",""
"memory-trial","261","523280","0.0-15.0-1.108","1916","2","""event"",""trial"",""time""
""fullscreenenter"",""1"",""1764""
","
","
","""event"",""trial"",""time""
""fullscreenenter"",""1"",""1764""
","
","","","","","","2372.0999999940395","images/bush2.png","","","memory_trial","4","definitely_new","","","","","","",""
"html-keyboard-response","262","523785","0.0-15.0-0.109","1916","2","""event"",""trial"",""time""
""fullscreenenter"",""1"",""1764""
","
","
","""event"",""trial"",""time""
""fullscreenenter"",""1"",""1764""
","
","","","","","","null","<div style=""font-size:60px;"">+</div>","null","","fixation","","","","","","","","",""
"memory-trial","263","526283","0.0-15.0-1.109","1916","2","""event"",""trial"",""time""
""fullscreenenter"",""1"",""1764""
","
","
","""event"",""trial"",""time""
""fullscreenenter"",""1"",""1764""
","
","","","","","","1496.5","images/bed5.png","","","memory_trial","1","definitely_old","","","","","","",""
"html-keyboard-response","264","526786","0.0-15.0-0.110","1916","2","""event"",""trial"",""time""
""fullscreenenter"",""1"",""1764""
","
","
","""event"",""trial"",""time""
""fullscreenenter"",""1"",""1764""
","
","","","","","","null","<div style=""font-size:60px;"">+</div>","null","","fixation","","","","","","","","",""
"memory-trial","265","529425","0.0-15.0-1.110","1916","2","""event"",""trial"",""time""
""fullscreenenter"",""1"",""1764""
","
","
","""event"",""trial"",""time""
""fullscreenenter"",""1"",""1764""
","
","","","","","","1634.5","images/feline2.png","","","memory_trial","4","definitely_new","","","","","","",""
"html-keyboard-response","266","529926","0.0-15.0-0.111","1916","2","""event"",""trial"",""time""
""fullscreenenter"",""1"",""1764""
","
","
","""event"",""trial"",""time""
""fullscreenenter"",""1"",""1764""
","
","","","","","","null","<div style=""font-size:60px;"">+</div>","null","","fixation","","","","","","","","",""
"memory-trial","267","531743","0.0-15.0-1.111","1916","2","""event"",""trial"",""time""
""fullscreenenter"",""1"",""1764""
","
","
","""event"",""trial"",""time""
""fullscreenenter"",""1"",""1764""
","
","","","","","","811.6999999880791","images/table5.png","","","memory_trial","4","definitely_new","","","","","","",""
"html-keyboard-response","268","532248","0.0-15.0-0.112","1916","2","""event"",""trial"",""time""
""fullscreenenter"",""1"",""1764""
","
","
","""event"",""trial"",""time""
""fullscreenenter"",""1"",""1764""
","
","","","","","","null","<div style=""font-size:60px;"">+</div>","null","","fixation","","","","","","","","",""
"memory-trial","269","534541","0.0-15.0-1.112","1916","2","""event"",""trial"",""time""
""fullscreenenter"",""1"",""1764""
","
","
","""event"",""trial"",""time""
""fullscreenenter"",""1"",""1764""
","
","","","","","","1291.4000000059605","images/bush3.png","","","memory_trial","1","definitely_old","","","","","","",""
"html-keyboard-response","270","535046","0.0-15.0-0.113","1916","2","""event"",""trial"",""time""
""fullscreenenter"",""1"",""1764""
","
","
","""event"",""trial"",""time""
""fullscreenenter"",""1"",""1764""
","
","","","","","","null","<div style=""font-size:60px;"">+</div>","null","","fixation","","","","","","","","",""
"memory-trial","271","538964","0.0-15.0-1.113","1916","2","""event"",""trial"",""time""
""fullscreenenter"",""1"",""1764""
","
","
","""event"",""trial"",""time""
""fullscreenenter"",""1"",""1764""
","
","","","","","","2914.300000011921","images/boat3.png","","","memory_trial","4","definitely_new","","","","","","",""
"html-keyboard-response","272","539469","0.0-15.0-0.114","1916","2","""event"",""trial"",""time""
""fullscreenenter"",""1"",""1764""
","
","
","""event"",""trial"",""time""
""fullscreenenter"",""1"",""1764""
","
","","","","","","null","<div style=""font-size:60px;"">+</div>","null","","fixation","","","","","","","","",""
"memory-trial","273","542981","0.0-15.0-1.114","1916","2","""event"",""trial"",""time""
""fullscreenenter"",""1"",""1764""
","
","
","""event"",""trial"",""time""
""fullscreenenter"",""1"",""1764""
","
","","","","","","2507.699999988079","images/boat5.png","","","memory_trial","3","maybe_new","","","","","","",""
"html-keyboard-response","274","543482","0.0-15.0-0.115","1916","2","""event"",""trial"",""time""
""fullscreenenter"",""1"",""1764""
","
","
","""event"",""trial"",""time""
""fullscreenenter"",""1"",""1764""
","
","","","","","","null","<div style=""font-size:60px;"">+</div>","null","","fixation","","","","","","","","",""
"memory-trial","275","546197","0.0-15.0-1.115","1916","2","""event"",""trial"",""time""
""fullscreenenter"",""1"",""1764""
","
","
","""event"",""trial"",""time""
""fullscreenenter"",""1"",""1764""
","
","","","","","","1712.800000011921","images/straw2.png","","","memory_trial","1","definitely_old","","","","","","",""
"html-keyboard-response","276","546701","0.0-15.0-0.116","1916","2","""event"",""trial"",""time""
""fullscreenenter"",""1"",""1764""
","
","
","""event"",""trial"",""time""
""fullscreenenter"",""1"",""1764""
","
","","","","","","null","<div style=""font-size:60px;"">+</div>","null","","fixation","","","","","","","","",""
"memory-trial","277","548571","0.0-15.0-1.116","1916","2","""event"",""trial"",""time""
""fullscreenenter"",""1"",""1764""
","
","
","""event"",""trial"",""time""
""fullscreenenter"",""1"",""1764""
","
","","","","","","867.2999999821186","images/sheep5.png","","","memory_trial","4","definitely_new","","","","","","",""
"html-keyboard-response","278","549076","0.0-15.0-0.117","1916","2","""event"",""trial"",""time""
""fullscreenenter"",""1"",""1764""
","
","
","""event"",""trial"",""time""
""fullscreenenter"",""1"",""1764""
","
","","","","","","null","<div style=""font-size:60px;"">+</div>","null","","fixation","","","","","","","","",""
"memory-trial","279","552745","0.0-15.0-1.117","1916","2","""event"",""trial"",""time""
""fullscreenenter"",""1"",""1764""
","
","
","""event"",""trial"",""time""
""fullscreenenter"",""1"",""1764""
","
","","","","","","2666","images/table2.png","","","memory_trial","1","definitely_old","","","","","","",""
"html-keyboard-response","280","553250","0.0-15.0-0.118","1916","2","""event"",""trial"",""time""
""fullscreenenter"",""1"",""1764""
","
","
","""event"",""trial"",""time""
""fullscreenenter"",""1"",""1764""
","
","","","","","","null","<div style=""font-size:60px;"">+</div>","null","","fixation","","","","","","","","",""
"memory-trial","281","555976","0.0-15.0-1.118","1916","2","""event"",""trial"",""time""
""fullscreenenter"",""1"",""1764""
","
","
","""event"",""trial"",""time""
""fullscreenenter"",""1"",""1764""
","
","","","","","","1721.800000011921","images/orange4.png","","","memory_trial","1","definitely_old","","","","","","",""
"html-keyboard-response","282","556477","0.0-15.0-0.119","1916","2","""event"",""trial"",""time""
""fullscreenenter"",""1"",""1764""
","
","
","""event"",""trial"",""time""
""fullscreenenter"",""1"",""1764""
","
","","","","","","null","<div style=""font-size:60px;"">+</div>","null","","fixation","","","","","","","","",""
"memory-trial","283","558776","0.0-15.0-1.119","1916","2","""event"",""trial"",""time""
""fullscreenenter"",""1"",""1764""
","
","
","""event"",""trial"",""time""
""fullscreenenter"",""1"",""1764""
","
","","","","","","1295.2999999821186","images/plane3.png","","","memory_trial","4","definitely_new","","","","","","",""
"preload","284","568180","0.0-16.0","1916","2","""event"",""trial"",""time""
""fullscreenenter"",""1"",""1764""
","
","
","""event"",""trial"",""time""
""fullscreenenter"",""1"",""1764""
","
","true","false","[]","[]","[]","","","","","","","","","","","","","",""
"learning-instructions","285","575617","0.0-17.0-0.0-0.0-0.0","1916","2","""event"",""trial"",""time""
""fullscreenenter"",""1"",""1764""
","
","
","""event"",""trial"",""time""
""fullscreenenter"",""1"",""1764""
","
","","","","","","2308.7000000178814","<p> We're now going to ask you to return your farm animals to barns again. </p>","","0","instructions","","","","","","","","",""
"learning-instructions","286","581670","0.0-17.0-0.0-0.0-0.1","1916","2","""event"",""trial"",""time""
""fullscreenenter"",""1"",""1764""
","
","
","""event"",""trial"",""time""
""fullscreenenter"",""1"",""1764""
","
","","","","","","612.3999999761581","<p> On each trial, you will see a farm animal. Select the barn where you think the animal belongs. </p>","","0","instructions","","","","","","","","",""
"learning-instructions","287","589253","0.0-17.0-0.0-0.0-0.2","1916","2","""event"",""trial"",""time""
""fullscreenenter"",""1"",""1764""
","
","
","""event"",""trial"",""time""
""fullscreenenter"",""1"",""1764""
","
","","","","","","521.1999999880791","<p> To make your selection, think about what you learned last week. You will NOT receive any feedback about your choice. </p>","","0","instructions","","","","","","","","",""
"learning-instructions","288","597882","0.0-17.0-0.0-0.0-0.3","1916","2","""event"",""trial"",""time""
""fullscreenenter"",""1"",""1764""
","
","
","""event"",""trial"",""time""
""fullscreenenter"",""1"",""1764""
","
","","","","","","535.2000000178814","<p> You should use the 1 key to select the barn on the left, the 2 key to select the barn in the middle, and the 3 key to select the barn on the right. </p><br><div class=""choice-mem-instructions-grid""> <div class=""choice-mem-option""><img src=""images/animals_choice1.png"" class=""choice-mem-option-img"" stage=""instructions"" position=""0"" ><div class=""choice-mem-option-text""> Press ""1."" </div></div><div class=""choice-mem-option""><img src=""images/animals_choice2.png"" class=""choice-mem-option-img"" stage=""instructions"" position=""1"" ><div class=""choice-mem-option-text""> Press ""2."" </div></div><div class=""choice-mem-option""><img src=""images/animals_choice3.png"" class=""choice-mem-option-img"" stage=""instructions"" position=""2"" ><div class=""choice-mem-option-text""> Press ""3."" </div></div></div>","","0","instructions","","","","","","","","",""
"learning-instructions","289","604643","0.0-17.0-0.0-0.0-0.4","1916","2","""event"",""trial"",""time""
""fullscreenenter"",""1"",""1764""
","
","
","""event"",""trial"",""time""
""fullscreenenter"",""1"",""1764""
","
","","","","","","500.19999998807907","<p> You will have 10 seconds to make each selection. Try to respond before time runs out! </p>","","0","instructions","","","","","","","","",""
"learning-instructions","290","607220","0.0-17.0-0.0-1.0","1916","2","""event"",""trial"",""time""
""fullscreenenter"",""1"",""1764""
","
","
","""event"",""trial"",""time""
""fullscreenenter"",""1"",""1764""
","
","","","","","","516.4000000059605","<p> You are now ready to begin the game. </p>","","0","instructions","","","","","","","","",""
"html-keyboard-response","291","607826","0.0-17.0-0.0-2.0-0.0","1916","2","""event"",""trial"",""time""
""fullscreenenter"",""1"",""1764""
","
","
","""event"",""trial"",""time""
""fullscreenenter"",""1"",""1764""
","
","","","","","","null","<div style=""font-size:60px;"">+</div>","null","","fixation","","","","","","","","",""
