"trial_type","trial_index","time_elapsed","internal_node_id","subject_id","task_version","interactions","blur_events","focus_events","fullscreenenter_events","fullscreenexit_events","success","timeout","failed_images","failed_audio","failed_video","rt","stimulus","response","button_pressed","task_part","key_press","answer","correct","left_choice","middle_choice","right_choice","choice_positions","option_selected","block"
"pavlovia","0","4","0.0-0.0","1920","2","""event"",""trial"",""time""
""blur"",""1"",""1317""
""focus"",""1"",""2272""
""fullscreenenter"",""1"",""4049""
","""event"",""trial"",""time""
""blur"",""1"",""1317""
","""event"",""trial"",""time""
""focus"",""1"",""2272""
","""event"",""trial"",""time""
""fullscreenenter"",""1"",""4049""
","
","","","","","","","","","","","","","","","","","","",""
"fullscreen","1","5033","0.0-1.0","1920","2","""event"",""trial"",""time""
""blur"",""1"",""1317""
""focus"",""1"",""2272""
""fullscreenenter"",""1"",""4049""
","""event"",""trial"",""time""
""blur"",""1"",""1317""
","""event"",""trial"",""time""
""focus"",""1"",""2272""
","""event"",""trial"",""time""
""fullscreenenter"",""1"",""4049""
","
","true","","","","","","","","","","","","","","","","","",""
"preload","2","5743","0.0-2.0","1920","2","""event"",""trial"",""time""
""blur"",""1"",""1317""
""focus"",""1"",""2272""
""fullscreenenter"",""1"",""4049""
","""event"",""trial"",""time""
""blur"",""1"",""1317""
","""event"",""trial"",""time""
""focus"",""1"",""2272""
","""event"",""trial"",""time""
""fullscreenenter"",""1"",""4049""
","
","true","false","[]","[]","[]","","","","","","","","","","","","","",""
"audio-keyboard-response","3","7081","0.0-3.0","1920","2","""event"",""trial"",""time""
""blur"",""1"",""1317""
""focus"",""1"",""2272""
""fullscreenenter"",""1"",""4049""
","""event"",""trial"",""time""
""blur"",""1"",""1317""
","""event"",""trial"",""time""
""focus"",""1"",""2272""
","""event"",""trial"",""time""
""fullscreenenter"",""1"",""4049""
","
","","","","","","1338.6666666666667","audio/beep_loop.wav"," ","","","","","","","","","","",""
"audio-button-response","4","8840","0.0-4.0","1920","2","""event"",""trial"",""time""
""blur"",""1"",""1317""
""focus"",""1"",""2272""
""fullscreenenter"",""1"",""4049""
","""event"",""trial"",""time""
""blur"",""1"",""1317""
","""event"",""trial"",""time""
""focus"",""1"",""2272""
","""event"",""trial"",""time""
""fullscreenenter"",""1"",""4049""
","
","","","","","","1760","audio/turtle.wav","3","","","","","","","","","","",""
"audio-button-response","5","11012","0.0-5.0","1920","2","""event"",""trial"",""time""
""blur"",""1"",""1317""
""focus"",""1"",""2272""
""fullscreenenter"",""1"",""4049""
","""event"",""trial"",""time""
""blur"",""1"",""1317""
","""event"",""trial"",""time""
""focus"",""1"",""2272""
","""event"",""trial"",""time""
""fullscreenenter"",""1"",""4049""
","
","","","","","","1149","audio/shark.wav","2","","","","","","","","","","",""
"preload","6","14147","0.0-6.0","1920","2","""event"",""trial"",""time""
""blur"",""1"",""1317""
""focus"",""1"",""2272""
""fullscreenenter"",""1"",""4049""
","""event"",""trial"",""time""
""blur"",""1"",""1317""
","""event"",""trial"",""time""
""focus"",""1"",""2272""
","""event"",""trial"",""time""
""fullscreenenter"",""1"",""4049""
","
","true","false","[]","[]","[]","","","","","","","","","","","","","",""
"learning-instructions","7","20097","0.0-7.0-0.0","1920","2","""event"",""trial"",""time""
""blur"",""1"",""1317""
""focus"",""1"",""2272""
""fullscreenenter"",""1"",""4049""
","""event"",""trial"",""time""
""blur"",""1"",""1317""
","""event"",""trial"",""time""
""focus"",""1"",""2272""
","""event"",""trial"",""time""
""fullscreenenter"",""1"",""4049""
","
","","","","","","1139","<p> Welcome back! </p><p> Last week, you had to make choices about lots of different items.  </p>","","0","instructions","","","","","","","","",""
"learning-instructions","8","24825","0.0-7.0-0.1","1920","2","""event"",""trial"",""time""
""blur"",""1"",""1317""
""focus"",""1"",""2272""
""fullscreenenter"",""1"",""4049""
","""event"",""trial"",""time""
""blur"",""1"",""1317""
","""event"",""trial"",""time""
""focus"",""1"",""2272""
","""event"",""trial"",""time""
""fullscreenenter"",""1"",""4049""
","
","","","","","","407.10000002384186","<p> Today, we are going to ask you to try to remember all the items. </p>","","0","instructions","","","","","","","","",""
"learning-instructions","9","35368","0.0-7.0-0.2","1920","2","""event"",""trial"",""time""
""blur"",""1"",""1317""
""focus"",""1"",""2272""
""fullscreenenter"",""1"",""4049""
","""event"",""trial"",""time""
""blur"",""1"",""1317""
","""event"",""trial"",""time""
""focus"",""1"",""2272""
","""event"",""trial"",""time""
""fullscreenenter"",""1"",""4049""
","
","","","","","","401.7999999523163","<p> On every trial, you will see an image. </p><p> The image may be an OLD image you saw during the games last week or it may be a NEW image that was not presented. </p>","","0","instructions","","","","","","","","",""
"learning-instructions","10","45815","0.0-7.0-0.3","1920","2","""event"",""trial"",""time""
""blur"",""1"",""1317""
""focus"",""1"",""2272""
""fullscreenenter"",""1"",""4049""
","""event"",""trial"",""time""
""blur"",""1"",""1317""
","""event"",""trial"",""time""
""focus"",""1"",""2272""
","""event"",""trial"",""time""
""fullscreenenter"",""1"",""4049""
","
","","","","","","1946.5","<p> You need to select whether the image is:  </p><p>  'Definitely old', 'Maybe old', 'Maybe new', or 'Definitely new.'  </p><div class=""mem-choice-instructions-grid""><div class=""choice-option"" id=""choice-option-1"" ><img src=""images/definitely_old_1.png"" id=""choice-option-img-1"" class=""choice-option-img"" stage=""1""></div><div class=""choice-option"" id=""choice-option-2"" ><img src=""images/maybe_old_1.png"" id=""choice-option-img-2"" class=""choice-option-img"" stage=""1""></div><div class=""choice-option"" id=""choice-option-3"" ><img src=""images/maybe_new_1.png"" id=""choice-option-img-3"" class=""choice-option-img"" stage=""1""></div><div class=""choice-option"" id=""choice-option-4"" > <img src=""images/definitely_new_1.png"" id=""choice-option-img-4"" class=""choice-option-img"" stage=""1""></div></div>","","0","instructions","","","","","","","","",""
"learning-instructions","11","52931","0.0-7.0-0.4","1920","2","""event"",""trial"",""time""
""blur"",""1"",""1317""
""focus"",""1"",""2272""
""fullscreenenter"",""1"",""4049""
","""event"",""trial"",""time""
""blur"",""1"",""1317""
","""event"",""trial"",""time""
""focus"",""1"",""2272""
","""event"",""trial"",""time""
""fullscreenenter"",""1"",""4049""
","
","","","","","","422.2999999523163","<p> You should use the 1, 2, 3, and 4 keys to make your responses.  </p><div class=""mem-choice-instructions-grid""><div class=""choice-option"" id=""choice-option-1"" ><img src=""images/definitely_old.png"" id=""choice-option-img-1"" class=""choice-option-img"" stage=""1""></div><div class=""choice-option"" id=""choice-option-2"" ><img src=""images/maybe_old.png"" id=""choice-option-img-2"" class=""choice-option-img"" stage=""1""></div><div class=""choice-option"" id=""choice-option-3"" ><img src=""images/maybe_new.png"" id=""choice-option-img-3"" class=""choice-option-img"" stage=""1""></div><div class=""choice-option"" id=""choice-option-4"" > <img src=""images/definitely_new.png"" id=""choice-option-img-4"" class=""choice-option-img"" stage=""1""></div></div>","","0","instructions","","","","","","","","",""
"learning-instructions","12","60027","0.0-7.0-0.5","1920","2","""event"",""trial"",""time""
""blur"",""1"",""1317""
""focus"",""1"",""2272""
""fullscreenenter"",""1"",""4049""
","""event"",""trial"",""time""
""blur"",""1"",""1317""
","""event"",""trial"",""time""
""focus"",""1"",""2272""
","""event"",""trial"",""time""
""fullscreenenter"",""1"",""4049""
","
","","","","","","331.2999999523163","<p> You will have 10 seconds to make each response.  </p><p>  Make sure to respond before time runs out! </p>","","0","instructions","","","","","","","","",""
"learning-instructions","13","67983","0.0-7.0-0.6","1920","2","""event"",""trial"",""time""
""blur"",""1"",""1317""
""focus"",""1"",""2272""
""fullscreenenter"",""1"",""4049""
","""event"",""trial"",""time""
""blur"",""1"",""1317""
","""event"",""trial"",""time""
""focus"",""1"",""2272""
","""event"",""trial"",""time""
""fullscreenenter"",""1"",""4049""
","
","","","","","","377.8000000715256","<p> Today, you will see each image ONCE only.  </p><p>  That means none of the images will repeat. </p>","","0","instructions","","","","","","","","",""
"learning-instructions","14","81643","0.0-7.0-0.7","1920","2","""event"",""trial"",""time""
""blur"",""1"",""1317""
""focus"",""1"",""2272""
""fullscreenenter"",""1"",""4049""
","""event"",""trial"",""time""
""blur"",""1"",""1317""
","""event"",""trial"",""time""
""focus"",""1"",""2272""
","""event"",""trial"",""time""
""fullscreenenter"",""1"",""4049""
","
","","","","","","977.5","<p> Before you play the real game, it is time to practice. </p><p>  Just like in the real game, some of the images in the practice will be ones you have seen before. </p><p>  Others will be entirely new. </p>","","0","instructions","","","","","","","","",""
"html-button-response","15","84215","0.0-8.0","1920","2","""event"",""trial"",""time""
""blur"",""1"",""1317""
""focus"",""1"",""2272""
""fullscreenenter"",""1"",""4049""
","""event"",""trial"",""time""
""blur"",""1"",""1317""
","""event"",""trial"",""time""
""focus"",""1"",""2272""
","""event"",""trial"",""time""
""fullscreenenter"",""1"",""4049""
","
","","","","","","2463.399999976158","<p> Ready to practice? </p><p> Remember, use the 1, 2, 3, and 4 keys to make your responses. </p>","0","","instructions","","","","","","","","",""
"html-keyboard-response","16","84816","0.0-9.0-0.0","1920","2","""event"",""trial"",""time""
""blur"",""1"",""1317""
""focus"",""1"",""2272""
""fullscreenenter"",""1"",""4049""
","""event"",""trial"",""time""
""blur"",""1"",""1317""
","""event"",""trial"",""time""
""focus"",""1"",""2272""
","""event"",""trial"",""time""
""fullscreenenter"",""1"",""4049""
","
","","","","","","null","<div style=""font-size:60px;"">+</div>","null","","fixation","","","","","","","","",""
"memory-trial","17","89222","0.0-9.0-1.0","1920","2","""event"",""trial"",""time""
""blur"",""1"",""1317""
""focus"",""1"",""2272""
""fullscreenenter"",""1"",""4049""
","""event"",""trial"",""time""
""blur"",""1"",""1317""
","""event"",""trial"",""time""
""focus"",""1"",""2272""
","""event"",""trial"",""time""
""fullscreenenter"",""1"",""4049""
","
","","","","","","3397.1999999284744","images/racket1.png","","","practice","2","maybe_old","","","","","","",""
"html-keyboard-response","18","89735","0.0-9.0-0.1","1920","2","""event"",""trial"",""time""
""blur"",""1"",""1317""
""focus"",""1"",""2272""
""fullscreenenter"",""1"",""4049""
","""event"",""trial"",""time""
""blur"",""1"",""1317""
","""event"",""trial"",""time""
""focus"",""1"",""2272""
","""event"",""trial"",""time""
""fullscreenenter"",""1"",""4049""
","
","","","","","","null","<div style=""font-size:60px;"">+</div>","null","","fixation","","","","","","","","",""
"memory-trial","19","92475","0.0-9.0-1.1","1920","2","""event"",""trial"",""time""
""blur"",""1"",""1317""
""focus"",""1"",""2272""
""fullscreenenter"",""1"",""4049""
","""event"",""trial"",""time""
""blur"",""1"",""1317""
","""event"",""trial"",""time""
""focus"",""1"",""2272""
","""event"",""trial"",""time""
""fullscreenenter"",""1"",""4049""
","
","","","","","","1735.1000000238419","images/racket4.png","","","practice","3","maybe_new","","","","","","",""
"html-keyboard-response","20","92976","0.0-9.0-0.2","1920","2","""event"",""trial"",""time""
""blur"",""1"",""1317""
""focus"",""1"",""2272""
""fullscreenenter"",""1"",""4049""
","""event"",""trial"",""time""
""blur"",""1"",""1317""
","""event"",""trial"",""time""
""focus"",""1"",""2272""
","""event"",""trial"",""time""
""fullscreenenter"",""1"",""4049""
","
","","","","","","null","<div style=""font-size:60px;"">+</div>","null","","fixation","","","","","","","","",""
"memory-trial","21","96844","0.0-9.0-1.2","1920","2","""event"",""trial"",""time""
""blur"",""1"",""1317""
""focus"",""1"",""2272""
""fullscreenenter"",""1"",""4049""
","""event"",""trial"",""time""
""blur"",""1"",""1317""
","""event"",""trial"",""time""
""focus"",""1"",""2272""
","""event"",""trial"",""time""
""fullscreenenter"",""1"",""4049""
","
","","","","","","2861.3000000715256","images/ball2.png","","","practice","3","maybe_new","","","","","","",""
"html-keyboard-response","22","97357","0.0-9.0-0.3","1920","2","""event"",""trial"",""time""
""blur"",""1"",""1317""
""focus"",""1"",""2272""
""fullscreenenter"",""1"",""4049""
","""event"",""trial"",""time""
""blur"",""1"",""1317""
","""event"",""trial"",""time""
""focus"",""1"",""2272""
","""event"",""trial"",""time""
""fullscreenenter"",""1"",""4049""
","
","","","","","","null","<div style=""font-size:60px;"">+</div>","null","","fixation","","","","","","","","",""
"memory-trial","23","100501","0.0-9.0-1.3","1920","2","""event"",""trial"",""time""
""blur"",""1"",""1317""
""focus"",""1"",""2272""
""fullscreenenter"",""1"",""4049""
","""event"",""trial"",""time""
""blur"",""1"",""1317""
","""event"",""trial"",""time""
""focus"",""1"",""2272""
","""event"",""trial"",""time""
""fullscreenenter"",""1"",""4049""
","
","","","","","","2136.2999999523163","images/racket2.png","","","practice","3","maybe_new","","","","","","",""
"html-keyboard-response","24","101011","0.0-9.0-0.4","1920","2","""event"",""trial"",""time""
""blur"",""1"",""1317""
""focus"",""1"",""2272""
""fullscreenenter"",""1"",""4049""
","""event"",""trial"",""time""
""blur"",""1"",""1317""
","""event"",""trial"",""time""
""focus"",""1"",""2272""
","""event"",""trial"",""time""
""fullscreenenter"",""1"",""4049""
","
","","","","","","null","<div style=""font-size:60px;"">+</div>","null","","fixation","","","","","","","","",""
"memory-trial","25","103003","0.0-9.0-1.4","1920","2","""event"",""trial"",""time""
""blur"",""1"",""1317""
""focus"",""1"",""2272""
""fullscreenenter"",""1"",""4049""
","""event"",""trial"",""time""
""blur"",""1"",""1317""
","""event"",""trial"",""time""
""focus"",""1"",""2272""
","""event"",""trial"",""time""
""fullscreenenter"",""1"",""4049""
","
","","","","","","986.1000000238419","images/racket3.png","","","practice","1","definitely_old","","","","","","",""
"html-keyboard-response","26","103512","0.0-9.0-0.5","1920","2","""event"",""trial"",""time""
""blur"",""1"",""1317""
""focus"",""1"",""2272""
""fullscreenenter"",""1"",""4049""
","""event"",""trial"",""time""
""blur"",""1"",""1317""
","""event"",""trial"",""time""
""focus"",""1"",""2272""
","""event"",""trial"",""time""
""fullscreenenter"",""1"",""4049""
","
","","","","","","null","<div style=""font-size:60px;"">+</div>","null","","fixation","","","","","","","","",""
"memory-trial","27","105871","0.0-9.0-1.5","1920","2","""event"",""trial"",""time""
""blur"",""1"",""1317""
""focus"",""1"",""2272""
""fullscreenenter"",""1"",""4049""
","""event"",""trial"",""time""
""blur"",""1"",""1317""
","""event"",""trial"",""time""
""focus"",""1"",""2272""
","""event"",""trial"",""time""
""fullscreenenter"",""1"",""4049""
","
","","","","","","1349.2000000476837","images/ball4.png","","","practice","3","maybe_new","","","","","","",""
"html-keyboard-response","28","106384","0.0-9.0-0.6","1920","2","""event"",""trial"",""time""
""blur"",""1"",""1317""
""focus"",""1"",""2272""
""fullscreenenter"",""1"",""4049""
","""event"",""trial"",""time""
""blur"",""1"",""1317""
","""event"",""trial"",""time""
""focus"",""1"",""2272""
","""event"",""trial"",""time""
""fullscreenenter"",""1"",""4049""
","
","","","","","","null","<div style=""font-size:60px;"">+</div>","null","","fixation","","","","","","","","",""
"memory-trial","29","109388","0.0-9.0-1.6","1920","2","""event"",""trial"",""time""
""blur"",""1"",""1317""
""focus"",""1"",""2272""
""fullscreenenter"",""1"",""4049""
","""event"",""trial"",""time""
""blur"",""1"",""1317""
","""event"",""trial"",""time""
""focus"",""1"",""2272""
","""event"",""trial"",""time""
""fullscreenenter"",""1"",""4049""
","
","","","","","","1990.6999999284744","images/ball3.png","","","practice","3","maybe_new","","","","","","",""
"html-keyboard-response","30","109899","0.0-9.0-0.7","1920","2","""event"",""trial"",""time""
""blur"",""1"",""1317""
""focus"",""1"",""2272""
""fullscreenenter"",""1"",""4049""
","""event"",""trial"",""time""
""blur"",""1"",""1317""
","""event"",""trial"",""time""
""focus"",""1"",""2272""
","""event"",""trial"",""time""
""fullscreenenter"",""1"",""4049""
","
","","","","","","null","<div style=""font-size:60px;"">+</div>","null","","fixation","","","","","","","","",""
"memory-trial","31","112497","0.0-9.0-1.7","1920","2","""event"",""trial"",""time""
""blur"",""1"",""1317""
""focus"",""1"",""2272""
""fullscreenenter"",""1"",""4049""
","""event"",""trial"",""time""
""blur"",""1"",""1317""
","""event"",""trial"",""time""
""focus"",""1"",""2272""
","""event"",""trial"",""time""
""fullscreenenter"",""1"",""4049""
","
","","","","","","1594.8999999761581","images/ball1.png","","","practice","2","maybe_old","","","","","","",""
"learning-instructions","32","121624","0.0-10.0-0.0","1920","2","""event"",""trial"",""time""
""blur"",""1"",""1317""
""focus"",""1"",""2272""
""fullscreenenter"",""1"",""4049""
","""event"",""trial"",""time""
""blur"",""1"",""1317""
","""event"",""trial"",""time""
""focus"",""1"",""2272""
","""event"",""trial"",""time""
""fullscreenenter"",""1"",""4049""
","
","","","","","","1186.0999999046326","<p> Great! You have completed the practice. </p><p> Before you start, we're going to ask you a few questions about how the game works.  </p>","","0","instructions","","","","","","","","",""
"preload","33","122928","0.0-11.0","1920","2","""event"",""trial"",""time""
""blur"",""1"",""1317""
""focus"",""1"",""2272""
""fullscreenenter"",""1"",""4049""
","""event"",""trial"",""time""
""blur"",""1"",""1317""
","""event"",""trial"",""time""
""focus"",""1"",""2272""
","""event"",""trial"",""time""
""fullscreenenter"",""1"",""4049""
","
","true","false","[]","[]","[]","","","","","","","","","","","","","",""
"comp-q","34","129624","0.0-12.0-0.0","1920","2","""event"",""trial"",""time""
""blur"",""1"",""1317""
""focus"",""1"",""2272""
""fullscreenenter"",""1"",""4049""
","""event"",""trial"",""time""
""blur"",""1"",""1317""
","""event"",""trial"",""time""
""focus"",""1"",""2272""
","""event"",""trial"",""time""
""fullscreenenter"",""1"",""4049""
","
","","","","","","865.5","<p> <b> True or False? </b> </p><p> In this game, you will only see each image once. </p>","","0","comp_question","","","true","","","","","",""
"comp-q","35","137280","0.0-12.0-1.0","1920","2","""event"",""trial"",""time""
""blur"",""1"",""1317""
""focus"",""1"",""2272""
""fullscreenenter"",""1"",""4049""
","""event"",""trial"",""time""
""blur"",""1"",""1317""
","""event"",""trial"",""time""
""focus"",""1"",""2272""
","""event"",""trial"",""time""
""fullscreenenter"",""1"",""4049""
","
","","","","","","1321.7000000476837","<p> <b> That's right! </b> You will see many different images <i> one time each </i> in this game. </p>","","0","comp_answer","","","","","","","","",""
"comp-q","36","144075","0.0-12.0-0.1","1920","2","""event"",""trial"",""time""
""blur"",""1"",""1317""
""focus"",""1"",""2272""
""fullscreenenter"",""1"",""4049""
","""event"",""trial"",""time""
""blur"",""1"",""1317""
","""event"",""trial"",""time""
""focus"",""1"",""2272""
","""event"",""trial"",""time""
""fullscreenenter"",""1"",""4049""
","
","","","","","","997.0999999046326","<p> <b> True or False? </b> </p><p> You should use the mouse and click to make your response. </p>","","1","comp_question","","","true","","","","","",""
"comp-q","37","154613","0.0-12.0-1.1","1920","2","""event"",""trial"",""time""
""blur"",""1"",""1317""
""focus"",""1"",""2272""
""fullscreenenter"",""1"",""4049""
","""event"",""trial"",""time""
""blur"",""1"",""1317""
","""event"",""trial"",""time""
""focus"",""1"",""2272""
","""event"",""trial"",""time""
""fullscreenenter"",""1"",""4049""
","
","","","","","","3184.8000000715256","<p><b> That's right! </b> You should use the '1', '2', '3', and '4' keys to make your response. </p>","","0","comp_answer","","","","","","","","",""
"comp-q","38","161132","0.0-12.0-0.2","1920","2","""event"",""trial"",""time""
""blur"",""1"",""1317""
""focus"",""1"",""2272""
""fullscreenenter"",""1"",""4049""
","""event"",""trial"",""time""
""blur"",""1"",""1317""
","""event"",""trial"",""time""
""focus"",""1"",""2272""
","""event"",""trial"",""time""
""fullscreenenter"",""1"",""4049""
","
","","","","","","523.5","<p> <b> True or False? </b> </p><p> You will have as much time as you want to make each choice. </p>","","1","comp_question","","","true","","","","","",""
"comp-q","39","167208","0.0-12.0-1.2","1920","2","""event"",""trial"",""time""
""blur"",""1"",""1317""
""focus"",""1"",""2272""
""fullscreenenter"",""1"",""4049""
","""event"",""trial"",""time""
""blur"",""1"",""1317""
","""event"",""trial"",""time""
""focus"",""1"",""2272""
","""event"",""trial"",""time""
""fullscreenenter"",""1"",""4049""
","
","","","","","","690","<p> <b> That's right! </b> You will only have 10 seconds to make each choice. </p>","","0","comp_answer","","","","","","","","",""
"learning-instructions","40","176903","0.0-13.0","1920","2","""event"",""trial"",""time""
""blur"",""1"",""1317""
""focus"",""1"",""2272""
""fullscreenenter"",""1"",""4049""
","""event"",""trial"",""time""
""blur"",""1"",""1317""
","""event"",""trial"",""time""
""focus"",""1"",""2272""
","""event"",""trial"",""time""
""fullscreenenter"",""1"",""4049""
","
","","","","","","1025.8999999761581","<p> Great! You are now ready to begin the game. </p><p> Remember, use the 1, 2, 3, and 4 keys to make your responses. </p>","","0","instructions","","","","","","","","",""
"preload","41","179871","0.0-14.0","1920","2","""event"",""trial"",""time""
""blur"",""1"",""1317""
""focus"",""1"",""2272""
""fullscreenenter"",""1"",""4049""
","""event"",""trial"",""time""
""blur"",""1"",""1317""
","""event"",""trial"",""time""
""focus"",""1"",""2272""
","""event"",""trial"",""time""
""fullscreenenter"",""1"",""4049""
","
","true","false","[]","[]","[]","","","","","","","","","","","","","",""
"html-keyboard-response","42","180379","0.0-15.0-0.0","1920","2","""event"",""trial"",""time""
""blur"",""1"",""1317""
""focus"",""1"",""2272""
""fullscreenenter"",""1"",""4049""
","""event"",""trial"",""time""
""blur"",""1"",""1317""
","""event"",""trial"",""time""
""focus"",""1"",""2272""
","""event"",""trial"",""time""
""fullscreenenter"",""1"",""4049""
","
","","","","","","null","<div style=""font-size:60px;"">+</div>","null","","fixation","","","","","","","","",""
"memory-trial","43","184003","0.0-15.0-1.0","1920","2","""event"",""trial"",""time""
""blur"",""1"",""1317""
""focus"",""1"",""2272""
""fullscreenenter"",""1"",""4049""
","""event"",""trial"",""time""
""blur"",""1"",""1317""
","""event"",""trial"",""time""
""focus"",""1"",""2272""
","""event"",""trial"",""time""
""fullscreenenter"",""1"",""4049""
","
","","","","","","2618.5","images/banana1.png","","","memory_trial","3","maybe_new","","","","","","",""
"html-keyboard-response","44","184518","0.0-15.0-0.1","1920","2","""event"",""trial"",""time""
""blur"",""1"",""1317""
""focus"",""1"",""2272""
""fullscreenenter"",""1"",""4049""
","""event"",""trial"",""time""
""blur"",""1"",""1317""
","""event"",""trial"",""time""
""focus"",""1"",""2272""
","""event"",""trial"",""time""
""fullscreenenter"",""1"",""4049""
","
","","","","","","null","<div style=""font-size:60px;"">+</div>","null","","fixation","","","","","","","","",""
"memory-trial","45","186823","0.0-15.0-1.1","1920","2","""event"",""trial"",""time""
""blur"",""1"",""1317""
""focus"",""1"",""2272""
""fullscreenenter"",""1"",""4049""
","""event"",""trial"",""time""
""blur"",""1"",""1317""
","""event"",""trial"",""time""
""focus"",""1"",""2272""
","""event"",""trial"",""time""
""fullscreenenter"",""1"",""4049""
","
","","","","","","1288.2000000476837","images/rabbit5.png","","","memory_trial","1","definitely_old","","","","","","",""
"html-keyboard-response","46","187336","0.0-15.0-0.2","1920","2","""event"",""trial"",""time""
""blur"",""1"",""1317""
""focus"",""1"",""2272""
""fullscreenenter"",""1"",""4049""
","""event"",""trial"",""time""
""blur"",""1"",""1317""
","""event"",""trial"",""time""
""focus"",""1"",""2272""
","""event"",""trial"",""time""
""fullscreenenter"",""1"",""4049""
","
","","","","","","null","<div style=""font-size:60px;"">+</div>","null","","fixation","","","","","","","","",""
"memory-trial","47","189581","0.0-15.0-1.2","1920","2","""event"",""trial"",""time""
""blur"",""1"",""1317""
""focus"",""1"",""2272""
""fullscreenenter"",""1"",""4049""
","""event"",""trial"",""time""
""blur"",""1"",""1317""
","""event"",""trial"",""time""
""focus"",""1"",""2272""
","""event"",""trial"",""time""
""fullscreenenter"",""1"",""4049""
","
","","","","","","1230.1999999284744","images/truck4.png","","","memory_trial","1","definitely_old","","","","","","",""
"html-keyboard-response","48","190092","0.0-15.0-0.3","1920","2","""event"",""trial"",""time""
""blur"",""1"",""1317""
""focus"",""1"",""2272""
""fullscreenenter"",""1"",""4049""
","""event"",""trial"",""time""
""blur"",""1"",""1317""
","""event"",""trial"",""time""
""focus"",""1"",""2272""
","""event"",""trial"",""time""
""fullscreenenter"",""1"",""4049""
","
","","","","","","null","<div style=""font-size:60px;"">+</div>","null","","fixation","","","","","","","","",""
"memory-trial","49","192844","0.0-15.0-1.3","1920","2","""event"",""trial"",""time""
""blur"",""1"",""1317""
""focus"",""1"",""2272""
""fullscreenenter"",""1"",""4049""
","""event"",""trial"",""time""
""blur"",""1"",""1317""
","""event"",""trial"",""time""
""focus"",""1"",""2272""
","""event"",""trial"",""time""
""fullscreenenter"",""1"",""4049""
","
","","","","","","1746.2000000476837","images/tree2.png","","","memory_trial","4","definitely_new","","","","","","",""
"html-keyboard-response","50","193357","0.0-15.0-0.4","1920","2","""event"",""trial"",""time""
""blur"",""1"",""1317""
""focus"",""1"",""2272""
""fullscreenenter"",""1"",""4049""
","""event"",""trial"",""time""
""blur"",""1"",""1317""
","""event"",""trial"",""time""
""focus"",""1"",""2272""
","""event"",""trial"",""time""
""fullscreenenter"",""1"",""4049""
","
","","","","","","null","<div style=""font-size:60px;"">+</div>","null","","fixation","","","","","","","","",""
"memory-trial","51","196925","0.0-15.0-1.4","1920","2","""event"",""trial"",""time""
""blur"",""1"",""1317""
""focus"",""1"",""2272""
""fullscreenenter"",""1"",""4049""
","""event"",""trial"",""time""
""blur"",""1"",""1317""
","""event"",""trial"",""time""
""focus"",""1"",""2272""
","""event"",""trial"",""time""
""fullscreenenter"",""1"",""4049""
","
","","","","","","2561.2000000476837","images/sofa5.png","","","memory_trial","3","maybe_new","","","","","","",""
"html-keyboard-response","52","197428","0.0-15.0-0.5","1920","2","""event"",""trial"",""time""
""blur"",""1"",""1317""
""focus"",""1"",""2272""
""fullscreenenter"",""1"",""4049""
","""event"",""trial"",""time""
""blur"",""1"",""1317""
","""event"",""trial"",""time""
""focus"",""1"",""2272""
","""event"",""trial"",""time""
""fullscreenenter"",""1"",""4049""
","
","","","","","","null","<div style=""font-size:60px;"">+</div>","null","","fixation","","","","","","","","",""
"memory-trial","53","200101","0.0-15.0-1.5","1920","2","""event"",""trial"",""time""
""blur"",""1"",""1317""
""focus"",""1"",""2272""
""fullscreenenter"",""1"",""4049""
","""event"",""trial"",""time""
""blur"",""1"",""1317""
","""event"",""trial"",""time""
""focus"",""1"",""2272""
","""event"",""trial"",""time""
""fullscreenenter"",""1"",""4049""
","
","","","","","","1665.7000000476837","images/plane3.png","","","memory_trial","3","maybe_new","","","","","","",""
"html-keyboard-response","54","200613","0.0-15.0-0.6","1920","2","""event"",""trial"",""time""
""blur"",""1"",""1317""
""focus"",""1"",""2272""
""fullscreenenter"",""1"",""4049""
","""event"",""trial"",""time""
""blur"",""1"",""1317""
","""event"",""trial"",""time""
""focus"",""1"",""2272""
","""event"",""trial"",""time""
""fullscreenenter"",""1"",""4049""
","
","","","","","","null","<div style=""font-size:60px;"">+</div>","null","","fixation","","","","","","","","",""
"memory-trial","55","204987","0.0-15.0-1.6","1920","2","""event"",""trial"",""time""
""blur"",""1"",""1317""
""focus"",""1"",""2272""
""fullscreenenter"",""1"",""4049""
","""event"",""trial"",""time""
""blur"",""1"",""1317""
","""event"",""trial"",""time""
""focus"",""1"",""2272""
","""event"",""trial"",""time""
""fullscreenenter"",""1"",""4049""
","
","","","","","","3369.5","images/rodent1.png","","","memory_trial","1","definitely_old","","","","","","",""
"html-keyboard-response","56","205500","0.0-15.0-0.7","1920","2","""event"",""trial"",""time""
""blur"",""1"",""1317""
""focus"",""1"",""2272""
""fullscreenenter"",""1"",""4049""
","""event"",""trial"",""time""
""blur"",""1"",""1317""
","""event"",""trial"",""time""
""focus"",""1"",""2272""
","""event"",""trial"",""time""
""fullscreenenter"",""1"",""4049""
","
","","","","","","null","<div style=""font-size:60px;"">+</div>","null","","fixation","","","","","","","","",""
"memory-trial","57","210529","0.0-15.0-1.7","1920","2","""event"",""trial"",""time""
""blur"",""1"",""1317""
""focus"",""1"",""2272""
""fullscreenenter"",""1"",""4049""
","""event"",""trial"",""time""
""blur"",""1"",""1317""
","""event"",""trial"",""time""
""focus"",""1"",""2272""
","""event"",""trial"",""time""
""fullscreenenter"",""1"",""4049""
","
","","","","","","4025.0999999046326","images/cow1.png","","","memory_trial","4","definitely_new","","","","","","",""
"html-keyboard-response","58","211030","0.0-15.0-0.8","1920","2","""event"",""trial"",""time""
""blur"",""1"",""1317""
""focus"",""1"",""2272""
""fullscreenenter"",""1"",""4049""
","""event"",""trial"",""time""
""blur"",""1"",""1317""
","""event"",""trial"",""time""
""focus"",""1"",""2272""
","""event"",""trial"",""time""
""fullscreenenter"",""1"",""4049""
","
","","","","","","null","<div style=""font-size:60px;"">+</div>","null","","fixation","","","","","","","","",""
"memory-trial","59","213647","0.0-15.0-1.8","1920","2","""event"",""trial"",""time""
""blur"",""1"",""1317""
""focus"",""1"",""2272""
""fullscreenenter"",""1"",""4049""
","""event"",""trial"",""time""
""blur"",""1"",""1317""
","""event"",""trial"",""time""
""focus"",""1"",""2272""
","""event"",""trial"",""time""
""fullscreenenter"",""1"",""4049""
","
","","","","","","1614.8000000715256","images/truck5.png","","","memory_trial","4","definitely_new","","","","","","",""
"html-keyboard-response","60","214149","0.0-15.0-0.9","1920","2","""event"",""trial"",""time""
""blur"",""1"",""1317""
""focus"",""1"",""2272""
""fullscreenenter"",""1"",""4049""
","""event"",""trial"",""time""
""blur"",""1"",""1317""
","""event"",""trial"",""time""
""focus"",""1"",""2272""
","""event"",""trial"",""time""
""fullscreenenter"",""1"",""4049""
","
","","","","","","null","<div style=""font-size:60px;"">+</div>","null","","fixation","","","","","","","","",""
"memory-trial","61","216585","0.0-15.0-1.9","1920","2","""event"",""trial"",""time""
""blur"",""1"",""1317""
""focus"",""1"",""2272""
""fullscreenenter"",""1"",""4049""
","""event"",""trial"",""time""
""blur"",""1"",""1317""
","""event"",""trial"",""time""
""focus"",""1"",""2272""
","""event"",""trial"",""time""
""fullscreenenter"",""1"",""4049""
","
","","","","","","1433.3999999761581","images/horse4.png","","","memory_trial","1","definitely_old","","","","","","",""
"html-keyboard-response","62","217086","0.0-15.0-0.10","1920","2","""event"",""trial"",""time""
""blur"",""1"",""1317""
""focus"",""1"",""2272""
""fullscreenenter"",""1"",""4049""
","""event"",""trial"",""time""
""blur"",""1"",""1317""
","""event"",""trial"",""time""
""focus"",""1"",""2272""
","""event"",""trial"",""time""
""fullscreenenter"",""1"",""4049""
","
","","","","","","null","<div style=""font-size:60px;"">+</div>","null","","fixation","","","","","","","","",""
"memory-trial","63","219064","0.0-15.0-1.10","1920","2","""event"",""trial"",""time""
""blur"",""1"",""1317""
""focus"",""1"",""2272""
""fullscreenenter"",""1"",""4049""
","""event"",""trial"",""time""
""blur"",""1"",""1317""
","""event"",""trial"",""time""
""focus"",""1"",""2272""
","""event"",""trial"",""time""
""fullscreenenter"",""1"",""4049""
","
","","","","","","975.8999999761581","images/sheep1.png","","","memory_trial","1","definitely_old","","","","","","",""
"html-keyboard-response","64","219566","0.0-15.0-0.11","1920","2","""event"",""trial"",""time""
""blur"",""1"",""1317""
""focus"",""1"",""2272""
""fullscreenenter"",""1"",""4049""
","""event"",""trial"",""time""
""blur"",""1"",""1317""
","""event"",""trial"",""time""
""focus"",""1"",""2272""
","""event"",""trial"",""time""
""fullscreenenter"",""1"",""4049""
","
","","","","","","null","<div style=""font-size:60px;"">+</div>","null","","fixation","","","","","","","","",""
"memory-trial","65","222608","0.0-15.0-1.11","1920","2","""event"",""trial"",""time""
""blur"",""1"",""1317""
""focus"",""1"",""2272""
""fullscreenenter"",""1"",""4049""
","""event"",""trial"",""time""
""blur"",""1"",""1317""
","""event"",""trial"",""time""
""focus"",""1"",""2272""
","""event"",""trial"",""time""
""fullscreenenter"",""1"",""4049""
","
","","","","","","2040","images/orange2.png","","","memory_trial","2","maybe_old","","","","","","",""
"html-keyboard-response","66","223109","0.0-15.0-0.12","1920","2","""event"",""trial"",""time""
""blur"",""1"",""1317""
""focus"",""1"",""2272""
""fullscreenenter"",""1"",""4049""
""blur"",""67"",""226523""
","""event"",""trial"",""time""
""blur"",""1"",""1317""
""blur"",""67"",""226523""
","""event"",""trial"",""time""
""focus"",""1"",""2272""
","""event"",""trial"",""time""
""fullscreenenter"",""1"",""4049""
","
","","","","","","null","<div style=""font-size:60px;"">+</div>","null","","fixation","","","","","","","","",""
"memory-trial","67","227391","0.0-15.0-1.12","1920","2","""event"",""trial"",""time""
""blur"",""1"",""1317""
""focus"",""1"",""2272""
""fullscreenenter"",""1"",""4049""
""blur"",""67"",""226523""
","""event"",""trial"",""time""
""blur"",""1"",""1317""
""blur"",""67"",""226523""
","""event"",""trial"",""time""
""focus"",""1"",""2272""
","""event"",""trial"",""time""
""fullscreenenter"",""1"",""4049""
","
","","","","","","3280","images/banana3.png","","","memory_trial","3","maybe_new","","","","","","",""
"html-keyboard-response","68","227893","0.0-15.0-0.13","1920","2","""event"",""trial"",""time""
""blur"",""1"",""1317""
""focus"",""1"",""2272""
""fullscreenenter"",""1"",""4049""
""blur"",""67"",""226523""
""focus"",""69"",""230951""
","""event"",""trial"",""time""
""blur"",""1"",""1317""
""blur"",""67"",""226523""
","""event"",""trial"",""time""
""focus"",""1"",""2272""
""focus"",""69"",""230951""
","""event"",""trial"",""time""
""fullscreenenter"",""1"",""4049""
","
","","","","","","null","<div style=""font-size:60px;"">+</div>","null","","fixation","","","","","","","","",""
"memory-trial","69","232454","0.0-15.0-1.13","1920","2","""event"",""trial"",""time""
""blur"",""1"",""1317""
""focus"",""1"",""2272""
""fullscreenenter"",""1"",""4049""
""blur"",""67"",""226523""
""focus"",""69"",""230951""
","""event"",""trial"",""time""
""blur"",""1"",""1317""
""blur"",""67"",""226523""
","""event"",""trial"",""time""
""focus"",""1"",""2272""
""focus"",""69"",""230951""
","""event"",""trial"",""time""
""fullscreenenter"",""1"",""4049""
","
","","","","","","3559.5999999046326","images/banana2.png","","","memory_trial","3","maybe_new","","","","","","",""
"html-keyboard-response","70","232955","0.0-15.0-0.14","1920","2","""event"",""trial"",""time""
""blur"",""1"",""1317""
""focus"",""1"",""2272""
""fullscreenenter"",""1"",""4049""
""blur"",""67"",""226523""
""focus"",""69"",""230951""
","""event"",""trial"",""time""
""blur"",""1"",""1317""
""blur"",""67"",""226523""
","""event"",""trial"",""time""
""focus"",""1"",""2272""
""focus"",""69"",""230951""
","""event"",""trial"",""time""
""fullscreenenter"",""1"",""4049""
","
","","","","","","null","<div style=""font-size:60px;"">+</div>","null","","fixation","","","","","","","","",""
"memory-trial","71","235389","0.0-15.0-1.14","1920","2","""event"",""trial"",""time""
""blur"",""1"",""1317""
""focus"",""1"",""2272""
""fullscreenenter"",""1"",""4049""
""blur"",""67"",""226523""
""focus"",""69"",""230951""
","""event"",""trial"",""time""
""blur"",""1"",""1317""
""blur"",""67"",""226523""
","""event"",""trial"",""time""
""focus"",""1"",""2272""
""focus"",""69"",""230951""
","""event"",""trial"",""time""
""fullscreenenter"",""1"",""4049""
","
","","","","","","1426.6999999284744","images/chair4.png","","","memory_trial","4","definitely_new","","","","","","",""
"html-keyboard-response","72","235891","0.0-15.0-0.15","1920","2","""event"",""trial"",""time""
""blur"",""1"",""1317""
""focus"",""1"",""2272""
""fullscreenenter"",""1"",""4049""
""blur"",""67"",""226523""
""focus"",""69"",""230951""
","""event"",""trial"",""time""
""blur"",""1"",""1317""
""blur"",""67"",""226523""
","""event"",""trial"",""time""
""focus"",""1"",""2272""
""focus"",""69"",""230951""
","""event"",""trial"",""time""
""fullscreenenter"",""1"",""4049""
","
","","","","","","null","<div style=""font-size:60px;"">+</div>","null","","fixation","","","","","","","","",""
"memory-trial","73","239695","0.0-15.0-1.15","1920","2","""event"",""trial"",""time""
""blur"",""1"",""1317""
""focus"",""1"",""2272""
""fullscreenenter"",""1"",""4049""
""blur"",""67"",""226523""
""focus"",""69"",""230951""
","""event"",""trial"",""time""
""blur"",""1"",""1317""
""blur"",""67"",""226523""
","""event"",""trial"",""time""
""focus"",""1"",""2272""
""focus"",""69"",""230951""
","""event"",""trial"",""time""
""fullscreenenter"",""1"",""4049""
","
","","","","","","2803.1999999284744","images/cow2.png","","","memory_trial","3","maybe_new","","","","","","",""
"html-keyboard-response","74","240196","0.0-15.0-0.16","1920","2","""event"",""trial"",""time""
""blur"",""1"",""1317""
""focus"",""1"",""2272""
""fullscreenenter"",""1"",""4049""
""blur"",""67"",""226523""
""focus"",""69"",""230951""
","""event"",""trial"",""time""
""blur"",""1"",""1317""
""blur"",""67"",""226523""
","""event"",""trial"",""time""
""focus"",""1"",""2272""
""focus"",""69"",""230951""
","""event"",""trial"",""time""
""fullscreenenter"",""1"",""4049""
","
","","","","","","null","<div style=""font-size:60px;"">+</div>","null","","fixation","","","","","","","","",""
"memory-trial","75","242847","0.0-15.0-1.16","1920","2","""event"",""trial"",""time""
""blur"",""1"",""1317""
""focus"",""1"",""2272""
""fullscreenenter"",""1"",""4049""
""blur"",""67"",""226523""
""focus"",""69"",""230951""
","""event"",""trial"",""time""
""blur"",""1"",""1317""
""blur"",""67"",""226523""
","""event"",""trial"",""time""
""focus"",""1"",""2272""
""focus"",""69"",""230951""
","""event"",""trial"",""time""
""fullscreenenter"",""1"",""4049""
","
","","","","","","1649.2000000476837","images/cow5.png","","","memory_trial","3","maybe_new","","","","","","",""
"html-keyboard-response","76","243350","0.0-15.0-0.17","1920","2","""event"",""trial"",""time""
""blur"",""1"",""1317""
""focus"",""1"",""2272""
""fullscreenenter"",""1"",""4049""
""blur"",""67"",""226523""
""focus"",""69"",""230951""
","""event"",""trial"",""time""
""blur"",""1"",""1317""
""blur"",""67"",""226523""
","""event"",""trial"",""time""
""focus"",""1"",""2272""
""focus"",""69"",""230951""
","""event"",""trial"",""time""
""fullscreenenter"",""1"",""4049""
","
","","","","","","null","<div style=""font-size:60px;"">+</div>","null","","fixation","","","","","","","","",""
"memory-trial","77","247737","0.0-15.0-1.17","1920","2","""event"",""trial"",""time""
""blur"",""1"",""1317""
""focus"",""1"",""2272""
""fullscreenenter"",""1"",""4049""
""blur"",""67"",""226523""
""focus"",""69"",""230951""
","""event"",""trial"",""time""
""blur"",""1"",""1317""
""blur"",""67"",""226523""
","""event"",""trial"",""time""
""focus"",""1"",""2272""
""focus"",""69"",""230951""
","""event"",""trial"",""time""
""fullscreenenter"",""1"",""4049""
","
","","","","","","3384.8000000715256","images/table1.png","","","memory_trial","3","maybe_new","","","","","","",""
"html-keyboard-response","78","248239","0.0-15.0-0.18","1920","2","""event"",""trial"",""time""
""blur"",""1"",""1317""
""focus"",""1"",""2272""
""fullscreenenter"",""1"",""4049""
""blur"",""67"",""226523""
""focus"",""69"",""230951""
","""event"",""trial"",""time""
""blur"",""1"",""1317""
""blur"",""67"",""226523""
","""event"",""trial"",""time""
""focus"",""1"",""2272""
""focus"",""69"",""230951""
","""event"",""trial"",""time""
""fullscreenenter"",""1"",""4049""
","
","","","","","","null","<div style=""font-size:60px;"">+</div>","null","","fixation","","","","","","","","",""
"memory-trial","79","252216","0.0-15.0-1.18","1920","2","""event"",""trial"",""time""
""blur"",""1"",""1317""
""focus"",""1"",""2272""
""fullscreenenter"",""1"",""4049""
""blur"",""67"",""226523""
""focus"",""69"",""230951""
","""event"",""trial"",""time""
""blur"",""1"",""1317""
""blur"",""67"",""226523""
","""event"",""trial"",""time""
""focus"",""1"",""2272""
""focus"",""69"",""230951""
","""event"",""trial"",""time""
""fullscreenenter"",""1"",""4049""
","
","","","","","","2974.4000000953674","images/sofa4.png","","","memory_trial","3","maybe_new","","","","","","",""
"html-keyboard-response","80","252718","0.0-15.0-0.19","1920","2","""event"",""trial"",""time""
""blur"",""1"",""1317""
""focus"",""1"",""2272""
""fullscreenenter"",""1"",""4049""
""blur"",""67"",""226523""
""focus"",""69"",""230951""
","""event"",""trial"",""time""
""blur"",""1"",""1317""
""blur"",""67"",""226523""
","""event"",""trial"",""time""
""focus"",""1"",""2272""
""focus"",""69"",""230951""
","""event"",""trial"",""time""
""fullscreenenter"",""1"",""4049""
","
","","","","","","null","<div style=""font-size:60px;"">+</div>","null","","fixation","","","","","","","","",""
"memory-trial","81","254801","0.0-15.0-1.19","1920","2","""event"",""trial"",""time""
""blur"",""1"",""1317""
""focus"",""1"",""2272""
""fullscreenenter"",""1"",""4049""
""blur"",""67"",""226523""
""focus"",""69"",""230951""
","""event"",""trial"",""time""
""blur"",""1"",""1317""
""blur"",""67"",""226523""
","""event"",""trial"",""time""
""focus"",""1"",""2272""
""focus"",""69"",""230951""
","""event"",""trial"",""time""
""fullscreenenter"",""1"",""4049""
","
","","","","","","1080","images/apple5.png","","","memory_trial","4","definitely_new","","","","","","",""
"html-keyboard-response","82","255302","0.0-15.0-0.20","1920","2","""event"",""trial"",""time""
""blur"",""1"",""1317""
""focus"",""1"",""2272""
""fullscreenenter"",""1"",""4049""
""blur"",""67"",""226523""
""focus"",""69"",""230951""
","""event"",""trial"",""time""
""blur"",""1"",""1317""
""blur"",""67"",""226523""
","""event"",""trial"",""time""
""focus"",""1"",""2272""
""focus"",""69"",""230951""
","""event"",""trial"",""time""
""fullscreenenter"",""1"",""4049""
","
","","","","","","null","<div style=""font-size:60px;"">+</div>","null","","fixation","","","","","","","","",""
"memory-trial","83","258057","0.0-15.0-1.20","1920","2","""event"",""trial"",""time""
""blur"",""1"",""1317""
""focus"",""1"",""2272""
""fullscreenenter"",""1"",""4049""
""blur"",""67"",""226523""
""focus"",""69"",""230951""
","""event"",""trial"",""time""
""blur"",""1"",""1317""
""blur"",""67"",""226523""
","""event"",""trial"",""time""
""focus"",""1"",""2272""
""focus"",""69"",""230951""
","""event"",""trial"",""time""
""fullscreenenter"",""1"",""4049""
","
","","","","","","1751.2999999523163","images/plane1.png","","","memory_trial","3","maybe_new","","","","","","",""
"html-keyboard-response","84","258559","0.0-15.0-0.21","1920","2","""event"",""trial"",""time""
""blur"",""1"",""1317""
""focus"",""1"",""2272""
""fullscreenenter"",""1"",""4049""
""blur"",""67"",""226523""
""focus"",""69"",""230951""
","""event"",""trial"",""time""
""blur"",""1"",""1317""
""blur"",""67"",""226523""
","""event"",""trial"",""time""
""focus"",""1"",""2272""
""focus"",""69"",""230951""
","""event"",""trial"",""time""
""fullscreenenter"",""1"",""4049""
","
","","","","","","null","<div style=""font-size:60px;"">+</div>","null","","fixation","","","","","","","","",""
"memory-trial","85","261136","0.0-15.0-1.21","1920","2","""event"",""trial"",""time""
""blur"",""1"",""1317""
""focus"",""1"",""2272""
""fullscreenenter"",""1"",""4049""
""blur"",""67"",""226523""
""focus"",""69"",""230951""
","""event"",""trial"",""time""
""blur"",""1"",""1317""
""blur"",""67"",""226523""
","""event"",""trial"",""time""
""focus"",""1"",""2272""
""focus"",""69"",""230951""
","""event"",""trial"",""time""
""fullscreenenter"",""1"",""4049""
","
","","","","","","1575","images/apple4.png","","","memory_trial","3","maybe_new","","","","","","",""
"html-keyboard-response","86","261637","0.0-15.0-0.22","1920","2","""event"",""trial"",""time""
""blur"",""1"",""1317""
""focus"",""1"",""2272""
""fullscreenenter"",""1"",""4049""
""blur"",""67"",""226523""
""focus"",""69"",""230951""
","""event"",""trial"",""time""
""blur"",""1"",""1317""
""blur"",""67"",""226523""
","""event"",""trial"",""time""
""focus"",""1"",""2272""
""focus"",""69"",""230951""
","""event"",""trial"",""time""
""fullscreenenter"",""1"",""4049""
","
","","","","","","null","<div style=""font-size:60px;"">+</div>","null","","fixation","","","","","","","","",""
"memory-trial","87","265089","0.0-15.0-1.22","1920","2","""event"",""trial"",""time""
""blur"",""1"",""1317""
""focus"",""1"",""2272""
""fullscreenenter"",""1"",""4049""
""blur"",""67"",""226523""
""focus"",""69"",""230951""
","""event"",""trial"",""time""
""blur"",""1"",""1317""
""blur"",""67"",""226523""
","""event"",""trial"",""time""
""focus"",""1"",""2272""
""focus"",""69"",""230951""
","""event"",""trial"",""time""
""fullscreenenter"",""1"",""4049""
","
","","","","","","2449.0999999046326","images/cactus5.png","","","memory_trial","2","maybe_old","","","","","","",""
"html-keyboard-response","88","265591","0.0-15.0-0.23","1920","2","""event"",""trial"",""time""
""blur"",""1"",""1317""
""focus"",""1"",""2272""
""fullscreenenter"",""1"",""4049""
""blur"",""67"",""226523""
""focus"",""69"",""230951""
","""event"",""trial"",""time""
""blur"",""1"",""1317""
""blur"",""67"",""226523""
","""event"",""trial"",""time""
""focus"",""1"",""2272""
""focus"",""69"",""230951""
","""event"",""trial"",""time""
""fullscreenenter"",""1"",""4049""
","
","","","","","","null","<div style=""font-size:60px;"">+</div>","null","","fixation","","","","","","","","",""
"memory-trial","89","268272","0.0-15.0-1.23","1920","2","""event"",""trial"",""time""
""blur"",""1"",""1317""
""focus"",""1"",""2272""
""fullscreenenter"",""1"",""4049""
""blur"",""67"",""226523""
""focus"",""69"",""230951""
","""event"",""trial"",""time""
""blur"",""1"",""1317""
""blur"",""67"",""226523""
","""event"",""trial"",""time""
""focus"",""1"",""2272""
""focus"",""69"",""230951""
","""event"",""trial"",""time""
""fullscreenenter"",""1"",""4049""
","
","","","","","","1678.3999999761581","images/straw1.png","","","memory_trial","2","maybe_old","","","","","","",""
"html-keyboard-response","90","268773","0.0-15.0-0.24","1920","2","""event"",""trial"",""time""
""blur"",""1"",""1317""
""focus"",""1"",""2272""
""fullscreenenter"",""1"",""4049""
""blur"",""67"",""226523""
""focus"",""69"",""230951""
","""event"",""trial"",""time""
""blur"",""1"",""1317""
""blur"",""67"",""226523""
","""event"",""trial"",""time""
""focus"",""1"",""2272""
""focus"",""69"",""230951""
","""event"",""trial"",""time""
""fullscreenenter"",""1"",""4049""
","
","","","","","","null","<div style=""font-size:60px;"">+</div>","null","","fixation","","","","","","","","",""
"memory-trial","91","271576","0.0-15.0-1.24","1920","2","""event"",""trial"",""time""
""blur"",""1"",""1317""
""focus"",""1"",""2272""
""fullscreenenter"",""1"",""4049""
""blur"",""67"",""226523""
""focus"",""69"",""230951""
","""event"",""trial"",""time""
""blur"",""1"",""1317""
""blur"",""67"",""226523""
","""event"",""trial"",""time""
""focus"",""1"",""2272""
""focus"",""69"",""230951""
","""event"",""trial"",""time""
""fullscreenenter"",""1"",""4049""
","
","","","","","","1800.6000000238419","images/dog3.png","","","memory_trial","1","definitely_old","","","","","","",""
"html-keyboard-response","92","272078","0.0-15.0-0.25","1920","2","""event"",""trial"",""time""
""blur"",""1"",""1317""
""focus"",""1"",""2272""
""fullscreenenter"",""1"",""4049""
""blur"",""67"",""226523""
""focus"",""69"",""230951""
","""event"",""trial"",""time""
""blur"",""1"",""1317""
""blur"",""67"",""226523""
","""event"",""trial"",""time""
""focus"",""1"",""2272""
""focus"",""69"",""230951""
","""event"",""trial"",""time""
""fullscreenenter"",""1"",""4049""
","
","","","","","","null","<div style=""font-size:60px;"">+</div>","null","","fixation","","","","","","","","",""
"memory-trial","93","275647","0.0-15.0-1.25","1920","2","""event"",""trial"",""time""
""blur"",""1"",""1317""
""focus"",""1"",""2272""
""fullscreenenter"",""1"",""4049""
""blur"",""67"",""226523""
""focus"",""69"",""230951""
","""event"",""trial"",""time""
""blur"",""1"",""1317""
""blur"",""67"",""226523""
","""event"",""trial"",""time""
""focus"",""1"",""2272""
""focus"",""69"",""230951""
","""event"",""trial"",""time""
""fullscreenenter"",""1"",""4049""
","
","","","","","","2567.100000023842","images/goat3.png","","","memory_trial","3","maybe_new","","","","","","",""
"html-keyboard-response","94","276164","0.0-15.0-0.26","1920","2","""event"",""trial"",""time""
""blur"",""1"",""1317""
""focus"",""1"",""2272""
""fullscreenenter"",""1"",""4049""
""blur"",""67"",""226523""
""focus"",""69"",""230951""
","""event"",""trial"",""time""
""blur"",""1"",""1317""
""blur"",""67"",""226523""
","""event"",""trial"",""time""
""focus"",""1"",""2272""
""focus"",""69"",""230951""
","""event"",""trial"",""time""
""fullscreenenter"",""1"",""4049""
","
","","","","","","null","<div style=""font-size:60px;"">+</div>","null","","fixation","","","","","","","","",""
"memory-trial","95","278248","0.0-15.0-1.26","1920","2","""event"",""trial"",""time""
""blur"",""1"",""1317""
""focus"",""1"",""2272""
""fullscreenenter"",""1"",""4049""
""blur"",""67"",""226523""
""focus"",""69"",""230951""
","""event"",""trial"",""time""
""blur"",""1"",""1317""
""blur"",""67"",""226523""
","""event"",""trial"",""time""
""focus"",""1"",""2272""
""focus"",""69"",""230951""
","""event"",""trial"",""time""
""fullscreenenter"",""1"",""4049""
","
","","","","","","1080.8999999761581","images/flower4.png","","","memory_trial","1","definitely_old","","","","","","",""
"html-keyboard-response","96","278749","0.0-15.0-0.27","1920","2","""event"",""trial"",""time""
""blur"",""1"",""1317""
""focus"",""1"",""2272""
""fullscreenenter"",""1"",""4049""
""blur"",""67"",""226523""
""focus"",""69"",""230951""
","""event"",""trial"",""time""
""blur"",""1"",""1317""
""blur"",""67"",""226523""
","""event"",""trial"",""time""
""focus"",""1"",""2272""
""focus"",""69"",""230951""
","""event"",""trial"",""time""
""fullscreenenter"",""1"",""4049""
","
","","","","","","null","<div style=""font-size:60px;"">+</div>","null","","fixation","","","","","","","","",""
"memory-trial","97","281232","0.0-15.0-1.27","1920","2","""event"",""trial"",""time""
""blur"",""1"",""1317""
""focus"",""1"",""2272""
""fullscreenenter"",""1"",""4049""
""blur"",""67"",""226523""
""focus"",""69"",""230951""
","""event"",""trial"",""time""
""blur"",""1"",""1317""
""blur"",""67"",""226523""
","""event"",""trial"",""time""
""focus"",""1"",""2272""
""focus"",""69"",""230951""
","""event"",""trial"",""time""
""fullscreenenter"",""1"",""4049""
","
","","","","","","1481.2000000476837","images/bed3.png","","","memory_trial","2","maybe_old","","","","","","",""
"html-keyboard-response","98","281735","0.0-15.0-0.28","1920","2","""event"",""trial"",""time""
""blur"",""1"",""1317""
""focus"",""1"",""2272""
""fullscreenenter"",""1"",""4049""
""blur"",""67"",""226523""
""focus"",""69"",""230951""
","""event"",""trial"",""time""
""blur"",""1"",""1317""
""blur"",""67"",""226523""
","""event"",""trial"",""time""
""focus"",""1"",""2272""
""focus"",""69"",""230951""
","""event"",""trial"",""time""
""fullscreenenter"",""1"",""4049""
","
","","","","","","null","<div style=""font-size:60px;"">+</div>","null","","fixation","","","","","","","","",""
"memory-trial","99","283816","0.0-15.0-1.28","1920","2","""event"",""trial"",""time""
""blur"",""1"",""1317""
""focus"",""1"",""2272""
""fullscreenenter"",""1"",""4049""
""blur"",""67"",""226523""
""focus"",""69"",""230951""
","""event"",""trial"",""time""
""blur"",""1"",""1317""
""blur"",""67"",""226523""
","""event"",""trial"",""time""
""focus"",""1"",""2272""
""focus"",""69"",""230951""
","""event"",""trial"",""time""
""fullscreenenter"",""1"",""4049""
","
","","","","","","1078.8999999761581","images/plane4.png","","","memory_trial","1","definitely_old","","","","","","",""
"html-keyboard-response","100","284331","0.0-15.0-0.29","1920","2","""event"",""trial"",""time""
""blur"",""1"",""1317""
""focus"",""1"",""2272""
""fullscreenenter"",""1"",""4049""
""blur"",""67"",""226523""
""focus"",""69"",""230951""
","""event"",""trial"",""time""
""blur"",""1"",""1317""
""blur"",""67"",""226523""
","""event"",""trial"",""time""
""focus"",""1"",""2272""
""focus"",""69"",""230951""
","""event"",""trial"",""time""
""fullscreenenter"",""1"",""4049""
","
","","","","","","null","<div style=""font-size:60px;"">+</div>","null","","fixation","","","","","","","","",""
"memory-trial","101","288001","0.0-15.0-1.29","1920","2","""event"",""trial"",""time""
""blur"",""1"",""1317""
""focus"",""1"",""2272""
""fullscreenenter"",""1"",""4049""
""blur"",""67"",""226523""
""focus"",""69"",""230951""
","""event"",""trial"",""time""
""blur"",""1"",""1317""
""blur"",""67"",""226523""
","""event"",""trial"",""time""
""focus"",""1"",""2272""
""focus"",""69"",""230951""
","""event"",""trial"",""time""
""fullscreenenter"",""1"",""4049""
","
","","","","","","2665.100000023842","images/tree4.png","","","memory_trial","4","definitely_new","","","","","","",""
"html-keyboard-response","102","288503","0.0-15.0-0.30","1920","2","""event"",""trial"",""time""
""blur"",""1"",""1317""
""focus"",""1"",""2272""
""fullscreenenter"",""1"",""4049""
""blur"",""67"",""226523""
""focus"",""69"",""230951""
","""event"",""trial"",""time""
""blur"",""1"",""1317""
""blur"",""67"",""226523""
","""event"",""trial"",""time""
""focus"",""1"",""2272""
""focus"",""69"",""230951""
","""event"",""trial"",""time""
""fullscreenenter"",""1"",""4049""
","
","","","","","","null","<div style=""font-size:60px;"">+</div>","null","","fixation","","","","","","","","",""
"memory-trial","103","291217","0.0-15.0-1.30","1920","2","""event"",""trial"",""time""
""blur"",""1"",""1317""
""focus"",""1"",""2272""
""fullscreenenter"",""1"",""4049""
""blur"",""67"",""226523""
""focus"",""69"",""230951""
","""event"",""trial"",""time""
""blur"",""1"",""1317""
""blur"",""67"",""226523""
","""event"",""trial"",""time""
""focus"",""1"",""2272""
""focus"",""69"",""230951""
","""event"",""trial"",""time""
""fullscreenenter"",""1"",""4049""
","
","","","","","","1710.7999999523163","images/orange1.png","","","memory_trial","3","maybe_new","","","","","","",""
"html-keyboard-response","104","291719","0.0-15.0-0.31","1920","2","""event"",""trial"",""time""
""blur"",""1"",""1317""
""focus"",""1"",""2272""
""fullscreenenter"",""1"",""4049""
""blur"",""67"",""226523""
""focus"",""69"",""230951""
","""event"",""trial"",""time""
""blur"",""1"",""1317""
""blur"",""67"",""226523""
","""event"",""trial"",""time""
""focus"",""1"",""2272""
""focus"",""69"",""230951""
","""event"",""trial"",""time""
""fullscreenenter"",""1"",""4049""
","
","","","","","","null","<div style=""font-size:60px;"">+</div>","null","","fixation","","","","","","","","",""
"memory-trial","105","296641","0.0-15.0-1.31","1920","2","""event"",""trial"",""time""
""blur"",""1"",""1317""
""focus"",""1"",""2272""
""fullscreenenter"",""1"",""4049""
""blur"",""67"",""226523""
""focus"",""69"",""230951""
","""event"",""trial"",""time""
""blur"",""1"",""1317""
""blur"",""67"",""226523""
","""event"",""trial"",""time""
""focus"",""1"",""2272""
""focus"",""69"",""230951""
","""event"",""trial"",""time""
""fullscreenenter"",""1"",""4049""
","
","","","","","","3919.8000000715256","images/sofa3.png","","","memory_trial","3","maybe_new","","","","","","",""
"html-keyboard-response","106","297142","0.0-15.0-0.32","1920","2","""event"",""trial"",""time""
""blur"",""1"",""1317""
""focus"",""1"",""2272""
""fullscreenenter"",""1"",""4049""
""blur"",""67"",""226523""
""focus"",""69"",""230951""
","""event"",""trial"",""time""
""blur"",""1"",""1317""
""blur"",""67"",""226523""
","""event"",""trial"",""time""
""focus"",""1"",""2272""
""focus"",""69"",""230951""
","""event"",""trial"",""time""
""fullscreenenter"",""1"",""4049""
","
","","","","","","null","<div style=""font-size:60px;"">+</div>","null","","fixation","","","","","","","","",""
"memory-trial","107","299097","0.0-15.0-1.32","1920","2","""event"",""trial"",""time""
""blur"",""1"",""1317""
""focus"",""1"",""2272""
""fullscreenenter"",""1"",""4049""
""blur"",""67"",""226523""
""focus"",""69"",""230951""
","""event"",""trial"",""time""
""blur"",""1"",""1317""
""blur"",""67"",""226523""
","""event"",""trial"",""time""
""focus"",""1"",""2272""
""focus"",""69"",""230951""
","""event"",""trial"",""time""
""fullscreenenter"",""1"",""4049""
","
","","","","","","951.2999999523163","images/horse2.png","","","memory_trial","1","definitely_old","","","","","","",""
"html-keyboard-response","108","299599","0.0-15.0-0.33","1920","2","""event"",""trial"",""time""
""blur"",""1"",""1317""
""focus"",""1"",""2272""
""fullscreenenter"",""1"",""4049""
""blur"",""67"",""226523""
""focus"",""69"",""230951""
","""event"",""trial"",""time""
""blur"",""1"",""1317""
""blur"",""67"",""226523""
","""event"",""trial"",""time""
""focus"",""1"",""2272""
""focus"",""69"",""230951""
","""event"",""trial"",""time""
""fullscreenenter"",""1"",""4049""
","
","","","","","","null","<div style=""font-size:60px;"">+</div>","null","","fixation","","","","","","","","",""
"memory-trial","109","303760","0.0-15.0-1.33","1920","2","""event"",""trial"",""time""
""blur"",""1"",""1317""
""focus"",""1"",""2272""
""fullscreenenter"",""1"",""4049""
""blur"",""67"",""226523""
""focus"",""69"",""230951""
","""event"",""trial"",""time""
""blur"",""1"",""1317""
""blur"",""67"",""226523""
","""event"",""trial"",""time""
""focus"",""1"",""2272""
""focus"",""69"",""230951""
","""event"",""trial"",""time""
""fullscreenenter"",""1"",""4049""
","
","","","","","","3158.5","images/apple2.png","","","memory_trial","2","maybe_old","","","","","","",""
"html-keyboard-response","110","304261","0.0-15.0-0.34","1920","2","""event"",""trial"",""time""
""blur"",""1"",""1317""
""focus"",""1"",""2272""
""fullscreenenter"",""1"",""4049""
""blur"",""67"",""226523""
""focus"",""69"",""230951""
","""event"",""trial"",""time""
""blur"",""1"",""1317""
""blur"",""67"",""226523""
","""event"",""trial"",""time""
""focus"",""1"",""2272""
""focus"",""69"",""230951""
","""event"",""trial"",""time""
""fullscreenenter"",""1"",""4049""
","
","","","","","","null","<div style=""font-size:60px;"">+</div>","null","","fixation","","","","","","","","",""
"memory-trial","111","305993","0.0-15.0-1.34","1920","2","""event"",""trial"",""time""
""blur"",""1"",""1317""
""focus"",""1"",""2272""
""fullscreenenter"",""1"",""4049""
""blur"",""67"",""226523""
""focus"",""69"",""230951""
","""event"",""trial"",""time""
""blur"",""1"",""1317""
""blur"",""67"",""226523""
","""event"",""trial"",""time""
""focus"",""1"",""2272""
""focus"",""69"",""230951""
","""event"",""trial"",""time""
""fullscreenenter"",""1"",""4049""
","
","","","","","","729","images/rabbit2.png","","","memory_trial","1","definitely_old","","","","","","",""
"html-keyboard-response","112","306494","0.0-15.0-0.35","1920","2","""event"",""trial"",""time""
""blur"",""1"",""1317""
""focus"",""1"",""2272""
""fullscreenenter"",""1"",""4049""
""blur"",""67"",""226523""
""focus"",""69"",""230951""
","""event"",""trial"",""time""
""blur"",""1"",""1317""
""blur"",""67"",""226523""
","""event"",""trial"",""time""
""focus"",""1"",""2272""
""focus"",""69"",""230951""
","""event"",""trial"",""time""
""fullscreenenter"",""1"",""4049""
","
","","","","","","null","<div style=""font-size:60px;"">+</div>","null","","fixation","","","","","","","","",""
"memory-trial","113","311229","0.0-15.0-1.35","1920","2","""event"",""trial"",""time""
""blur"",""1"",""1317""
""focus"",""1"",""2272""
""fullscreenenter"",""1"",""4049""
""blur"",""67"",""226523""
""focus"",""69"",""230951""
","""event"",""trial"",""time""
""blur"",""1"",""1317""
""blur"",""67"",""226523""
","""event"",""trial"",""time""
""focus"",""1"",""2272""
""focus"",""69"",""230951""
","""event"",""trial"",""time""
""fullscreenenter"",""1"",""4049""
","
","","","","","","3723.7999999523163","images/boat5.png","","","memory_trial","3","maybe_new","","","","","","",""
"html-keyboard-response","114","311731","0.0-15.0-0.36","1920","2","""event"",""trial"",""time""
""blur"",""1"",""1317""
""focus"",""1"",""2272""
""fullscreenenter"",""1"",""4049""
""blur"",""67"",""226523""
""focus"",""69"",""230951""
","""event"",""trial"",""time""
""blur"",""1"",""1317""
""blur"",""67"",""226523""
","""event"",""trial"",""time""
""focus"",""1"",""2272""
""focus"",""69"",""230951""
","""event"",""trial"",""time""
""fullscreenenter"",""1"",""4049""
","
","","","","","","null","<div style=""font-size:60px;"">+</div>","null","","fixation","","","","","","","","",""
"memory-trial","115","315696","0.0-15.0-1.36","1920","2","""event"",""trial"",""time""
""blur"",""1"",""1317""
""focus"",""1"",""2272""
""fullscreenenter"",""1"",""4049""
""blur"",""67"",""226523""
""focus"",""69"",""230951""
","""event"",""trial"",""time""
""blur"",""1"",""1317""
""blur"",""67"",""226523""
","""event"",""trial"",""time""
""focus"",""1"",""2272""
""focus"",""69"",""230951""
","""event"",""trial"",""time""
""fullscreenenter"",""1"",""4049""
","
","","","","","","2961.2000000476837","images/boat2.png","","","memory_trial","3","maybe_new","","","","","","",""
"html-keyboard-response","116","316212","0.0-15.0-0.37","1920","2","""event"",""trial"",""time""
""blur"",""1"",""1317""
""focus"",""1"",""2272""
""fullscreenenter"",""1"",""4049""
""blur"",""67"",""226523""
""focus"",""69"",""230951""
","""event"",""trial"",""time""
""blur"",""1"",""1317""
""blur"",""67"",""226523""
","""event"",""trial"",""time""
""focus"",""1"",""2272""
""focus"",""69"",""230951""
","""event"",""trial"",""time""
""fullscreenenter"",""1"",""4049""
","
","","","","","","null","<div style=""font-size:60px;"">+</div>","null","","fixation","","","","","","","","",""
"memory-trial","117","318528","0.0-15.0-1.37","1920","2","""event"",""trial"",""time""
""blur"",""1"",""1317""
""focus"",""1"",""2272""
""fullscreenenter"",""1"",""4049""
""blur"",""67"",""226523""
""focus"",""69"",""230951""
","""event"",""trial"",""time""
""blur"",""1"",""1317""
""blur"",""67"",""226523""
","""event"",""trial"",""time""
""focus"",""1"",""2272""
""focus"",""69"",""230951""
","""event"",""trial"",""time""
""fullscreenenter"",""1"",""4049""
","
","","","","","","1313","images/bed5.png","","","memory_trial","3","maybe_new","","","","","","",""
"html-keyboard-response","118","319030","0.0-15.0-0.38","1920","2","""event"",""trial"",""time""
""blur"",""1"",""1317""
""focus"",""1"",""2272""
""fullscreenenter"",""1"",""4049""
""blur"",""67"",""226523""
""focus"",""69"",""230951""
","""event"",""trial"",""time""
""blur"",""1"",""1317""
""blur"",""67"",""226523""
","""event"",""trial"",""time""
""focus"",""1"",""2272""
""focus"",""69"",""230951""
","""event"",""trial"",""time""
""fullscreenenter"",""1"",""4049""
","
","","","","","","null","<div style=""font-size:60px;"">+</div>","null","","fixation","","","","","","","","",""
"memory-trial","119","323601","0.0-15.0-1.38","1920","2","""event"",""trial"",""time""
""blur"",""1"",""1317""
""focus"",""1"",""2272""
""fullscreenenter"",""1"",""4049""
""blur"",""67"",""226523""
""focus"",""69"",""230951""
","""event"",""trial"",""time""
""blur"",""1"",""1317""
""blur"",""67"",""226523""
","""event"",""trial"",""time""
""focus"",""1"",""2272""
""focus"",""69"",""230951""
","""event"",""trial"",""time""
""fullscreenenter"",""1"",""4049""
","
","","","","","","3566.899999976158","images/tree1.png","","","memory_trial","3","maybe_new","","","","","","",""
"html-keyboard-response","120","324104","0.0-15.0-0.39","1920","2","""event"",""trial"",""time""
""blur"",""1"",""1317""
""focus"",""1"",""2272""
""fullscreenenter"",""1"",""4049""
""blur"",""67"",""226523""
""focus"",""69"",""230951""
","""event"",""trial"",""time""
""blur"",""1"",""1317""
""blur"",""67"",""226523""
","""event"",""trial"",""time""
""focus"",""1"",""2272""
""focus"",""69"",""230951""
","""event"",""trial"",""time""
""fullscreenenter"",""1"",""4049""
","
","","","","","","null","<div style=""font-size:60px;"">+</div>","null","","fixation","","","","","","","","",""
"memory-trial","121","326320","0.0-15.0-1.39","1920","2","""event"",""trial"",""time""
""blur"",""1"",""1317""
""focus"",""1"",""2272""
""fullscreenenter"",""1"",""4049""
""blur"",""67"",""226523""
""focus"",""69"",""230951""
","""event"",""trial"",""time""
""blur"",""1"",""1317""
""blur"",""67"",""226523""
","""event"",""trial"",""time""
""focus"",""1"",""2272""
""focus"",""69"",""230951""
","""event"",""trial"",""time""
""fullscreenenter"",""1"",""4049""
","
","","","","","","1213.2000000476837","images/boat1.png","","","memory_trial","1","definitely_old","","","","","","",""
"html-keyboard-response","122","326821","0.0-15.0-0.40","1920","2","""event"",""trial"",""time""
""blur"",""1"",""1317""
""focus"",""1"",""2272""
""fullscreenenter"",""1"",""4049""
""blur"",""67"",""226523""
""focus"",""69"",""230951""
","""event"",""trial"",""time""
""blur"",""1"",""1317""
""blur"",""67"",""226523""
","""event"",""trial"",""time""
""focus"",""1"",""2272""
""focus"",""69"",""230951""
","""event"",""trial"",""time""
""fullscreenenter"",""1"",""4049""
","
","","","","","","null","<div style=""font-size:60px;"">+</div>","null","","fixation","","","","","","","","",""
"memory-trial","123","328944","0.0-15.0-1.40","1920","2","""event"",""trial"",""time""
""blur"",""1"",""1317""
""focus"",""1"",""2272""
""fullscreenenter"",""1"",""4049""
""blur"",""67"",""226523""
""focus"",""69"",""230951""
","""event"",""trial"",""time""
""blur"",""1"",""1317""
""blur"",""67"",""226523""
","""event"",""trial"",""time""
""focus"",""1"",""2272""
""focus"",""69"",""230951""
","""event"",""trial"",""time""
""fullscreenenter"",""1"",""4049""
","
","","","","","","1120.5","images/truck2.png","","","memory_trial","1","definitely_old","","","","","","",""
"html-keyboard-response","124","329446","0.0-15.0-0.41","1920","2","""event"",""trial"",""time""
""blur"",""1"",""1317""
""focus"",""1"",""2272""
""fullscreenenter"",""1"",""4049""
""blur"",""67"",""226523""
""focus"",""69"",""230951""
","""event"",""trial"",""time""
""blur"",""1"",""1317""
""blur"",""67"",""226523""
","""event"",""trial"",""time""
""focus"",""1"",""2272""
""focus"",""69"",""230951""
","""event"",""trial"",""time""
""fullscreenenter"",""1"",""4049""
","
","","","","","","null","<div style=""font-size:60px;"">+</div>","null","","fixation","","","","","","","","",""
"memory-trial","125","332920","0.0-15.0-1.41","1920","2","""event"",""trial"",""time""
""blur"",""1"",""1317""
""focus"",""1"",""2272""
""fullscreenenter"",""1"",""4049""
""blur"",""67"",""226523""
""focus"",""69"",""230951""
","""event"",""trial"",""time""
""blur"",""1"",""1317""
""blur"",""67"",""226523""
","""event"",""trial"",""time""
""focus"",""1"",""2272""
""focus"",""69"",""230951""
","""event"",""trial"",""time""
""fullscreenenter"",""1"",""4049""
","
","","","","","","2472.399999976158","images/sheep4.png","","","memory_trial","2","maybe_old","","","","","","",""
"html-keyboard-response","126","333421","0.0-15.0-0.42","1920","2","""event"",""trial"",""time""
""blur"",""1"",""1317""
""focus"",""1"",""2272""
""fullscreenenter"",""1"",""4049""
""blur"",""67"",""226523""
""focus"",""69"",""230951""
","""event"",""trial"",""time""
""blur"",""1"",""1317""
""blur"",""67"",""226523""
","""event"",""trial"",""time""
""focus"",""1"",""2272""
""focus"",""69"",""230951""
","""event"",""trial"",""time""
""fullscreenenter"",""1"",""4049""
","
","","","","","","null","<div style=""font-size:60px;"">+</div>","null","","fixation","","","","","","","","",""
"memory-trial","127","338272","0.0-15.0-1.42","1920","2","""event"",""trial"",""time""
""blur"",""1"",""1317""
""focus"",""1"",""2272""
""fullscreenenter"",""1"",""4049""
""blur"",""67"",""226523""
""focus"",""69"",""230951""
","""event"",""trial"",""time""
""blur"",""1"",""1317""
""blur"",""67"",""226523""
","""event"",""trial"",""time""
""focus"",""1"",""2272""
""focus"",""69"",""230951""
","""event"",""trial"",""time""
""fullscreenenter"",""1"",""4049""
","
","","","","","","3849.399999976158","images/cactus1.png","","","memory_trial","2","maybe_old","","","","","","",""
"html-keyboard-response","128","338774","0.0-15.0-0.43","1920","2","""event"",""trial"",""time""
""blur"",""1"",""1317""
""focus"",""1"",""2272""
""fullscreenenter"",""1"",""4049""
""blur"",""67"",""226523""
""focus"",""69"",""230951""
","""event"",""trial"",""time""
""blur"",""1"",""1317""
""blur"",""67"",""226523""
","""event"",""trial"",""time""
""focus"",""1"",""2272""
""focus"",""69"",""230951""
","""event"",""trial"",""time""
""fullscreenenter"",""1"",""4049""
","
","","","","","","null","<div style=""font-size:60px;"">+</div>","null","","fixation","","","","","","","","",""
"memory-trial","129","341528","0.0-15.0-1.43","1920","2","""event"",""trial"",""time""
""blur"",""1"",""1317""
""focus"",""1"",""2272""
""fullscreenenter"",""1"",""4049""
""blur"",""67"",""226523""
""focus"",""69"",""230951""
","""event"",""trial"",""time""
""blur"",""1"",""1317""
""blur"",""67"",""226523""
","""event"",""trial"",""time""
""focus"",""1"",""2272""
""focus"",""69"",""230951""
","""event"",""trial"",""time""
""fullscreenenter"",""1"",""4049""
","
","","","","","","1751.3999999761581","images/chair1.png","","","memory_trial","4","definitely_new","","","","","","",""
"html-keyboard-response","130","342029","0.0-15.0-0.44","1920","2","""event"",""trial"",""time""
""blur"",""1"",""1317""
""focus"",""1"",""2272""
""fullscreenenter"",""1"",""4049""
""blur"",""67"",""226523""
""focus"",""69"",""230951""
","""event"",""trial"",""time""
""blur"",""1"",""1317""
""blur"",""67"",""226523""
","""event"",""trial"",""time""
""focus"",""1"",""2272""
""focus"",""69"",""230951""
","""event"",""trial"",""time""
""fullscreenenter"",""1"",""4049""
","
","","","","","","null","<div style=""font-size:60px;"">+</div>","null","","fixation","","","","","","","","",""
"memory-trial","131","344480","0.0-15.0-1.44","1920","2","""event"",""trial"",""time""
""blur"",""1"",""1317""
""focus"",""1"",""2272""
""fullscreenenter"",""1"",""4049""
""blur"",""67"",""226523""
""focus"",""69"",""230951""
","""event"",""trial"",""time""
""blur"",""1"",""1317""
""blur"",""67"",""226523""
","""event"",""trial"",""time""
""focus"",""1"",""2272""
""focus"",""69"",""230951""
","""event"",""trial"",""time""
""fullscreenenter"",""1"",""4049""
","
","","","","","","1448.7999999523163","images/horse3.png","","","memory_trial","3","maybe_new","","","","","","",""
"html-keyboard-response","132","344981","0.0-15.0-0.45","1920","2","""event"",""trial"",""time""
""blur"",""1"",""1317""
""focus"",""1"",""2272""
""fullscreenenter"",""1"",""4049""
""blur"",""67"",""226523""
""focus"",""69"",""230951""
","""event"",""trial"",""time""
""blur"",""1"",""1317""
""blur"",""67"",""226523""
","""event"",""trial"",""time""
""focus"",""1"",""2272""
""focus"",""69"",""230951""
","""event"",""trial"",""time""
""fullscreenenter"",""1"",""4049""
","
","","","","","","null","<div style=""font-size:60px;"">+</div>","null","","fixation","","","","","","","","",""
"memory-trial","133","348688","0.0-15.0-1.45","1920","2","""event"",""trial"",""time""
""blur"",""1"",""1317""
""focus"",""1"",""2272""
""fullscreenenter"",""1"",""4049""
""blur"",""67"",""226523""
""focus"",""69"",""230951""
","""event"",""trial"",""time""
""blur"",""1"",""1317""
""blur"",""67"",""226523""
","""event"",""trial"",""time""
""focus"",""1"",""2272""
""focus"",""69"",""230951""
","""event"",""trial"",""time""
""fullscreenenter"",""1"",""4049""
","
","","","","","","2704.6999999284744","images/boat3.png","","","memory_trial","2","maybe_old","","","","","","",""
"html-keyboard-response","134","349195","0.0-15.0-0.46","1920","2","""event"",""trial"",""time""
""blur"",""1"",""1317""
""focus"",""1"",""2272""
""fullscreenenter"",""1"",""4049""
""blur"",""67"",""226523""
""focus"",""69"",""230951""
","""event"",""trial"",""time""
""blur"",""1"",""1317""
""blur"",""67"",""226523""
","""event"",""trial"",""time""
""focus"",""1"",""2272""
""focus"",""69"",""230951""
","""event"",""trial"",""time""
""fullscreenenter"",""1"",""4049""
","
","","","","","","null","<div style=""font-size:60px;"">+</div>","null","","fixation","","","","","","","","",""
"memory-trial","135","353593","0.0-15.0-1.46","1920","2","""event"",""trial"",""time""
""blur"",""1"",""1317""
""focus"",""1"",""2272""
""fullscreenenter"",""1"",""4049""
""blur"",""67"",""226523""
""focus"",""69"",""230951""
","""event"",""trial"",""time""
""blur"",""1"",""1317""
""blur"",""67"",""226523""
","""event"",""trial"",""time""
""focus"",""1"",""2272""
""focus"",""69"",""230951""
","""event"",""trial"",""time""
""fullscreenenter"",""1"",""4049""
","
","","","","","","3394.600000023842","images/bed1.png","","","memory_trial","3","maybe_new","","","","","","",""
"html-button-response","136","355955","0.0-15.0-2.46-0.46","1920","2","""event"",""trial"",""time""
""blur"",""1"",""1317""
""focus"",""1"",""2272""
""fullscreenenter"",""1"",""4049""
""blur"",""67"",""226523""
""focus"",""69"",""230951""
","""event"",""trial"",""time""
""blur"",""1"",""1317""
""blur"",""67"",""226523""
","""event"",""trial"",""time""
""focus"",""1"",""2272""
""focus"",""69"",""230951""
","""event"",""trial"",""time""
""fullscreenenter"",""1"",""4049""
","
","","","","","","2360.5999999046326","<p> Take a break! </p><p> Click the button to continue. </p>","0","","break","","","","","","","","",""
"html-keyboard-response","137","356455","0.0-15.0-0.47","1920","2","""event"",""trial"",""time""
""blur"",""1"",""1317""
""focus"",""1"",""2272""
""fullscreenenter"",""1"",""4049""
""blur"",""67"",""226523""
""focus"",""69"",""230951""
","""event"",""trial"",""time""
""blur"",""1"",""1317""
""blur"",""67"",""226523""
","""event"",""trial"",""time""
""focus"",""1"",""2272""
""focus"",""69"",""230951""
","""event"",""trial"",""time""
""fullscreenenter"",""1"",""4049""
","
","","","","","","null","<div style=""font-size:60px;"">+</div>","null","","fixation","","","","","","","","",""
"memory-trial","138","358960","0.0-15.0-1.47","1920","2","""event"",""trial"",""time""
""blur"",""1"",""1317""
""focus"",""1"",""2272""
""fullscreenenter"",""1"",""4049""
""blur"",""67"",""226523""
""focus"",""69"",""230951""
","""event"",""trial"",""time""
""blur"",""1"",""1317""
""blur"",""67"",""226523""
","""event"",""trial"",""time""
""focus"",""1"",""2272""
""focus"",""69"",""230951""
","""event"",""trial"",""time""
""fullscreenenter"",""1"",""4049""
","
","","","","","","1503.1000000238419","images/chair3.png","","","memory_trial","3","maybe_new","","","","","","",""
"html-keyboard-response","139","359462","0.0-15.0-0.48","1920","2","""event"",""trial"",""time""
""blur"",""1"",""1317""
""focus"",""1"",""2272""
""fullscreenenter"",""1"",""4049""
""blur"",""67"",""226523""
""focus"",""69"",""230951""
","""event"",""trial"",""time""
""blur"",""1"",""1317""
""blur"",""67"",""226523""
","""event"",""trial"",""time""
""focus"",""1"",""2272""
""focus"",""69"",""230951""
","""event"",""trial"",""time""
""fullscreenenter"",""1"",""4049""
","
","","","","","","null","<div style=""font-size:60px;"">+</div>","null","","fixation","","","","","","","","",""
"memory-trial","140","361593","0.0-15.0-1.48","1920","2","""event"",""trial"",""time""
""blur"",""1"",""1317""
""focus"",""1"",""2272""
""fullscreenenter"",""1"",""4049""
""blur"",""67"",""226523""
""focus"",""69"",""230951""
","""event"",""trial"",""time""
""blur"",""1"",""1317""
""blur"",""67"",""226523""
","""event"",""trial"",""time""
""focus"",""1"",""2272""
""focus"",""69"",""230951""
","""event"",""trial"",""time""
""fullscreenenter"",""1"",""4049""
","
","","","","","","1129","images/truck1.png","","","memory_trial","1","definitely_old","","","","","","",""
"html-keyboard-response","141","362094","0.0-15.0-0.49","1920","2","""event"",""trial"",""time""
""blur"",""1"",""1317""
""focus"",""1"",""2272""
""fullscreenenter"",""1"",""4049""
""blur"",""67"",""226523""
""focus"",""69"",""230951""
","""event"",""trial"",""time""
""blur"",""1"",""1317""
""blur"",""67"",""226523""
","""event"",""trial"",""time""
""focus"",""1"",""2272""
""focus"",""69"",""230951""
","""event"",""trial"",""time""
""fullscreenenter"",""1"",""4049""
","
","","","","","","null","<div style=""font-size:60px;"">+</div>","null","","fixation","","","","","","","","",""
"memory-trial","142","364808","0.0-15.0-1.49","1920","2","""event"",""trial"",""time""
""blur"",""1"",""1317""
""focus"",""1"",""2272""
""fullscreenenter"",""1"",""4049""
""blur"",""67"",""226523""
""focus"",""69"",""230951""
","""event"",""trial"",""time""
""blur"",""1"",""1317""
""blur"",""67"",""226523""
","""event"",""trial"",""time""
""focus"",""1"",""2272""
""focus"",""69"",""230951""
","""event"",""trial"",""time""
""fullscreenenter"",""1"",""4049""
","
","","","","","","1711.8999999761581","images/feline1.png","","","memory_trial","4","definitely_new","","","","","","",""
"html-keyboard-response","143","365311","0.0-15.0-0.50","1920","2","""event"",""trial"",""time""
""blur"",""1"",""1317""
""focus"",""1"",""2272""
""fullscreenenter"",""1"",""4049""
""blur"",""67"",""226523""
""focus"",""69"",""230951""
","""event"",""trial"",""time""
""blur"",""1"",""1317""
""blur"",""67"",""226523""
","""event"",""trial"",""time""
""focus"",""1"",""2272""
""focus"",""69"",""230951""
","""event"",""trial"",""time""
""fullscreenenter"",""1"",""4049""
","
","","","","","","null","<div style=""font-size:60px;"">+</div>","null","","fixation","","","","","","","","",""
"memory-trial","144","368551","0.0-15.0-1.50","1920","2","""event"",""trial"",""time""
""blur"",""1"",""1317""
""focus"",""1"",""2272""
""fullscreenenter"",""1"",""4049""
""blur"",""67"",""226523""
""focus"",""69"",""230951""
","""event"",""trial"",""time""
""blur"",""1"",""1317""
""blur"",""67"",""226523""
","""event"",""trial"",""time""
""focus"",""1"",""2272""
""focus"",""69"",""230951""
","""event"",""trial"",""time""
""fullscreenenter"",""1"",""4049""
","
","","","","","","2239.100000023842","images/bush1.png","","","memory_trial","2","maybe_old","","","","","","",""
"html-keyboard-response","145","369053","0.0-15.0-0.51","1920","2","""event"",""trial"",""time""
""blur"",""1"",""1317""
""focus"",""1"",""2272""
""fullscreenenter"",""1"",""4049""
""blur"",""67"",""226523""
""focus"",""69"",""230951""
","""event"",""trial"",""time""
""blur"",""1"",""1317""
""blur"",""67"",""226523""
","""event"",""trial"",""time""
""focus"",""1"",""2272""
""focus"",""69"",""230951""
","""event"",""trial"",""time""
""fullscreenenter"",""1"",""4049""
","
","","","","","","null","<div style=""font-size:60px;"">+</div>","null","","fixation","","","","","","","","",""
"memory-trial","146","371936","0.0-15.0-1.51","1920","2","""event"",""trial"",""time""
""blur"",""1"",""1317""
""focus"",""1"",""2272""
""fullscreenenter"",""1"",""4049""
""blur"",""67"",""226523""
""focus"",""69"",""230951""
","""event"",""trial"",""time""
""blur"",""1"",""1317""
""blur"",""67"",""226523""
","""event"",""trial"",""time""
""focus"",""1"",""2272""
""focus"",""69"",""230951""
","""event"",""trial"",""time""
""fullscreenenter"",""1"",""4049""
","
","","","","","","1881","images/flower5.png","","","memory_trial","3","maybe_new","","","","","","",""
"html-keyboard-response","147","372438","0.0-15.0-0.52","1920","2","""event"",""trial"",""time""
""blur"",""1"",""1317""
""focus"",""1"",""2272""
""fullscreenenter"",""1"",""4049""
""blur"",""67"",""226523""
""focus"",""69"",""230951""
","""event"",""trial"",""time""
""blur"",""1"",""1317""
""blur"",""67"",""226523""
","""event"",""trial"",""time""
""focus"",""1"",""2272""
""focus"",""69"",""230951""
","""event"",""trial"",""time""
""fullscreenenter"",""1"",""4049""
","
","","","","","","null","<div style=""font-size:60px;"">+</div>","null","","fixation","","","","","","","","",""
"memory-trial","148","376600","0.0-15.0-1.52","1920","2","""event"",""trial"",""time""
""blur"",""1"",""1317""
""focus"",""1"",""2272""
""fullscreenenter"",""1"",""4049""
""blur"",""67"",""226523""
""focus"",""69"",""230951""
","""event"",""trial"",""time""
""blur"",""1"",""1317""
""blur"",""67"",""226523""
","""event"",""trial"",""time""
""focus"",""1"",""2272""
""focus"",""69"",""230951""
","""event"",""trial"",""time""
""fullscreenenter"",""1"",""4049""
","
","","","","","","3160.100000023842","images/cactus4.png","","","memory_trial","3","maybe_new","","","","","","",""
"html-keyboard-response","149","377103","0.0-15.0-0.53","1920","2","""event"",""trial"",""time""
""blur"",""1"",""1317""
""focus"",""1"",""2272""
""fullscreenenter"",""1"",""4049""
""blur"",""67"",""226523""
""focus"",""69"",""230951""
","""event"",""trial"",""time""
""blur"",""1"",""1317""
""blur"",""67"",""226523""
","""event"",""trial"",""time""
""focus"",""1"",""2272""
""focus"",""69"",""230951""
","""event"",""trial"",""time""
""fullscreenenter"",""1"",""4049""
","
","","","","","","null","<div style=""font-size:60px;"">+</div>","null","","fixation","","","","","","","","",""
"memory-trial","150","380088","0.0-15.0-1.53","1920","2","""event"",""trial"",""time""
""blur"",""1"",""1317""
""focus"",""1"",""2272""
""fullscreenenter"",""1"",""4049""
""blur"",""67"",""226523""
""focus"",""69"",""230951""
","""event"",""trial"",""time""
""blur"",""1"",""1317""
""blur"",""67"",""226523""
","""event"",""trial"",""time""
""focus"",""1"",""2272""
""focus"",""69"",""230951""
","""event"",""trial"",""time""
""fullscreenenter"",""1"",""4049""
","
","","","","","","1984.1000000238419","images/bush5.png","","","memory_trial","3","maybe_new","","","","","","",""
"html-keyboard-response","151","380591","0.0-15.0-0.54","1920","2","""event"",""trial"",""time""
""blur"",""1"",""1317""
""focus"",""1"",""2272""
""fullscreenenter"",""1"",""4049""
""blur"",""67"",""226523""
""focus"",""69"",""230951""
","""event"",""trial"",""time""
""blur"",""1"",""1317""
""blur"",""67"",""226523""
","""event"",""trial"",""time""
""focus"",""1"",""2272""
""focus"",""69"",""230951""
","""event"",""trial"",""time""
""fullscreenenter"",""1"",""4049""
","
","","","","","","null","<div style=""font-size:60px;"">+</div>","null","","fixation","","","","","","","","",""
"memory-trial","152","383034","0.0-15.0-1.54","1920","2","""event"",""trial"",""time""
""blur"",""1"",""1317""
""focus"",""1"",""2272""
""fullscreenenter"",""1"",""4049""
""blur"",""67"",""226523""
""focus"",""69"",""230951""
","""event"",""trial"",""time""
""blur"",""1"",""1317""
""blur"",""67"",""226523""
","""event"",""trial"",""time""
""focus"",""1"",""2272""
""focus"",""69"",""230951""
","""event"",""trial"",""time""
""fullscreenenter"",""1"",""4049""
","
","","","","","","1439.8999999761581","images/plane2.png","","","memory_trial","3","maybe_new","","","","","","",""
"html-keyboard-response","153","383536","0.0-15.0-0.55","1920","2","""event"",""trial"",""time""
""blur"",""1"",""1317""
""focus"",""1"",""2272""
""fullscreenenter"",""1"",""4049""
""blur"",""67"",""226523""
""focus"",""69"",""230951""
","""event"",""trial"",""time""
""blur"",""1"",""1317""
""blur"",""67"",""226523""
","""event"",""trial"",""time""
""focus"",""1"",""2272""
""focus"",""69"",""230951""
","""event"",""trial"",""time""
""fullscreenenter"",""1"",""4049""
","
","","","","","","null","<div style=""font-size:60px;"">+</div>","null","","fixation","","","","","","","","",""
"memory-trial","154","385834","0.0-15.0-1.55","1920","2","""event"",""trial"",""time""
""blur"",""1"",""1317""
""focus"",""1"",""2272""
""fullscreenenter"",""1"",""4049""
""blur"",""67"",""226523""
""focus"",""69"",""230951""
","""event"",""trial"",""time""
""blur"",""1"",""1317""
""blur"",""67"",""226523""
","""event"",""trial"",""time""
""focus"",""1"",""2272""
""focus"",""69"",""230951""
","""event"",""trial"",""time""
""fullscreenenter"",""1"",""4049""
","
","","","","","","1287.1000000238419","images/apple3.png","","","memory_trial","3","maybe_new","","","","","","",""
"html-keyboard-response","155","386335","0.0-15.0-0.56","1920","2","""event"",""trial"",""time""
""blur"",""1"",""1317""
""focus"",""1"",""2272""
""fullscreenenter"",""1"",""4049""
""blur"",""67"",""226523""
""focus"",""69"",""230951""
","""event"",""trial"",""time""
""blur"",""1"",""1317""
""blur"",""67"",""226523""
","""event"",""trial"",""time""
""focus"",""1"",""2272""
""focus"",""69"",""230951""
","""event"",""trial"",""time""
""fullscreenenter"",""1"",""4049""
","
","","","","","","null","<div style=""font-size:60px;"">+</div>","null","","fixation","","","","","","","","",""
"memory-trial","156","388289","0.0-15.0-1.56","1920","2","""event"",""trial"",""time""
""blur"",""1"",""1317""
""focus"",""1"",""2272""
""fullscreenenter"",""1"",""4049""
""blur"",""67"",""226523""
""focus"",""69"",""230951""
","""event"",""trial"",""time""
""blur"",""1"",""1317""
""blur"",""67"",""226523""
","""event"",""trial"",""time""
""focus"",""1"",""2272""
""focus"",""69"",""230951""
","""event"",""trial"",""time""
""fullscreenenter"",""1"",""4049""
","
","","","","","","952.3999999761581","images/rabbit3.png","","","memory_trial","3","maybe_new","","","","","","",""
"html-keyboard-response","157","388790","0.0-15.0-0.57","1920","2","""event"",""trial"",""time""
""blur"",""1"",""1317""
""focus"",""1"",""2272""
""fullscreenenter"",""1"",""4049""
""blur"",""67"",""226523""
""focus"",""69"",""230951""
","""event"",""trial"",""time""
""blur"",""1"",""1317""
""blur"",""67"",""226523""
","""event"",""trial"",""time""
""focus"",""1"",""2272""
""focus"",""69"",""230951""
","""event"",""trial"",""time""
""fullscreenenter"",""1"",""4049""
","
","","","","","","null","<div style=""font-size:60px;"">+</div>","null","","fixation","","","","","","","","",""
"memory-trial","158","390816","0.0-15.0-1.57","1920","2","""event"",""trial"",""time""
""blur"",""1"",""1317""
""focus"",""1"",""2272""
""fullscreenenter"",""1"",""4049""
""blur"",""67"",""226523""
""focus"",""69"",""230951""
","""event"",""trial"",""time""
""blur"",""1"",""1317""
""blur"",""67"",""226523""
","""event"",""trial"",""time""
""focus"",""1"",""2272""
""focus"",""69"",""230951""
","""event"",""trial"",""time""
""fullscreenenter"",""1"",""4049""
","
","","","","","","1023.8999999761581","images/bed4.png","","","memory_trial","3","maybe_new","","","","","","",""
"html-keyboard-response","159","391318","0.0-15.0-0.58","1920","2","""event"",""trial"",""time""
""blur"",""1"",""1317""
""focus"",""1"",""2272""
""fullscreenenter"",""1"",""4049""
""blur"",""67"",""226523""
""focus"",""69"",""230951""
","""event"",""trial"",""time""
""blur"",""1"",""1317""
""blur"",""67"",""226523""
","""event"",""trial"",""time""
""focus"",""1"",""2272""
""focus"",""69"",""230951""
","""event"",""trial"",""time""
""fullscreenenter"",""1"",""4049""
","
","","","","","","null","<div style=""font-size:60px;"">+</div>","null","","fixation","","","","","","","","",""
"memory-trial","160","395464","0.0-15.0-1.58","1920","2","""event"",""trial"",""time""
""blur"",""1"",""1317""
""focus"",""1"",""2272""
""fullscreenenter"",""1"",""4049""
""blur"",""67"",""226523""
""focus"",""69"",""230951""
","""event"",""trial"",""time""
""blur"",""1"",""1317""
""blur"",""67"",""226523""
","""event"",""trial"",""time""
""focus"",""1"",""2272""
""focus"",""69"",""230951""
","""event"",""trial"",""time""
""fullscreenenter"",""1"",""4049""
","
","","","","","","3144.7000000476837","images/train3.png","","","memory_trial","3","maybe_new","","","","","","",""
"html-keyboard-response","161","395965","0.0-15.0-0.59","1920","2","""event"",""trial"",""time""
""blur"",""1"",""1317""
""focus"",""1"",""2272""
""fullscreenenter"",""1"",""4049""
""blur"",""67"",""226523""
""focus"",""69"",""230951""
","""event"",""trial"",""time""
""blur"",""1"",""1317""
""blur"",""67"",""226523""
","""event"",""trial"",""time""
""focus"",""1"",""2272""
""focus"",""69"",""230951""
","""event"",""trial"",""time""
""fullscreenenter"",""1"",""4049""
","
","","","","","","null","<div style=""font-size:60px;"">+</div>","null","","fixation","","","","","","","","",""
"memory-trial","162","398713","0.0-15.0-1.59","1920","2","""event"",""trial"",""time""
""blur"",""1"",""1317""
""focus"",""1"",""2272""
""fullscreenenter"",""1"",""4049""
""blur"",""67"",""226523""
""focus"",""69"",""230951""
","""event"",""trial"",""time""
""blur"",""1"",""1317""
""blur"",""67"",""226523""
","""event"",""trial"",""time""
""focus"",""1"",""2272""
""focus"",""69"",""230951""
","""event"",""trial"",""time""
""fullscreenenter"",""1"",""4049""
","
","","","","","","1744","images/goat2.png","","","memory_trial","2","maybe_old","","","","","","",""
"html-keyboard-response","163","399215","0.0-15.0-0.60","1920","2","""event"",""trial"",""time""
""blur"",""1"",""1317""
""focus"",""1"",""2272""
""fullscreenenter"",""1"",""4049""
""blur"",""67"",""226523""
""focus"",""69"",""230951""
","""event"",""trial"",""time""
""blur"",""1"",""1317""
""blur"",""67"",""226523""
","""event"",""trial"",""time""
""focus"",""1"",""2272""
""focus"",""69"",""230951""
","""event"",""trial"",""time""
""fullscreenenter"",""1"",""4049""
","
","","","","","","null","<div style=""font-size:60px;"">+</div>","null","","fixation","","","","","","","","",""
"memory-trial","164","403072","0.0-15.0-1.60","1920","2","""event"",""trial"",""time""
""blur"",""1"",""1317""
""focus"",""1"",""2272""
""fullscreenenter"",""1"",""4049""
""blur"",""67"",""226523""
""focus"",""69"",""230951""
","""event"",""trial"",""time""
""blur"",""1"",""1317""
""blur"",""67"",""226523""
","""event"",""trial"",""time""
""focus"",""1"",""2272""
""focus"",""69"",""230951""
","""event"",""trial"",""time""
""fullscreenenter"",""1"",""4049""
","
","","","","","","2855","images/feline3.png","","","memory_trial","2","maybe_old","","","","","","",""
"html-keyboard-response","165","403574","0.0-15.0-0.61","1920","2","""event"",""trial"",""time""
""blur"",""1"",""1317""
""focus"",""1"",""2272""
""fullscreenenter"",""1"",""4049""
""blur"",""67"",""226523""
""focus"",""69"",""230951""
","""event"",""trial"",""time""
""blur"",""1"",""1317""
""blur"",""67"",""226523""
","""event"",""trial"",""time""
""focus"",""1"",""2272""
""focus"",""69"",""230951""
","""event"",""trial"",""time""
""fullscreenenter"",""1"",""4049""
","
","","","","","","null","<div style=""font-size:60px;"">+</div>","null","","fixation","","","","","","","","",""
"memory-trial","166","409727","0.0-15.0-1.61","1920","2","""event"",""trial"",""time""
""blur"",""1"",""1317""
""focus"",""1"",""2272""
""fullscreenenter"",""1"",""4049""
""blur"",""67"",""226523""
""focus"",""69"",""230951""
","""event"",""trial"",""time""
""blur"",""1"",""1317""
""blur"",""67"",""226523""
","""event"",""trial"",""time""
""focus"",""1"",""2272""
""focus"",""69"",""230951""
","""event"",""trial"",""time""
""fullscreenenter"",""1"",""4049""
","
","","","","","","5150.900000095367","images/orange3.png","","","memory_trial","2","maybe_old","","","","","","",""
"html-keyboard-response","167","410234","0.0-15.0-0.62","1920","2","""event"",""trial"",""time""
""blur"",""1"",""1317""
""focus"",""1"",""2272""
""fullscreenenter"",""1"",""4049""
""blur"",""67"",""226523""
""focus"",""69"",""230951""
","""event"",""trial"",""time""
""blur"",""1"",""1317""
""blur"",""67"",""226523""
","""event"",""trial"",""time""
""focus"",""1"",""2272""
""focus"",""69"",""230951""
","""event"",""trial"",""time""
""fullscreenenter"",""1"",""4049""
","
","","","","","","null","<div style=""font-size:60px;"">+</div>","null","","fixation","","","","","","","","",""
"memory-trial","168","413082","0.0-15.0-1.62","1920","2","""event"",""trial"",""time""
""blur"",""1"",""1317""
""focus"",""1"",""2272""
""fullscreenenter"",""1"",""4049""
""blur"",""67"",""226523""
""focus"",""69"",""230951""
","""event"",""trial"",""time""
""blur"",""1"",""1317""
""blur"",""67"",""226523""
","""event"",""trial"",""time""
""focus"",""1"",""2272""
""focus"",""69"",""230951""
","""event"",""trial"",""time""
""fullscreenenter"",""1"",""4049""
","
","","","","","","1834.7999999523163","images/cactus2.png","","","memory_trial","3","maybe_new","","","","","","",""
"html-keyboard-response","169","413584","0.0-15.0-0.63","1920","2","""event"",""trial"",""time""
""blur"",""1"",""1317""
""focus"",""1"",""2272""
""fullscreenenter"",""1"",""4049""
""blur"",""67"",""226523""
""focus"",""69"",""230951""
","""event"",""trial"",""time""
""blur"",""1"",""1317""
""blur"",""67"",""226523""
","""event"",""trial"",""time""
""focus"",""1"",""2272""
""focus"",""69"",""230951""
","""event"",""trial"",""time""
""fullscreenenter"",""1"",""4049""
","
","","","","","","null","<div style=""font-size:60px;"">+</div>","null","","fixation","","","","","","","","",""
"memory-trial","170","417130","0.0-15.0-1.63","1920","2","""event"",""trial"",""time""
""blur"",""1"",""1317""
""focus"",""1"",""2272""
""fullscreenenter"",""1"",""4049""
""blur"",""67"",""226523""
""focus"",""69"",""230951""
","""event"",""trial"",""time""
""blur"",""1"",""1317""
""blur"",""67"",""226523""
","""event"",""trial"",""time""
""focus"",""1"",""2272""
""focus"",""69"",""230951""
","""event"",""trial"",""time""
""fullscreenenter"",""1"",""4049""
","
","","","","","","2542.2000000476837","images/cow4.png","","","memory_trial","2","maybe_old","","","","","","",""
"html-keyboard-response","171","417632","0.0-15.0-0.64","1920","2","""event"",""trial"",""time""
""blur"",""1"",""1317""
""focus"",""1"",""2272""
""fullscreenenter"",""1"",""4049""
""blur"",""67"",""226523""
""focus"",""69"",""230951""
","""event"",""trial"",""time""
""blur"",""1"",""1317""
""blur"",""67"",""226523""
","""event"",""trial"",""time""
""focus"",""1"",""2272""
""focus"",""69"",""230951""
","""event"",""trial"",""time""
""fullscreenenter"",""1"",""4049""
","
","","","","","","null","<div style=""font-size:60px;"">+</div>","null","","fixation","","","","","","","","",""
"memory-trial","172","420815","0.0-15.0-1.64","1920","2","""event"",""trial"",""time""
""blur"",""1"",""1317""
""focus"",""1"",""2272""
""fullscreenenter"",""1"",""4049""
""blur"",""67"",""226523""
""focus"",""69"",""230951""
","""event"",""trial"",""time""
""blur"",""1"",""1317""
""blur"",""67"",""226523""
","""event"",""trial"",""time""
""focus"",""1"",""2272""
""focus"",""69"",""230951""
","""event"",""trial"",""time""
""fullscreenenter"",""1"",""4049""
","
","","","","","","2181.9000000953674","images/feline2.png","","","memory_trial","2","maybe_old","","","","","","",""
"html-keyboard-response","173","421317","0.0-15.0-0.65","1920","2","""event"",""trial"",""time""
""blur"",""1"",""1317""
""focus"",""1"",""2272""
""fullscreenenter"",""1"",""4049""
""blur"",""67"",""226523""
""focus"",""69"",""230951""
","""event"",""trial"",""time""
""blur"",""1"",""1317""
""blur"",""67"",""226523""
","""event"",""trial"",""time""
""focus"",""1"",""2272""
""focus"",""69"",""230951""
","""event"",""trial"",""time""
""fullscreenenter"",""1"",""4049""
","
","","","","","","null","<div style=""font-size:60px;"">+</div>","null","","fixation","","","","","","","","",""
"memory-trial","174","424880","0.0-15.0-1.65","1920","2","""event"",""trial"",""time""
""blur"",""1"",""1317""
""focus"",""1"",""2272""
""fullscreenenter"",""1"",""4049""
""blur"",""67"",""226523""
""focus"",""69"",""230951""
","""event"",""trial"",""time""
""blur"",""1"",""1317""
""blur"",""67"",""226523""
","""event"",""trial"",""time""
""focus"",""1"",""2272""
""focus"",""69"",""230951""
","""event"",""trial"",""time""
""fullscreenenter"",""1"",""4049""
","
","","","","","","2560","images/table3.png","","","memory_trial","3","maybe_new","","","","","","",""
"html-keyboard-response","175","425382","0.0-15.0-0.66","1920","2","""event"",""trial"",""time""
""blur"",""1"",""1317""
