"trial_type","trial_index","time_elapsed","internal_node_id","subject_id","task_version","interactions","blur_events","focus_events","fullscreenenter_events","fullscreenexit_events","success","timeout","failed_images","failed_audio","failed_video","rt","stimulus","response","button_pressed","task_part","key_press","answer","correct","left_choice","middle_choice","right_choice","choice_positions","option_selected","block"
"pavlovia","0","2","0.0-0.0","2002","2","""event"",""trial"",""time""
""fullscreenenter"",""1"",""1780""
","
","
","""event"",""trial"",""time""
""fullscreenenter"",""1"",""1780""
","
","","","","","","","","","","","","","","","","","","",""
"fullscreen","1","2759","0.0-1.0","2002","2","""event"",""trial"",""time""
""fullscreenenter"",""1"",""1780""
","
","
","""event"",""trial"",""time""
""fullscreenenter"",""1"",""1780""
","
","true","","","","","","","","","","","","","","","","","",""
"preload","2","3534","0.0-2.0","2002","2","""event"",""trial"",""time""
""fullscreenenter"",""1"",""1780""
","
","
","""event"",""trial"",""time""
""fullscreenenter"",""1"",""1780""
","
","true","false","[]","[]","[]","","","","","","","","","","","","","",""
"audio-keyboard-response","3","5707","0.0-3.0","2002","2","""event"",""trial"",""time""
""fullscreenenter"",""1"",""1780""
","
","
","""event"",""trial"",""time""
""fullscreenenter"",""1"",""1780""
","
","","","","","","2159.455782312925","audio/beep_loop.wav"," ","","","","","","","","","","",""
"audio-button-response","4","7186","0.0-4.0","2002","2","""event"",""trial"",""time""
""fullscreenenter"",""1"",""1780""
","
","
","""event"",""trial"",""time""
""fullscreenenter"",""1"",""1780""
","
","","","","","","1474","audio/turtle.wav","3","","","","","","","","","","",""
"audio-button-response","5","9470","0.0-5.0","2002","2","""event"",""trial"",""time""
""fullscreenenter"",""1"",""1780""
","
","
","""event"",""trial"",""time""
""fullscreenenter"",""1"",""1780""
","
","","","","","","1277","audio/shark.wav","2","","","","","","","","","","",""
"preload","6","13219","0.0-6.0","2002","2","""event"",""trial"",""time""
""fullscreenenter"",""1"",""1780""
","
","
","""event"",""trial"",""time""
""fullscreenenter"",""1"",""1780""
","
","true","false","[]","[]","[]","","","","","","","","","","","","","",""
"learning-instructions","7","20320","0.0-7.0-0.0","2002","2","""event"",""trial"",""time""
""fullscreenenter"",""1"",""1780""
","
","
","""event"",""trial"",""time""
""fullscreenenter"",""1"",""1780""
","
","","","","","","2291.5","<p> Welcome back! </p><p> Last week, you had to make choices about lots of different items.  </p>","","0","instructions","","","","","","","","",""
"learning-instructions","8","25337","0.0-7.0-0.1","2002","2","""event"",""trial"",""time""
""fullscreenenter"",""1"",""1780""
","
","
","""event"",""trial"",""time""
""fullscreenenter"",""1"",""1780""
","
","","","","","","714.7000000476837","<p> Today, we are going to ask you to try to remember all the items. </p>","","0","instructions","","","","","","","","",""
"learning-instructions","9","38737","0.0-7.0-0.2","2002","2","""event"",""trial"",""time""
""fullscreenenter"",""1"",""1780""
","
","
","""event"",""trial"",""time""
""fullscreenenter"",""1"",""1780""
","
","","","","","","3265.399999976158","<p> On every trial, you will see an image. </p><p> The image may be an OLD image you saw during the games last week or it may be a NEW image that was not presented. </p>","","0","instructions","","","","","","","","",""
"learning-instructions","10","49072","0.0-7.0-0.3","2002","2","""event"",""trial"",""time""
""fullscreenenter"",""1"",""1780""
","
","
","""event"",""trial"",""time""
""fullscreenenter"",""1"",""1780""
","
","","","","","","1837.1999999284744","<p> You need to select whether the image is:  </p><p>  'Definitely old', 'Maybe old', 'Maybe new', or 'Definitely new.'  </p><div class=""mem-choice-instructions-grid""><div class=""choice-option"" id=""choice-option-1"" ><img src=""images/definitely_old_1.png"" id=""choice-option-img-1"" class=""choice-option-img"" stage=""1""></div><div class=""choice-option"" id=""choice-option-2"" ><img src=""images/maybe_old_1.png"" id=""choice-option-img-2"" class=""choice-option-img"" stage=""1""></div><div class=""choice-option"" id=""choice-option-3"" ><img src=""images/maybe_new_1.png"" id=""choice-option-img-3"" class=""choice-option-img"" stage=""1""></div><div class=""choice-option"" id=""choice-option-4"" > <img src=""images/definitely_new_1.png"" id=""choice-option-img-4"" class=""choice-option-img"" stage=""1""></div></div>","","0","instructions","","","","","","","","",""
"learning-instructions","11","61987","0.0-7.0-0.4","2002","2","""event"",""trial"",""time""
""fullscreenenter"",""1"",""1780""
","
","
","""event"",""trial"",""time""
""fullscreenenter"",""1"",""1780""
","
","","","","","","6219.799999952316","<p> You should use the 1, 2, 3, and 4 keys to make your responses.  </p><div class=""mem-choice-instructions-grid""><div class=""choice-option"" id=""choice-option-1"" ><img src=""images/definitely_old.png"" id=""choice-option-img-1"" class=""choice-option-img"" stage=""1""></div><div class=""choice-option"" id=""choice-option-2"" ><img src=""images/maybe_old.png"" id=""choice-option-img-2"" class=""choice-option-img"" stage=""1""></div><div class=""choice-option"" id=""choice-option-3"" ><img src=""images/maybe_new.png"" id=""choice-option-img-3"" class=""choice-option-img"" stage=""1""></div><div class=""choice-option"" id=""choice-option-4"" > <img src=""images/definitely_new.png"" id=""choice-option-img-4"" class=""choice-option-img"" stage=""1""></div></div>","","0","instructions","","","","","","","","",""
"learning-instructions","12","74321","0.0-7.0-0.5","2002","2","""event"",""trial"",""time""
""fullscreenenter"",""1"",""1780""
","
","
","""event"",""trial"",""time""
""fullscreenenter"",""1"",""1780""
","
","","","","","","5568.799999952316","<p> You will have 10 seconds to make each response.  </p><p>  Make sure to respond before time runs out! </p>","","0","instructions","","","","","","","","",""
"learning-instructions","13","83422","0.0-7.0-0.6","2002","2","""event"",""trial"",""time""
""fullscreenenter"",""1"",""1780""
","
","
","""event"",""trial"",""time""
""fullscreenenter"",""1"",""1780""
","
","","","","","","1521.6999999284744","<p> Today, you will see each image ONCE only.  </p><p>  That means none of the images will repeat. </p>","","0","instructions","","","","","","","","",""
"learning-instructions","14","97705","0.0-7.0-0.7","2002","2","""event"",""trial"",""time""
""fullscreenenter"",""1"",""1780""
","
","
","""event"",""trial"",""time""
""fullscreenenter"",""1"",""1780""
","
","","","","","","1617.1000000238419","<p> Before you play the real game, it is time to practice. </p><p>  Just like in the real game, some of the images in the practice will be ones you have seen before. </p><p>  Others will be entirely new. </p>","","0","instructions","","","","","","","","",""
"html-button-response","15","99805","0.0-8.0","2002","2","""event"",""trial"",""time""
""fullscreenenter"",""1"",""1780""
","
","
","""event"",""trial"",""time""
""fullscreenenter"",""1"",""1780""
","
","","","","","","1992.1000000238419","<p> Ready to practice? </p><p> Remember, use the 1, 2, 3, and 4 keys to make your responses. </p>","0","","instructions","","","","","","","","",""
"html-keyboard-response","16","100409","0.0-9.0-0.0","2002","2","""event"",""trial"",""time""
""fullscreenenter"",""1"",""1780""
","
","
","""event"",""trial"",""time""
""fullscreenenter"",""1"",""1780""
","
","","","","","","null","<div style=""font-size:60px;"">+</div>","null","","fixation","","","","","","","","",""
"memory-trial","17","103398","0.0-9.0-1.0","2002","2","""event"",""trial"",""time""
""fullscreenenter"",""1"",""1780""
","
","
","""event"",""trial"",""time""
""fullscreenenter"",""1"",""1780""
","
","","","","","","1977.1000000238419","images/racket2.png","","","practice","4","definitely_new","","","","","","",""
"html-keyboard-response","18","103903","0.0-9.0-0.1","2002","2","""event"",""trial"",""time""
""fullscreenenter"",""1"",""1780""
","
","
","""event"",""trial"",""time""
""fullscreenenter"",""1"",""1780""
","
","","","","","","null","<div style=""font-size:60px;"">+</div>","null","","fixation","","","","","","","","",""
"memory-trial","19","106951","0.0-9.0-1.1","2002","2","""event"",""trial"",""time""
""fullscreenenter"",""1"",""1780""
","
","
","""event"",""trial"",""time""
""fullscreenenter"",""1"",""1780""
","
","","","","","","2041","images/racket4.png","","","practice","2","maybe_old","","","","","","",""
"html-keyboard-response","20","107456","0.0-9.0-0.2","2002","2","""event"",""trial"",""time""
""fullscreenenter"",""1"",""1780""
","
","
","""event"",""trial"",""time""
""fullscreenenter"",""1"",""1780""
","
","","","","","","null","<div style=""font-size:60px;"">+</div>","null","","fixation","","","","","","","","",""
"memory-trial","21","110544","0.0-9.0-1.2","2002","2","""event"",""trial"",""time""
""fullscreenenter"",""1"",""1780""
","
","
","""event"",""trial"",""time""
""fullscreenenter"",""1"",""1780""
","
","","","","","","2079.5","images/ball1.png","","","practice","1","definitely_old","","","","","","",""
"html-keyboard-response","22","111049","0.0-9.0-0.3","2002","2","""event"",""trial"",""time""
""fullscreenenter"",""1"",""1780""
","
","
","""event"",""trial"",""time""
""fullscreenenter"",""1"",""1780""
","
","","","","","","null","<div style=""font-size:60px;"">+</div>","null","","fixation","","","","","","","","",""
"memory-trial","23","112865","0.0-9.0-1.3","2002","2","""event"",""trial"",""time""
""fullscreenenter"",""1"",""1780""
","
","
","""event"",""trial"",""time""
""fullscreenenter"",""1"",""1780""
","
","","","","","","808.7000000476837","images/ball4.png","","","practice","1","definitely_old","","","","","","",""
"html-keyboard-response","24","113371","0.0-9.0-0.4","2002","2","""event"",""trial"",""time""
""fullscreenenter"",""1"",""1780""
","
","
","""event"",""trial"",""time""
""fullscreenenter"",""1"",""1780""
","
","","","","","","null","<div style=""font-size:60px;"">+</div>","null","","fixation","","","","","","","","",""
"memory-trial","25","114904","0.0-9.0-1.4","2002","2","""event"",""trial"",""time""
""fullscreenenter"",""1"",""1780""
","
","
","""event"",""trial"",""time""
""fullscreenenter"",""1"",""1780""
","
","","","","","","529.3999999761581","images/ball2.png","","","practice","1","definitely_old","","","","","","",""
"html-keyboard-response","26","115409","0.0-9.0-0.5","2002","2","""event"",""trial"",""time""
""fullscreenenter"",""1"",""1780""
","
","
","""event"",""trial"",""time""
""fullscreenenter"",""1"",""1780""
","
","","","","","","null","<div style=""font-size:60px;"">+</div>","null","","fixation","","","","","","","","",""
"memory-trial","27","118520","0.0-9.0-1.5","2002","2","""event"",""trial"",""time""
""fullscreenenter"",""1"",""1780""
","
","
","""event"",""trial"",""time""
""fullscreenenter"",""1"",""1780""
","
","","","","","","2105.3000000715256","images/ball3.png","","","practice","2","maybe_old","","","","","","",""
"html-keyboard-response","28","119025","0.0-9.0-0.6","2002","2","""event"",""trial"",""time""
""fullscreenenter"",""1"",""1780""
","
","
","""event"",""trial"",""time""
""fullscreenenter"",""1"",""1780""
","
","","","","","","null","<div style=""font-size:60px;"">+</div>","null","","fixation","","","","","","","","",""
"memory-trial","29","121823","0.0-9.0-1.6","2002","2","""event"",""trial"",""time""
""fullscreenenter"",""1"",""1780""
","
","
","""event"",""trial"",""time""
""fullscreenenter"",""1"",""1780""
","
","","","","","","1789.6000000238419","images/racket3.png","","","practice","2","maybe_old","","","","","","",""
"html-keyboard-response","30","122328","0.0-9.0-0.7","2002","2","""event"",""trial"",""time""
""fullscreenenter"",""1"",""1780""
","
","
","""event"",""trial"",""time""
""fullscreenenter"",""1"",""1780""
","
","","","","","","null","<div style=""font-size:60px;"">+</div>","null","","fixation","","","","","","","","",""
"memory-trial","31","125511","0.0-9.0-1.7","2002","2","""event"",""trial"",""time""
""fullscreenenter"",""1"",""1780""
","
","
","""event"",""trial"",""time""
""fullscreenenter"",""1"",""1780""
","
","","","","","","2180.3000000715256","images/racket1.png","","","practice","3","maybe_new","","","","","","",""
"learning-instructions","32","133938","0.0-10.0-0.0","2002","2","""event"",""trial"",""time""
""fullscreenenter"",""1"",""1780""
","
","
","""event"",""trial"",""time""
""fullscreenenter"",""1"",""1780""
","
","","","","","","469.39999997615814","<p> Great! You have completed the practice. </p><p> Before you start, we're going to ask you a few questions about how the game works.  </p>","","0","instructions","","","","","","","","",""
"preload","33","135677","0.0-11.0","2002","2","""event"",""trial"",""time""
""fullscreenenter"",""1"",""1780""
","
","
","""event"",""trial"",""time""
""fullscreenenter"",""1"",""1780""
","
","true","false","[]","[]","[]","","","","","","","","","","","","","",""
"comp-q","34","142239","0.0-12.0-0.0","2002","2","""event"",""trial"",""time""
""fullscreenenter"",""1"",""1780""
","
","
","""event"",""trial"",""time""
""fullscreenenter"",""1"",""1780""
","
","","","","","","732","<p> <b> True or False? </b> </p><p> In this game, you will only see each image once. </p>","","0","comp_question","","","true","","","","","",""
"comp-q","35","149505","0.0-12.0-1.0","2002","2","""event"",""trial"",""time""
""fullscreenenter"",""1"",""1780""
","
","
","""event"",""trial"",""time""
""fullscreenenter"",""1"",""1780""
","
","","","","","","928","<p> <b> That's right! </b> You will see many different images <i> one time each </i> in this game. </p>","","0","comp_answer","","","","","","","","",""
"comp-q","36","155805","0.0-12.0-0.1","2002","2","""event"",""trial"",""time""
""fullscreenenter"",""1"",""1780""
","
","
","""event"",""trial"",""time""
""fullscreenenter"",""1"",""1780""
","
","","","","","","505.6999999284744","<p> <b> True or False? </b> </p><p> You should use the mouse and click to make your response. </p>","","1","comp_question","","","true","","","","","",""
"comp-q","37","164321","0.0-12.0-1.1","2002","2","""event"",""trial"",""time""
""fullscreenenter"",""1"",""1780""
","
","
","""event"",""trial"",""time""
""fullscreenenter"",""1"",""1780""
","
","","","","","","1168.5","<p><b> That's right! </b> You should use the '1', '2', '3', and '4' keys to make your response. </p>","","0","comp_answer","","","","","","","","",""
"comp-q","38","170772","0.0-12.0-0.2","2002","2","""event"",""trial"",""time""
""fullscreenenter"",""1"",""1780""
","
","
","""event"",""trial"",""time""
""fullscreenenter"",""1"",""1780""
","
","","","","","","455.5","<p> <b> True or False? </b> </p><p> You will have as much time as you want to make each choice. </p>","","1","comp_question","","","true","","","","","",""
"comp-q","39","177755","0.0-12.0-1.2","2002","2","""event"",""trial"",""time""
""fullscreenenter"",""1"",""1780""
","
","
","""event"",""trial"",""time""
""fullscreenenter"",""1"",""1780""
","
","","","","","","1593.3999999761581","<p> <b> That's right! </b> You will only have 10 seconds to make each choice. </p>","","0","comp_answer","","","","","","","","",""
"learning-instructions","40","190854","0.0-13.0","2002","2","""event"",""trial"",""time""
""fullscreenenter"",""1"",""1780""
","
","
","""event"",""trial"",""time""
""fullscreenenter"",""1"",""1780""
","
","","","","","","4428.800000071526","<p> Great! You are now ready to begin the game. </p><p> Remember, use the 1, 2, 3, and 4 keys to make your responses. </p>","","0","instructions","","","","","","","","",""
"preload","41","194899","0.0-14.0","2002","2","""event"",""trial"",""time""
""fullscreenenter"",""1"",""1780""
","
","
","""event"",""trial"",""time""
""fullscreenenter"",""1"",""1780""
","
","true","false","[]","[]","[]","","","","","","","","","","","","","",""
"html-keyboard-response","42","195405","0.0-15.0-0.0","2002","2","""event"",""trial"",""time""
""fullscreenenter"",""1"",""1780""
","
","
","""event"",""trial"",""time""
""fullscreenenter"",""1"",""1780""
","
","","","","","","null","<div style=""font-size:60px;"">+</div>","null","","fixation","","","","","","","","",""
"memory-trial","43","197826","0.0-15.0-1.0","2002","2","""event"",""trial"",""time""
""fullscreenenter"",""1"",""1780""
","
","
","""event"",""trial"",""time""
""fullscreenenter"",""1"",""1780""
","
","","","","","","1414.3999999761581","images/boat5.png","","","memory_trial","1","definitely_old","","","","","","",""
"html-keyboard-response","44","198332","0.0-15.0-0.1","2002","2","""event"",""trial"",""time""
""fullscreenenter"",""1"",""1780""
","
","
","""event"",""trial"",""time""
""fullscreenenter"",""1"",""1780""
","
","","","","","","null","<div style=""font-size:60px;"">+</div>","null","","fixation","","","","","","","","",""
"memory-trial","45","200470","0.0-15.0-1.1","2002","2","""event"",""trial"",""time""
""fullscreenenter"",""1"",""1780""
","
","
","""event"",""trial"",""time""
""fullscreenenter"",""1"",""1780""
","
","","","","","","1133.1999999284744","images/cactus5.png","","","memory_trial","4","definitely_new","","","","","","",""
"html-keyboard-response","46","200974","0.0-15.0-0.2","2002","2","""event"",""trial"",""time""
""fullscreenenter"",""1"",""1780""
","
","
","""event"",""trial"",""time""
""fullscreenenter"",""1"",""1780""
","
","","","","","","null","<div style=""font-size:60px;"">+</div>","null","","fixation","","","","","","","","",""
"memory-trial","47","202942","0.0-15.0-1.2","2002","2","""event"",""trial"",""time""
""fullscreenenter"",""1"",""1780""
","
","
","""event"",""trial"",""time""
""fullscreenenter"",""1"",""1780""
","
","","","","","","961.3999999761581","images/chair3.png","","","memory_trial","1","definitely_old","","","","","","",""
"html-keyboard-response","48","203448","0.0-15.0-0.3","2002","2","""event"",""trial"",""time""
""fullscreenenter"",""1"",""1780""
","
","
","""event"",""trial"",""time""
""fullscreenenter"",""1"",""1780""
","
","","","","","","null","<div style=""font-size:60px;"">+</div>","null","","fixation","","","","","","","","",""
"memory-trial","49","205332","0.0-15.0-1.3","2002","2","""event"",""trial"",""time""
""fullscreenenter"",""1"",""1780""
","
","
","""event"",""trial"",""time""
""fullscreenenter"",""1"",""1780""
","
","","","","","","876.8000000715256","images/flower4.png","","","memory_trial","1","definitely_old","","","","","","",""
"html-keyboard-response","50","205836","0.0-15.0-0.4","2002","2","""event"",""trial"",""time""
""fullscreenenter"",""1"",""1780""
","
","
","""event"",""trial"",""time""
""fullscreenenter"",""1"",""1780""
","
","","","","","","null","<div style=""font-size:60px;"">+</div>","null","","fixation","","","","","","","","",""
"memory-trial","51","207688","0.0-15.0-1.4","2002","2","""event"",""trial"",""time""
""fullscreenenter"",""1"",""1780""
","
","
","""event"",""trial"",""time""
""fullscreenenter"",""1"",""1780""
","
","","","","","","845.2999999523163","images/goat3.png","","","memory_trial","1","definitely_old","","","","","","",""
"html-keyboard-response","52","208193","0.0-15.0-0.5","2002","2","""event"",""trial"",""time""
""fullscreenenter"",""1"",""1780""
","
","
","""event"",""trial"",""time""
""fullscreenenter"",""1"",""1780""
","
","","","","","","null","<div style=""font-size:60px;"">+</div>","null","","fixation","","","","","","","","",""
"memory-trial","53","209952","0.0-15.0-1.5","2002","2","""event"",""trial"",""time""
""fullscreenenter"",""1"",""1780""
","
","
","""event"",""trial"",""time""
""fullscreenenter"",""1"",""1780""
","
","","","","","","752.1000000238419","images/apple3.png","","","memory_trial","1","definitely_old","","","","","","",""
"html-keyboard-response","54","210457","0.0-15.0-0.6","2002","2","""event"",""trial"",""time""
""fullscreenenter"",""1"",""1780""
","
","
","""event"",""trial"",""time""
""fullscreenenter"",""1"",""1780""
","
","","","","","","null","<div style=""font-size:60px;"">+</div>","null","","fixation","","","","","","","","",""
"memory-trial","55","212182","0.0-15.0-1.6","2002","2","""event"",""trial"",""time""
""fullscreenenter"",""1"",""1780""
","
","
","""event"",""trial"",""time""
""fullscreenenter"",""1"",""1780""
","
","","","","","","720.1000000238419","images/banana1.png","","","memory_trial","1","definitely_old","","","","","","",""
"html-keyboard-response","56","212686","0.0-15.0-0.7","2002","2","""event"",""trial"",""time""
""fullscreenenter"",""1"",""1780""
","
","
","""event"",""trial"",""time""
""fullscreenenter"",""1"",""1780""
","
","","","","","","null","<div style=""font-size:60px;"">+</div>","null","","fixation","","","","","","","","",""
"memory-trial","57","214503","0.0-15.0-1.7","2002","2","""event"",""trial"",""time""
""fullscreenenter"",""1"",""1780""
","
","
","""event"",""trial"",""time""
""fullscreenenter"",""1"",""1780""
","
","","","","","","810.2999999523163","images/orange1.png","","","memory_trial","1","definitely_old","","","","","","",""
"html-keyboard-response","58","215007","0.0-15.0-0.8","2002","2","""event"",""trial"",""time""
""fullscreenenter"",""1"",""1780""
","
","
","""event"",""trial"",""time""
""fullscreenenter"",""1"",""1780""
","
","","","","","","null","<div style=""font-size:60px;"">+</div>","null","","fixation","","","","","","","","",""
"memory-trial","59","216782","0.0-15.0-1.8","2002","2","""event"",""trial"",""time""
""fullscreenenter"",""1"",""1780""
","
","
","""event"",""trial"",""time""
""fullscreenenter"",""1"",""1780""
","
","","","","","","768.3000000715256","images/goat1.png","","","memory_trial","1","definitely_old","","","","","","",""
"html-keyboard-response","60","217286","0.0-15.0-0.9","2002","2","""event"",""trial"",""time""
""fullscreenenter"",""1"",""1780""
","
","
","""event"",""trial"",""time""
""fullscreenenter"",""1"",""1780""
","
","","","","","","null","<div style=""font-size:60px;"">+</div>","null","","fixation","","","","","","","","",""
"memory-trial","61","219769","0.0-15.0-1.9","2002","2","""event"",""trial"",""time""
""fullscreenenter"",""1"",""1780""
","
","
","""event"",""trial"",""time""
""fullscreenenter"",""1"",""1780""
","
","","","","","","1479.5","images/feline1.png","","","memory_trial","4","definitely_new","","","","","","",""
"html-keyboard-response","62","220274","0.0-15.0-0.10","2002","2","""event"",""trial"",""time""
""fullscreenenter"",""1"",""1780""
","
","
","""event"",""trial"",""time""
""fullscreenenter"",""1"",""1780""
","
","","","","","","null","<div style=""font-size:60px;"">+</div>","null","","fixation","","","","","","","","",""
"memory-trial","63","221987","0.0-15.0-1.10","2002","2","""event"",""trial"",""time""
""fullscreenenter"",""1"",""1780""
","
","
","""event"",""trial"",""time""
""fullscreenenter"",""1"",""1780""
","
","","","","","","707.3000000715256","images/horse2.png","","","memory_trial","4","definitely_new","","","","","","",""
"html-keyboard-response","64","222492","0.0-15.0-0.11","2002","2","""event"",""trial"",""time""
""fullscreenenter"",""1"",""1780""
","
","
","""event"",""trial"",""time""
""fullscreenenter"",""1"",""1780""
","
","","","","","","null","<div style=""font-size:60px;"">+</div>","null","","fixation","","","","","","","","",""
"memory-trial","65","225189","0.0-15.0-1.11","2002","2","""event"",""trial"",""time""
""fullscreenenter"",""1"",""1780""
","
","
","""event"",""trial"",""time""
""fullscreenenter"",""1"",""1780""
","
","","","","","","1691.5","images/orange3.png","","","memory_trial","2","maybe_old","","","","","","",""
"html-keyboard-response","66","225694","0.0-15.0-0.12","2002","2","""event"",""trial"",""time""
""fullscreenenter"",""1"",""1780""
","
","
","""event"",""trial"",""time""
""fullscreenenter"",""1"",""1780""
","
","","","","","","null","<div style=""font-size:60px;"">+</div>","null","","fixation","","","","","","","","",""
"memory-trial","67","227983","0.0-15.0-1.12","2002","2","""event"",""trial"",""time""
""fullscreenenter"",""1"",""1780""
","
","
","""event"",""trial"",""time""
""fullscreenenter"",""1"",""1780""
","
","","","","","","1284.5","images/goat2.png","","","memory_trial","1","definitely_old","","","","","","",""
"html-keyboard-response","68","228488","0.0-15.0-0.13","2002","2","""event"",""trial"",""time""
""fullscreenenter"",""1"",""1780""
","
","
","""event"",""trial"",""time""
""fullscreenenter"",""1"",""1780""
","
","","","","","","null","<div style=""font-size:60px;"">+</div>","null","","fixation","","","","","","","","",""
"memory-trial","69","232057","0.0-15.0-1.13","2002","2","""event"",""trial"",""time""
""fullscreenenter"",""1"",""1780""
","
","
","""event"",""trial"",""time""
""fullscreenenter"",""1"",""1780""
","
","","","","","","2561.2000000476837","images/table4.png","","","memory_trial","2","maybe_old","","","","","","",""
"html-keyboard-response","70","232563","0.0-15.0-0.14","2002","2","""event"",""trial"",""time""
""fullscreenenter"",""1"",""1780""
","
","
","""event"",""trial"",""time""
""fullscreenenter"",""1"",""1780""
","
","","","","","","null","<div style=""font-size:60px;"">+</div>","null","","fixation","","","","","","","","",""
"memory-trial","71","234932","0.0-15.0-1.14","2002","2","""event"",""trial"",""time""
""fullscreenenter"",""1"",""1780""
","
","
","""event"",""trial"",""time""
""fullscreenenter"",""1"",""1780""
","
","","","","","","1362","images/bush5.png","","","memory_trial","1","definitely_old","","","","","","",""
"html-keyboard-response","72","235438","0.0-15.0-0.15","2002","2","""event"",""trial"",""time""
""fullscreenenter"",""1"",""1780""
","
","
","""event"",""trial"",""time""
""fullscreenenter"",""1"",""1780""
","
","","","","","","null","<div style=""font-size:60px;"">+</div>","null","","fixation","","","","","","","","",""
"memory-trial","73","237863","0.0-15.0-1.15","2002","2","""event"",""trial"",""time""
""fullscreenenter"",""1"",""1780""
","
","
","""event"",""trial"",""time""
""fullscreenenter"",""1"",""1780""
","
","","","","","","1420","images/boat2.png","","","memory_trial","1","definitely_old","","","","","","",""
"html-keyboard-response","74","238368","0.0-15.0-0.16","2002","2","""event"",""trial"",""time""
""fullscreenenter"",""1"",""1780""
","
","
","""event"",""trial"",""time""
""fullscreenenter"",""1"",""1780""
","
","","","","","","null","<div style=""font-size:60px;"">+</div>","null","","fixation","","","","","","","","",""
"memory-trial","75","240243","0.0-15.0-1.16","2002","2","""event"",""trial"",""time""
""fullscreenenter"",""1"",""1780""
","
","
","""event"",""trial"",""time""
""fullscreenenter"",""1"",""1780""
","
","","","","","","867.8999999761581","images/chair2.png","","","memory_trial","4","definitely_new","","","","","","",""
"html-keyboard-response","76","240746","0.0-15.0-0.17","2002","2","""event"",""trial"",""time""
""fullscreenenter"",""1"",""1780""
","
","
","""event"",""trial"",""time""
""fullscreenenter"",""1"",""1780""
","
","","","","","","null","<div style=""font-size:60px;"">+</div>","null","","fixation","","","","","","","","",""
"memory-trial","77","242867","0.0-15.0-1.17","2002","2","""event"",""trial"",""time""
""fullscreenenter"",""1"",""1780""
","
","
","""event"",""trial"",""time""
""fullscreenenter"",""1"",""1780""
","
","","","","","","1117.2000000476837","images/train1.png","","","memory_trial","4","definitely_new","","","","","","",""
"html-keyboard-response","78","243372","0.0-15.0-0.18","2002","2","""event"",""trial"",""time""
""fullscreenenter"",""1"",""1780""
","
","
","""event"",""trial"",""time""
""fullscreenenter"",""1"",""1780""
","
","","","","","","null","<div style=""font-size:60px;"">+</div>","null","","fixation","","","","","","","","",""
"memory-trial","79","245427","0.0-15.0-1.18","2002","2","""event"",""trial"",""time""
""fullscreenenter"",""1"",""1780""
","
","
","""event"",""trial"",""time""
""fullscreenenter"",""1"",""1780""
","
","","","","","","1050.2999999523163","images/orange5.png","","","memory_trial","1","definitely_old","","","","","","",""
"html-keyboard-response","80","245932","0.0-15.0-0.19","2002","2","""event"",""trial"",""time""
""fullscreenenter"",""1"",""1780""
","
","
","""event"",""trial"",""time""
""fullscreenenter"",""1"",""1780""
","
","","","","","","null","<div style=""font-size:60px;"">+</div>","null","","fixation","","","","","","","","",""
"memory-trial","81","248138","0.0-15.0-1.19","2002","2","""event"",""trial"",""time""
""fullscreenenter"",""1"",""1780""
","
","
","""event"",""trial"",""time""
""fullscreenenter"",""1"",""1780""
","
","","","","","","1200.1000000238419","images/horse4.png","","","memory_trial","4","definitely_new","","","","","","",""
"html-keyboard-response","82","248642","0.0-15.0-0.20","2002","2","""event"",""trial"",""time""
""fullscreenenter"",""1"",""1780""
","
","
","""event"",""trial"",""time""
""fullscreenenter"",""1"",""1780""
","
","","","","","","null","<div style=""font-size:60px;"">+</div>","null","","fixation","","","","","","","","",""
"memory-trial","83","250887","0.0-15.0-1.20","2002","2","""event"",""trial"",""time""
""fullscreenenter"",""1"",""1780""
","
","
","""event"",""trial"",""time""
""fullscreenenter"",""1"",""1780""
","
","","","","","","1238","images/flower2.png","","","memory_trial","1","definitely_old","","","","","","",""
"html-keyboard-response","84","251392","0.0-15.0-0.21","2002","2","""event"",""trial"",""time""
""fullscreenenter"",""1"",""1780""
","
","
","""event"",""trial"",""time""
""fullscreenenter"",""1"",""1780""
","
","","","","","","null","<div style=""font-size:60px;"">+</div>","null","","fixation","","","","","","","","",""
"memory-trial","85","253144","0.0-15.0-1.21","2002","2","""event"",""trial"",""time""
""fullscreenenter"",""1"",""1780""
","
","
","""event"",""trial"",""time""
""fullscreenenter"",""1"",""1780""
","
","","","","","","746.3000000715256","images/feline2.png","","","memory_trial","1","definitely_old","","","","","","",""
"html-keyboard-response","86","253651","0.0-15.0-0.22","2002","2","""event"",""trial"",""time""
""fullscreenenter"",""1"",""1780""
","
","
","""event"",""trial"",""time""
""fullscreenenter"",""1"",""1780""
","
","","","","","","null","<div style=""font-size:60px;"">+</div>","null","","fixation","","","","","","","","",""
"memory-trial","87","255533","0.0-15.0-1.22","2002","2","""event"",""trial"",""time""
""fullscreenenter"",""1"",""1780""
","
","
","""event"",""trial"",""time""
""fullscreenenter"",""1"",""1780""
","
","","","","","","875.3999999761581","images/straw5.png","","","memory_trial","4","definitely_new","","","","","","",""
"html-keyboard-response","88","256038","0.0-15.0-0.23","2002","2","""event"",""trial"",""time""
""fullscreenenter"",""1"",""1780""
","
","
","""event"",""trial"",""time""
""fullscreenenter"",""1"",""1780""
","
","","","","","","null","<div style=""font-size:60px;"">+</div>","null","","fixation","","","","","","","","",""
"memory-trial","89","258167","0.0-15.0-1.23","2002","2","""event"",""trial"",""time""
""fullscreenenter"",""1"",""1780""
","
","
","""event"",""trial"",""time""
""fullscreenenter"",""1"",""1780""
","
","","","","","","1121.5","images/tree3.png","","","memory_trial","4","definitely_new","","","","","","",""
"html-keyboard-response","90","258672","0.0-15.0-0.24","2002","2","""event"",""trial"",""time""
""fullscreenenter"",""1"",""1780""
","
","
","""event"",""trial"",""time""
""fullscreenenter"",""1"",""1780""
","
","","","","","","null","<div style=""font-size:60px;"">+</div>","null","","fixation","","","","","","","","",""
"memory-trial","91","260413","0.0-15.0-1.24","2002","2","""event"",""trial"",""time""
""fullscreenenter"",""1"",""1780""
","
","
","""event"",""trial"",""time""
""fullscreenenter"",""1"",""1780""
","
","","","","","","735","images/horse5.png","","","memory_trial","4","definitely_new","","","","","","",""
"html-keyboard-response","92","260918","0.0-15.0-0.25","2002","2","""event"",""trial"",""time""
""fullscreenenter"",""1"",""1780""
","
","
","""event"",""trial"",""time""
""fullscreenenter"",""1"",""1780""
","
","","","","","","null","<div style=""font-size:60px;"">+</div>","null","","fixation","","","","","","","","",""
"memory-trial","93","262957","0.0-15.0-1.25","2002","2","""event"",""trial"",""time""
""fullscreenenter"",""1"",""1780""
","
","
","""event"",""trial"",""time""
""fullscreenenter"",""1"",""1780""
","
","","","","","","1036.7000000476837","images/cactus2.png","","","memory_trial","4","definitely_new","","","","","","",""
"html-keyboard-response","94","263462","0.0-15.0-0.26","2002","2","""event"",""trial"",""time""
""fullscreenenter"",""1"",""1780""
","
","
","""event"",""trial"",""time""
""fullscreenenter"",""1"",""1780""
","
","","","","","","null","<div style=""font-size:60px;"">+</div>","null","","fixation","","","","","","","","",""
"memory-trial","95","265633","0.0-15.0-1.26","2002","2","""event"",""trial"",""time""
""fullscreenenter"",""1"",""1780""
","
","
","""event"",""trial"",""time""
""fullscreenenter"",""1"",""1780""
","
","","","","","","1164.1000000238419","images/bed5.png","","","memory_trial","2","maybe_old","","","","","","",""
"html-keyboard-response","96","266138","0.0-15.0-0.27","2002","2","""event"",""trial"",""time""
""fullscreenenter"",""1"",""1780""
","
","
","""event"",""trial"",""time""
""fullscreenenter"",""1"",""1780""
","
","","","","","","null","<div style=""font-size:60px;"">+</div>","null","","fixation","","","","","","","","",""
"memory-trial","97","268029","0.0-15.0-1.27","2002","2","""event"",""trial"",""time""
""fullscreenenter"",""1"",""1780""
","
","
","""event"",""trial"",""time""
""fullscreenenter"",""1"",""1780""
","
","","","","","","882.8000000715256","images/bed4.png","","","memory_trial","1","definitely_old","","","","","","",""
"html-keyboard-response","98","268534","0.0-15.0-0.28","2002","2","""event"",""trial"",""time""
""fullscreenenter"",""1"",""1780""
","
","
","""event"",""trial"",""time""
""fullscreenenter"",""1"",""1780""
","
","","","","","","null","<div style=""font-size:60px;"">+</div>","null","","fixation","","","","","","","","",""
"memory-trial","99","270915","0.0-15.0-1.28","2002","2","""event"",""trial"",""time""
""fullscreenenter"",""1"",""1780""
","
","
","""event"",""trial"",""time""
""fullscreenenter"",""1"",""1780""
","
","","","","","","1373.2000000476837","images/tree5.png","","","memory_trial","3","maybe_new","","","","","","",""
"html-keyboard-response","100","271421","0.0-15.0-0.29","2002","2","""event"",""trial"",""time""
""fullscreenenter"",""1"",""1780""
","
","
","""event"",""trial"",""time""
""fullscreenenter"",""1"",""1780""
","
","","","","","","null","<div style=""font-size:60px;"">+</div>","null","","fixation","","","","","","","","",""
"memory-trial","101","273539","0.0-15.0-1.29","2002","2","""event"",""trial"",""time""
""fullscreenenter"",""1"",""1780""
","
","
","""event"",""trial"",""time""
""fullscreenenter"",""1"",""1780""
","
","","","","","","1114","images/bush3.png","","","memory_trial","1","definitely_old","","","","","","",""
"html-keyboard-response","102","274044","0.0-15.0-0.30","2002","2","""event"",""trial"",""time""
""fullscreenenter"",""1"",""1780""
","
","
","""event"",""trial"",""time""
""fullscreenenter"",""1"",""1780""
","
","","","","","","null","<div style=""font-size:60px;"">+</div>","null","","fixation","","","","","","","","",""
"memory-trial","103","276082","0.0-15.0-1.30","2002","2","""event"",""trial"",""time""
""fullscreenenter"",""1"",""1780""
","
","
","""event"",""trial"",""time""
""fullscreenenter"",""1"",""1780""
","
","","","","","","1031.2000000476837","images/plane5.png","","","memory_trial","4","definitely_new","","","","","","",""
"html-keyboard-response","104","276587","0.0-15.0-0.31","2002","2","""event"",""trial"",""time""
""fullscreenenter"",""1"",""1780""
","
","
","""event"",""trial"",""time""
""fullscreenenter"",""1"",""1780""
","
","","","","","","null","<div style=""font-size:60px;"">+</div>","null","","fixation","","","","","","","","",""
"memory-trial","105","279315","0.0-15.0-1.31","2002","2","""event"",""trial"",""time""
""fullscreenenter"",""1"",""1780""
","
","
","""event"",""trial"",""time""
""fullscreenenter"",""1"",""1780""
","
","","","","","","1722.4000000953674","images/rabbit2.png","","","memory_trial","2","maybe_old","","","","","","",""
"html-keyboard-response","106","279820","0.0-15.0-0.32","2002","2","""event"",""trial"",""time""
""fullscreenenter"",""1"",""1780""
","
","
","""event"",""trial"",""time""
""fullscreenenter"",""1"",""1780""
","
","","","","","","null","<div style=""font-size:60px;"">+</div>","null","","fixation","","","","","","","","",""
"memory-trial","107","282107","0.0-15.0-1.32","2002","2","""event"",""trial"",""time""
""fullscreenenter"",""1"",""1780""
","
","
","""event"",""trial"",""time""
""fullscreenenter"",""1"",""1780""
","
","","","","","","1280.6000000238419","images/tree1.png","","","memory_trial","4","definitely_new","","","","","","",""
"html-keyboard-response","108","282612","0.0-15.0-0.33","2002","2","""event"",""trial"",""time""
""fullscreenenter"",""1"",""1780""
","
","
","""event"",""trial"",""time""
""fullscreenenter"",""1"",""1780""
","
","","","","","","null","<div style=""font-size:60px;"">+</div>","null","","fixation","","","","","","","","",""
"memory-trial","109","285335","0.0-15.0-1.33","2002","2","""event"",""trial"",""time""
""fullscreenenter"",""1"",""1780""
","
","
","""event"",""trial"",""time""
""fullscreenenter"",""1"",""1780""
","
","","","","","","1717.5","images/bed2.png","","","memory_trial","1","definitely_old","","","","","","",""
"html-keyboard-response","110","285840","0.0-15.0-0.34","2002","2","""event"",""trial"",""time""
""fullscreenenter"",""1"",""1780""
","
","
","""event"",""trial"",""time""
""fullscreenenter"",""1"",""1780""
","
","","","","","","null","<div style=""font-size:60px;"">+</div>","null","","fixation","","","","","","","","",""
"memory-trial","111","287934","0.0-15.0-1.34","2002","2","""event"",""trial"",""time""
""fullscreenenter"",""1"",""1780""
","
","
","""event"",""trial"",""time""
""fullscreenenter"",""1"",""1780""
","
","","","","","","1087.1000000238419","images/cow3.png","","","memory_trial","1","definitely_old","","","","","","",""
"html-keyboard-response","112","288439","0.0-15.0-0.35","2002","2","""event"",""trial"",""time""
""fullscreenenter"",""1"",""1780""
","
","
","""event"",""trial"",""time""
""fullscreenenter"",""1"",""1780""
","
","","","","","","null","<div style=""font-size:60px;"">+</div>","null","","fixation","","","","","","","","",""
"memory-trial","113","291148","0.0-15.0-1.35","2002","2","""event"",""trial"",""time""
""fullscreenenter"",""1"",""1780""
","
","
","""event"",""trial"",""time""
""fullscreenenter"",""1"",""1780""
","
","","","","","","1700.1000000238419","images/goat4.png","","","memory_trial","3","maybe_new","","","","","","",""
"html-keyboard-response","114","291650","0.0-15.0-0.36","2002","2","""event"",""trial"",""time""
""fullscreenenter"",""1"",""1780""
","
","
","""event"",""trial"",""time""
""fullscreenenter"",""1"",""1780""
","
","","","","","","null","<div style=""font-size:60px;"">+</div>","null","","fixation","","","","","","","","",""
"memory-trial","115","294662","0.0-15.0-1.36","2002","2","""event"",""trial"",""time""
""fullscreenenter"",""1"",""1780""
","
","
","""event"",""trial"",""time""
""fullscreenenter"",""1"",""1780""
","
","","","","","","2003.8999999761581","images/train4.png","","","memory_trial","4","definitely_new","","","","","","",""
"html-keyboard-response","116","295167","0.0-15.0-0.37","2002","2","""event"",""trial"",""time""
""fullscreenenter"",""1"",""1780""
","
","
","""event"",""trial"",""time""
""fullscreenenter"",""1"",""1780""
","
","","","","","","null","<div style=""font-size:60px;"">+</div>","null","","fixation","","","","","","","","",""
"memory-trial","117","297293","0.0-15.0-1.37","2002","2","""event"",""trial"",""time""
""fullscreenenter"",""1"",""1780""
","
","
","""event"",""trial"",""time""
""fullscreenenter"",""1"",""1780""
","
","","","","","","1121.7000000476837","images/cow2.png","","","memory_trial","1","definitely_old","","","","","","",""
"html-keyboard-response","118","297799","0.0-15.0-0.38","2002","2","""event"",""trial"",""time""
""fullscreenenter"",""1"",""1780""
","
","
","""event"",""trial"",""time""
""fullscreenenter"",""1"",""1780""
","
","","","","","","null","<div style=""font-size:60px;"">+</div>","null","","fixation","","","","","","","","",""
"memory-trial","119","299661","0.0-15.0-1.38","2002","2","""event"",""trial"",""time""
""fullscreenenter"",""1"",""1780""
","
","
","""event"",""trial"",""time""
""fullscreenenter"",""1"",""1780""
","
","","","","","","852.8000000715256","images/apple1.png","","","memory_trial","1","definitely_old","","","","","","",""
"html-keyboard-response","120","300166","0.0-15.0-0.39","2002","2","""event"",""trial"",""time""
""fullscreenenter"",""1"",""1780""
","
","
","""event"",""trial"",""time""
""fullscreenenter"",""1"",""1780""
","
","","","","","","null","<div style=""font-size:60px;"">+</div>","null","","fixation","","","","","","","","",""
"memory-trial","121","302336","0.0-15.0-1.39","2002","2","""event"",""trial"",""time""
""fullscreenenter"",""1"",""1780""
","
","
","""event"",""trial"",""time""
""fullscreenenter"",""1"",""1780""
","
","","","","","","1163.6000000238419","images/dog2.png","","","memory_trial","4","definitely_new","","","","","","",""
"html-keyboard-response","122","302842","0.0-15.0-0.40","2002","2","""event"",""trial"",""time""
""fullscreenenter"",""1"",""1780""
","
","
","""event"",""trial"",""time""
""fullscreenenter"",""1"",""1780""
","
","","","","","","null","<div style=""font-size:60px;"">+</div>","null","","fixation","","","","","","","","",""
"memory-trial","123","304649","0.0-15.0-1.40","2002","2","""event"",""trial"",""time""
""fullscreenenter"",""1"",""1780""
","
","
","""event"",""trial"",""time""
""fullscreenenter"",""1"",""1780""
","
","","","","","","799.7999999523163","images/apple5.png","","","memory_trial","4","definitely_new","","","","","","",""
"html-keyboard-response","124","305152","0.0-15.0-0.41","2002","2","""event"",""trial"",""time""
""fullscreenenter"",""1"",""1780""
","
","
","""event"",""trial"",""time""
""fullscreenenter"",""1"",""1780""
","
","","","","","","null","<div style=""font-size:60px;"">+</div>","null","","fixation","","","","","","","","",""
"memory-trial","125","307074","0.0-15.0-1.41","2002","2","""event"",""trial"",""time""
""fullscreenenter"",""1"",""1780""
","
","
","""event"",""trial"",""time""
""fullscreenenter"",""1"",""1780""
","
","","","","","","914.2000000476837","images/apple2.png","","","memory_trial","1","definitely_old","","","","","","",""
"html-keyboard-response","126","307578","0.0-15.0-0.42","2002","2","""event"",""trial"",""time""
""fullscreenenter"",""1"",""1780""
","
","
","""event"",""trial"",""time""
""fullscreenenter"",""1"",""1780""
","
","","","","","","null","<div style=""font-size:60px;"">+</div>","null","","fixation","","","","","","","","",""
"memory-trial","127","310255","0.0-15.0-1.42","2002","2","""event"",""trial"",""time""
""fullscreenenter"",""1"",""1780""
","
","
","""event"",""trial"",""time""
""fullscreenenter"",""1"",""1780""
","
","","","","","","1671.1000000238419","images/rabbit1.png","","","memory_trial","3","maybe_new","","","","","","",""
"html-keyboard-response","128","310760","0.0-15.0-0.43","2002","2","""event"",""trial"",""time""
""fullscreenenter"",""1"",""1780""
","
","
","""event"",""trial"",""time""
""fullscreenenter"",""1"",""1780""
","
","","","","","","null","<div style=""font-size:60px;"">+</div>","null","","fixation","","","","","","","","",""
"memory-trial","129","312455","0.0-15.0-1.43","2002","2","""event"",""trial"",""time""
""fullscreenenter"",""1"",""1780""
","
","
","""event"",""trial"",""time""
""fullscreenenter"",""1"",""1780""
","
","","","","","","688.8000000715256","images/dog5.png","","","memory_trial","1","definitely_old","","","","","","",""
"html-keyboard-response","130","312960","0.0-15.0-0.44","2002","2","""event"",""trial"",""time""
""fullscreenenter"",""1"",""1780""
","
","
","""event"",""trial"",""time""
""fullscreenenter"",""1"",""1780""
","
","","","","","","null","<div style=""font-size:60px;"">+</div>","null","","fixation","","","","","","","","",""
"memory-trial","131","315049","0.0-15.0-1.44","2002","2","""event"",""trial"",""time""
""fullscreenenter"",""1"",""1780""
","
","
","""event"",""trial"",""time""
""fullscreenenter"",""1"",""1780""
","
","","","","","","1081.1999999284744","images/banana5.png","","","memory_trial","1","definitely_old","","","","","","",""
"html-keyboard-response","132","315555","0.0-15.0-0.45","2002","2","""event"",""trial"",""time""
""fullscreenenter"",""1"",""1780""
","
","
","""event"",""trial"",""time""
""fullscreenenter"",""1"",""1780""
","
","","","","","","null","<div style=""font-size:60px;"">+</div>","null","","fixation","","","","","","","","",""
"memory-trial","133","317299","0.0-15.0-1.45","2002","2","""event"",""trial"",""time""
""fullscreenenter"",""1"",""1780""
","
","
","""event"",""trial"",""time""
""fullscreenenter"",""1"",""1780""
","
","","","","","","741.1000000238419","images/plane3.png","","","memory_trial","4","definitely_new","","","","","","",""
"html-keyboard-response","134","317801","0.0-15.0-0.46","2002","2","""event"",""trial"",""time""
""fullscreenenter"",""1"",""1780""
","
","
","""event"",""trial"",""time""
""fullscreenenter"",""1"",""1780""
","
","","","","","","null","<div style=""font-size:60px;"">+</div>","null","","fixation","","","","","","","","",""
"memory-trial","135","319682","0.0-15.0-1.46","2002","2","""event"",""trial"",""time""
""fullscreenenter"",""1"",""1780""
","
","
","""event"",""trial"",""time""
""fullscreenenter"",""1"",""1780""
","
","","","","","","875.6000000238419","images/rodent1.png","","","memory_trial","1","definitely_old","","","","","","",""
"html-button-response","136","333590","0.0-15.0-2.46-0.46","2002","2","""event"",""trial"",""time""
""fullscreenenter"",""1"",""1780""
","
","
","""event"",""trial"",""time""
""fullscreenenter"",""1"",""1780""
","
","","","","","","13906.100000023842","<p> Take a break! </p><p> Click the button to continue. </p>","0","","break","","","","","","","","",""
"html-keyboard-response","137","334093","0.0-15.0-0.47","2002","2","""event"",""trial"",""time""
""fullscreenenter"",""1"",""1780""
","
","
","""event"",""trial"",""time""
""fullscreenenter"",""1"",""1780""
","
","","","","","","null","<div style=""font-size:60px;"">+</div>","null","","fixation","","","","","","","","",""
"memory-trial","138","336760","0.0-15.0-1.47","2002","2","""event"",""trial"",""time""
""fullscreenenter"",""1"",""1780""
","
","
","""event"",""trial"",""time""
""fullscreenenter"",""1"",""1780""
","
","","","","","","1662.1000000238419","images/flower3.png","","","memory_trial","4","definitely_new","","","","","","",""
"html-keyboard-response","139","337266","0.0-15.0-0.48","2002","2","""event"",""trial"",""time""
""fullscreenenter"",""1"",""1780""
","
","
","""event"",""trial"",""time""
""fullscreenenter"",""1"",""1780""
","
","","","","","","null","<div style=""font-size:60px;"">+</div>","null","","fixation","","","","","","","","",""
"memory-trial","140","339365","0.0-15.0-1.48","2002","2","""event"",""trial"",""time""
""fullscreenenter"",""1"",""1780""
","
","
","""event"",""trial"",""time""
""fullscreenenter"",""1"",""1780""
","
","","","","","","1091.6000000238419","images/flower5.png","","","memory_trial","1","definitely_old","","","","","","",""
"html-keyboard-response","141","339870","0.0-15.0-0.49","2002","2","""event"",""trial"",""time""
""fullscreenenter"",""1"",""1780""
","
","
","""event"",""trial"",""time""
""fullscreenenter"",""1"",""1780""
","
","","","","","","null","<div style=""font-size:60px;"">+</div>","null","","fixation","","","","","","","","",""
"memory-trial","142","341532","0.0-15.0-1.49","2002","2","""event"",""trial"",""time""
""fullscreenenter"",""1"",""1780""
","
","
","""event"",""trial"",""time""
""fullscreenenter"",""1"",""1780""
","
","","","","","","655.6999999284744","images/plane4.png","","","memory_trial","4","definitely_new","","","","","","",""
"html-keyboard-response","143","342036","0.0-15.0-0.50","2002","2","""event"",""trial"",""time""
""fullscreenenter"",""1"",""1780""
","
","
","""event"",""trial"",""time""
""fullscreenenter"",""1"",""1780""
","
","","","","","","null","<div style=""font-size:60px;"">+</div>","null","","fixation","","","","","","","","",""
"memory-trial","144","343778","0.0-15.0-1.50","2002","2","""event"",""trial"",""time""
""fullscreenenter"",""1"",""1780""
","
","
","""event"",""trial"",""time""
""fullscreenenter"",""1"",""1780""
","
","","","","","","735.3000000715256","images/cactus4.png","","","memory_trial","4","definitely_new","","","","","","",""
"html-keyboard-response","145","344282","0.0-15.0-0.51","2002","2","""event"",""trial"",""time""
""fullscreenenter"",""1"",""1780""
","
","
","""event"",""trial"",""time""
""fullscreenenter"",""1"",""1780""
","
","","","","","","null","<div style=""font-size:60px;"">+</div>","null","","fixation","","","","","","","","",""
"memory-trial","146","346105","0.0-15.0-1.51","2002","2","""event"",""trial"",""time""
""fullscreenenter"",""1"",""1780""
","
","
","""event"",""trial"",""time""
""fullscreenenter"",""1"",""1780""
","
","","","","","","818.7000000476837","images/sofa2.png","","","memory_trial","4","definitely_new","","","","","","",""
"html-keyboard-response","147","346611","0.0-15.0-0.52","2002","2","""event"",""trial"",""time""
""fullscreenenter"",""1"",""1780""
","
","
","""event"",""trial"",""time""
""fullscreenenter"",""1"",""1780""
","
","","","","","","null","<div style=""font-size:60px;"">+</div>","null","","fixation","","","","","","","","",""
"memory-trial","148","349221","0.0-15.0-1.52","2002","2","""event"",""trial"",""time""
""fullscreenenter"",""1"",""1780""
","
","
","""event"",""trial"",""time""
""fullscreenenter"",""1"",""1780""
","
","","","","","","1604.1000000238419","images/train3.png","","","memory_trial","2","maybe_old","","","","","","",""
"html-keyboard-response","149","349726","0.0-15.0-0.53","2002","2","""event"",""trial"",""time""
""fullscreenenter"",""1"",""1780""
","
","
","""event"",""trial"",""time""
""fullscreenenter"",""1"",""1780""
","
","","","","","","null","<div style=""font-size:60px;"">+</div>","null","","fixation","","","","","","","","",""
"memory-trial","150","352050","0.0-15.0-1.53","2002","2","""event"",""trial"",""time""
""fullscreenenter"",""1"",""1780""
","
","
","""event"",""trial"",""time""
""fullscreenenter"",""1"",""1780""
","
","","","","","","1320.6000000238419","images/rabbit3.png","","","memory_trial","4","definitely_new","","","","","","",""
"html-keyboard-response","151","352555","0.0-15.0-0.54","2002","2","""event"",""trial"",""time""
""fullscreenenter"",""1"",""1780""
","
","
","""event"",""trial"",""time""
""fullscreenenter"",""1"",""1780""
","
","","","","","","null","<div style=""font-size:60px;"">+</div>","null","","fixation","","","","","","","","",""
"memory-trial","152","354602","0.0-15.0-1.54","2002","2","""event"",""trial"",""time""
""fullscreenenter"",""1"",""1780""
","
","
","""event"",""trial"",""time""
""fullscreenenter"",""1"",""1780""
","
","","","","","","1039.3999999761581","images/bed1.png","","","memory_trial","4","definitely_new","","","","","","",""
"html-keyboard-response","153","355107","0.0-15.0-0.55","2002","2","""event"",""trial"",""time""
""fullscreenenter"",""1"",""1780""
","
","
","""event"",""trial"",""time""
""fullscreenenter"",""1"",""1780""
","
","","","","","","null","<div style=""font-size:60px;"">+</div>","null","","fixation","","","","","","","","",""
"memory-trial","154","356879","0.0-15.0-1.55","2002","2","""event"",""trial"",""time""
""fullscreenenter"",""1"",""1780""
","
","
","""event"",""trial"",""time""
""fullscreenenter"",""1"",""1780""
","
","","","","","","767.3999999761581","images/rodent3.png","","","memory_trial","1","definitely_old","","","","","","",""
"html-keyboard-response","155","357384","0.0-15.0-0.56","2002","2","""event"",""trial"",""time""
""fullscreenenter"",""1"",""1780""
","
","
","""event"",""trial"",""time""
""fullscreenenter"",""1"",""1780""
","
","","","","","","null","<div style=""font-size:60px;"">+</div>","null","","fixation","","","","","","","","",""
"memory-trial","156","360176","0.0-15.0-1.56","2002","2","""event"",""trial"",""time""
""fullscreenenter"",""1"",""1780""
","
","
","""event"",""trial"",""time""
""fullscreenenter"",""1"",""1780""
","
","","","","","","1787","images/chair4.png","","","memory_trial","1","definitely_old","","","","","","",""
"html-keyboard-response","157","360683","0.0-15.0-0.57","2002","2","""event"",""trial"",""time""
""fullscreenenter"",""1"",""1780""
","
","
","""event"",""trial"",""time""
""fullscreenenter"",""1"",""1780""
","
","","","","","","null","<div style=""font-size:60px;"">+</div>","null","","fixation","","","","","","","","",""
"memory-trial","158","362870","0.0-15.0-1.57","2002","2","""event"",""trial"",""time""
""fullscreenenter"",""1"",""1780""
","
","
","""event"",""trial"",""time""
""fullscreenenter"",""1"",""1780""
","
","","","","","","1181.3000000715256","images/banana4.png","","","memory_trial","4","definitely_new","","","","","","",""
"html-keyboard-response","159","363375","0.0-15.0-0.58","2002","2","""event"",""trial"",""time""
""fullscreenenter"",""1"",""1780""
","
","
","""event"",""trial"",""time""
""fullscreenenter"",""1"",""1780""
","
","","","","","","null","<div style=""font-size:60px;"">+</div>","null","","fixation","","","","","","","","",""
"memory-trial","160","365023","0.0-15.0-1.58","2002","2","""event"",""trial"",""time""
""fullscreenenter"",""1"",""1780""
","
","
","""event"",""trial"",""time""
""fullscreenenter"",""1"",""1780""
","
","","","","","","643.8999999761581","images/plane2.png","","","memory_trial","4","definitely_new","","","","","","",""
"html-keyboard-response","161","365528","0.0-15.0-0.59","2002","2","""event"",""trial"",""time""
""fullscreenenter"",""1"",""1780""
","
","
","""event"",""trial"",""time""
""fullscreenenter"",""1"",""1780""
","
","","","","","","null","<div style=""font-size:60px;"">+</div>","null","","fixation","","","","","","","","",""
"memory-trial","162","367506","0.0-15.0-1.59","2002","2","""event"",""trial"",""time""
""fullscreenenter"",""1"",""1780""
","
","
","""event"",""trial"",""time""
""fullscreenenter"",""1"",""1780""
","
","","","","","","969.8999999761581","images/cactus1.png","","","memory_trial","4","definitely_new","","","","","","",""
"html-keyboard-response","163","368009","0.0-15.0-0.60","2002","2","""event"",""trial"",""time""
""fullscreenenter"",""1"",""1780""
","
","
","""event"",""trial"",""time""
""fullscreenenter"",""1"",""1780""
","
","","","","","","null","<div style=""font-size:60px;"">+</div>","null","","fixation","","","","","","","","",""
"memory-trial","164","369823","0.0-15.0-1.60","2002","2","""event"",""trial"",""time""
""fullscreenenter"",""1"",""1780""
","
","
","""event"",""trial"",""time""
""fullscreenenter"",""1"",""1780""
","
","","","","","","808.5999999046326","images/sofa3.png","","","memory_trial","4","definitely_new","","","","","","",""
"html-keyboard-response","165","370325","0.0-15.0-0.61","2002","2","""event"",""trial"",""time""
""fullscreenenter"",""1"",""1780""
","
","
","""event"",""trial"",""time""
""fullscreenenter"",""1"",""1780""
","
","","","","","","null","<div style=""font-size:60px;"">+</div>","null","","fixation","","","","","","","","",""
"memory-trial","166","372406","0.0-15.0-1.61","2002","2","""event"",""trial"",""time""
""fullscreenenter"",""1"",""1780""
","
","
","""event"",""trial"",""time""
""fullscreenenter"",""1"",""1780""
","
","","","","","","1074.2000000476837","images/truck5.png","","","memory_trial","1","definitely_old","","","","","","",""
"html-keyboard-response","167","372911","0.0-15.0-0.62","2002","2","""event"",""trial"",""time""
""fullscreenenter"",""1"",""1780""
","
","
","""event"",""trial"",""time""
""fullscreenenter"",""1"",""1780""
","
","","","","","","null","<div style=""font-size:60px;"">+</div>","null","","fixation","","","","","","","","",""
"memory-trial","168","374834","0.0-15.0-1.62","2002","2","""event"",""trial"",""time""
""fullscreenenter"",""1"",""1780""
","
","
","""event"",""trial"",""time""
""fullscreenenter"",""1"",""1780""
","
","","","","","","917.8999999761581","images/chair5.png","","","memory_trial","1","definitely_old","","","","","","",""
"html-keyboard-response","169","375336","0.0-15.0-0.63","2002","2","""event"",""trial"",""time""
""fullscreenenter"",""1"",""1780""
","
","
","""event"",""trial"",""time""
""fullscreenenter"",""1"",""1780""
","
","","","","","","null","<div style=""font-size:60px;"">+</div>","null","","fixation","","","","","","","","",""
"memory-trial","170","377034","0.0-15.0-1.63","2002","2","""event"",""trial"",""time""
""fullscreenenter"",""1"",""1780""
","
","
","""event"",""trial"",""time""
""fullscreenenter"",""1"",""1780""
","
","","","","","","692","images/truck3.png","","","memory_trial","4","definitely_new","","","","","","",""
"html-keyboard-response","171","377539","0.0-15.0-0.64","2002","2","""event"",""trial"",""time""
""fullscreenenter"",""1"",""1780""
","
","
","""event"",""trial"",""time""
""fullscreenenter"",""1"",""1780""
","
","","","","","","null","<div style=""font-size:60px;"">+</div>","null","","fixation","","","","","","","","",""
"memory-trial","172","379832","0.0-15.0-1.64","2002","2","""event"",""trial"",""time""
""fullscreenenter"",""1"",""1780""
","
","
","""event"",""trial"",""time""
""fullscreenenter"",""1"",""1780""
","
","","","","","","1287.1000000238419","images/dog3.png","","","memory_trial","2","maybe_old","","","","","","",""
"html-keyboard-response","173","380337","0.0-15.0-0.65","2002","2","""event"",""trial"",""time""
""fullscreenenter"",""1"",""1780""
","
","
","""event"",""trial"",""time""
""fullscreenenter"",""1"",""1780""
","
","","","","","","null","<div style=""font-size:60px;"">+</div>","null","","fixation","","","","","","","","",""
"memory-trial","174","382008","0.0-15.0-1.65","2002","2","""event"",""trial"",""time""
""fullscreenenter"",""1"",""1780""
","
","
","""event"",""trial"",""time""
""fullscreenenter"",""1"",""1780""
","
","","","","","","663.5","images/sofa1.png","","","memory_trial","4","definitely_new","","","","","","",""
"html-keyboard-response","175","382513","0.0-15.0-0.66","2002","2","""event"",""trial"",""time""
""fullscreenenter"",""1"",""1780""
","
","
","""event"",""trial"",""time""
""fullscreenenter"",""1"",""1780""
","
","","","","","","null","<div style=""font-size:60px;"">+</div>","null","","fixation","","","","","","","","",""
"memory-trial","176","384156","0.0-15.0-1.66","2002","2","""event"",""trial"",""time""
""fullscreenenter"",""1"",""1780""
","
","
","""event"",""trial"",""time""
""fullscreenenter"",""1"",""1780""
","
","","","","","","638.3000000715256","images/flower1.png","","","memory_trial","1","definitely_old","","","","","","",""
"html-keyboard-response","177","384661","0.0-15.0-0.67","2002","2","""event"",""trial"",""time""
""fullscreenenter"",""1"",""1780""
","
","
","""event"",""trial"",""time""
""fullscreenenter"",""1"",""1780""
","
","","","","","","null","<div style=""font-size:60px;"">+</div>","null","","fixation","","","","","","","","",""
"memory-trial","178","387260","0.0-15.0-1.67","2002","2","""event"",""trial"",""time""
""fullscreenenter"",""1"",""1780""
","
","
","""event"",""trial"",""time""
""fullscreenenter"",""1"",""1780""
","
","","","","","","1591.8000000715256","images/rodent4.png","","","memory_trial","2","maybe_old","","","","","","",""
"html-keyboard-response","179","387766","0.0-15.0-0.68","2002","2","""event"",""trial"",""time""
""fullscreenenter"",""1"",""1780""
","
","
","""event"",""trial"",""time""
""fullscreenenter"",""1"",""1780""
","
","","","","","","null","<div style=""font-size:60px;"">+</div>","null","","fixation","","","","","","","","",""
"memory-trial","180","389508","0.0-15.0-1.68","2002","2","""event"",""trial"",""time""
""fullscreenenter"",""1"",""1780""
","
","
","""event"",""trial"",""time""
""fullscreenenter"",""1"",""1780""
","
","","","","","","735.9000000953674","images/horse3.png","","","memory_trial","4","definitely_new","","","","","","",""
"html-keyboard-response","181","390013","0.0-15.0-0.69","2002","2","""event"",""trial"",""time""
""fullscreenenter"",""1"",""1780""
","
","
","""event"",""trial"",""time""
""fullscreenenter"",""1"",""1780""
","
","","","","","","null","<div style=""font-size:60px;"">+</div>","null","","fixation","","","","","","","","",""
"memory-trial","182","391674","0.0-15.0-1.69","2002","2","""event"",""trial"",""time""
""fullscreenenter"",""1"",""1780""
","
","
","""event"",""trial"",""time""
""fullscreenenter"",""1"",""1780""
","
","","","","","","652.5999999046326","images/horse1.png","","","memory_trial","4","definitely_new","","","","","","",""
"html-keyboard-response","183","392178","0.0-15.0-0.70","2002","2","""event"",""trial"",""time""
""fullscreenenter"",""1"",""1780""
","
","
","""event"",""trial"",""time""
""fullscreenenter"",""1"",""1780""
","
","","","","","","null","<div style=""font-size:60px;"">+</div>","null","","fixation","","","","","","","","",""
"memory-trial","184","394424","0.0-15.0-1.70","2002","2","""event"",""trial"",""time""
""fullscreenenter"",""1"",""1780""
","
","
","""event"",""trial"",""time""
""fullscreenenter"",""1"",""1780""
","
","","","","","","1238.2000000476837","images/truck1.png","","","memory_trial","2","maybe_old","","","","","","",""
"html-keyboard-response","185","394930","0.0-15.0-0.71","2002","2","""event"",""trial"",""time""
""fullscreenenter"",""1"",""1780""
","
","
","""event"",""trial"",""time""
""fullscreenenter"",""1"",""1780""
","
","","","","","","null","<div style=""font-size:60px;"">+</div>","null","","fixation","","","","","","","","",""
"memory-trial","186","396628","0.0-15.0-1.71","2002","2","""event"",""trial"",""time""
""fullscreenenter"",""1"",""1780""
","
","
","""event"",""trial"",""time""
""fullscreenenter"",""1"",""1780""
","
","","","","","","690.6999999284744","images/truck4.png","","","memory_trial","1","definitely_old","","","","","","",""
"html-keyboard-response","187","397134","0.0-15.0-0.72","2002","2","""event"",""trial"",""time""
""fullscreenenter"",""1"",""1780""
","
","
","""event"",""trial"",""time""
""fullscreenenter"",""1"",""1780""
","
","","","","","","null","<div style=""font-size:60px;"">+</div>","null","","fixation","","","","","","","","",""
"memory-trial","188","398789","0.0-15.0-1.72","2002","2","""event"",""trial"",""time""
""fullscreenenter"",""1"",""1780""
","
","
","""event"",""trial"",""time""
""fullscreenenter"",""1"",""1780""
","
","","","","","","647.1000000238419","images/tree2.png","","","memory_trial","1","definitely_old","","","","","","",""
"html-keyboard-response","189","399295","0.0-15.0-0.73","2002","2","""event"",""trial"",""time""
""fullscreenenter"",""1"",""1780""
","
","
","""event"",""trial"",""time""
""fullscreenenter"",""1"",""1780""
","
","","","","","","null","<div style=""font-size:60px;"">+</div>","null","","fixation","","","","","","","","",""
"memory-trial","190","401472","0.0-15.0-1.73","2002","2","""event"",""trial"",""time""
""fullscreenenter"",""1"",""1780""
","
","
","""event"",""trial"",""time""
""fullscreenenter"",""1"",""1780""
","
","","","","","","1171.3999999761581","images/banana3.png","","","memory_trial","1","definitely_old","","","","","","",""
"html-keyboard-response","191","401977","0.0-15.0-0.74","2002","2","""event"",""trial"",""time""
""fullscreenenter"",""1"",""1780""
","
","
","""event"",""trial"",""time""
""fullscreenenter"",""1"",""1780""
","
","","","","","","null","<div style=""font-size:60px;"">+</div>","null","","fixation","","","","","","","","",""
"memory-trial","192","403986","0.0-15.0-1.74","2002","2","""event"",""trial"",""time""
""fullscreenenter"",""1"",""1780""
","
","
","""event"",""trial"",""time""
""fullscreenenter"",""1"",""1780""
","
","","","","","","1003.5","images/chair1.png","","","memory_trial","4","definitely_new","","","","","","",""
"html-keyboard-response","193","404489","0.0-15.0-0.75","2002","2","""event"",""trial"",""time""
""fullscreenenter"",""1"",""1780""
","
","
","""event"",""trial"",""time""
""fullscreenenter"",""1"",""1780""
","
","","","","","","null","<div style=""font-size:60px;"">+</div>","null","","fixation","","","","","","","","",""
"memory-trial","194","406507","0.0-15.0-1.75","2002","2","""event"",""trial"",""time""
""fullscreenenter"",""1"",""1780""
","
","
","""event"",""trial"",""time""
""fullscreenenter"",""1"",""1780""
","
","","","","","","1012.3999999761581","images/cow4.png","","","memory_trial","2","maybe_old","","","","","","",""
"html-keyboard-response","195","407010","0.0-15.0-0.76","2002","2","""event"",""trial"",""time""
""fullscreenenter"",""1"",""1780""
","
","
","""event"",""trial"",""time""
""fullscreenenter"",""1"",""1780""
","
","","","","","","null","<div style=""font-size:60px;"">+</div>","null","","fixation","","","","","","","","",""
"memory-trial","196","409674","0.0-15.0-1.76","2002","2","""event"",""trial"",""time""
""fullscreenenter"",""1"",""1780""
","
","
","""event"",""trial"",""time""
""fullscreenenter"",""1"",""1780""
","
","","","","","","1657.1999999284744","images/straw2.png","","","memory_trial","2","maybe_old","","","","","","",""
"html-keyboard-response","197","410179","0.0-15.0-0.77","2002","2","""event"",""trial"",""time""
""fullscreenenter"",""1"",""1780""
","
","
","""event"",""trial"",""time""
""fullscreenenter"",""1"",""1780""
","
","","","","","","null","<div style=""font-size:60px;"">+</div>","null","","fixation","","","","","","","","",""
"memory-trial","198","412391","0.0-15.0-1.77","2002","2","""event"",""trial"",""time""
""fullscreenenter"",""1"",""1780""
","
","
","""event"",""trial"",""time""
""fullscreenenter"",""1"",""1780""
","
","","","","","","1204.7999999523163","images/orange4.png","","","memory_trial","4","definitely_new","","","","","","",""
"html-keyboard-response","199","412896","0.0-15.0-0.78","2002","2","""event"",""trial"",""time""
""fullscreenenter"",""1"",""1780""
","
","
","""event"",""trial"",""time""
""fullscreenenter"",""1"",""1780""
","
","","","","","","null","<div style=""font-size:60px;"">+</div>","null","","fixation","","","","","","","","",""
"memory-trial","200","414817","0.0-15.0-1.78","2002","2","""event"",""trial"",""time""
""fullscreenenter"",""1"",""1780""
","
","
","""event"",""trial"",""time""
""fullscreenenter"",""1"",""1780""
","
","","","","","","914.2000000476837","images/dog4.png","","","memory_trial","1","definitely_old","","","","","","",""
"html-keyboard-response","201","415322","0.0-15.0-0.79","2002","2","""event"",""trial"",""time""
""fullscreenenter"",""1"",""1780""
","
","
","""event"",""trial"",""time""
""fullscreenenter"",""1"",""1780""
","
","","","","","","null","<div style=""font-size:60px;"">+</div>","null","","fixation","","","","","","","","",""
"memory-trial","202","417017","0.0-15.0-1.79","2002","2","""event"",""trial"",""time""
""fullscreenenter"",""1"",""1780""
","
","
","""event"",""trial"",""time""
""fullscreenenter"",""1"",""1780""
","
","","","","","","690.6000000238419","images/sheep3.png","","","memory_trial","1","definitely_old","","","","","","",""
"html-keyboard-response","203","417522","0.0-15.0-0.80","2002","2","""event"",""trial"",""time""
""fullscreenenter"",""1"",""1780""
","
","
","""event"",""trial"",""time""
""fullscreenenter"",""1"",""1780""
","
","","","","","","null","<div style=""font-size:60px;"">+</div>","null","","fixation","","","","","","","","",""
"memory-trial","204","419787","0.0-15.0-1.80","2002","2","""event"",""trial"",""time""
""fullscreenenter"",""1"",""1780""
","
","
","""event"",""trial"",""time""
""fullscreenenter"",""1"",""1780""
","
","","","","","","1259.9000000953674","images/bush4.png","","","memory_trial","3","maybe_new","","","","","","",""
"html-keyboard-response","205","420291","0.0-15.0-0.81","2002","2","""event"",""trial"",""time""
""fullscreenenter"",""1"",""1780""
","
","
","""event"",""trial"",""time""
""fullscreenenter"",""1"",""1780""
","
","","","","","","null","<div style=""font-size:60px;"">+</div>","null","","fixation","","","","","","","","",""
"memory-trial","206","422336","0.0-15.0-1.81","2002","2","""event"",""trial"",""time""
""fullscreenenter"",""1"",""1780""
","
","
","""event"",""trial"",""time""
""fullscreenenter"",""1"",""1780""
","
","","","","","","1039.1000000238419","images/bush2.png","","","memory_trial","1","definitely_old","","","","","","",""
"html-keyboard-response","207","422839","0.0-15.0-0.82","2002","2","""event"",""trial"",""time""
""fullscreenenter"",""1"",""1780""
","
","
","""event"",""trial"",""time""
""fullscreenenter"",""1"",""1780""
","
","","","","","","null","<div style=""font-size:60px;"">+</div>","null","","fixation","","","","","","","","",""
"memory-trial","208","425376","0.0-15.0-1.82","2002","2","""event"",""trial"",""time""
""fullscreenenter"",""1"",""1780""
","
","
","""event"",""trial"",""time""
""fullscreenenter"",""1"",""1780""
","
","","","","","","1531.9000000953674","images/boat3.png","","","memory_trial","3","maybe_new","","","","","","",""
"html-keyboard-response","209","425883","0.0-15.0-0.83","2002","2","""event"",""trial"",""time""
""fullscreenenter"",""1"",""1780""
","
","
","""event"",""trial"",""time""
""fullscreenenter"",""1"",""1780""
","
","","","","","","null","<div style=""font-size:60px;"">+</div>","null","","fixation","","","","","","","","",""
"memory-trial","210","427431","0.0-15.0-1.83","2002","2","""event"",""trial"",""time""
""fullscreenenter"",""1"",""1780""
","
","
","""event"",""trial"",""time""
""fullscreenenter"",""1"",""1780""
","
","","","","","","541.0999999046326","images/sofa5.png","","","memory_trial","4","definitely_new","","","","","","",""
"html-keyboard-response","211","427936","0.0-15.0-0.84","2002","2","""event"",""trial"",""time""
""fullscreenenter"",""1"",""1780""
","
","
","""event"",""trial"",""time""
""fullscreenenter"",""1"",""1780""
","
","","","","","","null","<div style=""font-size:60px;"">+</div>","null","","fixation","","","","","","","","",""
"memory-trial","212","430297","0.0-15.0-1.84","2002","2","""event"",""trial"",""time""
""fullscreenenter"",""1"",""1780""
","
","
","""event"",""trial"",""time""
""fullscreenenter"",""1"",""1780""
","
","","","","","","1353.8999999761581","images/table1.png","","","memory_trial","1","definitely_old","","","","","","",""
"html-keyboard-response","213","430804","0.0-15.0-0.85","2002","2","""event"",""trial"",""time""
""fullscreenenter"",""1"",""1780""
","
","
","""event"",""trial"",""time""
""fullscreenenter"",""1"",""1780""
","
","","","","","","null","<div style=""font-size:60px;"">+</div>","null","","fixation","","","","","","","","",""
"memory-trial","214","433113","0.0-15.0-1.85","2002","2","""event"",""trial"",""time""
""fullscreenenter"",""1"",""1780""
","
","
","""event"",""trial"",""time""
""fullscreenenter"",""1"",""1780""
","
","","","","","","1301.1999999284744","images/rabbit5.png","","","memory_trial","4","definitely_new","","","","","","",""
"html-keyboard-response","215","433618","0.0-15.0-0.86","2002","2","""event"",""trial"",""time""
""fullscreenenter"",""1"",""1780""
","
","
","""event"",""trial"",""time""
""fullscreenenter"",""1"",""1780""
","
","","","","","","null","<div style=""font-size:60px;"">+</div>","null","","fixation","","","","","","","","",""
"memory-trial","216","435825","0.0-15.0-1.86","2002","2","""event"",""trial"",""time""
""fullscreenenter"",""1"",""1780""
","
","
","""event"",""trial"",""time""
""fullscreenenter"",""1"",""1780""
","
","","","","","","1201.6000000238419","images/train5.png","","","memory_trial","1","definitely_old","","","","","","",""
"html-keyboard-response","217","436330","0.0-15.0-0.87","2002","2","""event"",""trial"",""time""
""fullscreenenter"",""1"",""1780""
","
","
","""event"",""trial"",""time""
""fullscreenenter"",""1"",""1780""
","
","","","","","","null","<div style=""font-size:60px;"">+</div>","null","","fixation","","","","","","","","",""
"memory-trial","218","438700","0.0-15.0-1.87","2002","2","""event"",""trial"",""time""
""fullscreenenter"",""1"",""1780""
","
","
","""event"",""trial"",""time""
""fullscreenenter"",""1"",""1780""
","
","","","","","","1364.3999999761581","images/sheep4.png","","","memory_trial","1","definitely_old","","","","","","",""
"html-keyboard-response","219","439203","0.0-15.0-0.88","2002","2","""event"",""trial"",""time""
""fullscreenenter"",""1"",""1780""
","
","
","""event"",""trial"",""time""
""fullscreenenter"",""1"",""1780""
","
","","","","","","null","<div style=""font-size:60px;"">+</div>","null","","fixation","","","","","","","","",""
"memory-trial","220","440866","0.0-15.0-1.88","2002","2","""event"",""trial"",""time""
""fullscreenenter"",""1"",""1780""
","
","
","""event"",""trial"",""time""
""fullscreenenter"",""1"",""1780""
","
","","","","","","655.7999999523163","images/rodent5.png","","","memory_trial","1","definitely_old","","","","","","",""
"html-keyboard-response","221","441369","0.0-15.0-0.89","2002","2","""event"",""trial"",""time""
""fullscreenenter"",""1"",""1780""
","
","
","""event"",""trial"",""time""
""fullscreenenter"",""1"",""1780""
","
","","","","","","null","<div style=""font-size:60px;"">+</div>","null","","fixation","","","","","","","","",""
"memory-trial","222","443894","0.0-15.0-1.89","2002","2","""event"",""trial"",""time""
""fullscreenenter"",""1"",""1780""
","
","
","""event"",""trial"",""time""
""fullscreenenter"",""1"",""1780""
","
","","","","","","1521.5","images/bed3.png","","","memory_trial","3","maybe_new","","","","","","",""
"html-keyboard-response","223","444399","0.0-15.0-0.90","2002","2","""event"",""trial"",""time""
""fullscreenenter"",""1"",""1780""
","
","
","""event"",""trial"",""time""
""fullscreenenter"",""1"",""1780""
","
","","","","","","null","<div style=""font-size:60px;"">+</div>","null","","fixation","","","","","","","","",""
"memory-trial","224","446150","0.0-15.0-1.90","2002","2","""event"",""trial"",""time""
""fullscreenenter"",""1"",""1780""
","
","
","""event"",""trial"",""time""
""fullscreenenter"",""1"",""1780""
","
","","","","","","744","images/table5.png","","","memory_trial","4","definitely_new","","","","","","",""
"html-keyboard-response","225","446657","0.0-15.0-0.91","2002","2","""event"",""trial"",""time""
""fullscreenenter"",""1"",""1780""
","
","
","""event"",""trial"",""time""
""fullscreenenter"",""1"",""1780""
","
","","","","","","null","<div style=""font-size:60px;"">+</div>","null","","fixation","","","","","","","","",""
"memory-trial","226","448954","0.0-15.0-1.91","2002","2","""event"",""trial"",""time""
""fullscreenenter"",""1"",""1780""
","
","
","""event"",""trial"",""time""
""fullscreenenter"",""1"",""1780""
","
","","","","","","1290.0999999046326","images/bush1.png","","","memory_trial","4","definitely_new","","","","","","",""
"html-keyboard-response","227","449460","0.0-15.0-0.92","2002","2","""event"",""trial"",""time""
""fullscreenenter"",""1"",""1780""
","
","
","""event"",""trial"",""time""
""fullscreenenter"",""1"",""1780""
","
","","","","","","null","<div style=""font-size:60px;"">+</div>","null","","fixation","","","","","","","","",""
"memory-trial","228","451477","0.0-15.0-1.92","2002","2","""event"",""trial"",""time""
""fullscreenenter"",""1"",""1780""
","
","
","""event"",""trial"",""time""
""fullscreenenter"",""1"",""1780""
","
","","","","","","1013","images/dog1.png","","","memory_trial","1","definitely_old","","","","","","",""
"html-keyboard-response","229","451983","0.0-15.0-0.93","2002","2","""event"",""trial"",""time""
""fullscreenenter"",""1"",""1780""
","
","
","""event"",""trial"",""time""
""fullscreenenter"",""1"",""1780""
","
","","","","","","null","<div style=""font-size:60px;"">+</div>","null","","fixation","","","","","","","","",""
"memory-trial","230","454191","0.0-15.0-1.93","2002","2","""event"",""trial"",""time""
""fullscreenenter"",""1"",""1780""
","
","
","""event"",""trial"",""time""
""fullscreenenter"",""1"",""1780""
","
","","","","","","1202.3999999761581","images/sheep2.png","","","memory_trial","2","maybe_old","","","","","","",""
"html-keyboard-response","231","454696","0.0-15.0-0.94","2002","2","""event"",""trial"",""time""
""fullscreenenter"",""1"",""1780""
","
","
","""event"",""trial"",""time""
""fullscreenenter"",""1"",""1780""
","
","","","","","","null","<div style=""font-size:60px;"">+</div>","null","","fixation","","","","","","","","",""
"memory-trial","232","456386","0.0-15.0-1.94","2002","2","""event"",""trial"",""time""
""fullscreenenter"",""1"",""1780""
","
","
","""event"",""trial"",""time""
""fullscreenenter"",""1"",""1780""
","
","","","","","","683.6999999284744","images/sheep5.png","","","memory_trial","1","definitely_old","","","","","","",""
"html-keyboard-response","233","456891","0.0-15.0-0.95","2002","2","""event"",""trial"",""time""
""fullscreenenter"",""1"",""1780""
","
","
","""event"",""trial"",""time""
""fullscreenenter"",""1"",""1780""
","
","","","","","","null","<div style=""font-size:60px;"">+</div>","null","","fixation","","","","","","","","",""
"memory-trial","234","459011","0.0-15.0-1.95","2002","2","""event"",""trial"",""time""
""fullscreenenter"",""1"",""1780""
","
","
","""event"",""trial"",""time""
""fullscreenenter"",""1"",""1780""
","
","","","","","","1113.7999999523163","images/apple4.png","","","memory_trial","2","maybe_old","","","","","","",""
"html-keyboard-response","235","459516","0.0-15.0-0.96","2002","2","""event"",""trial"",""time""
""fullscreenenter"",""1"",""1780""
","
","
","""event"",""trial"",""time""
""fullscreenenter"",""1"",""1780""
","
","","","","","","null","<div style=""font-size:60px;"">+</div>","null","","fixation","","","","","","","","",""
"memory-trial","236","461260","0.0-15.0-1.96","2002","2","""event"",""trial"",""time""
""fullscreenenter"",""1"",""1780""
","
","
","""event"",""trial"",""time""
""fullscreenenter"",""1"",""1780""
","
","","","","","","737.1999999284744","images/orange2.png","","","memory_trial","2","maybe_old","","","","","","",""
"html-keyboard-response","237","461766","0.0-15.0-0.97","2002","2","""event"",""trial"",""time""
""fullscreenenter"",""1"",""1780""
","
","
","""event"",""trial"",""time""
""fullscreenenter"",""1"",""1780""
","
","","","","","","null","<div style=""font-size:60px;"">+</div>","null","","fixation","","","","","","","","",""
"memory-trial","238","464455","0.0-15.0-1.97","2002","2","""event"",""trial"",""time""
""fullscreenenter"",""1"",""1780""
","
","
","""event"",""trial"",""time""
""fullscreenenter"",""1"",""1780""
","
","","","","","","1681.5","images/cow5.png","","","memory_trial","2","maybe_old","","","","","","",""
"html-keyboard-response","239","464959","0.0-15.0-0.98","2002","2","""event"",""trial"",""time""
""fullscreenenter"",""1"",""1780""
","
","
","""event"",""trial"",""time""
""fullscreenenter"",""1"",""1780""
","
","","","","","","null","<div style=""font-size:60px;"">+</div>","null","","fixation","","","","","","","","",""
"memory-trial","240","467183","0.0-15.0-1.98","2002","2","""event"",""trial"",""time""
""fullscreenenter"",""1"",""1780""
","
","
","""event"",""trial"",""time""
""fullscreenenter"",""1"",""1780""
","
","","","","","","1216.2999999523163","images/banana2.png","","","memory_trial","4","definitely_new","","","","","","",""
"html-keyboard-response","241","467688","0.0-15.0-0.99","2002","2","""event"",""trial"",""time""
""fullscreenenter"",""1"",""1780""
","
","
","""event"",""trial"",""time""
""fullscreenenter"",""1"",""1780""
","
","","","","","","null","<div style=""font-size:60px;"">+</div>","null","","fixation","","","","","","","","",""
"memory-trial","242","469510","0.0-15.0-1.99","2002","2","""event"",""trial"",""time""
""fullscreenenter"",""1"",""1780""
","
","
","""event"",""trial"",""time""
""fullscreenenter"",""1"",""1780""
","
","","","","","","816.4000000953674","images/truck2.png","","","memory_trial","4","definitely_new","","","","","","",""
"html-keyboard-response","243","470016","0.0-15.0-0.100","2002","2","""event"",""trial"",""time""
""fullscreenenter"",""1"",""1780""
","
","
","""event"",""trial"",""time""
""fullscreenenter"",""1"",""1780""
","
","","","","","","null","<div style=""font-size:60px;"">+</div>","null","","fixation","","","","","","","","",""
"memory-trial","244","471647","0.0-15.0-1.100","2002","2","""event"",""trial"",""time""
""fullscreenenter"",""1"",""1780""
","
","
","""event"",""trial"",""time""
""fullscreenenter"",""1"",""1780""
","
","","","","","","624.1000000238419","images/cactus3.png","","","memory_trial","4","definitely_new","","","","","","",""
"html-keyboard-response","245","472152","0.0-15.0-0.101","2002","2","""event"",""trial"",""time""
""fullscreenenter"",""1"",""1780""
","
","
","""event"",""trial"",""time""
""fullscreenenter"",""1"",""1780""
","
","","","","","","null","<div style=""font-size:60px;"">+</div>","null","","fixation","","","","","","","","",""
"memory-trial","246","473911","0.0-15.0-1.101","2002","2","""event"",""trial"",""time""
""fullscreenenter"",""1"",""1780""
","
","
","""event"",""trial"",""time""
""fullscreenenter"",""1"",""1780""
","
","","","","","","752.5","images/boat1.png","","","memory_trial","1","definitely_old","","","","","","",""
"html-button-response","247","488157","0.0-15.0-2.101-0.101","2002","2","""event"",""trial"",""time""
""fullscreenenter"",""1"",""1780""
","
","
","""event"",""trial"",""time""
""fullscreenenter"",""1"",""1780""
","
","","","","","","14244.399999976158","<p> Take a break! </p><p> Click the button to continue. </p>","0","","break","","","","","","","","",""
"html-keyboard-response","248","488661","0.0-15.0-0.102","2002","2","""event"",""trial"",""time""
""fullscreenenter"",""1"",""1780""
","
","
","""event"",""trial"",""time""
""fullscreenenter"",""1"",""1780""
","
","","","","","","null","<div style=""font-size:60px;"">+</div>","null","","fixation","","","","","","","","",""
"memory-trial","249","491354","0.0-15.0-1.102","2002","2","""event"",""trial"",""time""
""fullscreenenter"",""1"",""1780""
","
","
","""event"",""trial"",""time""
""fullscreenenter"",""1"",""1780""
","
","","","","","","1685.7000000476837","images/feline5.png","","","memory_trial","1","definitely_old","","","","","","",""
"html-keyboard-response","250","491859","0.0-15.0-0.103","2002","2","""event"",""trial"",""time""
""fullscreenenter"",""1"",""1780""
","
","
","""event"",""trial"",""time""
""fullscreenenter"",""1"",""1780""
","
","","","","","","null","<div style=""font-size:60px;"">+</div>","null","","fixation","","","","","","","","",""
"memory-trial","251","494883","0.0-15.0-1.103","2002","2","""event"",""trial"",""time""
""fullscreenenter"",""1"",""1780""
","
","
","""event"",""trial"",""time""
""fullscreenenter"",""1"",""1780""
","
","","","","","","2018.1999999284744","images/feline3.png","","","memory_trial","2","maybe_old","","","","","","",""
"html-keyboard-response","252","495388","0.0-15.0-0.104","2002","2","""event"",""trial"",""time""
""fullscreenenter"",""1"",""1780""
","
","
","""event"",""trial"",""time""
""fullscreenenter"",""1"",""1780""
","
","","","","","","null","<div style=""font-size:60px;"">+</div>","null","","fixation","","","","","","","","",""
"memory-trial","253","497349","0.0-15.0-1.104","2002","2","""event"",""trial"",""time""
""fullscreenenter"",""1"",""1780""
","
","
","""event"",""trial"",""time""
""fullscreenenter"",""1"",""1780""
","
","","","","","","952.6000000238419","images/boat4.png","","","memory_trial","4","definitely_new","","","","","","",""
"html-keyboard-response","254","497856","0.0-15.0-0.105","2002","2","""event"",""trial"",""time""
""fullscreenenter"",""1"",""1780""
","
","
","""event"",""trial"",""time""
""fullscreenenter"",""1"",""1780""
","
","","","","","","null","<div style=""font-size:60px;"">+</div>","null","","fixation","","","","","","","","",""
"memory-trial","255","499568","0.0-15.0-1.105","2002","2","""event"",""trial"",""time""
""fullscreenenter"",""1"",""1780""
","
","
","""event"",""trial"",""time""
""fullscreenenter"",""1"",""1780""
","
","","","","","","707.8999999761581","images/table3.png","","","memory_trial","4","definitely_new","","","","","","",""
"html-keyboard-response","256","500073","0.0-15.0-0.106","2002","2","""event"",""trial"",""time""
""fullscreenenter"",""1"",""1780""
","
","
","""event"",""trial"",""time""
""fullscreenenter"",""1"",""1780""
","
","","","","","","null","<div style=""font-size:60px;"">+</div>","null","","fixation","","","","","","","","",""
"memory-trial","257","501977","0.0-15.0-1.106","2002","2","""event"",""trial"",""time""
""fullscreenenter"",""1"",""1780""
","
","
","""event"",""trial"",""time""
""fullscreenenter"",""1"",""1780""
","
","","","","","","900.6999999284744","images/goat5.png","","","memory_trial","1","definitely_old","","","","","","",""
"html-keyboard-response","258","502483","0.0-15.0-0.107","2002","2","""event"",""trial"",""time""
""fullscreenenter"",""1"",""1780""
","
","
","""event"",""trial"",""time""
""fullscreenenter"",""1"",""1780""
","
","","","","","","null","<div style=""font-size:60px;"">+</div>","null","","fixation","","","","","","","","",""
"memory-trial","259","504550","0.0-15.0-1.107","2002","2","""event"",""trial"",""time""
""fullscreenenter"",""1"",""1780""
","
","
","""event"",""trial"",""time""
""fullscreenenter"",""1"",""1780""
","
","","","","","","1061.6999999284744","images/table2.png","","","memory_trial","1","definitely_old","","","","","","",""
"html-keyboard-response","260","505053","0.0-15.0-0.108","2002","2","""event"",""trial"",""time""
""fullscreenenter"",""1"",""1780""
","
","
","""event"",""trial"",""time""
""fullscreenenter"",""1"",""1780""
","
","","","","","","null","<div style=""font-size:60px;"">+</div>","null","","fixation","","","","","","","","",""
"memory-trial","261","506995","0.0-15.0-1.108","2002","2","""event"",""trial"",""time""
""fullscreenenter"",""1"",""1780""
","
","
","""event"",""trial"",""time""
""fullscreenenter"",""1"",""1780""
","
","","","","","","936.5","images/straw3.png","","","memory_trial","4","definitely_new","","","","","","",""
"html-keyboard-response","262","507500","0.0-15.0-0.109","2002","2","""event"",""trial"",""time""
""fullscreenenter"",""1"",""1780""
","
","
","""event"",""trial"",""time""
""fullscreenenter"",""1"",""1780""
","
","","","","","","null","<div style=""font-size:60px;"">+</div>","null","","fixation","","","","","","","","",""
"memory-trial","263","509587","0.0-15.0-1.109","2002","2","""event"",""trial"",""time""
""fullscreenenter"",""1"",""1780""
","
","
","""event"",""trial"",""time""
""fullscreenenter"",""1"",""1780""
","
","","","","","","1081.3000000715256","images/cow1.png","","","memory_trial","1","definitely_old","","","","","","",""
"html-keyboard-response","264","510092","0.0-15.0-0.110","2002","2","""event"",""trial"",""time""
""fullscreenenter"",""1"",""1780""
","
","
","""event"",""trial"",""time""
""fullscreenenter"",""1"",""1780""
","
","","","","","","null","<div style=""font-size:60px;"">+</div>","null","","fixation","","","","","","","","",""
"memory-trial","265","511855","0.0-15.0-1.110","2002","2","""event"",""trial"",""time""
""fullscreenenter"",""1"",""1780""
","
","
","""event"",""trial"",""time""
""fullscreenenter"",""1"",""1780""
","
","","","","","","756.7999999523163","images/straw4.png","","","memory_trial","4","definitely_new","","","","","","",""
"html-keyboard-response","266","512360","0.0-15.0-0.111","2002","2","""event"",""trial"",""time""
""fullscreenenter"",""1"",""1780""
","
","
","""event"",""trial"",""time""
""fullscreenenter"",""1"",""1780""
","
","","","","","","null","<div style=""font-size:60px;"">+</div>","null","","fixation","","","","","","","","",""
"memory-trial","267","514438","0.0-15.0-1.111","2002","2","""event"",""trial"",""time""
""fullscreenenter"",""1"",""1780""
","
","
","""event"",""trial"",""time""
""fullscreenenter"",""1"",""1780""
","
","","","","","","1071.7000000476837","images/train2.png","","","memory_trial","1","definitely_old","","","","","","",""
"html-keyboard-response","268","514943","0.0-15.0-0.112","2002","2","""event"",""trial"",""time""
""fullscreenenter"",""1"",""1780""
","
","
","""event"",""trial"",""time""
""fullscreenenter"",""1"",""1780""
","
","","","","","","null","<div style=""font-size:60px;"">+</div>","null","","fixation","","","","","","","","",""
"memory-trial","269","517273","0.0-15.0-1.112","2002","2","""event"",""trial"",""time""
""fullscreenenter"",""1"",""1780""
","
","
","""event"",""trial"",""time""
""fullscreenenter"",""1"",""1780""
","
","","","","","","1324.8000000715256","images/rodent2.png","","","memory_trial","3","maybe_new","","","","","","",""
"html-keyboard-response","270","517778","0.0-15.0-0.113","2002","2","""event"",""trial"",""time""
""fullscreenenter"",""1"",""1780""
","
","
","""event"",""trial"",""time""
""fullscreenenter"",""1"",""1780""
","
","","","","","","null","<div style=""font-size:60px;"">+</div>","null","","fixation","","","","","","","","",""
"memory-trial","271","519821","0.0-15.0-1.113","2002","2","""event"",""trial"",""time""
""fullscreenenter"",""1"",""1780""
","
","
","""event"",""trial"",""time""
""fullscreenenter"",""1"",""1780""
","
","","","","","","1039.8999999761581","images/sofa4.png","","","memory_trial","4","definitely_new","","","","","","",""
"html-keyboard-response","272","520326","0.0-15.0-0.114","2002","2","""event"",""trial"",""time""
""fullscreenenter"",""1"",""1780""
","
","
","""event"",""trial"",""time""
""fullscreenenter"",""1"",""1780""
","
","","","","","","null","<div style=""font-size:60px;"">+</div>","null","","fixation","","","","","","","","",""
"memory-trial","273","522133","0.0-15.0-1.114","2002","2","""event"",""trial"",""time""
""fullscreenenter"",""1"",""1780""
","
","
","""event"",""trial"",""time""
""fullscreenenter"",""1"",""1780""
","
","","","","","","800.3999999761581","images/straw1.png","","","memory_trial","4","definitely_new","","","","","","",""
"html-keyboard-response","274","522636","0.0-15.0-0.115","2002","2","""event"",""trial"",""time""
""fullscreenenter"",""1"",""1780""
","
","
","""event"",""trial"",""time""
""fullscreenenter"",""1"",""1780""
","
","","","","","","null","<div style=""font-size:60px;"">+</div>","null","","fixation","","","","","","","","",""
"memory-trial","275","524291","0.0-15.0-1.115","2002","2","""event"",""trial"",""time""
""fullscreenenter"",""1"",""1780""
","
","
","""event"",""trial"",""time""
""fullscreenenter"",""1"",""1780""
","
","","","","","","650","images/rabbit4.png","","","memory_trial","4","definitely_new","","","","","","",""
"html-keyboard-response","276","524796","0.0-15.0-0.116","2002","2","""event"",""trial"",""time""
""fullscreenenter"",""1"",""1780""
","
","
","""event"",""trial"",""time""
""fullscreenenter"",""1"",""1780""
","
","","","","","","null","<div style=""font-size:60px;"">+</div>","null","","fixation","","","","","","","","",""
"memory-trial","277","527038","0.0-15.0-1.116","2002","2","""event"",""trial"",""time""
""fullscreenenter"",""1"",""1780""
","
","
","""event"",""trial"",""time""
""fullscreenenter"",""1"",""1780""
","
","","","","","","1234.6000000238419","images/tree4.png","","","memory_trial","1","definitely_old","","","","","","",""
"html-keyboard-response","278","527542","0.0-15.0-0.117","2002","2","""event"",""trial"",""time""
""fullscreenenter"",""1"",""1780""
","
","
","""event"",""trial"",""time""
""fullscreenenter"",""1"",""1780""
","
","","","","","","null","<div style=""font-size:60px;"">+</div>","null","","fixation","","","","","","","","",""
"memory-trial","279","529207","0.0-15.0-1.117","2002","2","""event"",""trial"",""time""
""fullscreenenter"",""1"",""1780""
","
","
","""event"",""trial"",""time""
""fullscreenenter"",""1"",""1780""
","
","","","","","","661.7999999523163","images/plane1.png","","","memory_trial","4","definitely_new","","","","","","",""
"html-keyboard-response","280","529712","0.0-15.0-0.118","2002","2","""event"",""trial"",""time""
""fullscreenenter"",""1"",""1780""
","
","
","""event"",""trial"",""time""
""fullscreenenter"",""1"",""1780""
","
","","","","","","null","<div style=""font-size:60px;"">+</div>","null","","fixation","","","","","","","","",""
"memory-trial","281","531396","0.0-15.0-1.118","2002","2","""event"",""trial"",""time""
""fullscreenenter"",""1"",""1780""
","
","
","""event"",""trial"",""time""
""fullscreenenter"",""1"",""1780""
","
","","","","","","677","images/sheep1.png","","","memory_trial","1","definitely_old","","","","","","",""
"html-keyboard-response","282","531901","0.0-15.0-0.119","2002","2","""event"",""trial"",""time""
""fullscreenenter"",""1"",""1780""
","
","
","""event"",""trial"",""time""
""fullscreenenter"",""1"",""1780""
","
","","","","","","null","<div style=""font-size:60px;"">+</div>","null","","fixation","","","","","","","","",""
"memory-trial","283","533513","0.0-15.0-1.119","2002","2","""event"",""trial"",""time""
""fullscreenenter"",""1"",""1780""
","
","
","""event"",""trial"",""time""
""fullscreenenter"",""1"",""1780""
","
","","","","","","605.5","images/feline4.png","","","memory_trial","1","definitely_old","","","","","","",""
"preload","284","540849","0.0-16.0","2002","2","""event"",""trial"",""time""
""fullscreenenter"",""1"",""1780""
","
","
","""event"",""trial"",""time""
""fullscreenenter"",""1"",""1780""
","
","true","false","[]","[]","[]","","","","","","","","","","","","","",""
"learning-instructions","285","547740","0.0-17.0-0.0-0.0-0.0","2002","2","""event"",""trial"",""time""
""fullscreenenter"",""1"",""1780""
","
","
","""event"",""trial"",""time""
""fullscreenenter"",""1"",""1780""
","
","","","","","","2440.3000000715256","<p> We're now going to ask you to return your farm animals to barns again. </p>","","0","instructions","","","","","","","","",""
"learning-instructions","286","554140","0.0-17.0-0.0-0.0-0.1","2002","2","""event"",""trial"",""time""
""fullscreenenter"",""1"",""1780""
","
","
","""event"",""trial"",""time""
""fullscreenenter"",""1"",""1780""
","
","","","","","","957.1000000238419","<p> On each trial, you will see a farm animal. Select the barn where you think the animal belongs. </p>","","0","instructions","","","","","","","","",""
"learning-instructions","287","562690","0.0-17.0-0.0-0.0-0.2","2002","2","""event"",""trial"",""time""
""fullscreenenter"",""1"",""1780""
","
","
","""event"",""trial"",""time""
""fullscreenenter"",""1"",""1780""
","
","","","","","","1490.5","<p> To make your selection, think about what you learned last week. You will NOT receive any feedback about your choice. </p>","","0","instructions","","","","","","","","",""
"learning-instructions","288","571908","0.0-17.0-0.0-0.0-0.3","2002","2","""event"",""trial"",""time""
""fullscreenenter"",""1"",""1780""
","
","
","""event"",""trial"",""time""
""fullscreenenter"",""1"",""1780""
","
","","","","","","1123.4000000953674","<p> You should use the 1 key to select the barn on the left, the 2 key to select the barn in the middle, and the 3 key to select the barn on the right. </p><br><div class=""choice-mem-instructions-grid""> <div class=""choice-mem-option""><img src=""images/animals_choice1.png"" class=""choice-mem-option-img"" stage=""instructions"" position=""0"" ><div class=""choice-mem-option-text""> Press ""1."" </div></div><div class=""choice-mem-option""><img src=""images/animals_choice2.png"" class=""choice-mem-option-img"" stage=""instructions"" position=""1"" ><div class=""choice-mem-option-text""> Press ""2."" </div></div><div class=""choice-mem-option""><img src=""images/animals_choice3.png"" class=""choice-mem-option-img"" stage=""instructions"" position=""2"" ><div class=""choice-mem-option-text""> Press ""3."" </div></div></div>","","0","instructions","","","","","","","","",""
"learning-instructions","289","579924","0.0-17.0-0.0-0.0-0.4","2002","2","""event"",""trial"",""time""
""fullscreenenter"",""1"",""1780""
","
","
","""event"",""trial"",""time""
""fullscreenenter"",""1"",""1780""
","
","","","","","","1744.6000000238419","<p> You will have 10 seconds to make each selection. Try to respond before time runs out! </p>","","0","instructions","","","","","","","","",""
"learning-instructions","290","586022","0.0-17.0-0.0-1.0","2002","2","""event"",""trial"",""time""
""fullscreenenter"",""1"",""1780""
","
","
","""event"",""trial"",""time""
""fullscreenenter"",""1"",""1780""
","
","","","","","","4041.1999999284744","<p> You are now ready to begin the game. </p>","","0","instructions","","","","","","","","",""
"html-keyboard-response","291","586627","0.0-17.0-0.0-2.0-0.0","2002","2","""event"",""trial"",""time""
""fullscreenenter"",""1"",""1780""
","
","
","""event"",""trial"",""time""
""fullscreenenter"",""1"",""1780""
","
","","","","","","null","<div style=""font-size:60px;"">+</div>","null","","fixation","","","","","","","","",""
"choice-memory-trial","292","589774","0.0-17.0-0.0-2.0-1.0","2002","2","""event"",""trial"",""time""
""fullscreenenter"",""1"",""1780""
","
","
","""event"",""trial"",""time""
