"trial_type","trial_index","time_elapsed","internal_node_id","subject_id","task_version","interactions","blur_events","focus_events","fullscreenenter_events","fullscreenexit_events","success","timeout","failed_images","failed_audio","failed_video","rt","stimulus","response","button_pressed","task_part","key_press","answer","correct","left_choice","middle_choice","right_choice","choice_positions","option_selected","block"
"pavlovia","0","19","0.0-0.0","1701","2","""event"",""trial"",""time""
""fullscreenenter"",""1"",""5220""
","
","
","""event"",""trial"",""time""
""fullscreenenter"",""1"",""5220""
","
","","","","","","","","","","","","","","","","","","",""
"fullscreen","1","5915","0.0-1.0","1701","2","""event"",""trial"",""time""
""fullscreenenter"",""1"",""5220""
","
","
","""event"",""trial"",""time""
""fullscreenenter"",""1"",""5220""
","
","true","","","","","","","","","","","","","","","","","",""
"preload","2","6692","0.0-2.0","1701","2","""event"",""trial"",""time""
""fullscreenenter"",""1"",""5220""
","
","
","""event"",""trial"",""time""
""fullscreenenter"",""1"",""5220""
","
","true","false","[]","[]","[]","","","","","","","","","","","","","",""
"audio-keyboard-response","3","9145","0.0-3.0","1701","2","""event"",""trial"",""time""
""fullscreenenter"",""1"",""5220""
","
","
","""event"",""trial"",""time""
""fullscreenenter"",""1"",""5220""
","
","","","","","","2447.9999999999995","audio/beep_loop.wav"," ","","","","","","","","","","",""
"audio-button-response","4","11840","0.0-4.0","1701","2","""event"",""trial"",""time""
""fullscreenenter"",""1"",""5220""
","
","
","""event"",""trial"",""time""
""fullscreenenter"",""1"",""5220""
","
","","","","","","2691","audio/turtle.wav","3","","","","","","","","","","",""
"audio-button-response","5","14636","0.0-5.0","1701","2","""event"",""trial"",""time""
""fullscreenenter"",""1"",""5220""
","
","
","""event"",""trial"",""time""
""fullscreenenter"",""1"",""5220""
","
","","","","","","1789","audio/shark.wav","2","","","","","","","","","","",""
"preload","6","55312","0.0-6.0","1701","2","""event"",""trial"",""time""
""fullscreenenter"",""1"",""5220""
","
","
","""event"",""trial"",""time""
""fullscreenenter"",""1"",""5220""
","
","true","false","[]","[]","[]","","","","","","","","","","","","","",""
"learning-instructions","7","61860","0.0-7.0-0.0","1701","2","""event"",""trial"",""time""
""fullscreenenter"",""1"",""5220""
","
","
","""event"",""trial"",""time""
""fullscreenenter"",""1"",""5220""
","
","","","","","","1732","<p> Welcome back! </p><p> Last week, you had to make choices about lots of different items.  </p>","","0","instructions","","","","","","","","",""
"learning-instructions","8","66701","0.0-7.0-0.1","1701","2","""event"",""trial"",""time""
""fullscreenenter"",""1"",""5220""
","
","
","""event"",""trial"",""time""
""fullscreenenter"",""1"",""5220""
","
","","","","","","522","<p> Today, we are going to ask you to try to remember all the items. </p>","","0","instructions","","","","","","","","",""
"learning-instructions","9","77168","0.0-7.0-0.2","1701","2","""event"",""trial"",""time""
""fullscreenenter"",""1"",""5220""
""fullscreenexit"",""10"",""86862""
""blur"",""10"",""89111""
""focus"",""10"",""90355""
","""event"",""trial"",""time""
""blur"",""10"",""89111""
","""event"",""trial"",""time""
""focus"",""10"",""90355""
","""event"",""trial"",""time""
""fullscreenenter"",""1"",""5220""
","""event"",""trial"",""time""
""fullscreenexit"",""10"",""86862""
","","","","","","319","<p> On every trial, you will see an image. </p><p> The image may be an OLD image you saw during the games last week or it may be a NEW image that was not presented. </p>","","0","instructions","","","","","","","","",""
"learning-instructions","10","91701","0.0-7.0-0.3","1701","2","""event"",""trial"",""time""
""fullscreenenter"",""1"",""5220""
""fullscreenexit"",""10"",""86862""
""blur"",""10"",""89111""
""focus"",""10"",""90355""
","""event"",""trial"",""time""
""blur"",""10"",""89111""
","""event"",""trial"",""time""
""focus"",""10"",""90355""
","""event"",""trial"",""time""
""fullscreenenter"",""1"",""5220""
","""event"",""trial"",""time""
""fullscreenexit"",""10"",""86862""
","","","","","","6020","<p> You need to select whether the image is:  </p><p>  'Definitely old', 'Maybe old', 'Maybe new', or 'Definitely new.'  </p><div class=""mem-choice-instructions-grid""><div class=""choice-option"" id=""choice-option-1"" ><img src=""images/definitely_old_1.png"" id=""choice-option-img-1"" class=""choice-option-img"" stage=""1""></div><div class=""choice-option"" id=""choice-option-2"" ><img src=""images/maybe_old_1.png"" id=""choice-option-img-2"" class=""choice-option-img"" stage=""1""></div><div class=""choice-option"" id=""choice-option-3"" ><img src=""images/maybe_new_1.png"" id=""choice-option-img-3"" class=""choice-option-img"" stage=""1""></div><div class=""choice-option"" id=""choice-option-4"" > <img src=""images/definitely_new_1.png"" id=""choice-option-img-4"" class=""choice-option-img"" stage=""1""></div></div>","","0","instructions","","","","","","","","",""
"learning-instructions","11","99112","0.0-7.0-0.4","1701","2","""event"",""trial"",""time""
""fullscreenenter"",""1"",""5220""
""fullscreenexit"",""10"",""86862""
""blur"",""10"",""89111""
""focus"",""10"",""90355""
","""event"",""trial"",""time""
""blur"",""10"",""89111""
","""event"",""trial"",""time""
""focus"",""10"",""90355""
","""event"",""trial"",""time""
""fullscreenenter"",""1"",""5220""
","""event"",""trial"",""time""
""fullscreenexit"",""10"",""86862""
","","","","","","712","<p> You should use the 1, 2, 3, and 4 keys to make your responses.  </p><div class=""mem-choice-instructions-grid""><div class=""choice-option"" id=""choice-option-1"" ><img src=""images/definitely_old.png"" id=""choice-option-img-1"" class=""choice-option-img"" stage=""1""></div><div class=""choice-option"" id=""choice-option-2"" ><img src=""images/maybe_old.png"" id=""choice-option-img-2"" class=""choice-option-img"" stage=""1""></div><div class=""choice-option"" id=""choice-option-3"" ><img src=""images/maybe_new.png"" id=""choice-option-img-3"" class=""choice-option-img"" stage=""1""></div><div class=""choice-option"" id=""choice-option-4"" > <img src=""images/definitely_new.png"" id=""choice-option-img-4"" class=""choice-option-img"" stage=""1""></div></div>","","0","instructions","","","","","","","","",""
"learning-instructions","12","106206","0.0-7.0-0.5","1701","2","""event"",""trial"",""time""
""fullscreenenter"",""1"",""5220""
""fullscreenexit"",""10"",""86862""
""blur"",""10"",""89111""
""focus"",""10"",""90355""
","""event"",""trial"",""time""
""blur"",""10"",""89111""
","""event"",""trial"",""time""
""focus"",""10"",""90355""
","""event"",""trial"",""time""
""fullscreenenter"",""1"",""5220""
","""event"",""trial"",""time""
""fullscreenexit"",""10"",""86862""
","","","","","","328","<p> You will have 10 seconds to make each response.  </p><p>  Make sure to respond before time runs out! </p>","","0","instructions","","","","","","","","",""
"learning-instructions","13","114154","0.0-7.0-0.6","1701","2","""event"",""trial"",""time""
""fullscreenenter"",""1"",""5220""
""fullscreenexit"",""10"",""86862""
""blur"",""10"",""89111""
""focus"",""10"",""90355""
","""event"",""trial"",""time""
""blur"",""10"",""89111""
","""event"",""trial"",""time""
""focus"",""10"",""90355""
","""event"",""trial"",""time""
""fullscreenenter"",""1"",""5220""
","""event"",""trial"",""time""
""fullscreenexit"",""10"",""86862""
","","","","","","354","<p> Today, you will see each image ONCE only.  </p><p>  That means none of the images will repeat. </p>","","0","instructions","","","","","","","","",""
"learning-instructions","14","127184","0.0-7.0-0.7","1701","2","""event"",""trial"",""time""
""fullscreenenter"",""1"",""5220""
""fullscreenexit"",""10"",""86862""
""blur"",""10"",""89111""
""focus"",""10"",""90355""
","""event"",""trial"",""time""
""blur"",""10"",""89111""
","""event"",""trial"",""time""
""focus"",""10"",""90355""
","""event"",""trial"",""time""
""fullscreenenter"",""1"",""5220""
","""event"",""trial"",""time""
""fullscreenexit"",""10"",""86862""
","","","","","","345","<p> Before you play the real game, it is time to practice. </p><p>  Just like in the real game, some of the images in the practice will be ones you have seen before. </p><p>  Others will be entirely new. </p>","","0","instructions","","","","","","","","",""
"html-button-response","15","129178","0.0-8.0","1701","2","""event"",""trial"",""time""
""fullscreenenter"",""1"",""5220""
""fullscreenexit"",""10"",""86862""
""blur"",""10"",""89111""
""focus"",""10"",""90355""
","""event"",""trial"",""time""
""blur"",""10"",""89111""
","""event"",""trial"",""time""
""focus"",""10"",""90355""
","""event"",""trial"",""time""
""fullscreenenter"",""1"",""5220""
","""event"",""trial"",""time""
""fullscreenexit"",""10"",""86862""
","","","","","","1889","<p> Ready to practice? </p><p> Remember, use the 1, 2, 3, and 4 keys to make your responses. </p>","0","","instructions","","","","","","","","",""
"html-keyboard-response","16","129793","0.0-9.0-0.0","1701","2","""event"",""trial"",""time""
""fullscreenenter"",""1"",""5220""
""fullscreenexit"",""10"",""86862""
""blur"",""10"",""89111""
""focus"",""10"",""90355""
","""event"",""trial"",""time""
""blur"",""10"",""89111""
","""event"",""trial"",""time""
""focus"",""10"",""90355""
","""event"",""trial"",""time""
""fullscreenenter"",""1"",""5220""
","""event"",""trial"",""time""
""fullscreenexit"",""10"",""86862""
","","","","","","null","<div style=""font-size:60px;"">+</div>","null","","fixation","","","","","","","","",""
"memory-trial","17","132958","0.0-9.0-1.0","1701","2","""event"",""trial"",""time""
""fullscreenenter"",""1"",""5220""
""fullscreenexit"",""10"",""86862""
""blur"",""10"",""89111""
""focus"",""10"",""90355""
","""event"",""trial"",""time""
""blur"",""10"",""89111""
","""event"",""trial"",""time""
""focus"",""10"",""90355""
","""event"",""trial"",""time""
""fullscreenenter"",""1"",""5220""
","""event"",""trial"",""time""
""fullscreenexit"",""10"",""86862""
","","","","","","2162","images/racket1.png","","","practice","3","maybe_new","","","","","","",""
"html-keyboard-response","18","133471","0.0-9.0-0.1","1701","2","""event"",""trial"",""time""
""fullscreenenter"",""1"",""5220""
""fullscreenexit"",""10"",""86862""
""blur"",""10"",""89111""
""focus"",""10"",""90355""
","""event"",""trial"",""time""
""blur"",""10"",""89111""
","""event"",""trial"",""time""
""focus"",""10"",""90355""
","""event"",""trial"",""time""
""fullscreenenter"",""1"",""5220""
","""event"",""trial"",""time""
""fullscreenexit"",""10"",""86862""
","","","","","","null","<div style=""font-size:60px;"">+</div>","null","","fixation","","","","","","","","",""
"memory-trial","19","136151","0.0-9.0-1.1","1701","2","""event"",""trial"",""time""
""fullscreenenter"",""1"",""5220""
""fullscreenexit"",""10"",""86862""
""blur"",""10"",""89111""
""focus"",""10"",""90355""
","""event"",""trial"",""time""
""blur"",""10"",""89111""
","""event"",""trial"",""time""
""focus"",""10"",""90355""
","""event"",""trial"",""time""
""fullscreenenter"",""1"",""5220""
","""event"",""trial"",""time""
""fullscreenexit"",""10"",""86862""
","","","","","","1662","images/racket2.png","","","practice","1","definitely_old","","","","","","",""
"html-keyboard-response","20","136665","0.0-9.0-0.2","1701","2","""event"",""trial"",""time""
""fullscreenenter"",""1"",""5220""
""fullscreenexit"",""10"",""86862""
""blur"",""10"",""89111""
""focus"",""10"",""90355""
","""event"",""trial"",""time""
""blur"",""10"",""89111""
","""event"",""trial"",""time""
""focus"",""10"",""90355""
","""event"",""trial"",""time""
""fullscreenenter"",""1"",""5220""
","""event"",""trial"",""time""
""fullscreenexit"",""10"",""86862""
","","","","","","null","<div style=""font-size:60px;"">+</div>","null","","fixation","","","","","","","","",""
"memory-trial","21","138756","0.0-9.0-1.2","1701","2","""event"",""trial"",""time""
""fullscreenenter"",""1"",""5220""
""fullscreenexit"",""10"",""86862""
""blur"",""10"",""89111""
""focus"",""10"",""90355""
","""event"",""trial"",""time""
""blur"",""10"",""89111""
","""event"",""trial"",""time""
""focus"",""10"",""90355""
","""event"",""trial"",""time""
""fullscreenenter"",""1"",""5220""
","""event"",""trial"",""time""
""fullscreenexit"",""10"",""86862""
","","","","","","1074","images/ball3.png","","","practice","4","definitely_new","","","","","","",""
"html-keyboard-response","22","139268","0.0-9.0-0.3","1701","2","""event"",""trial"",""time""
""fullscreenenter"",""1"",""5220""
""fullscreenexit"",""10"",""86862""
""blur"",""10"",""89111""
""focus"",""10"",""90355""
","""event"",""trial"",""time""
""blur"",""10"",""89111""
","""event"",""trial"",""time""
""focus"",""10"",""90355""
","""event"",""trial"",""time""
""fullscreenenter"",""1"",""5220""
","""event"",""trial"",""time""
""fullscreenexit"",""10"",""86862""
","","","","","","null","<div style=""font-size:60px;"">+</div>","null","","fixation","","","","","","","","",""
"memory-trial","23","143668","0.0-9.0-1.3","1701","2","""event"",""trial"",""time""
""fullscreenenter"",""1"",""5220""
""fullscreenexit"",""10"",""86862""
""blur"",""10"",""89111""
""focus"",""10"",""90355""
","""event"",""trial"",""time""
""blur"",""10"",""89111""
","""event"",""trial"",""time""
""focus"",""10"",""90355""
","""event"",""trial"",""time""
""fullscreenenter"",""1"",""5220""
","""event"",""trial"",""time""
""fullscreenexit"",""10"",""86862""
","","","","","","3385","images/ball1.png","","","practice","1","definitely_old","","","","","","",""
"html-keyboard-response","24","144182","0.0-9.0-0.4","1701","2","""event"",""trial"",""time""
""fullscreenenter"",""1"",""5220""
""fullscreenexit"",""10"",""86862""
""blur"",""10"",""89111""
""focus"",""10"",""90355""
","""event"",""trial"",""time""
""blur"",""10"",""89111""
","""event"",""trial"",""time""
""focus"",""10"",""90355""
","""event"",""trial"",""time""
""fullscreenenter"",""1"",""5220""
","""event"",""trial"",""time""
""fullscreenexit"",""10"",""86862""
","","","","","","null","<div style=""font-size:60px;"">+</div>","null","","fixation","","","","","","","","",""
"memory-trial","25","146329","0.0-9.0-1.4","1701","2","""event"",""trial"",""time""
""fullscreenenter"",""1"",""5220""
""fullscreenexit"",""10"",""86862""
""blur"",""10"",""89111""
""focus"",""10"",""90355""
","""event"",""trial"",""time""
""blur"",""10"",""89111""
","""event"",""trial"",""time""
""focus"",""10"",""90355""
","""event"",""trial"",""time""
""fullscreenenter"",""1"",""5220""
","""event"",""trial"",""time""
""fullscreenexit"",""10"",""86862""
","","","","","","1135","images/ball2.png","","","practice","1","definitely_old","","","","","","",""
"html-keyboard-response","26","146844","0.0-9.0-0.5","1701","2","""event"",""trial"",""time""
""fullscreenenter"",""1"",""5220""
""fullscreenexit"",""10"",""86862""
""blur"",""10"",""89111""
""focus"",""10"",""90355""
","""event"",""trial"",""time""
""blur"",""10"",""89111""
","""event"",""trial"",""time""
""focus"",""10"",""90355""
","""event"",""trial"",""time""
""fullscreenenter"",""1"",""5220""
","""event"",""trial"",""time""
""fullscreenexit"",""10"",""86862""
","","","","","","null","<div style=""font-size:60px;"">+</div>","null","","fixation","","","","","","","","",""
"memory-trial","27","148995","0.0-9.0-1.5","1701","2","""event"",""trial"",""time""
""fullscreenenter"",""1"",""5220""
""fullscreenexit"",""10"",""86862""
""blur"",""10"",""89111""
""focus"",""10"",""90355""
","""event"",""trial"",""time""
""blur"",""10"",""89111""
","""event"",""trial"",""time""
""focus"",""10"",""90355""
","""event"",""trial"",""time""
""fullscreenenter"",""1"",""5220""
","""event"",""trial"",""time""
""fullscreenexit"",""10"",""86862""
","","","","","","1143","images/racket4.png","","","practice","1","definitely_old","","","","","","",""
"html-keyboard-response","28","149510","0.0-9.0-0.6","1701","2","""event"",""trial"",""time""
""fullscreenenter"",""1"",""5220""
""fullscreenexit"",""10"",""86862""
""blur"",""10"",""89111""
""focus"",""10"",""90355""
","""event"",""trial"",""time""
""blur"",""10"",""89111""
","""event"",""trial"",""time""
""focus"",""10"",""90355""
","""event"",""trial"",""time""
""fullscreenenter"",""1"",""5220""
","""event"",""trial"",""time""
""fullscreenexit"",""10"",""86862""
","","","","","","null","<div style=""font-size:60px;"">+</div>","null","","fixation","","","","","","","","",""
"memory-trial","29","151678","0.0-9.0-1.6","1701","2","""event"",""trial"",""time""
""fullscreenenter"",""1"",""5220""
""fullscreenexit"",""10"",""86862""
""blur"",""10"",""89111""
""focus"",""10"",""90355""
","""event"",""trial"",""time""
""blur"",""10"",""89111""
","""event"",""trial"",""time""
""focus"",""10"",""90355""
","""event"",""trial"",""time""
""fullscreenenter"",""1"",""5220""
","""event"",""trial"",""time""
""fullscreenexit"",""10"",""86862""
","","","","","","1157","images/ball4.png","","","practice","2","maybe_old","","","","","","",""
"html-keyboard-response","30","152192","0.0-9.0-0.7","1701","2","""event"",""trial"",""time""
""fullscreenenter"",""1"",""5220""
""fullscreenexit"",""10"",""86862""
""blur"",""10"",""89111""
""focus"",""10"",""90355""
","""event"",""trial"",""time""
""blur"",""10"",""89111""
","""event"",""trial"",""time""
""focus"",""10"",""90355""
","""event"",""trial"",""time""
""fullscreenenter"",""1"",""5220""
","""event"",""trial"",""time""
""fullscreenexit"",""10"",""86862""
","","","","","","null","<div style=""font-size:60px;"">+</div>","null","","fixation","","","","","","","","",""
"memory-trial","31","154034","0.0-9.0-1.7","1701","2","""event"",""trial"",""time""
""fullscreenenter"",""1"",""5220""
""fullscreenexit"",""10"",""86862""
""blur"",""10"",""89111""
""focus"",""10"",""90355""
","""event"",""trial"",""time""
""blur"",""10"",""89111""
","""event"",""trial"",""time""
""focus"",""10"",""90355""
","""event"",""trial"",""time""
""fullscreenenter"",""1"",""5220""
","""event"",""trial"",""time""
""fullscreenexit"",""10"",""86862""
","","","","","","838","images/racket3.png","","","practice","1","definitely_old","","","","","","",""
"learning-instructions","32","162398","0.0-10.0-0.0","1701","2","""event"",""trial"",""time""
""fullscreenenter"",""1"",""5220""
""fullscreenexit"",""10"",""86862""
""blur"",""10"",""89111""
""focus"",""10"",""90355""
","""event"",""trial"",""time""
""blur"",""10"",""89111""
","""event"",""trial"",""time""
""focus"",""10"",""90355""
","""event"",""trial"",""time""
""fullscreenenter"",""1"",""5220""
","""event"",""trial"",""time""
""fullscreenexit"",""10"",""86862""
","","","","","","409","<p> Great! You have completed the practice. </p><p> Before you start, we're going to ask you a few questions about how the game works.  </p>","","0","instructions","","","","","","","","",""
"preload","33","184524","0.0-11.0","1701","2","""event"",""trial"",""time""
""fullscreenenter"",""1"",""5220""
""fullscreenexit"",""10"",""86862""
""blur"",""10"",""89111""
""focus"",""10"",""90355""
","""event"",""trial"",""time""
""blur"",""10"",""89111""
","""event"",""trial"",""time""
""focus"",""10"",""90355""
","""event"",""trial"",""time""
""fullscreenenter"",""1"",""5220""
","""event"",""trial"",""time""
""fullscreenexit"",""10"",""86862""
","true","false","[]","[]","[]","","","","","","","","","","","","","",""
"comp-q","34","191292","0.0-12.0-0.0","1701","2","""event"",""trial"",""time""
""fullscreenenter"",""1"",""5220""
""fullscreenexit"",""10"",""86862""
""blur"",""10"",""89111""
""focus"",""10"",""90355""
","""event"",""trial"",""time""
""blur"",""10"",""89111""
","""event"",""trial"",""time""
""focus"",""10"",""90355""
","""event"",""trial"",""time""
""fullscreenenter"",""1"",""5220""
","""event"",""trial"",""time""
""fullscreenexit"",""10"",""86862""
","","","","","","934","<p> <b> True or False? </b> </p><p> In this game, you will only see each image once. </p>","","0","comp_question","","","true","","","","","",""
"comp-q","35","199174","0.0-12.0-1.0","1701","2","""event"",""trial"",""time""
""fullscreenenter"",""1"",""5220""
""fullscreenexit"",""10"",""86862""
""blur"",""10"",""89111""
""focus"",""10"",""90355""
","""event"",""trial"",""time""
""blur"",""10"",""89111""
","""event"",""trial"",""time""
""focus"",""10"",""90355""
","""event"",""trial"",""time""
""fullscreenenter"",""1"",""5220""
","""event"",""trial"",""time""
""fullscreenexit"",""10"",""86862""
","","","","","","1535","<p> <b> That's right! </b> You will see many different images <i> one time each </i> in this game. </p>","","0","comp_answer","","","","","","","","",""
"comp-q","36","205577","0.0-12.0-0.1","1701","2","""event"",""trial"",""time""
""fullscreenenter"",""1"",""5220""
""fullscreenexit"",""10"",""86862""
""blur"",""10"",""89111""
""focus"",""10"",""90355""
","""event"",""trial"",""time""
""blur"",""10"",""89111""
","""event"",""trial"",""time""
""focus"",""10"",""90355""
","""event"",""trial"",""time""
""fullscreenenter"",""1"",""5220""
","""event"",""trial"",""time""
""fullscreenexit"",""10"",""86862""
","","","","","","577","<p> <b> True or False? </b> </p><p> You should use the mouse and click to make your response. </p>","","1","comp_question","","","true","","","","","",""
"comp-q","37","215083","0.0-12.0-1.1","1701","2","""event"",""trial"",""time""
""fullscreenenter"",""1"",""5220""
""fullscreenexit"",""10"",""86862""
""blur"",""10"",""89111""
""focus"",""10"",""90355""
","""event"",""trial"",""time""
""blur"",""10"",""89111""
","""event"",""trial"",""time""
""focus"",""10"",""90355""
","""event"",""trial"",""time""
""fullscreenenter"",""1"",""5220""
","""event"",""trial"",""time""
""fullscreenexit"",""10"",""86862""
","","","","","","2144","<p><b> That's right! </b> You should use the '1', '2', '3', and '4' keys to make your response. </p>","","0","comp_answer","","","","","","","","",""
"comp-q","38","221608","0.0-12.0-0.2","1701","2","""event"",""trial"",""time""
""fullscreenenter"",""1"",""5220""
""fullscreenexit"",""10"",""86862""
""blur"",""10"",""89111""
""focus"",""10"",""90355""
","""event"",""trial"",""time""
""blur"",""10"",""89111""
","""event"",""trial"",""time""
""focus"",""10"",""90355""
","""event"",""trial"",""time""
""fullscreenenter"",""1"",""5220""
","""event"",""trial"",""time""
""fullscreenexit"",""10"",""86862""
","","","","","","526","<p> <b> True or False? </b> </p><p> You will have as much time as you want to make each choice. </p>","","1","comp_question","","","true","","","","","",""
"comp-q","39","227931","0.0-12.0-1.2","1701","2","""event"",""trial"",""time""
""fullscreenenter"",""1"",""5220""
""fullscreenexit"",""10"",""86862""
""blur"",""10"",""89111""
""focus"",""10"",""90355""
","""event"",""trial"",""time""
""blur"",""10"",""89111""
","""event"",""trial"",""time""
""focus"",""10"",""90355""
","""event"",""trial"",""time""
""fullscreenenter"",""1"",""5220""
","""event"",""trial"",""time""
""fullscreenexit"",""10"",""86862""
","","","","","","922","<p> <b> That's right! </b> You will only have 10 seconds to make each choice. </p>","","0","comp_answer","","","","","","","","",""
"learning-instructions","40","237041","0.0-13.0","1701","2","""event"",""trial"",""time""
""fullscreenenter"",""1"",""5220""
""fullscreenexit"",""10"",""86862""
""blur"",""10"",""89111""
""focus"",""10"",""90355""
","""event"",""trial"",""time""
""blur"",""10"",""89111""
","""event"",""trial"",""time""
""focus"",""10"",""90355""
","""event"",""trial"",""time""
""fullscreenenter"",""1"",""5220""
","""event"",""trial"",""time""
""fullscreenexit"",""10"",""86862""
","","","","","","422","<p> Great! You are now ready to begin the game. </p><p> Remember, use the 1, 2, 3, and 4 keys to make your responses. </p>","","0","instructions","","","","","","","","",""
"preload","41","335843","0.0-14.0","1701","2","""event"",""trial"",""time""
""fullscreenenter"",""1"",""5220""
""fullscreenexit"",""10"",""86862""
""blur"",""10"",""89111""
""focus"",""10"",""90355""
","""event"",""trial"",""time""
""blur"",""10"",""89111""
","""event"",""trial"",""time""
""focus"",""10"",""90355""
","""event"",""trial"",""time""
""fullscreenenter"",""1"",""5220""
","""event"",""trial"",""time""
""fullscreenexit"",""10"",""86862""
","true","false","[]","[]","[]","","","","","","","","","","","","","",""
"html-keyboard-response","42","336354","0.0-15.0-0.0","1701","2","""event"",""trial"",""time""
""fullscreenenter"",""1"",""5220""
""fullscreenexit"",""10"",""86862""
""blur"",""10"",""89111""
""focus"",""10"",""90355""
","""event"",""trial"",""time""
""blur"",""10"",""89111""
","""event"",""trial"",""time""
""focus"",""10"",""90355""
","""event"",""trial"",""time""
""fullscreenenter"",""1"",""5220""
","""event"",""trial"",""time""
""fullscreenexit"",""10"",""86862""
","","","","","","null","<div style=""font-size:60px;"">+</div>","null","","fixation","","","","","","","","",""
"memory-trial","43","338992","0.0-15.0-1.0","1701","2","""event"",""trial"",""time""
""fullscreenenter"",""1"",""5220""
""fullscreenexit"",""10"",""86862""
""blur"",""10"",""89111""
""focus"",""10"",""90355""
","""event"",""trial"",""time""
""blur"",""10"",""89111""
","""event"",""trial"",""time""
""focus"",""10"",""90355""
","""event"",""trial"",""time""
""fullscreenenter"",""1"",""5220""
","""event"",""trial"",""time""
""fullscreenexit"",""10"",""86862""
","","","","","","1621","images/apple2.png","","","memory_trial","1","definitely_old","","","","","","",""
"html-keyboard-response","44","339505","0.0-15.0-0.1","1701","2","""event"",""trial"",""time""
""fullscreenenter"",""1"",""5220""
""fullscreenexit"",""10"",""86862""
""blur"",""10"",""89111""
""focus"",""10"",""90355""
","""event"",""trial"",""time""
""blur"",""10"",""89111""
","""event"",""trial"",""time""
""focus"",""10"",""90355""
","""event"",""trial"",""time""
""fullscreenenter"",""1"",""5220""
","""event"",""trial"",""time""
""fullscreenexit"",""10"",""86862""
","","","","","","null","<div style=""font-size:60px;"">+</div>","null","","fixation","","","","","","","","",""
"memory-trial","45","341784","0.0-15.0-1.1","1701","2","""event"",""trial"",""time""
""fullscreenenter"",""1"",""5220""
""fullscreenexit"",""10"",""86862""
""blur"",""10"",""89111""
""focus"",""10"",""90355""
","""event"",""trial"",""time""
""blur"",""10"",""89111""
","""event"",""trial"",""time""
""focus"",""10"",""90355""
","""event"",""trial"",""time""
""fullscreenenter"",""1"",""5220""
","""event"",""trial"",""time""
""fullscreenexit"",""10"",""86862""
","","","","","","1263","images/rabbit4.png","","","memory_trial","2","maybe_old","","","","","","",""
"html-keyboard-response","46","342299","0.0-15.0-0.2","1701","2","""event"",""trial"",""time""
""fullscreenenter"",""1"",""5220""
""fullscreenexit"",""10"",""86862""
""blur"",""10"",""89111""
""focus"",""10"",""90355""
","""event"",""trial"",""time""
""blur"",""10"",""89111""
","""event"",""trial"",""time""
""focus"",""10"",""90355""
","""event"",""trial"",""time""
""fullscreenenter"",""1"",""5220""
","""event"",""trial"",""time""
""fullscreenexit"",""10"",""86862""
","","","","","","null","<div style=""font-size:60px;"">+</div>","null","","fixation","","","","","","","","",""
"memory-trial","47","344453","0.0-15.0-1.2","1701","2","""event"",""trial"",""time""
""fullscreenenter"",""1"",""5220""
""fullscreenexit"",""10"",""86862""
""blur"",""10"",""89111""
""focus"",""10"",""90355""
","""event"",""trial"",""time""
""blur"",""10"",""89111""
","""event"",""trial"",""time""
""focus"",""10"",""90355""
","""event"",""trial"",""time""
""fullscreenenter"",""1"",""5220""
","""event"",""trial"",""time""
""fullscreenexit"",""10"",""86862""
","","","","","","1142","images/bush1.png","","","memory_trial","4","definitely_new","","","","","","",""
"html-keyboard-response","48","344967","0.0-15.0-0.3","1701","2","""event"",""trial"",""time""
""fullscreenenter"",""1"",""5220""
""fullscreenexit"",""10"",""86862""
""blur"",""10"",""89111""
""focus"",""10"",""90355""
","""event"",""trial"",""time""
""blur"",""10"",""89111""
","""event"",""trial"",""time""
""focus"",""10"",""90355""
","""event"",""trial"",""time""
""fullscreenenter"",""1"",""5220""
","""event"",""trial"",""time""
""fullscreenexit"",""10"",""86862""
","","","","","","null","<div style=""font-size:60px;"">+</div>","null","","fixation","","","","","","","","",""
"memory-trial","49","347730","0.0-15.0-1.3","1701","2","""event"",""trial"",""time""
""fullscreenenter"",""1"",""5220""
""fullscreenexit"",""10"",""86862""
""blur"",""10"",""89111""
""focus"",""10"",""90355""
","""event"",""trial"",""time""
""blur"",""10"",""89111""
","""event"",""trial"",""time""
""focus"",""10"",""90355""
","""event"",""trial"",""time""
""fullscreenenter"",""1"",""5220""
","""event"",""trial"",""time""
""fullscreenexit"",""10"",""86862""
","","","","","","1753","images/tree3.png","","","memory_trial","3","maybe_new","","","","","","",""
"html-keyboard-response","50","348243","0.0-15.0-0.4","1701","2","""event"",""trial"",""time""
""fullscreenenter"",""1"",""5220""
""fullscreenexit"",""10"",""86862""
""blur"",""10"",""89111""
""focus"",""10"",""90355""
","""event"",""trial"",""time""
""blur"",""10"",""89111""
","""event"",""trial"",""time""
""focus"",""10"",""90355""
","""event"",""trial"",""time""
""fullscreenenter"",""1"",""5220""
","""event"",""trial"",""time""
""fullscreenexit"",""10"",""86862""
","","","","","","null","<div style=""font-size:60px;"">+</div>","null","","fixation","","","","","","","","",""
"memory-trial","51","350568","0.0-15.0-1.4","1701","2","""event"",""trial"",""time""
""fullscreenenter"",""1"",""5220""
""fullscreenexit"",""10"",""86862""
""blur"",""10"",""89111""
""focus"",""10"",""90355""
","""event"",""trial"",""time""
""blur"",""10"",""89111""
","""event"",""trial"",""time""
""focus"",""10"",""90355""
","""event"",""trial"",""time""
""fullscreenenter"",""1"",""5220""
","""event"",""trial"",""time""
""fullscreenexit"",""10"",""86862""
","","","","","","1318","images/dog5.png","","","memory_trial","4","definitely_new","","","","","","",""
"html-keyboard-response","52","351081","0.0-15.0-0.5","1701","2","""event"",""trial"",""time""
""fullscreenenter"",""1"",""5220""
""fullscreenexit"",""10"",""86862""
""blur"",""10"",""89111""
""focus"",""10"",""90355""
","""event"",""trial"",""time""
""blur"",""10"",""89111""
","""event"",""trial"",""time""
""focus"",""10"",""90355""
","""event"",""trial"",""time""
""fullscreenenter"",""1"",""5220""
","""event"",""trial"",""time""
""fullscreenexit"",""10"",""86862""
","","","","","","null","<div style=""font-size:60px;"">+</div>","null","","fixation","","","","","","","","",""
"memory-trial","53","352910","0.0-15.0-1.5","1701","2","""event"",""trial"",""time""
""fullscreenenter"",""1"",""5220""
""fullscreenexit"",""10"",""86862""
""blur"",""10"",""89111""
""focus"",""10"",""90355""
","""event"",""trial"",""time""
""blur"",""10"",""89111""
","""event"",""trial"",""time""
""focus"",""10"",""90355""
","""event"",""trial"",""time""
""fullscreenenter"",""1"",""5220""
","""event"",""trial"",""time""
""fullscreenexit"",""10"",""86862""
","","","","","","811","images/orange3.png","","","memory_trial","4","definitely_new","","","","","","",""
"html-keyboard-response","54","353424","0.0-15.0-0.6","1701","2","""event"",""trial"",""time""
""fullscreenenter"",""1"",""5220""
""fullscreenexit"",""10"",""86862""
""blur"",""10"",""89111""
""focus"",""10"",""90355""
","""event"",""trial"",""time""
""blur"",""10"",""89111""
","""event"",""trial"",""time""
""focus"",""10"",""90355""
","""event"",""trial"",""time""
""fullscreenenter"",""1"",""5220""
","""event"",""trial"",""time""
""fullscreenexit"",""10"",""86862""
","","","","","","null","<div style=""font-size:60px;"">+</div>","null","","fixation","","","","","","","","",""
"memory-trial","55","355498","0.0-15.0-1.6","1701","2","""event"",""trial"",""time""
""fullscreenenter"",""1"",""5220""
""fullscreenexit"",""10"",""86862""
""blur"",""10"",""89111""
""focus"",""10"",""90355""
","""event"",""trial"",""time""
""blur"",""10"",""89111""
","""event"",""trial"",""time""
""focus"",""10"",""90355""
","""event"",""trial"",""time""
""fullscreenenter"",""1"",""5220""
","""event"",""trial"",""time""
""fullscreenexit"",""10"",""86862""
","","","","","","1065","images/plane2.png","","","memory_trial","4","definitely_new","","","","","","",""
"html-keyboard-response","56","356009","0.0-15.0-0.7","1701","2","""event"",""trial"",""time""
""fullscreenenter"",""1"",""5220""
""fullscreenexit"",""10"",""86862""
""blur"",""10"",""89111""
""focus"",""10"",""90355""
","""event"",""trial"",""time""
""blur"",""10"",""89111""
","""event"",""trial"",""time""
""focus"",""10"",""90355""
","""event"",""trial"",""time""
""fullscreenenter"",""1"",""5220""
","""event"",""trial"",""time""
""fullscreenexit"",""10"",""86862""
","","","","","","null","<div style=""font-size:60px;"">+</div>","null","","fixation","","","","","","","","",""
"memory-trial","57","359432","0.0-15.0-1.7","1701","2","""event"",""trial"",""time""
""fullscreenenter"",""1"",""5220""
""fullscreenexit"",""10"",""86862""
""blur"",""10"",""89111""
""focus"",""10"",""90355""
","""event"",""trial"",""time""
""blur"",""10"",""89111""
","""event"",""trial"",""time""
""focus"",""10"",""90355""
","""event"",""trial"",""time""
""fullscreenenter"",""1"",""5220""
","""event"",""trial"",""time""
""fullscreenexit"",""10"",""86862""
","","","","","","2414","images/horse5.png","","","memory_trial","2","maybe_old","","","","","","",""
"html-keyboard-response","58","359944","0.0-15.0-0.8","1701","2","""event"",""trial"",""time""
""fullscreenenter"",""1"",""5220""
""fullscreenexit"",""10"",""86862""
""blur"",""10"",""89111""
""focus"",""10"",""90355""
","""event"",""trial"",""time""
""blur"",""10"",""89111""
","""event"",""trial"",""time""
""focus"",""10"",""90355""
","""event"",""trial"",""time""
""fullscreenenter"",""1"",""5220""
","""event"",""trial"",""time""
""fullscreenexit"",""10"",""86862""
","","","","","","null","<div style=""font-size:60px;"">+</div>","null","","fixation","","","","","","","","",""
"memory-trial","59","361970","0.0-15.0-1.8","1701","2","""event"",""trial"",""time""
""fullscreenenter"",""1"",""5220""
""fullscreenexit"",""10"",""86862""
""blur"",""10"",""89111""
""focus"",""10"",""90355""
","""event"",""trial"",""time""
""blur"",""10"",""89111""
","""event"",""trial"",""time""
""focus"",""10"",""90355""
","""event"",""trial"",""time""
""fullscreenenter"",""1"",""5220""
","""event"",""trial"",""time""
""fullscreenexit"",""10"",""86862""
","","","","","","1015","images/horse3.png","","","memory_trial","2","maybe_old","","","","","","",""
"html-keyboard-response","60","362485","0.0-15.0-0.9","1701","2","""event"",""trial"",""time""
""fullscreenenter"",""1"",""5220""
""fullscreenexit"",""10"",""86862""
""blur"",""10"",""89111""
""focus"",""10"",""90355""
","""event"",""trial"",""time""
""blur"",""10"",""89111""
","""event"",""trial"",""time""
""focus"",""10"",""90355""
","""event"",""trial"",""time""
""fullscreenenter"",""1"",""5220""
","""event"",""trial"",""time""
""fullscreenexit"",""10"",""86862""
","","","","","","null","<div style=""font-size:60px;"">+</div>","null","","fixation","","","","","","","","",""
"memory-trial","61","364477","0.0-15.0-1.9","1701","2","""event"",""trial"",""time""
""fullscreenenter"",""1"",""5220""
""fullscreenexit"",""10"",""86862""
""blur"",""10"",""89111""
""focus"",""10"",""90355""
","""event"",""trial"",""time""
""blur"",""10"",""89111""
","""event"",""trial"",""time""
""focus"",""10"",""90355""
","""event"",""trial"",""time""
""fullscreenenter"",""1"",""5220""
","""event"",""trial"",""time""
""fullscreenexit"",""10"",""86862""
","","","","","","988","images/feline2.png","","","memory_trial","1","definitely_old","","","","","","",""
"html-keyboard-response","62","364981","0.0-15.0-0.10","1701","2","""event"",""trial"",""time""
""fullscreenenter"",""1"",""5220""
""fullscreenexit"",""10"",""86862""
""blur"",""10"",""89111""
""focus"",""10"",""90355""
","""event"",""trial"",""time""
""blur"",""10"",""89111""
","""event"",""trial"",""time""
""focus"",""10"",""90355""
","""event"",""trial"",""time""
""fullscreenenter"",""1"",""5220""
","""event"",""trial"",""time""
""fullscreenexit"",""10"",""86862""
","","","","","","null","<div style=""font-size:60px;"">+</div>","null","","fixation","","","","","","","","",""
"memory-trial","63","366711","0.0-15.0-1.10","1701","2","""event"",""trial"",""time""
""fullscreenenter"",""1"",""5220""
""fullscreenexit"",""10"",""86862""
""blur"",""10"",""89111""
""focus"",""10"",""90355""
","""event"",""trial"",""time""
""blur"",""10"",""89111""
","""event"",""trial"",""time""
""focus"",""10"",""90355""
","""event"",""trial"",""time""
""fullscreenenter"",""1"",""5220""
","""event"",""trial"",""time""
""fullscreenexit"",""10"",""86862""
","","","","","","719","images/table4.png","","","memory_trial","1","definitely_old","","","","","","",""
"html-keyboard-response","64","367225","0.0-15.0-0.11","1701","2","""event"",""trial"",""time""
""fullscreenenter"",""1"",""5220""
""fullscreenexit"",""10"",""86862""
""blur"",""10"",""89111""
""focus"",""10"",""90355""
","""event"",""trial"",""time""
""blur"",""10"",""89111""
","""event"",""trial"",""time""
""focus"",""10"",""90355""
","""event"",""trial"",""time""
""fullscreenenter"",""1"",""5220""
","""event"",""trial"",""time""
""fullscreenexit"",""10"",""86862""
","","","","","","null","<div style=""font-size:60px;"">+</div>","null","","fixation","","","","","","","","",""
"memory-trial","65","370419","0.0-15.0-1.11","1701","2","""event"",""trial"",""time""
""fullscreenenter"",""1"",""5220""
""fullscreenexit"",""10"",""86862""
""blur"",""10"",""89111""
""focus"",""10"",""90355""
","""event"",""trial"",""time""
""blur"",""10"",""89111""
","""event"",""trial"",""time""
""focus"",""10"",""90355""
","""event"",""trial"",""time""
""fullscreenenter"",""1"",""5220""
","""event"",""trial"",""time""
""fullscreenexit"",""10"",""86862""
","","","","","","2191","images/boat3.png","","","memory_trial","2","maybe_old","","","","","","",""
"html-keyboard-response","66","370936","0.0-15.0-0.12","1701","2","""event"",""trial"",""time""
""fullscreenenter"",""1"",""5220""
""fullscreenexit"",""10"",""86862""
""blur"",""10"",""89111""
""focus"",""10"",""90355""
","""event"",""trial"",""time""
""blur"",""10"",""89111""
","""event"",""trial"",""time""
""focus"",""10"",""90355""
","""event"",""trial"",""time""
""fullscreenenter"",""1"",""5220""
","""event"",""trial"",""time""
""fullscreenexit"",""10"",""86862""
","","","","","","null","<div style=""font-size:60px;"">+</div>","null","","fixation","","","","","","","","",""
"memory-trial","67","373008","0.0-15.0-1.12","1701","2","""event"",""trial"",""time""
""fullscreenenter"",""1"",""5220""
""fullscreenexit"",""10"",""86862""
""blur"",""10"",""89111""
""focus"",""10"",""90355""
","""event"",""trial"",""time""
""blur"",""10"",""89111""
","""event"",""trial"",""time""
""focus"",""10"",""90355""
","""event"",""trial"",""time""
""fullscreenenter"",""1"",""5220""
","""event"",""trial"",""time""
""fullscreenexit"",""10"",""86862""
","","","","","","1060","images/chair1.png","","","memory_trial","2","maybe_old","","","","","","",""
"html-keyboard-response","68","373524","0.0-15.0-0.13","1701","2","""event"",""trial"",""time""
""fullscreenenter"",""1"",""5220""
""fullscreenexit"",""10"",""86862""
""blur"",""10"",""89111""
""focus"",""10"",""90355""
","""event"",""trial"",""time""
""blur"",""10"",""89111""
","""event"",""trial"",""time""
""focus"",""10"",""90355""
","""event"",""trial"",""time""
""fullscreenenter"",""1"",""5220""
","""event"",""trial"",""time""
""fullscreenexit"",""10"",""86862""
","","","","","","null","<div style=""font-size:60px;"">+</div>","null","","fixation","","","","","","","","",""
"memory-trial","69","376080","0.0-15.0-1.13","1701","2","""event"",""trial"",""time""
""fullscreenenter"",""1"",""5220""
""fullscreenexit"",""10"",""86862""
""blur"",""10"",""89111""
""focus"",""10"",""90355""
","""event"",""trial"",""time""
""blur"",""10"",""89111""
","""event"",""trial"",""time""
""focus"",""10"",""90355""
","""event"",""trial"",""time""
""fullscreenenter"",""1"",""5220""
","""event"",""trial"",""time""
""fullscreenexit"",""10"",""86862""
","","","","","","1539","images/goat4.png","","","memory_trial","3","maybe_new","","","","","","",""
"html-keyboard-response","70","376594","0.0-15.0-0.14","1701","2","""event"",""trial"",""time""
""fullscreenenter"",""1"",""5220""
""fullscreenexit"",""10"",""86862""
""blur"",""10"",""89111""
""focus"",""10"",""90355""
","""event"",""trial"",""time""
""blur"",""10"",""89111""
","""event"",""trial"",""time""
""focus"",""10"",""90355""
","""event"",""trial"",""time""
""fullscreenenter"",""1"",""5220""
","""event"",""trial"",""time""
""fullscreenexit"",""10"",""86862""
","","","","","","null","<div style=""font-size:60px;"">+</div>","null","","fixation","","","","","","","","",""
"memory-trial","71","379041","0.0-15.0-1.14","1701","2","""event"",""trial"",""time""
""fullscreenenter"",""1"",""5220""
""fullscreenexit"",""10"",""86862""
""blur"",""10"",""89111""
""focus"",""10"",""90355""
","""event"",""trial"",""time""
""blur"",""10"",""89111""
","""event"",""trial"",""time""
""focus"",""10"",""90355""
","""event"",""trial"",""time""
""fullscreenenter"",""1"",""5220""
","""event"",""trial"",""time""
""fullscreenexit"",""10"",""86862""
","","","","","","1435","images/apple4.png","","","memory_trial","4","definitely_new","","","","","","",""
"html-keyboard-response","72","379556","0.0-15.0-0.15","1701","2","""event"",""trial"",""time""
""fullscreenenter"",""1"",""5220""
""fullscreenexit"",""10"",""86862""
""blur"",""10"",""89111""
""focus"",""10"",""90355""
","""event"",""trial"",""time""
""blur"",""10"",""89111""
","""event"",""trial"",""time""
""focus"",""10"",""90355""
","""event"",""trial"",""time""
""fullscreenenter"",""1"",""5220""
","""event"",""trial"",""time""
""fullscreenexit"",""10"",""86862""
","","","","","","null","<div style=""font-size:60px;"">+</div>","null","","fixation","","","","","","","","",""
"memory-trial","73","381584","0.0-15.0-1.15","1701","2","""event"",""trial"",""time""
""fullscreenenter"",""1"",""5220""
""fullscreenexit"",""10"",""86862""
""blur"",""10"",""89111""
""focus"",""10"",""90355""
","""event"",""trial"",""time""
""blur"",""10"",""89111""
","""event"",""trial"",""time""
""focus"",""10"",""90355""
","""event"",""trial"",""time""
""fullscreenenter"",""1"",""5220""
","""event"",""trial"",""time""
""fullscreenexit"",""10"",""86862""
","","","","","","1018","images/rodent4.png","","","memory_trial","1","definitely_old","","","","","","",""
"html-keyboard-response","74","382095","0.0-15.0-0.16","1701","2","""event"",""trial"",""time""
""fullscreenenter"",""1"",""5220""
""fullscreenexit"",""10"",""86862""
""blur"",""10"",""89111""
""focus"",""10"",""90355""
","""event"",""trial"",""time""
""blur"",""10"",""89111""
","""event"",""trial"",""time""
""focus"",""10"",""90355""
","""event"",""trial"",""time""
""fullscreenenter"",""1"",""5220""
","""event"",""trial"",""time""
""fullscreenexit"",""10"",""86862""
","","","","","","null","<div style=""font-size:60px;"">+</div>","null","","fixation","","","","","","","","",""
"memory-trial","75","384169","0.0-15.0-1.16","1701","2","""event"",""trial"",""time""
""fullscreenenter"",""1"",""5220""
""fullscreenexit"",""10"",""86862""
""blur"",""10"",""89111""
""focus"",""10"",""90355""
","""event"",""trial"",""time""
""blur"",""10"",""89111""
","""event"",""trial"",""time""
""focus"",""10"",""90355""
","""event"",""trial"",""time""
""fullscreenenter"",""1"",""5220""
","""event"",""trial"",""time""
""fullscreenexit"",""10"",""86862""
","","","","","","1072","images/goat1.png","","","memory_trial","4","definitely_new","","","","","","",""
"html-keyboard-response","76","384682","0.0-15.0-0.17","1701","2","""event"",""trial"",""time""
""fullscreenenter"",""1"",""5220""
""fullscreenexit"",""10"",""86862""
""blur"",""10"",""89111""
""focus"",""10"",""90355""
","""event"",""trial"",""time""
""blur"",""10"",""89111""
","""event"",""trial"",""time""
""focus"",""10"",""90355""
","""event"",""trial"",""time""
""fullscreenenter"",""1"",""5220""
","""event"",""trial"",""time""
""fullscreenexit"",""10"",""86862""
","","","","","","null","<div style=""font-size:60px;"">+</div>","null","","fixation","","","","","","","","",""
"memory-trial","77","386676","0.0-15.0-1.17","1701","2","""event"",""trial"",""time""
""fullscreenenter"",""1"",""5220""
""fullscreenexit"",""10"",""86862""
""blur"",""10"",""89111""
""focus"",""10"",""90355""
","""event"",""trial"",""time""
""blur"",""10"",""89111""
","""event"",""trial"",""time""
""focus"",""10"",""90355""
","""event"",""trial"",""time""
""fullscreenenter"",""1"",""5220""
","""event"",""trial"",""time""
""fullscreenexit"",""10"",""86862""
","","","","","","985","images/rabbit2.png","","","memory_trial","2","maybe_old","","","","","","",""
"html-keyboard-response","78","387190","0.0-15.0-0.18","1701","2","""event"",""trial"",""time""
""fullscreenenter"",""1"",""5220""
""fullscreenexit"",""10"",""86862""
""blur"",""10"",""89111""
""focus"",""10"",""90355""
","""event"",""trial"",""time""
""blur"",""10"",""89111""
","""event"",""trial"",""time""
""focus"",""10"",""90355""
","""event"",""trial"",""time""
""fullscreenenter"",""1"",""5220""
","""event"",""trial"",""time""
""fullscreenexit"",""10"",""86862""
","","","","","","null","<div style=""font-size:60px;"">+</div>","null","","fixation","","","","","","","","",""
"memory-trial","79","389063","0.0-15.0-1.18","1701","2","""event"",""trial"",""time""
""fullscreenenter"",""1"",""5220""
""fullscreenexit"",""10"",""86862""
""blur"",""10"",""89111""
""focus"",""10"",""90355""
","""event"",""trial"",""time""
""blur"",""10"",""89111""
","""event"",""trial"",""time""
""focus"",""10"",""90355""
","""event"",""trial"",""time""
""fullscreenenter"",""1"",""5220""
","""event"",""trial"",""time""
""fullscreenexit"",""10"",""86862""
","","","","","","869","images/horse2.png","","","memory_trial","1","definitely_old","","","","","","",""
"html-keyboard-response","80","389577","0.0-15.0-0.19","1701","2","""event"",""trial"",""time""
""fullscreenenter"",""1"",""5220""
""fullscreenexit"",""10"",""86862""
""blur"",""10"",""89111""
""focus"",""10"",""90355""
","""event"",""trial"",""time""
""blur"",""10"",""89111""
","""event"",""trial"",""time""
""focus"",""10"",""90355""
","""event"",""trial"",""time""
""fullscreenenter"",""1"",""5220""
","""event"",""trial"",""time""
""fullscreenexit"",""10"",""86862""
","","","","","","null","<div style=""font-size:60px;"">+</div>","null","","fixation","","","","","","","","",""
"memory-trial","81","391280","0.0-15.0-1.19","1701","2","""event"",""trial"",""time""
""fullscreenenter"",""1"",""5220""
""fullscreenexit"",""10"",""86862""
""blur"",""10"",""89111""
""focus"",""10"",""90355""
","""event"",""trial"",""time""
""blur"",""10"",""89111""
","""event"",""trial"",""time""
""focus"",""10"",""90355""
","""event"",""trial"",""time""
""fullscreenenter"",""1"",""5220""
","""event"",""trial"",""time""
""fullscreenexit"",""10"",""86862""
","","","","","","690","images/table2.png","","","memory_trial","1","definitely_old","","","","","","",""
"html-keyboard-response","82","391782","0.0-15.0-0.20","1701","2","""event"",""trial"",""time""
""fullscreenenter"",""1"",""5220""
""fullscreenexit"",""10"",""86862""
""blur"",""10"",""89111""
""focus"",""10"",""90355""
","""event"",""trial"",""time""
""blur"",""10"",""89111""
","""event"",""trial"",""time""
""focus"",""10"",""90355""
","""event"",""trial"",""time""
""fullscreenenter"",""1"",""5220""
","""event"",""trial"",""time""
""fullscreenexit"",""10"",""86862""
","","","","","","null","<div style=""font-size:60px;"">+</div>","null","","fixation","","","","","","","","",""
"memory-trial","83","394412","0.0-15.0-1.20","1701","2","""event"",""trial"",""time""
""fullscreenenter"",""1"",""5220""
""fullscreenexit"",""10"",""86862""
""blur"",""10"",""89111""
""focus"",""10"",""90355""
","""event"",""trial"",""time""
""blur"",""10"",""89111""
","""event"",""trial"",""time""
""focus"",""10"",""90355""
","""event"",""trial"",""time""
""fullscreenenter"",""1"",""5220""
","""event"",""trial"",""time""
""fullscreenexit"",""10"",""86862""
","","","","","","1627","images/sofa3.png","","","memory_trial","4","definitely_new","","","","","","",""
"html-keyboard-response","84","394928","0.0-15.0-0.21","1701","2","""event"",""trial"",""time""
""fullscreenenter"",""1"",""5220""
""fullscreenexit"",""10"",""86862""
""blur"",""10"",""89111""
""focus"",""10"",""90355""
","""event"",""trial"",""time""
""blur"",""10"",""89111""
","""event"",""trial"",""time""
""focus"",""10"",""90355""
","""event"",""trial"",""time""
""fullscreenenter"",""1"",""5220""
","""event"",""trial"",""time""
""fullscreenexit"",""10"",""86862""
","","","","","","null","<div style=""font-size:60px;"">+</div>","null","","fixation","","","","","","","","",""
"memory-trial","85","396959","0.0-15.0-1.21","1701","2","""event"",""trial"",""time""
""fullscreenenter"",""1"",""5220""
""fullscreenexit"",""10"",""86862""
""blur"",""10"",""89111""
""focus"",""10"",""90355""
","""event"",""trial"",""time""
""blur"",""10"",""89111""
","""event"",""trial"",""time""
""focus"",""10"",""90355""
","""event"",""trial"",""time""
""fullscreenenter"",""1"",""5220""
","""event"",""trial"",""time""
""fullscreenexit"",""10"",""86862""
","","","","","","1026","images/cactus3.png","","","memory_trial","1","definitely_old","","","","","","",""
"html-keyboard-response","86","397472","0.0-15.0-0.22","1701","2","""event"",""trial"",""time""
""fullscreenenter"",""1"",""5220""
""fullscreenexit"",""10"",""86862""
""blur"",""10"",""89111""
""focus"",""10"",""90355""
","""event"",""trial"",""time""
""blur"",""10"",""89111""
","""event"",""trial"",""time""
""focus"",""10"",""90355""
","""event"",""trial"",""time""
""fullscreenenter"",""1"",""5220""
","""event"",""trial"",""time""
""fullscreenexit"",""10"",""86862""
","","","","","","null","<div style=""font-size:60px;"">+</div>","null","","fixation","","","","","","","","",""
"memory-trial","87","400970","0.0-15.0-1.22","1701","2","""event"",""trial"",""time""
""fullscreenenter"",""1"",""5220""
""fullscreenexit"",""10"",""86862""
""blur"",""10"",""89111""
""focus"",""10"",""90355""
","""event"",""trial"",""time""
""blur"",""10"",""89111""
","""event"",""trial"",""time""
""focus"",""10"",""90355""
","""event"",""trial"",""time""
""fullscreenenter"",""1"",""5220""
","""event"",""trial"",""time""
""fullscreenexit"",""10"",""86862""
","","","","","","2489","images/rodent1.png","","","memory_trial","1","definitely_old","","","","","","",""
"html-keyboard-response","88","401484","0.0-15.0-0.23","1701","2","""event"",""trial"",""time""
""fullscreenenter"",""1"",""5220""
""fullscreenexit"",""10"",""86862""
""blur"",""10"",""89111""
""focus"",""10"",""90355""
","""event"",""trial"",""time""
""blur"",""10"",""89111""
","""event"",""trial"",""time""
""focus"",""10"",""90355""
","""event"",""trial"",""time""
""fullscreenenter"",""1"",""5220""
","""event"",""trial"",""time""
""fullscreenexit"",""10"",""86862""
","","","","","","null","<div style=""font-size:60px;"">+</div>","null","","fixation","","","","","","","","",""
"memory-trial","89","403407","0.0-15.0-1.23","1701","2","""event"",""trial"",""time""
""fullscreenenter"",""1"",""5220""
""fullscreenexit"",""10"",""86862""
""blur"",""10"",""89111""
""focus"",""10"",""90355""
","""event"",""trial"",""time""
""blur"",""10"",""89111""
","""event"",""trial"",""time""
""focus"",""10"",""90355""
","""event"",""trial"",""time""
""fullscreenenter"",""1"",""5220""
","""event"",""trial"",""time""
""fullscreenexit"",""10"",""86862""
","","","","","","918","images/apple1.png","","","memory_trial","4","definitely_new","","","","","","",""
"html-keyboard-response","90","403920","0.0-15.0-0.24","1701","2","""event"",""trial"",""time""
""fullscreenenter"",""1"",""5220""
""fullscreenexit"",""10"",""86862""
""blur"",""10"",""89111""
""focus"",""10"",""90355""
","""event"",""trial"",""time""
""blur"",""10"",""89111""
","""event"",""trial"",""time""
""focus"",""10"",""90355""
","""event"",""trial"",""time""
""fullscreenenter"",""1"",""5220""
","""event"",""trial"",""time""
""fullscreenexit"",""10"",""86862""
","","","","","","null","<div style=""font-size:60px;"">+</div>","null","","fixation","","","","","","","","",""
"memory-trial","91","405664","0.0-15.0-1.24","1701","2","""event"",""trial"",""time""
""fullscreenenter"",""1"",""5220""
""fullscreenexit"",""10"",""86862""
""blur"",""10"",""89111""
""focus"",""10"",""90355""
","""event"",""trial"",""time""
""blur"",""10"",""89111""
","""event"",""trial"",""time""
""focus"",""10"",""90355""
","""event"",""trial"",""time""
""fullscreenenter"",""1"",""5220""
","""event"",""trial"",""time""
""fullscreenexit"",""10"",""86862""
","","","","","","727","images/dog4.png","","","memory_trial","4","definitely_new","","","","","","",""
"html-keyboard-response","92","406179","0.0-15.0-0.25","1701","2","""event"",""trial"",""time""
""fullscreenenter"",""1"",""5220""
""fullscreenexit"",""10"",""86862""
""blur"",""10"",""89111""
""focus"",""10"",""90355""
","""event"",""trial"",""time""
""blur"",""10"",""89111""
","""event"",""trial"",""time""
""focus"",""10"",""90355""
","""event"",""trial"",""time""
""fullscreenenter"",""1"",""5220""
","""event"",""trial"",""time""
""fullscreenexit"",""10"",""86862""
","","","","","","null","<div style=""font-size:60px;"">+</div>","null","","fixation","","","","","","","","",""
"memory-trial","93","409401","0.0-15.0-1.25","1701","2","""event"",""trial"",""time""
""fullscreenenter"",""1"",""5220""
""fullscreenexit"",""10"",""86862""
""blur"",""10"",""89111""
""focus"",""10"",""90355""
","""event"",""trial"",""time""
""blur"",""10"",""89111""
","""event"",""trial"",""time""
""focus"",""10"",""90355""
","""event"",""trial"",""time""
""fullscreenenter"",""1"",""5220""
","""event"",""trial"",""time""
""fullscreenexit"",""10"",""86862""
","","","","","","2205","images/straw2.png","","","memory_trial","3","maybe_new","","","","","","",""
"html-keyboard-response","94","409916","0.0-15.0-0.26","1701","2","""event"",""trial"",""time""
""fullscreenenter"",""1"",""5220""
""fullscreenexit"",""10"",""86862""
""blur"",""10"",""89111""
""focus"",""10"",""90355""
","""event"",""trial"",""time""
""blur"",""10"",""89111""
","""event"",""trial"",""time""
""focus"",""10"",""90355""
","""event"",""trial"",""time""
""fullscreenenter"",""1"",""5220""
","""event"",""trial"",""time""
""fullscreenexit"",""10"",""86862""
","","","","","","null","<div style=""font-size:60px;"">+</div>","null","","fixation","","","","","","","","",""
"memory-trial","95","411794","0.0-15.0-1.26","1701","2","""event"",""trial"",""time""
""fullscreenenter"",""1"",""5220""
""fullscreenexit"",""10"",""86862""
""blur"",""10"",""89111""
""focus"",""10"",""90355""
","""event"",""trial"",""time""
""blur"",""10"",""89111""
","""event"",""trial"",""time""
""focus"",""10"",""90355""
","""event"",""trial"",""time""
""fullscreenenter"",""1"",""5220""
","""event"",""trial"",""time""
""fullscreenexit"",""10"",""86862""
","","","","","","869","images/rabbit5.png","","","memory_trial","1","definitely_old","","","","","","",""
"html-keyboard-response","96","412308","0.0-15.0-0.27","1701","2","""event"",""trial"",""time""
""fullscreenenter"",""1"",""5220""
""fullscreenexit"",""10"",""86862""
""blur"",""10"",""89111""
""focus"",""10"",""90355""
","""event"",""trial"",""time""
""blur"",""10"",""89111""
","""event"",""trial"",""time""
""focus"",""10"",""90355""
","""event"",""trial"",""time""
""fullscreenenter"",""1"",""5220""
","""event"",""trial"",""time""
""fullscreenexit"",""10"",""86862""
","","","","","","null","<div style=""font-size:60px;"">+</div>","null","","fixation","","","","","","","","",""
"memory-trial","97","414136","0.0-15.0-1.27","1701","2","""event"",""trial"",""time""
""fullscreenenter"",""1"",""5220""
""fullscreenexit"",""10"",""86862""
""blur"",""10"",""89111""
""focus"",""10"",""90355""
","""event"",""trial"",""time""
""blur"",""10"",""89111""
","""event"",""trial"",""time""
""focus"",""10"",""90355""
","""event"",""trial"",""time""
""fullscreenenter"",""1"",""5220""
","""event"",""trial"",""time""
""fullscreenexit"",""10"",""86862""
","","","","","","816","images/sofa4.png","","","memory_trial","1","definitely_old","","","","","","",""
"html-keyboard-response","98","414650","0.0-15.0-0.28","1701","2","""event"",""trial"",""time""
""fullscreenenter"",""1"",""5220""
""fullscreenexit"",""10"",""86862""
""blur"",""10"",""89111""
""focus"",""10"",""90355""
","""event"",""trial"",""time""
""blur"",""10"",""89111""
","""event"",""trial"",""time""
""focus"",""10"",""90355""
","""event"",""trial"",""time""
""fullscreenenter"",""1"",""5220""
","""event"",""trial"",""time""
""fullscreenexit"",""10"",""86862""
","","","","","","null","<div style=""font-size:60px;"">+</div>","null","","fixation","","","","","","","","",""
"memory-trial","99","416752","0.0-15.0-1.28","1701","2","""event"",""trial"",""time""
""fullscreenenter"",""1"",""5220""
""fullscreenexit"",""10"",""86862""
""blur"",""10"",""89111""
""focus"",""10"",""90355""
","""event"",""trial"",""time""
""blur"",""10"",""89111""
","""event"",""trial"",""time""
""focus"",""10"",""90355""
","""event"",""trial"",""time""
""fullscreenenter"",""1"",""5220""
","""event"",""trial"",""time""
""fullscreenexit"",""10"",""86862""
","","","","","","1097","images/bush5.png","","","memory_trial","4","definitely_new","","","","","","",""
"html-keyboard-response","100","417266","0.0-15.0-0.29","1701","2","""event"",""trial"",""time""
""fullscreenenter"",""1"",""5220""
""fullscreenexit"",""10"",""86862""
""blur"",""10"",""89111""
""focus"",""10"",""90355""
","""event"",""trial"",""time""
""blur"",""10"",""89111""
","""event"",""trial"",""time""
""focus"",""10"",""90355""
","""event"",""trial"",""time""
""fullscreenenter"",""1"",""5220""
","""event"",""trial"",""time""
""fullscreenexit"",""10"",""86862""
","","","","","","null","<div style=""font-size:60px;"">+</div>","null","","fixation","","","","","","","","",""
"memory-trial","101","420471","0.0-15.0-1.29","1701","2","""event"",""trial"",""time""
""fullscreenenter"",""1"",""5220""
""fullscreenexit"",""10"",""86862""
""blur"",""10"",""89111""
""focus"",""10"",""90355""
","""event"",""trial"",""time""
""blur"",""10"",""89111""
","""event"",""trial"",""time""
""focus"",""10"",""90355""
","""event"",""trial"",""time""
""fullscreenenter"",""1"",""5220""
","""event"",""trial"",""time""
""fullscreenexit"",""10"",""86862""
","","","","","","2201","images/bush4.png","","","memory_trial","4","definitely_new","","","","","","",""
"html-keyboard-response","102","420984","0.0-15.0-0.30","1701","2","""event"",""trial"",""time""
""fullscreenenter"",""1"",""5220""
""fullscreenexit"",""10"",""86862""
""blur"",""10"",""89111""
""focus"",""10"",""90355""
","""event"",""trial"",""time""
""blur"",""10"",""89111""
","""event"",""trial"",""time""
""focus"",""10"",""90355""
","""event"",""trial"",""time""
""fullscreenenter"",""1"",""5220""
","""event"",""trial"",""time""
""fullscreenexit"",""10"",""86862""
","","","","","","null","<div style=""font-size:60px;"">+</div>","null","","fixation","","","","","","","","",""
"memory-trial","103","424408","0.0-15.0-1.30","1701","2","""event"",""trial"",""time""
""fullscreenenter"",""1"",""5220""
""fullscreenexit"",""10"",""86862""
""blur"",""10"",""89111""
""focus"",""10"",""90355""
","""event"",""trial"",""time""
""blur"",""10"",""89111""
","""event"",""trial"",""time""
""focus"",""10"",""90355""
","""event"",""trial"",""time""
""fullscreenenter"",""1"",""5220""
","""event"",""trial"",""time""
""fullscreenexit"",""10"",""86862""
","","","","","","2410","images/rodent2.png","","","memory_trial","4","definitely_new","","","","","","",""
"html-keyboard-response","104","424917","0.0-15.0-0.31","1701","2","""event"",""trial"",""time""
""fullscreenenter"",""1"",""5220""
""fullscreenexit"",""10"",""86862""
""blur"",""10"",""89111""
""focus"",""10"",""90355""
","""event"",""trial"",""time""
""blur"",""10"",""89111""
","""event"",""trial"",""time""
""focus"",""10"",""90355""
","""event"",""trial"",""time""
""fullscreenenter"",""1"",""5220""
","""event"",""trial"",""time""
""fullscreenexit"",""10"",""86862""
","","","","","","null","<div style=""font-size:60px;"">+</div>","null","","fixation","","","","","","","","",""
"memory-trial","105","427114","0.0-15.0-1.31","1701","2","""event"",""trial"",""time""
""fullscreenenter"",""1"",""5220""
""fullscreenexit"",""10"",""86862""
""blur"",""10"",""89111""
""focus"",""10"",""90355""
","""event"",""trial"",""time""
""blur"",""10"",""89111""
","""event"",""trial"",""time""
""focus"",""10"",""90355""
","""event"",""trial"",""time""
""fullscreenenter"",""1"",""5220""
","""event"",""trial"",""time""
""fullscreenexit"",""10"",""86862""
","","","","","","1191","images/goat5.png","","","memory_trial","3","maybe_new","","","","","","",""
"html-keyboard-response","106","427628","0.0-15.0-0.32","1701","2","""event"",""trial"",""time""
""fullscreenenter"",""1"",""5220""
""fullscreenexit"",""10"",""86862""
""blur"",""10"",""89111""
""focus"",""10"",""90355""
","""event"",""trial"",""time""
""blur"",""10"",""89111""
","""event"",""trial"",""time""
""focus"",""10"",""90355""
","""event"",""trial"",""time""
""fullscreenenter"",""1"",""5220""
","""event"",""trial"",""time""
""fullscreenexit"",""10"",""86862""
","","","","","","null","<div style=""font-size:60px;"">+</div>","null","","fixation","","","","","","","","",""
"memory-trial","107","429731","0.0-15.0-1.32","1701","2","""event"",""trial"",""time""
""fullscreenenter"",""1"",""5220""
""fullscreenexit"",""10"",""86862""
""blur"",""10"",""89111""
""focus"",""10"",""90355""
","""event"",""trial"",""time""
""blur"",""10"",""89111""
","""event"",""trial"",""time""
""focus"",""10"",""90355""
","""event"",""trial"",""time""
""fullscreenenter"",""1"",""5220""
","""event"",""trial"",""time""
""fullscreenexit"",""10"",""86862""
","","","","","","1101","images/dog2.png","","","memory_trial","3","maybe_new","","","","","","",""
"html-keyboard-response","108","430242","0.0-15.0-0.33","1701","2","""event"",""trial"",""time""
""fullscreenenter"",""1"",""5220""
""fullscreenexit"",""10"",""86862""
""blur"",""10"",""89111""
""focus"",""10"",""90355""
","""event"",""trial"",""time""
""blur"",""10"",""89111""
","""event"",""trial"",""time""
""focus"",""10"",""90355""
","""event"",""trial"",""time""
""fullscreenenter"",""1"",""5220""
","""event"",""trial"",""time""
""fullscreenexit"",""10"",""86862""
","","","","","","null","<div style=""font-size:60px;"">+</div>","null","","fixation","","","","","","","","",""
"memory-trial","109","434233","0.0-15.0-1.33","1701","2","""event"",""trial"",""time""
""fullscreenenter"",""1"",""5220""
""fullscreenexit"",""10"",""86862""
""blur"",""10"",""89111""
""focus"",""10"",""90355""
","""event"",""trial"",""time""
""blur"",""10"",""89111""
","""event"",""trial"",""time""
""focus"",""10"",""90355""
","""event"",""trial"",""time""
""fullscreenenter"",""1"",""5220""
","""event"",""trial"",""time""
""fullscreenexit"",""10"",""86862""
","","","","","","2986","images/cow3.png","","","memory_trial","2","maybe_old","","","","","","",""
"html-keyboard-response","110","434746","0.0-15.0-0.34","1701","2","""event"",""trial"",""time""
""fullscreenenter"",""1"",""5220""
""fullscreenexit"",""10"",""86862""
""blur"",""10"",""89111""
""focus"",""10"",""90355""
","""event"",""trial"",""time""
""blur"",""10"",""89111""
","""event"",""trial"",""time""
""focus"",""10"",""90355""
","""event"",""trial"",""time""
""fullscreenenter"",""1"",""5220""
","""event"",""trial"",""time""
""fullscreenexit"",""10"",""86862""
","","","","","","null","<div style=""font-size:60px;"">+</div>","null","","fixation","","","","","","","","",""
"memory-trial","111","437533","0.0-15.0-1.34","1701","2","""event"",""trial"",""time""
""fullscreenenter"",""1"",""5220""
""fullscreenexit"",""10"",""86862""
""blur"",""10"",""89111""
""focus"",""10"",""90355""
","""event"",""trial"",""time""
""blur"",""10"",""89111""
","""event"",""trial"",""time""
""focus"",""10"",""90355""
","""event"",""trial"",""time""
""fullscreenenter"",""1"",""5220""
","""event"",""trial"",""time""
""fullscreenexit"",""10"",""86862""
","","","","","","1779","images/apple3.png","","","memory_trial","3","maybe_new","","","","","","",""
"html-keyboard-response","112","438046","0.0-15.0-0.35","1701","2","""event"",""trial"",""time""
""fullscreenenter"",""1"",""5220""
""fullscreenexit"",""10"",""86862""
""blur"",""10"",""89111""
""focus"",""10"",""90355""
","""event"",""trial"",""time""
""blur"",""10"",""89111""
","""event"",""trial"",""time""
""focus"",""10"",""90355""
","""event"",""trial"",""time""
""fullscreenenter"",""1"",""5220""
","""event"",""trial"",""time""
""fullscreenexit"",""10"",""86862""
","","","","","","null","<div style=""font-size:60px;"">+</div>","null","","fixation","","","","","","","","",""
"memory-trial","113","440409","0.0-15.0-1.35","1701","2","""event"",""trial"",""time""
""fullscreenenter"",""1"",""5220""
""fullscreenexit"",""10"",""86862""
""blur"",""10"",""89111""
""focus"",""10"",""90355""
","""event"",""trial"",""time""
""blur"",""10"",""89111""
","""event"",""trial"",""time""
""focus"",""10"",""90355""
","""event"",""trial"",""time""
""fullscreenenter"",""1"",""5220""
","""event"",""trial"",""time""
""fullscreenexit"",""10"",""86862""
","","","","","","1348","images/horse4.png","","","memory_trial","1","definitely_old","","","","","","",""
"html-keyboard-response","114","440924","0.0-15.0-0.36","1701","2","""event"",""trial"",""time""
""fullscreenenter"",""1"",""5220""
""fullscreenexit"",""10"",""86862""
""blur"",""10"",""89111""
""focus"",""10"",""90355""
","""event"",""trial"",""time""
""blur"",""10"",""89111""
","""event"",""trial"",""time""
""focus"",""10"",""90355""
","""event"",""trial"",""time""
""fullscreenenter"",""1"",""5220""
","""event"",""trial"",""time""
""fullscreenexit"",""10"",""86862""
","","","","","","null","<div style=""font-size:60px;"">+</div>","null","","fixation","","","","","","","","",""
"memory-trial","115","442604","0.0-15.0-1.36","1701","2","""event"",""trial"",""time""
""fullscreenenter"",""1"",""5220""
""fullscreenexit"",""10"",""86862""
""blur"",""10"",""89111""
""focus"",""10"",""90355""
","""event"",""trial"",""time""
""blur"",""10"",""89111""
","""event"",""trial"",""time""
""focus"",""10"",""90355""
","""event"",""trial"",""time""
""fullscreenenter"",""1"",""5220""
","""event"",""trial"",""time""
""fullscreenexit"",""10"",""86862""
","","","","","","665","images/flower1.png","","","memory_trial","1","definitely_old","","","","","","",""
"html-keyboard-response","116","443119","0.0-15.0-0.37","1701","2","""event"",""trial"",""time""
""fullscreenenter"",""1"",""5220""
""fullscreenexit"",""10"",""86862""
""blur"",""10"",""89111""
""focus"",""10"",""90355""
","""event"",""trial"",""time""
""blur"",""10"",""89111""
","""event"",""trial"",""time""
""focus"",""10"",""90355""
","""event"",""trial"",""time""
""fullscreenenter"",""1"",""5220""
","""event"",""trial"",""time""
""fullscreenexit"",""10"",""86862""
","","","","","","null","<div style=""font-size:60px;"">+</div>","null","","fixation","","","","","","","","",""
"memory-trial","117","445160","0.0-15.0-1.37","1701","2","""event"",""trial"",""time""
""fullscreenenter"",""1"",""5220""
""fullscreenexit"",""10"",""86862""
""blur"",""10"",""89111""
""focus"",""10"",""90355""
","""event"",""trial"",""time""
""blur"",""10"",""89111""
","""event"",""trial"",""time""
""focus"",""10"",""90355""
","""event"",""trial"",""time""
""fullscreenenter"",""1"",""5220""
","""event"",""trial"",""time""
""fullscreenexit"",""10"",""86862""
","","","","","","1035","images/straw5.png","","","memory_trial","2","maybe_old","","","","","","",""
"html-keyboard-response","118","445662","0.0-15.0-0.38","1701","2","""event"",""trial"",""time""
""fullscreenenter"",""1"",""5220""
""fullscreenexit"",""10"",""86862""
""blur"",""10"",""89111""
""focus"",""10"",""90355""
","""event"",""trial"",""time""
""blur"",""10"",""89111""
","""event"",""trial"",""time""
""focus"",""10"",""90355""
","""event"",""trial"",""time""
""fullscreenenter"",""1"",""5220""
","""event"",""trial"",""time""
""fullscreenexit"",""10"",""86862""
","","","","","","null","<div style=""font-size:60px;"">+</div>","null","","fixation","","","","","","","","",""
"memory-trial","119","447639","0.0-15.0-1.38","1701","2","""event"",""trial"",""time""
""fullscreenenter"",""1"",""5220""
""fullscreenexit"",""10"",""86862""
""blur"",""10"",""89111""
""focus"",""10"",""90355""
","""event"",""trial"",""time""
""blur"",""10"",""89111""
","""event"",""trial"",""time""
""focus"",""10"",""90355""
","""event"",""trial"",""time""
""fullscreenenter"",""1"",""5220""
","""event"",""trial"",""time""
""fullscreenexit"",""10"",""86862""
","","","","","","964","images/feline5.png","","","memory_trial","4","definitely_new","","","","","","",""
"html-keyboard-response","120","448140","0.0-15.0-0.39","1701","2","""event"",""trial"",""time""
""fullscreenenter"",""1"",""5220""
""fullscreenexit"",""10"",""86862""
""blur"",""10"",""89111""
""focus"",""10"",""90355""
","""event"",""trial"",""time""
""blur"",""10"",""89111""
","""event"",""trial"",""time""
""focus"",""10"",""90355""
","""event"",""trial"",""time""
""fullscreenenter"",""1"",""5220""
","""event"",""trial"",""time""
""fullscreenexit"",""10"",""86862""
","","","","","","null","<div style=""font-size:60px;"">+</div>","null","","fixation","","","","","","","","",""
"memory-trial","121","450288","0.0-15.0-1.39","1701","2","""event"",""trial"",""time""
""fullscreenenter"",""1"",""5220""
""fullscreenexit"",""10"",""86862""
""blur"",""10"",""89111""
""focus"",""10"",""90355""
","""event"",""trial"",""time""
""blur"",""10"",""89111""
","""event"",""trial"",""time""
""focus"",""10"",""90355""
","""event"",""trial"",""time""
""fullscreenenter"",""1"",""5220""
","""event"",""trial"",""time""
""fullscreenexit"",""10"",""86862""
","","","","","","1132","images/plane5.png","","","memory_trial","3","maybe_new","","","","","","",""
"html-keyboard-response","122","450789","0.0-15.0-0.40","1701","2","""event"",""trial"",""time""
""fullscreenenter"",""1"",""5220""
""fullscreenexit"",""10"",""86862""
""blur"",""10"",""89111""
""focus"",""10"",""90355""
","""event"",""trial"",""time""
""blur"",""10"",""89111""
","""event"",""trial"",""time""
""focus"",""10"",""90355""
","""event"",""trial"",""time""
""fullscreenenter"",""1"",""5220""
","""event"",""trial"",""time""
""fullscreenexit"",""10"",""86862""
","","","","","","null","<div style=""font-size:60px;"">+</div>","null","","fixation","","","","","","","","",""
"memory-trial","123","452766","0.0-15.0-1.40","1701","2","""event"",""trial"",""time""
""fullscreenenter"",""1"",""5220""
""fullscreenexit"",""10"",""86862""
""blur"",""10"",""89111""
""focus"",""10"",""90355""
","""event"",""trial"",""time""
""blur"",""10"",""89111""
","""event"",""trial"",""time""
""focus"",""10"",""90355""
","""event"",""trial"",""time""
""fullscreenenter"",""1"",""5220""
","""event"",""trial"",""time""
""fullscreenexit"",""10"",""86862""
","","","","","","972","images/bed3.png","","","memory_trial","1","definitely_old","","","","","","",""
"html-keyboard-response","124","453279","0.0-15.0-0.41","1701","2","""event"",""trial"",""time""
""fullscreenenter"",""1"",""5220""
""fullscreenexit"",""10"",""86862""
""blur"",""10"",""89111""
""focus"",""10"",""90355""
","""event"",""trial"",""time""
""blur"",""10"",""89111""
","""event"",""trial"",""time""
""focus"",""10"",""90355""
","""event"",""trial"",""time""
""fullscreenenter"",""1"",""5220""
","""event"",""trial"",""time""
""fullscreenexit"",""10"",""86862""
","","","","","","null","<div style=""font-size:60px;"">+</div>","null","","fixation","","","","","","","","",""
"memory-trial","125","457206","0.0-15.0-1.41","1701","2","""event"",""trial"",""time""
""fullscreenenter"",""1"",""5220""
""fullscreenexit"",""10"",""86862""
""blur"",""10"",""89111""
""focus"",""10"",""90355""
","""event"",""trial"",""time""
""blur"",""10"",""89111""
","""event"",""trial"",""time""
""focus"",""10"",""90355""
","""event"",""trial"",""time""
""fullscreenenter"",""1"",""5220""
","""event"",""trial"",""time""
""fullscreenexit"",""10"",""86862""
","","","","","","2912","images/plane1.png","","","memory_trial","2","maybe_old","","","","","","",""
"html-keyboard-response","126","457720","0.0-15.0-0.42","1701","2","""event"",""trial"",""time""
""fullscreenenter"",""1"",""5220""
""fullscreenexit"",""10"",""86862""
""blur"",""10"",""89111""
""focus"",""10"",""90355""
","""event"",""trial"",""time""
""blur"",""10"",""89111""
","""event"",""trial"",""time""
""focus"",""10"",""90355""
","""event"",""trial"",""time""
""fullscreenenter"",""1"",""5220""
","""event"",""trial"",""time""
""fullscreenexit"",""10"",""86862""
","","","","","","null","<div style=""font-size:60px;"">+</div>","null","","fixation","","","","","","","","",""
"memory-trial","127","459419","0.0-15.0-1.42","1701","2","""event"",""trial"",""time""
""fullscreenenter"",""1"",""5220""
""fullscreenexit"",""10"",""86862""
""blur"",""10"",""89111""
""focus"",""10"",""90355""
","""event"",""trial"",""time""
""blur"",""10"",""89111""
","""event"",""trial"",""time""
""focus"",""10"",""90355""
","""event"",""trial"",""time""
""fullscreenenter"",""1"",""5220""
","""event"",""trial"",""time""
""fullscreenexit"",""10"",""86862""
","","","","","","696","images/cow2.png","","","memory_trial","1","definitely_old","","","","","","",""
"html-keyboard-response","128","459932","0.0-15.0-0.43","1701","2","""event"",""trial"",""time""
""fullscreenenter"",""1"",""5220""
""fullscreenexit"",""10"",""86862""
""blur"",""10"",""89111""
""focus"",""10"",""90355""
","""event"",""trial"",""time""
""blur"",""10"",""89111""
","""event"",""trial"",""time""
""focus"",""10"",""90355""
","""event"",""trial"",""time""
""fullscreenenter"",""1"",""5220""
","""event"",""trial"",""time""
""fullscreenexit"",""10"",""86862""
","","","","","","null","<div style=""font-size:60px;"">+</div>","null","","fixation","","","","","","","","",""
"memory-trial","129","461771","0.0-15.0-1.43","1701","2","""event"",""trial"",""time""
""fullscreenenter"",""1"",""5220""
""fullscreenexit"",""10"",""86862""
""blur"",""10"",""89111""
""focus"",""10"",""90355""
","""event"",""trial"",""time""
""blur"",""10"",""89111""
","""event"",""trial"",""time""
""focus"",""10"",""90355""
","""event"",""trial"",""time""
""fullscreenenter"",""1"",""5220""
","""event"",""trial"",""time""
""fullscreenexit"",""10"",""86862""
","","","","","","836","images/tree5.png","","","memory_trial","1","definitely_old","","","","","","",""
"html-keyboard-response","130","462284","0.0-15.0-0.44","1701","2","""event"",""trial"",""time""
""fullscreenenter"",""1"",""5220""
""fullscreenexit"",""10"",""86862""
""blur"",""10"",""89111""
""focus"",""10"",""90355""
","""event"",""trial"",""time""
""blur"",""10"",""89111""
","""event"",""trial"",""time""
""focus"",""10"",""90355""
","""event"",""trial"",""time""
""fullscreenenter"",""1"",""5220""
","""event"",""trial"",""time""
""fullscreenexit"",""10"",""86862""
","","","","","","null","<div style=""font-size:60px;"">+</div>","null","","fixation","","","","","","","","",""
"memory-trial","131","464729","0.0-15.0-1.44","1701","2","""event"",""trial"",""time""
""fullscreenenter"",""1"",""5220""
""fullscreenexit"",""10"",""86862""
""blur"",""10"",""89111""
""focus"",""10"",""90355""
","""event"",""trial"",""time""
""blur"",""10"",""89111""
","""event"",""trial"",""time""
""focus"",""10"",""90355""
","""event"",""trial"",""time""
""fullscreenenter"",""1"",""5220""
","""event"",""trial"",""time""
""fullscreenexit"",""10"",""86862""
","","","","","","1430","images/truck2.png","","","memory_trial","1","definitely_old","","","","","","",""
"html-keyboard-response","132","465243","0.0-15.0-0.45","1701","2","""event"",""trial"",""time""
""fullscreenenter"",""1"",""5220""
""fullscreenexit"",""10"",""86862""
""blur"",""10"",""89111""
""focus"",""10"",""90355""
","""event"",""trial"",""time""
""blur"",""10"",""89111""
","""event"",""trial"",""time""
""focus"",""10"",""90355""
","""event"",""trial"",""time""
""fullscreenenter"",""1"",""5220""
","""event"",""trial"",""time""
""fullscreenexit"",""10"",""86862""
","","","","","","null","<div style=""font-size:60px;"">+</div>","null","","fixation","","","","","","","","",""
"memory-trial","133","467340","0.0-15.0-1.45","1701","2","""event"",""trial"",""time""
""fullscreenenter"",""1"",""5220""
""fullscreenexit"",""10"",""86862""
""blur"",""10"",""89111""
""focus"",""10"",""90355""
","""event"",""trial"",""time""
""blur"",""10"",""89111""
","""event"",""trial"",""time""
""focus"",""10"",""90355""
","""event"",""trial"",""time""
""fullscreenenter"",""1"",""5220""
","""event"",""trial"",""time""
""fullscreenexit"",""10"",""86862""
","","","","","","1086","images/bed5.png","","","memory_trial","2","maybe_old","","","","","","",""
"html-keyboard-response","134","467856","0.0-15.0-0.46","1701","2","""event"",""trial"",""time""
""fullscreenenter"",""1"",""5220""
""fullscreenexit"",""10"",""86862""
""blur"",""10"",""89111""
""focus"",""10"",""90355""
","""event"",""trial"",""time""
""blur"",""10"",""89111""
","""event"",""trial"",""time""
""focus"",""10"",""90355""
","""event"",""trial"",""time""
""fullscreenenter"",""1"",""5220""
","""event"",""trial"",""time""
""fullscreenexit"",""10"",""86862""
","","","","","","null","<div style=""font-size:60px;"">+</div>","null","","fixation","","","","","","","","",""
"memory-trial","135","469975","0.0-15.0-1.46","1701","2","""event"",""trial"",""time""
""fullscreenenter"",""1"",""5220""
""fullscreenexit"",""10"",""86862""
""blur"",""10"",""89111""
""focus"",""10"",""90355""
","""event"",""trial"",""time""
""blur"",""10"",""89111""
","""event"",""trial"",""time""
""focus"",""10"",""90355""
","""event"",""trial"",""time""
""fullscreenenter"",""1"",""5220""
","""event"",""trial"",""time""
""fullscreenexit"",""10"",""86862""
","","","","","","1106","images/sheep5.png","","","memory_trial","2","maybe_old","","","","","","",""
"html-button-response","136","472469","0.0-15.0-2.46-0.46","1701","2","""event"",""trial"",""time""
""fullscreenenter"",""1"",""5220""
""fullscreenexit"",""10"",""86862""
""blur"",""10"",""89111""
""focus"",""10"",""90355""
","""event"",""trial"",""time""
""blur"",""10"",""89111""
","""event"",""trial"",""time""
""focus"",""10"",""90355""
","""event"",""trial"",""time""
""fullscreenenter"",""1"",""5220""
","""event"",""trial"",""time""
""fullscreenexit"",""10"",""86862""
","","","","","","2492","<p> Take a break! </p><p> Click the button to continue. </p>","0","","break","","","","","","","","",""
"html-keyboard-response","137","472978","0.0-15.0-0.47","1701","2","""event"",""trial"",""time""
""fullscreenenter"",""1"",""5220""
""fullscreenexit"",""10"",""86862""
""blur"",""10"",""89111""
""focus"",""10"",""90355""
","""event"",""trial"",""time""
""blur"",""10"",""89111""
","""event"",""trial"",""time""
""focus"",""10"",""90355""
","""event"",""trial"",""time""
""fullscreenenter"",""1"",""5220""
","""event"",""trial"",""time""
""fullscreenexit"",""10"",""86862""
","","","","","","null","<div style=""font-size:60px;"">+</div>","null","","fixation","","","","","","","","",""
"memory-trial","138","476684","0.0-15.0-1.47","1701","2","""event"",""trial"",""time""
""fullscreenenter"",""1"",""5220""
""fullscreenexit"",""10"",""86862""
""blur"",""10"",""89111""
""focus"",""10"",""90355""
","""event"",""trial"",""time""
""blur"",""10"",""89111""
","""event"",""trial"",""time""
""focus"",""10"",""90355""
","""event"",""trial"",""time""
""fullscreenenter"",""1"",""5220""
","""event"",""trial"",""time""
""fullscreenexit"",""10"",""86862""
","","","","","","2701","images/bed4.png","","","memory_trial","3","maybe_new","","","","","","",""
"html-keyboard-response","139","477198","0.0-15.0-0.48","1701","2","""event"",""trial"",""time""
""fullscreenenter"",""1"",""5220""
""fullscreenexit"",""10"",""86862""
""blur"",""10"",""89111""
""focus"",""10"",""90355""
","""event"",""trial"",""time""
""blur"",""10"",""89111""
","""event"",""trial"",""time""
""focus"",""10"",""90355""
","""event"",""trial"",""time""
""fullscreenenter"",""1"",""5220""
","""event"",""trial"",""time""
""fullscreenexit"",""10"",""86862""
","","","","","","null","<div style=""font-size:60px;"">+</div>","null","","fixation","","","","","","","","",""
"memory-trial","140","480240","0.0-15.0-1.48","1701","2","""event"",""trial"",""time""
""fullscreenenter"",""1"",""5220""
""fullscreenexit"",""10"",""86862""
""blur"",""10"",""89111""
""focus"",""10"",""90355""
","""event"",""trial"",""time""
""blur"",""10"",""89111""
","""event"",""trial"",""time""
""focus"",""10"",""90355""
","""event"",""trial"",""time""
""fullscreenenter"",""1"",""5220""
","""event"",""trial"",""time""
""fullscreenexit"",""10"",""86862""
","","","","","","2026","images/banana2.png","","","memory_trial","4","definitely_new","","","","","","",""
"html-keyboard-response","141","480754","0.0-15.0-0.49","1701","2","""event"",""trial"",""time""
""fullscreenenter"",""1"",""5220""
""fullscreenexit"",""10"",""86862""
""blur"",""10"",""89111""
""focus"",""10"",""90355""
","""event"",""trial"",""time""
""blur"",""10"",""89111""
","""event"",""trial"",""time""
""focus"",""10"",""90355""
","""event"",""trial"",""time""
""fullscreenenter"",""1"",""5220""
","""event"",""trial"",""time""
""fullscreenexit"",""10"",""86862""
","","","","","","null","<div style=""font-size:60px;"">+</div>","null","","fixation","","","","","","","","",""
"memory-trial","142","485154","0.0-15.0-1.49","1701","2","""event"",""trial"",""time""
""fullscreenenter"",""1"",""5220""
""fullscreenexit"",""10"",""86862""
""blur"",""10"",""89111""
""focus"",""10"",""90355""
","""event"",""trial"",""time""
""blur"",""10"",""89111""
","""event"",""trial"",""time""
""focus"",""10"",""90355""
","""event"",""trial"",""time""
""fullscreenenter"",""1"",""5220""
","""event"",""trial"",""time""
""fullscreenexit"",""10"",""86862""
","","","","","","3384","images/apple5.png","","","memory_trial","3","maybe_new","","","","","","",""
"html-keyboard-response","143","485669","0.0-15.0-0.50","1701","2","""event"",""trial"",""time""
""fullscreenenter"",""1"",""5220""
""fullscreenexit"",""10"",""86862""
""blur"",""10"",""89111""
""focus"",""10"",""90355""
","""event"",""trial"",""time""
""blur"",""10"",""89111""
","""event"",""trial"",""time""
""focus"",""10"",""90355""
","""event"",""trial"",""time""
""fullscreenenter"",""1"",""5220""
","""event"",""trial"",""time""
""fullscreenexit"",""10"",""86862""
","","","","","","null","<div style=""font-size:60px;"">+</div>","null","","fixation","","","","","","","","",""
"memory-trial","144","490034","0.0-15.0-1.50","1701","2","""event"",""trial"",""time""
""fullscreenenter"",""1"",""5220""
""fullscreenexit"",""10"",""86862""
""blur"",""10"",""89111""
""focus"",""10"",""90355""
","""event"",""trial"",""time""
""blur"",""10"",""89111""
","""event"",""trial"",""time""
""focus"",""10"",""90355""
","""event"",""trial"",""time""
""fullscreenenter"",""1"",""5220""
","""event"",""trial"",""time""
""fullscreenexit"",""10"",""86862""
","","","","","","3359","images/banana5.png","","","memory_trial","3","maybe_new","","","","","","",""
"html-keyboard-response","145","490548","0.0-15.0-0.51","1701","2","""event"",""trial"",""time""
""fullscreenenter"",""1"",""5220""
""fullscreenexit"",""10"",""86862""
""blur"",""10"",""89111""
""focus"",""10"",""90355""
","""event"",""trial"",""time""
""blur"",""10"",""89111""
","""event"",""trial"",""time""
""focus"",""10"",""90355""
","""event"",""trial"",""time""
""fullscreenenter"",""1"",""5220""
","""event"",""trial"",""time""
""fullscreenexit"",""10"",""86862""
","","","","","","null","<div style=""font-size:60px;"">+</div>","null","","fixation","","","","","","","","",""
"memory-trial","146","492298","0.0-15.0-1.51","1701","2","""event"",""trial"",""time""
""fullscreenenter"",""1"",""5220""
""fullscreenexit"",""10"",""86862""
""blur"",""10"",""89111""
""focus"",""10"",""90355""
","""event"",""trial"",""time""
""blur"",""10"",""89111""
","""event"",""trial"",""time""
""focus"",""10"",""90355""
","""event"",""trial"",""time""
""fullscreenenter"",""1"",""5220""
","""event"",""trial"",""time""
""fullscreenexit"",""10"",""86862""
","","","","","","739","images/flower4.png","","","memory_trial","1","definitely_old","","","","","","",""
"html-keyboard-response","147","492810","0.0-15.0-0.52","1701","2","""event"",""trial"",""time""
""fullscreenenter"",""1"",""5220""
""fullscreenexit"",""10"",""86862""
""blur"",""10"",""89111""
""focus"",""10"",""90355""
","""event"",""trial"",""time""
""blur"",""10"",""89111""
","""event"",""trial"",""time""
""focus"",""10"",""90355""
","""event"",""trial"",""time""
""fullscreenenter"",""1"",""5220""
","""event"",""trial"",""time""
""fullscreenexit"",""10"",""86862""
","","","","","","null","<div style=""font-size:60px;"">+</div>","null","","fixation","","","","","","","","",""
"memory-trial","148","494801","0.0-15.0-1.52","1701","2","""event"",""trial"",""time""
""fullscreenenter"",""1"",""5220""
""fullscreenexit"",""10"",""86862""
""blur"",""10"",""89111""
""focus"",""10"",""90355""
","""event"",""trial"",""time""
""blur"",""10"",""89111""
","""event"",""trial"",""time""
""focus"",""10"",""90355""
","""event"",""trial"",""time""
""fullscreenenter"",""1"",""5220""
","""event"",""trial"",""time""
""fullscreenexit"",""10"",""86862""
","","","","","","975","images/sheep2.png","","","memory_trial","1","definitely_old","","","","","","",""
"html-keyboard-response","149","495314","0.0-15.0-0.53","1701","2","""event"",""trial"",""time""
""fullscreenenter"",""1"",""5220""
""fullscreenexit"",""10"",""86862""
""blur"",""10"",""89111""
""focus"",""10"",""90355""
","""event"",""trial"",""time""
""blur"",""10"",""89111""
","""event"",""trial"",""time""
""focus"",""10"",""90355""
","""event"",""trial"",""time""
""fullscreenenter"",""1"",""5220""
","""event"",""trial"",""time""
""fullscreenexit"",""10"",""86862""
","","","","","","null","<div style=""font-size:60px;"">+</div>","null","","fixation","","","","","","","","",""
"memory-trial","150","498094","0.0-15.0-1.53","1701","2","""event"",""trial"",""time""
""fullscreenenter"",""1"",""5220""
""fullscreenexit"",""10"",""86862""
""blur"",""10"",""89111""
""focus"",""10"",""90355""
","""event"",""trial"",""time""
""blur"",""10"",""89111""
","""event"",""trial"",""time""
""focus"",""10"",""90355""
","""event"",""trial"",""time""
""fullscreenenter"",""1"",""5220""
","""event"",""trial"",""time""
""fullscreenexit"",""10"",""86862""
","","","","","","1773","images/table1.png","","","memory_trial","4","definitely_new","","","","","","",""
"html-keyboard-response","151","498605","0.0-15.0-0.54","1701","2","""event"",""trial"",""time""
""fullscreenenter"",""1"",""5220""
""fullscreenexit"",""10"",""86862""
""blur"",""10"",""89111""
""focus"",""10"",""90355""
","""event"",""trial"",""time""
""blur"",""10"",""89111""
","""event"",""trial"",""time""
""focus"",""10"",""90355""
","""event"",""trial"",""time""
""fullscreenenter"",""1"",""5220""
","""event"",""trial"",""time""
""fullscreenexit"",""10"",""86862""
","","","","","","null","<div style=""font-size:60px;"">+</div>","null","","fixation","","","","","","","","",""
"memory-trial","152","501192","0.0-15.0-1.54","1701","2","""event"",""trial"",""time""
""fullscreenenter"",""1"",""5220""
""fullscreenexit"",""10"",""86862""
""blur"",""10"",""89111""
""focus"",""10"",""90355""
","""event"",""trial"",""time""
""blur"",""10"",""89111""
","""event"",""trial"",""time""
""focus"",""10"",""90355""
","""event"",""trial"",""time""
""fullscreenenter"",""1"",""5220""
","""event"",""trial"",""time""
""fullscreenexit"",""10"",""86862""
","","","","","","1585","images/banana1.png","","","memory_trial","4","definitely_new","","","","","","",""
"html-keyboard-response","153","501706","0.0-15.0-0.55","1701","2","""event"",""trial"",""time""
""fullscreenenter"",""1"",""5220""
""fullscreenexit"",""10"",""86862""
""blur"",""10"",""89111""
""focus"",""10"",""90355""
","""event"",""trial"",""time""
""blur"",""10"",""89111""
","""event"",""trial"",""time""
""focus"",""10"",""90355""
","""event"",""trial"",""time""
""fullscreenenter"",""1"",""5220""
","""event"",""trial"",""time""
""fullscreenexit"",""10"",""86862""
","","","","","","null","<div style=""font-size:60px;"">+</div>","null","","fixation","","","","","","","","",""
"memory-trial","154","503948","0.0-15.0-1.55","1701","2","""event"",""trial"",""time""
""fullscreenenter"",""1"",""5220""
""fullscreenexit"",""10"",""86862""
""blur"",""10"",""89111""
""focus"",""10"",""90355""
","""event"",""trial"",""time""
""blur"",""10"",""89111""
","""event"",""trial"",""time""
""focus"",""10"",""90355""
","""event"",""trial"",""time""
""fullscreenenter"",""1"",""5220""
","""event"",""trial"",""time""
""fullscreenexit"",""10"",""86862""
","","","","","","1233","images/orange2.png","","","memory_trial","3","maybe_new","","","","","","",""
"html-keyboard-response","155","504463","0.0-15.0-0.56","1701","2","""event"",""trial"",""time""
""fullscreenenter"",""1"",""5220""
""fullscreenexit"",""10"",""86862""
""blur"",""10"",""89111""
""focus"",""10"",""90355""
","""event"",""trial"",""time""
""blur"",""10"",""89111""
","""event"",""trial"",""time""
""focus"",""10"",""90355""
","""event"",""trial"",""time""
""fullscreenenter"",""1"",""5220""
","""event"",""trial"",""time""
""fullscreenexit"",""10"",""86862""
","","","","","","null","<div style=""font-size:60px;"">+</div>","null","","fixation","","","","","","","","",""
"memory-trial","156","506318","0.0-15.0-1.56","1701","2","""event"",""trial"",""time""
""fullscreenenter"",""1"",""5220""
""fullscreenexit"",""10"",""86862""
""blur"",""10"",""89111""
""focus"",""10"",""90355""
","""event"",""trial"",""time""
""blur"",""10"",""89111""
","""event"",""trial"",""time""
""focus"",""10"",""90355""
","""event"",""trial"",""time""
""fullscreenenter"",""1"",""5220""
","""event"",""trial"",""time""
""fullscreenexit"",""10"",""86862""
","","","","","","850","images/tree2.png","","","memory_trial","1","definitely_old","","","","","","",""
"html-keyboard-response","157","506835","0.0-15.0-0.57","1701","2","""event"",""trial"",""time""
""fullscreenenter"",""1"",""5220""
""fullscreenexit"",""10"",""86862""
""blur"",""10"",""89111""
""focus"",""10"",""90355""
","""event"",""trial"",""time""
""blur"",""10"",""89111""
","""event"",""trial"",""time""
""focus"",""10"",""90355""
","""event"",""trial"",""time""
""fullscreenenter"",""1"",""5220""
","""event"",""trial"",""time""
""fullscreenexit"",""10"",""86862""
","","","","","","null","<div style=""font-size:60px;"">+</div>","null","","fixation","","","","","","","","",""
"memory-trial","158","510077","0.0-15.0-1.57","1701","2","""event"",""trial"",""time""
""fullscreenenter"",""1"",""5220""
""fullscreenexit"",""10"",""86862""
""blur"",""10"",""89111""
""focus"",""10"",""90355""
","""event"",""trial"",""time""
""blur"",""10"",""89111""
","""event"",""trial"",""time""
""focus"",""10"",""90355""
","""event"",""trial"",""time""
""fullscreenenter"",""1"",""5220""
","""event"",""trial"",""time""
""fullscreenexit"",""10"",""86862""
","","","","","","2237","images/cactus5.png","","","memory_trial","2","maybe_old","","","","","","",""
"html-keyboard-response","159","510591","0.0-15.0-0.58","1701","2","""event"",""trial"",""time""
""fullscreenenter"",""1"",""5220""
""fullscreenexit"",""10"",""86862""
""blur"",""10"",""89111""
""focus"",""10"",""90355""
","""event"",""trial"",""time""
""blur"",""10"",""89111""
","""event"",""trial"",""time""
""focus"",""10"",""90355""
","""event"",""trial"",""time""
""fullscreenenter"",""1"",""5220""
","""event"",""trial"",""time""
""fullscreenexit"",""10"",""86862""
","","","","","","null","<div style=""font-size:60px;"">+</div>","null","","fixation","","","","","","","","",""
"memory-trial","160","512754","0.0-15.0-1.58","1701","2","""event"",""trial"",""time""
""fullscreenenter"",""1"",""5220""
""fullscreenexit"",""10"",""86862""
""blur"",""10"",""89111""
""focus"",""10"",""90355""
","""event"",""trial"",""time""
""blur"",""10"",""89111""
","""event"",""trial"",""time""
""focus"",""10"",""90355""
","""event"",""trial"",""time""
""fullscreenenter"",""1"",""5220""
","""event"",""trial"",""time""
""fullscreenexit"",""10"",""86862""
","","","","","","1156","images/orange4.png","","","memory_trial","4","definitely_new","","","","","","",""
"html-keyboard-response","161","513269","0.0-15.0-0.59","1701","2","""event"",""trial"",""time""
""fullscreenenter"",""1"",""5220""
""fullscreenexit"",""10"",""86862""
""blur"",""10"",""89111""
""focus"",""10"",""90355""
","""event"",""trial"",""time""
""blur"",""10"",""89111""
","""event"",""trial"",""time""
""focus"",""10"",""90355""
","""event"",""trial"",""time""
""fullscreenenter"",""1"",""5220""
","""event"",""trial"",""time""
""fullscreenexit"",""10"",""86862""
","","","","","","null","<div style=""font-size:60px;"">+</div>","null","","fixation","","","","","","","","",""
"memory-trial","162","515323","0.0-15.0-1.59","1701","2","""event"",""trial"",""time""
""fullscreenenter"",""1"",""5220""
""fullscreenexit"",""10"",""86862""
""blur"",""10"",""89111""
""focus"",""10"",""90355""
","""event"",""trial"",""time""
""blur"",""10"",""89111""
","""event"",""trial"",""time""
""focus"",""10"",""90355""
","""event"",""trial"",""time""
""fullscreenenter"",""1"",""5220""
","""event"",""trial"",""time""
""fullscreenexit"",""10"",""86862""
","","","","","","1045","images/tree4.png","","","memory_trial","4","definitely_new","","","","","","",""
"html-keyboard-response","163","515836","0.0-15.0-0.60","1701","2","""event"",""trial"",""time""
""fullscreenenter"",""1"",""5220""
""fullscreenexit"",""10"",""86862""
""blur"",""10"",""89111""
""focus"",""10"",""90355""
","""event"",""trial"",""time""
""blur"",""10"",""89111""
","""event"",""trial"",""time""
""focus"",""10"",""90355""
","""event"",""trial"",""time""
""fullscreenenter"",""1"",""5220""
","""event"",""trial"",""time""
""fullscreenexit"",""10"",""86862""
","","","","","","null","<div style=""font-size:60px;"">+</div>","null","","fixation","","","","","","","","",""
"memory-trial","164","517594","0.0-15.0-1.60","1701","2","""event"",""trial"",""time""
""fullscreenenter"",""1"",""5220""
""fullscreenexit"",""10"",""86862""
""blur"",""10"",""89111""
""focus"",""10"",""90355""
","""event"",""trial"",""time""
""blur"",""10"",""89111""
","""event"",""trial"",""time""
""focus"",""10"",""90355""
","""event"",""trial"",""time""
""fullscreenenter"",""1"",""5220""
","""event"",""trial"",""time""
""fullscreenexit"",""10"",""86862""
","","","","","","747","images/tree1.png","","","memory_trial","1","definitely_old","","","","","","",""
"html-keyboard-response","165","518107","0.0-15.0-0.61","1701","2","""event"",""trial"",""time""
""fullscreenenter"",""1"",""5220""
""fullscreenexit"",""10"",""86862""
""blur"",""10"",""89111""
""focus"",""10"",""90355""
","""event"",""trial"",""time""
""blur"",""10"",""89111""
","""event"",""trial"",""time""
""focus"",""10"",""90355""
","""event"",""trial"",""time""
""fullscreenenter"",""1"",""5220""
","""event"",""trial"",""time""
""fullscreenexit"",""10"",""86862""
","","","","","","null","<div style=""font-size:60px;"">+</div>","null","","fixation","","","","","","","","",""
"memory-trial","166","520258","0.0-15.0-1.61","1701","2","""event"",""trial"",""time""
""fullscreenenter"",""1"",""5220""
""fullscreenexit"",""10"",""86862""
""blur"",""10"",""89111""
""focus"",""10"",""90355""
","""event"",""trial"",""time""
""blur"",""10"",""89111""
","""event"",""trial"",""time""
""focus"",""10"",""90355""
","""event"",""trial"",""time""
""fullscreenenter"",""1"",""5220""
","""event"",""trial"",""time""
""fullscreenexit"",""10"",""86862""
","","","","","","1148","images/sofa1.png","","","memory_trial","2","maybe_old","","","","","","",""
"html-keyboard-response","167","520772","0.0-15.0-0.62","1701","2","""event"",""trial"",""time""
""fullscreenenter"",""1"",""5220""
""fullscreenexit"",""10"",""86862""
""blur"",""10"",""89111""
""focus"",""10"",""90355""
","""event"",""trial"",""time""
""blur"",""10"",""89111""
","""event"",""trial"",""time""
""focus"",""10"",""90355""
","""event"",""trial"",""time""
""fullscreenenter"",""1"",""5220""
","""event"",""trial"",""time""
""fullscreenexit"",""10"",""86862""
","","","","","","null","<div style=""font-size:60px;"">+</div>","null","","fixation","","","","","","","","",""
"memory-trial","168","524370","0.0-15.0-1.62","1701","2","""event"",""trial"",""time""
""fullscreenenter"",""1"",""5220""
""fullscreenexit"",""10"",""86862""
""blur"",""10"",""89111""
""focus"",""10"",""90355""
","""event"",""trial"",""time""
""blur"",""10"",""89111""
","""event"",""trial"",""time""
""focus"",""10"",""90355""
","""event"",""trial"",""time""
""fullscreenenter"",""1"",""5220""
","""event"",""trial"",""time""
""fullscreenexit"",""10"",""86862""
","","","","","","2582","images/flower5.png","","","memory_trial","3","maybe_new","","","","","","",""
