"trial_type","trial_index","time_elapsed","internal_node_id","subject_id","task_version","interactions","blur_events","focus_events","fullscreenenter_events","fullscreenexit_events","success","timeout","failed_images","failed_audio","failed_video","rt","stimulus","response","button_pressed","task_part","key_press","answer","correct","left_choice","middle_choice","right_choice","choice_positions","option_selected","block"
"pavlovia","0","6","0.0-0.0","1508","2","""event"",""trial"",""time""
""fullscreenenter"",""1"",""77108""
","
","
","""event"",""trial"",""time""
""fullscreenenter"",""1"",""77108""
","
","","","","","","","","","","","","","","","","","","",""
"fullscreen","1","78087","0.0-1.0","1508","2","""event"",""trial"",""time""
""fullscreenenter"",""1"",""77108""
","
","
","""event"",""trial"",""time""
""fullscreenenter"",""1"",""77108""
","
","true","","","","","","","","","","","","","","","","","",""
"preload","2","78166","0.0-2.0","1508","2","""event"",""trial"",""time""
""fullscreenenter"",""1"",""77108""
","
","
","""event"",""trial"",""time""
""fullscreenenter"",""1"",""77108""
","
","true","false","[]","[]","[]","","","","","","","","","","","","","",""
"audio-keyboard-response","3","82228","0.0-3.0","1508","2","""event"",""trial"",""time""
""fullscreenenter"",""1"",""77108""
","
","
","""event"",""trial"",""time""
""fullscreenenter"",""1"",""77108""
","
","","","","","","4039.999999999992","audio/beep_loop.wav"," ","","","","","","","","","","",""
"audio-button-response","4","86355","0.0-4.0","1508","2","""event"",""trial"",""time""
""fullscreenenter"",""1"",""77108""
","
","
","""event"",""trial"",""time""
""fullscreenenter"",""1"",""77108""
","
","","","","","","4131","audio/turtle.wav","3","","","","","","","","","","",""
"audio-button-response","5","95173","0.0-5.0","1508","2","""event"",""trial"",""time""
""fullscreenenter"",""1"",""77108""
","
","
","""event"",""trial"",""time""
""fullscreenenter"",""1"",""77108""
","
","","","","","","7808","audio/shark.wav","2","","","","","","","","","","",""
"preload","6","96712","0.0-6.0","1508","2","""event"",""trial"",""time""
""fullscreenenter"",""1"",""77108""
","
","
","""event"",""trial"",""time""
""fullscreenenter"",""1"",""77108""
","
","true","false","[]","[]","[]","","","","","","","","","","","","","",""
"learning-instructions","7","112774","0.0-7.0-0.0","1508","2","""event"",""trial"",""time""
""fullscreenenter"",""1"",""77108""
","
","
","""event"",""trial"",""time""
""fullscreenenter"",""1"",""77108""
","
","","","","","","11247.90000000596","<p> Welcome back! </p><p> Last week, you had to make choices about lots of different items.  </p>","","0","instructions","","","","","","","","",""
"learning-instructions","8","120414","0.0-7.0-0.1","1508","2","""event"",""trial"",""time""
""fullscreenenter"",""1"",""77108""
","
","
","""event"",""trial"",""time""
""fullscreenenter"",""1"",""77108""
","
","","","","","","3329.8999999910593","<p> Today, we are going to ask you to try to remember all the items. </p>","","0","instructions","","","","","","","","",""
"learning-instructions","9","136384","0.0-7.0-0.2","1508","2","""event"",""trial"",""time""
""fullscreenenter"",""1"",""77108""
","
","
","""event"",""trial"",""time""
""fullscreenenter"",""1"",""77108""
","
","","","","","","5828.79999999702","<p> On every trial, you will see an image. </p><p> The image may be an OLD image you saw during the games last week or it may be a NEW image that was not presented. </p>","","0","instructions","","","","","","","","",""
"learning-instructions","10","150359","0.0-7.0-0.3","1508","2","""event"",""trial"",""time""
""fullscreenenter"",""1"",""77108""
","
","
","""event"",""trial"",""time""
""fullscreenenter"",""1"",""77108""
","
","","","","","","5475.29999999702","<p> You need to select whether the image is:  </p><p>  'Definitely old', 'Maybe old', 'Maybe new', or 'Definitely new.'  </p><div class=""mem-choice-instructions-grid""><div class=""choice-option"" id=""choice-option-1"" ><img src=""images/definitely_old_1.png"" id=""choice-option-img-1"" class=""choice-option-img"" stage=""1""></div><div class=""choice-option"" id=""choice-option-2"" ><img src=""images/maybe_old_1.png"" id=""choice-option-img-2"" class=""choice-option-img"" stage=""1""></div><div class=""choice-option"" id=""choice-option-3"" ><img src=""images/maybe_new_1.png"" id=""choice-option-img-3"" class=""choice-option-img"" stage=""1""></div><div class=""choice-option"" id=""choice-option-4"" > <img src=""images/definitely_new_1.png"" id=""choice-option-img-4"" class=""choice-option-img"" stage=""1""></div></div>","","0","instructions","","","","","","","","",""
"learning-instructions","11","159134","0.0-7.0-0.4","1508","2","""event"",""trial"",""time""
""fullscreenenter"",""1"",""77108""
","
","
","""event"",""trial"",""time""
""fullscreenenter"",""1"",""77108""
","
","","","","","","2067.5","<p> You should use the 1, 2, 3, and 4 keys to make your responses.  </p><div class=""mem-choice-instructions-grid""><div class=""choice-option"" id=""choice-option-1"" ><img src=""images/definitely_old.png"" id=""choice-option-img-1"" class=""choice-option-img"" stage=""1""></div><div class=""choice-option"" id=""choice-option-2"" ><img src=""images/maybe_old.png"" id=""choice-option-img-2"" class=""choice-option-img"" stage=""1""></div><div class=""choice-option"" id=""choice-option-3"" ><img src=""images/maybe_new.png"" id=""choice-option-img-3"" class=""choice-option-img"" stage=""1""></div><div class=""choice-option"" id=""choice-option-4"" > <img src=""images/definitely_new.png"" id=""choice-option-img-4"" class=""choice-option-img"" stage=""1""></div></div>","","0","instructions","","","","","","","","",""
"learning-instructions","12","167464","0.0-7.0-0.5","1508","2","""event"",""trial"",""time""
""fullscreenenter"",""1"",""77108""
","
","
","""event"",""trial"",""time""
""fullscreenenter"",""1"",""77108""
","
","","","","","","1559.5","<p> You will have 10 seconds to make each response.  </p><p>  Make sure to respond before time runs out! </p>","","0","instructions","","","","","","","","",""
"learning-instructions","13","182745","0.0-7.0-0.6","1508","2","""event"",""trial"",""time""
""fullscreenenter"",""1"",""77108""
","
","
","""event"",""trial"",""time""
""fullscreenenter"",""1"",""77108""
","
","","","","","","7681.899999991059","<p> Today, you will see each image ONCE only.  </p><p>  That means none of the images will repeat. </p>","","0","instructions","","","","","","","","",""
"learning-instructions","14","196772","0.0-7.0-0.7","1508","2","""event"",""trial"",""time""
""fullscreenenter"",""1"",""77108""
","
","
","""event"",""trial"",""time""
""fullscreenenter"",""1"",""77108""
","
","","","","","","1347","<p> Before you play the real game, it is time to practice. </p><p>  Just like in the real game, some of the images in the practice will be ones you have seen before. </p><p>  Others will be entirely new. </p>","","0","instructions","","","","","","","","",""
"html-button-response","15","202628","0.0-8.0","1508","2","""event"",""trial"",""time""
""fullscreenenter"",""1"",""77108""
","
","
","""event"",""trial"",""time""
""fullscreenenter"",""1"",""77108""
","
","","","","","","5752.5","<p> Ready to practice? </p><p> Remember, use the 1, 2, 3, and 4 keys to make your responses. </p>","0","","instructions","","","","","","","","",""
"html-keyboard-response","16","203254","0.0-9.0-0.0","1508","2","""event"",""trial"",""time""
""fullscreenenter"",""1"",""77108""
","
","
","""event"",""trial"",""time""
""fullscreenenter"",""1"",""77108""
","
","","","","","","null","<div style=""font-size:60px;"">+</div>","null","","fixation","","","","","","","","",""
"memory-trial","17","207642","0.0-9.0-1.0","1508","2","""event"",""trial"",""time""
""fullscreenenter"",""1"",""77108""
","
","
","""event"",""trial"",""time""
""fullscreenenter"",""1"",""77108""
","
","","","","","","3368.2000000029802","images/racket1.png","","","practice","4","definitely_new","","","","","","",""
"html-keyboard-response","18","208163","0.0-9.0-0.1","1508","2","""event"",""trial"",""time""
""fullscreenenter"",""1"",""77108""
","
","
","""event"",""trial"",""time""
""fullscreenenter"",""1"",""77108""
","
","","","","","","null","<div style=""font-size:60px;"">+</div>","null","","fixation","","","","","","","","",""
"memory-trial","19","211592","0.0-9.0-1.1","1508","2","""event"",""trial"",""time""
""fullscreenenter"",""1"",""77108""
","
","
","""event"",""trial"",""time""
""fullscreenenter"",""1"",""77108""
","
","","","","","","2416","images/ball1.png","","","practice","3","maybe_new","","","","","","",""
"html-keyboard-response","20","212112","0.0-9.0-0.2","1508","2","""event"",""trial"",""time""
""fullscreenenter"",""1"",""77108""
","
","
","""event"",""trial"",""time""
""fullscreenenter"",""1"",""77108""
","
","","","","","","null","<div style=""font-size:60px;"">+</div>","null","","fixation","","","","","","","","",""
"memory-trial","21","216612","0.0-9.0-1.2","1508","2","""event"",""trial"",""time""
""fullscreenenter"",""1"",""77108""
","
","
","""event"",""trial"",""time""
""fullscreenenter"",""1"",""77108""
","
","","","","","","3482.7000000029802","images/racket4.png","","","practice","1","definitely_old","","","","","","",""
"html-keyboard-response","22","217123","0.0-9.0-0.3","1508","2","""event"",""trial"",""time""
""fullscreenenter"",""1"",""77108""
","
","
","""event"",""trial"",""time""
""fullscreenenter"",""1"",""77108""
","
","","","","","","null","<div style=""font-size:60px;"">+</div>","null","","fixation","","","","","","","","",""
"memory-trial","23","219243","0.0-9.0-1.3","1508","2","""event"",""trial"",""time""
""fullscreenenter"",""1"",""77108""
","
","
","""event"",""trial"",""time""
""fullscreenenter"",""1"",""77108""
","
","","","","","","1095.7999999970198","images/ball2.png","","","practice","1","definitely_old","","","","","","",""
"html-keyboard-response","24","219762","0.0-9.0-0.4","1508","2","""event"",""trial"",""time""
""fullscreenenter"",""1"",""77108""
","
","
","""event"",""trial"",""time""
""fullscreenenter"",""1"",""77108""
","
","","","","","","null","<div style=""font-size:60px;"">+</div>","null","","fixation","","","","","","","","",""
"memory-trial","25","222043","0.0-9.0-1.4","1508","2","""event"",""trial"",""time""
""fullscreenenter"",""1"",""77108""
","
","
","""event"",""trial"",""time""
""fullscreenenter"",""1"",""77108""
","
","","","","","","1267.6000000089407","images/ball4.png","","","practice","1","definitely_old","","","","","","",""
"html-keyboard-response","26","222562","0.0-9.0-0.5","1508","2","""event"",""trial"",""time""
""fullscreenenter"",""1"",""77108""
","
","
","""event"",""trial"",""time""
""fullscreenenter"",""1"",""77108""
","
","","","","","","null","<div style=""font-size:60px;"">+</div>","null","","fixation","","","","","","","","",""
"memory-trial","27","224532","0.0-9.0-1.5","1508","2","""event"",""trial"",""time""
""fullscreenenter"",""1"",""77108""
","
","
","""event"",""trial"",""time""
""fullscreenenter"",""1"",""77108""
","
","","","","","","947.7999999970198","images/racket2.png","","","practice","1","definitely_old","","","","","","",""
"html-keyboard-response","28","225042","0.0-9.0-0.6","1508","2","""event"",""trial"",""time""
""fullscreenenter"",""1"",""77108""
","
","
","""event"",""trial"",""time""
""fullscreenenter"",""1"",""77108""
","
","","","","","","null","<div style=""font-size:60px;"">+</div>","null","","fixation","","","","","","","","",""
"memory-trial","29","228472","0.0-9.0-1.6","1508","2","""event"",""trial"",""time""
""fullscreenenter"",""1"",""77108""
","
","
","""event"",""trial"",""time""
""fullscreenenter"",""1"",""77108""
","
","","","","","","2425.8999999910593","images/ball3.png","","","practice","2","maybe_old","","","","","","",""
"html-keyboard-response","30","228980","0.0-9.0-0.7","1508","2","""event"",""trial"",""time""
""fullscreenenter"",""1"",""77108""
","
","
","""event"",""trial"",""time""
""fullscreenenter"",""1"",""77108""
","
","","","","","","null","<div style=""font-size:60px;"">+</div>","null","","fixation","","","","","","","","",""
"memory-trial","31","231073","0.0-9.0-1.7","1508","2","""event"",""trial"",""time""
""fullscreenenter"",""1"",""77108""
","
","
","""event"",""trial"",""time""
""fullscreenenter"",""1"",""77108""
","
","","","","","","1086.2999999970198","images/racket3.png","","","practice","1","definitely_old","","","","","","",""
"learning-instructions","32","252958","0.0-10.0-0.0","1508","2","""event"",""trial"",""time""
""fullscreenenter"",""1"",""77108""
","
","
","""event"",""trial"",""time""
""fullscreenenter"",""1"",""77108""
","
","","","","","","13890.39999999106","<p> Great! You have completed the practice. </p><p> Before you start, we're going to ask you a few questions about how the game works.  </p>","","0","instructions","","","","","","","","",""
"preload","33","253363","0.0-11.0","1508","2","""event"",""trial"",""time""
""fullscreenenter"",""1"",""77108""
","
","
","""event"",""trial"",""time""
""fullscreenenter"",""1"",""77108""
","
","true","false","[]","[]","[]","","","","","","","","","","","","","",""
"comp-q","34","277273","0.0-12.0-0.0","1508","2","""event"",""trial"",""time""
""fullscreenenter"",""1"",""77108""
","
","
","""event"",""trial"",""time""
""fullscreenenter"",""1"",""77108""
","
","","","","","","18086.09999999404","<p> <b> True or False? </b> </p><p> In this game, you will only see each image once. </p>","","0","comp_question","","","true","","","","","",""
"comp-q","35","286649","0.0-12.0-1.0","1508","2","""event"",""trial"",""time""
""fullscreenenter"",""1"",""77108""
","
","
","""event"",""trial"",""time""
""fullscreenenter"",""1"",""77108""
","
","","","","","","3012.6000000089407","<p> <b> That's right! </b> You will see many different images <i> one time each </i> in this game. </p>","","0","comp_answer","","","","","","","","",""
"comp-q","36","297095","0.0-12.0-0.1","1508","2","""event"",""trial"",""time""
""fullscreenenter"",""1"",""77108""
","
","
","""event"",""trial"",""time""
""fullscreenenter"",""1"",""77108""
","
","","","","","","4628.9000000059605","<p> <b> True or False? </b> </p><p> You should use the mouse and click to make your response. </p>","","1","comp_question","","","true","","","","","",""
"comp-q","37","309277","0.0-12.0-1.1","1508","2","""event"",""trial"",""time""
""fullscreenenter"",""1"",""77108""
","
","
","""event"",""trial"",""time""
""fullscreenenter"",""1"",""77108""
","
","","","","","","4811.899999991059","<p><b> That's right! </b> You should use the '1', '2', '3', and '4' keys to make your response. </p>","","0","comp_answer","","","","","","","","",""
"comp-q","38","318379","0.0-12.0-0.2","1508","2","""event"",""trial"",""time""
""fullscreenenter"",""1"",""77108""
","
","
","""event"",""trial"",""time""
""fullscreenenter"",""1"",""77108""
","
","","","","","","3104.0999999940395","<p> <b> True or False? </b> </p><p> You will have as much time as you want to make each choice. </p>","","0","comp_question","","","false","","","","","",""
"comp-q","39","325017","0.0-12.0-1.2","1508","2","""event"",""trial"",""time""
""fullscreenenter"",""1"",""77108""
","
","
","""event"",""trial"",""time""
""fullscreenenter"",""1"",""77108""
","
","","","","","","1309.5","<p> <b>Incorrect.</b> You will only have 10 seconds to make each choice.</p>","","0","comp_answer","","","","","","","","",""
"learning-instructions","40","336115","0.0-13.0","1508","2","""event"",""trial"",""time""
""fullscreenenter"",""1"",""77108""
","
","
","""event"",""trial"",""time""
""fullscreenenter"",""1"",""77108""
","
","","","","","","2430.2999999970198","<p> Great! You are now ready to begin the game. </p><p> Remember, use the 1, 2, 3, and 4 keys to make your responses. </p>","","0","instructions","","","","","","","","",""
"preload","41","336802","0.0-14.0","1508","2","""event"",""trial"",""time""
""fullscreenenter"",""1"",""77108""
","
","
","""event"",""trial"",""time""
""fullscreenenter"",""1"",""77108""
","
","true","false","[]","[]","[]","","","","","","","","","","","","","",""
"html-keyboard-response","42","337304","0.0-15.0-0.0","1508","2","""event"",""trial"",""time""
""fullscreenenter"",""1"",""77108""
","
","
","""event"",""trial"",""time""
""fullscreenenter"",""1"",""77108""
","
","","","","","","null","<div style=""font-size:60px;"">+</div>","null","","fixation","","","","","","","","",""
"memory-trial","43","340754","0.0-15.0-1.0","1508","2","""event"",""trial"",""time""
""fullscreenenter"",""1"",""77108""
","
","
","""event"",""trial"",""time""
""fullscreenenter"",""1"",""77108""
","
","","","","","","2435.3999999910593","images/plane4.png","","","memory_trial","4","definitely_new","","","","","","",""
"html-keyboard-response","44","341263","0.0-15.0-0.1","1508","2","""event"",""trial"",""time""
""fullscreenenter"",""1"",""77108""
","
","
","""event"",""trial"",""time""
""fullscreenenter"",""1"",""77108""
","
","","","","","","null","<div style=""font-size:60px;"">+</div>","null","","fixation","","","","","","","","",""
"memory-trial","45","344654","0.0-15.0-1.1","1508","2","""event"",""trial"",""time""
""fullscreenenter"",""1"",""77108""
","
","
","""event"",""trial"",""time""
""fullscreenenter"",""1"",""77108""
","
","","","","","","2372.4000000059605","images/rodent4.png","","","memory_trial","1","definitely_old","","","","","","",""
"html-keyboard-response","46","345163","0.0-15.0-0.2","1508","2","""event"",""trial"",""time""
""fullscreenenter"",""1"",""77108""
","
","
","""event"",""trial"",""time""
""fullscreenenter"",""1"",""77108""
","
","","","","","","null","<div style=""font-size:60px;"">+</div>","null","","fixation","","","","","","","","",""
"memory-trial","47","347814","0.0-15.0-1.2","1508","2","""event"",""trial"",""time""
""fullscreenenter"",""1"",""77108""
","
","
","""event"",""trial"",""time""
""fullscreenenter"",""1"",""77108""
","
","","","","","","1640.1000000089407","images/tree1.png","","","memory_trial","4","definitely_new","","","","","","",""
"html-keyboard-response","48","348333","0.0-15.0-0.3","1508","2","""event"",""trial"",""time""
""fullscreenenter"",""1"",""77108""
","
","
","""event"",""trial"",""time""
""fullscreenenter"",""1"",""77108""
","
","","","","","","null","<div style=""font-size:60px;"">+</div>","null","","fixation","","","","","","","","",""
"memory-trial","49","352083","0.0-15.0-1.3","1508","2","""event"",""trial"",""time""
""fullscreenenter"",""1"",""77108""
","
","
","""event"",""trial"",""time""
""fullscreenenter"",""1"",""77108""
","
","","","","","","2740","images/flower4.png","","","memory_trial","2","maybe_old","","","","","","",""
"html-keyboard-response","50","352593","0.0-15.0-0.4","1508","2","""event"",""trial"",""time""
""fullscreenenter"",""1"",""77108""
","
","
","""event"",""trial"",""time""
""fullscreenenter"",""1"",""77108""
","
","","","","","","null","<div style=""font-size:60px;"">+</div>","null","","fixation","","","","","","","","",""
"memory-trial","51","355603","0.0-15.0-1.4","1508","2","""event"",""trial"",""time""
""fullscreenenter"",""1"",""77108""
","
","
","""event"",""trial"",""time""
""fullscreenenter"",""1"",""77108""
","
","","","","","","2003.7999999970198","images/banana2.png","","","memory_trial","4","definitely_new","","","","","","",""
"html-keyboard-response","52","356113","0.0-15.0-0.5","1508","2","""event"",""trial"",""time""
""fullscreenenter"",""1"",""77108""
","
","
","""event"",""trial"",""time""
""fullscreenenter"",""1"",""77108""
","
","","","","","","null","<div style=""font-size:60px;"">+</div>","null","","fixation","","","","","","","","",""
"memory-trial","53","358394","0.0-15.0-1.5","1508","2","""event"",""trial"",""time""
""fullscreenenter"",""1"",""77108""
","
","
","""event"",""trial"",""time""
""fullscreenenter"",""1"",""77108""
","
","","","","","","1271.0999999940395","images/rodent1.png","","","memory_trial","1","definitely_old","","","","","","",""
"html-keyboard-response","54","358913","0.0-15.0-0.6","1508","2","""event"",""trial"",""time""
""fullscreenenter"",""1"",""77108""
","
","
","""event"",""trial"",""time""
""fullscreenenter"",""1"",""77108""
","
","","","","","","null","<div style=""font-size:60px;"">+</div>","null","","fixation","","","","","","","","",""
"memory-trial","55","361239","0.0-15.0-1.6","1508","2","""event"",""trial"",""time""
""fullscreenenter"",""1"",""77108""
","
","
","""event"",""trial"",""time""
""fullscreenenter"",""1"",""77108""
","
","","","","","","1319.9000000059605","images/sheep5.png","","","memory_trial","1","definitely_old","","","","","","",""
"html-keyboard-response","56","361753","0.0-15.0-0.7","1508","2","""event"",""trial"",""time""
""fullscreenenter"",""1"",""77108""
","
","
","""event"",""trial"",""time""
""fullscreenenter"",""1"",""77108""
","
","","","","","","null","<div style=""font-size:60px;"">+</div>","null","","fixation","","","","","","","","",""
"memory-trial","57","365409","0.0-15.0-1.7","1508","2","""event"",""trial"",""time""
""fullscreenenter"",""1"",""77108""
","
","
","""event"",""trial"",""time""
""fullscreenenter"",""1"",""77108""
","
","","","","","","2651.5999999940395","images/apple4.png","","","memory_trial","3","maybe_new","","","","","","",""
"html-keyboard-response","58","365912","0.0-15.0-0.8","1508","2","""event"",""trial"",""time""
""fullscreenenter"",""1"",""77108""
","
","
","""event"",""trial"",""time""
""fullscreenenter"",""1"",""77108""
","
","","","","","","null","<div style=""font-size:60px;"">+</div>","null","","fixation","","","","","","","","",""
"memory-trial","59","370497","0.0-15.0-1.8","1508","2","""event"",""trial"",""time""
""fullscreenenter"",""1"",""77108""
","
","
","""event"",""trial"",""time""
""fullscreenenter"",""1"",""77108""
","
","","","","","","3578.5999999940395","images/truck1.png","","","memory_trial","4","definitely_new","","","","","","",""
"html-keyboard-response","60","371009","0.0-15.0-0.9","1508","2","""event"",""trial"",""time""
""fullscreenenter"",""1"",""77108""
","
","
","""event"",""trial"",""time""
""fullscreenenter"",""1"",""77108""
","
","","","","","","null","<div style=""font-size:60px;"">+</div>","null","","fixation","","","","","","","","",""
"memory-trial","61","373400","0.0-15.0-1.9","1508","2","""event"",""trial"",""time""
""fullscreenenter"",""1"",""77108""
","
","
","""event"",""trial"",""time""
""fullscreenenter"",""1"",""77108""
","
","","","","","","1386.2999999970198","images/plane2.png","","","memory_trial","1","definitely_old","","","","","","",""
"html-keyboard-response","62","373902","0.0-15.0-0.10","1508","2","""event"",""trial"",""time""
""fullscreenenter"",""1"",""77108""
","
","
","""event"",""trial"",""time""
""fullscreenenter"",""1"",""77108""
","
","","","","","","null","<div style=""font-size:60px;"">+</div>","null","","fixation","","","","","","","","",""
"memory-trial","63","378261","0.0-15.0-1.10","1508","2","""event"",""trial"",""time""
""fullscreenenter"",""1"",""77108""
","
","
","""event"",""trial"",""time""
""fullscreenenter"",""1"",""77108""
","
","","","","","","3354.7000000029802","images/straw4.png","","","memory_trial","1","definitely_old","","","","","","",""
"html-keyboard-response","64","378763","0.0-15.0-0.11","1508","2","""event"",""trial"",""time""
""fullscreenenter"",""1"",""77108""
","
","
","""event"",""trial"",""time""
""fullscreenenter"",""1"",""77108""
","
","","","","","","null","<div style=""font-size:60px;"">+</div>","null","","fixation","","","","","","","","",""
"memory-trial","65","382409","0.0-15.0-1.11","1508","2","""event"",""trial"",""time""
""fullscreenenter"",""1"",""77108""
","
","
","""event"",""trial"",""time""
""fullscreenenter"",""1"",""77108""
","
","","","","","","2639.6000000089407","images/dog2.png","","","memory_trial","4","definitely_new","","","","","","",""
"html-keyboard-response","66","382912","0.0-15.0-0.12","1508","2","""event"",""trial"",""time""
""fullscreenenter"",""1"",""77108""
","
","
","""event"",""trial"",""time""
""fullscreenenter"",""1"",""77108""
","
","","","","","","null","<div style=""font-size:60px;"">+</div>","null","","fixation","","","","","","","","",""
"memory-trial","67","385520","0.0-15.0-1.12","1508","2","""event"",""trial"",""time""
""fullscreenenter"",""1"",""77108""
","
","
","""event"",""trial"",""time""
""fullscreenenter"",""1"",""77108""
","
","","","","","","1601.800000011921","images/boat2.png","","","memory_trial","1","definitely_old","","","","","","",""
"html-keyboard-response","68","386021","0.0-15.0-0.13","1508","2","""event"",""trial"",""time""
""fullscreenenter"",""1"",""77108""
","
","
","""event"",""trial"",""time""
""fullscreenenter"",""1"",""77108""
","
","","","","","","null","<div style=""font-size:60px;"">+</div>","null","","fixation","","","","","","","","",""
"memory-trial","69","390208","0.0-15.0-1.13","1508","2","""event"",""trial"",""time""
""fullscreenenter"",""1"",""77108""
","
","
","""event"",""trial"",""time""
""fullscreenenter"",""1"",""77108""
","
","","","","","","3181","images/tree4.png","","","memory_trial","4","definitely_new","","","","","","",""
"html-keyboard-response","70","390710","0.0-15.0-0.14","1508","2","""event"",""trial"",""time""
""fullscreenenter"",""1"",""77108""
","
","
","""event"",""trial"",""time""
""fullscreenenter"",""1"",""77108""
","
","","","","","","null","<div style=""font-size:60px;"">+</div>","null","","fixation","","","","","","","","",""
"memory-trial","71","393015","0.0-15.0-1.14","1508","2","""event"",""trial"",""time""
""fullscreenenter"",""1"",""77108""
","
","
","""event"",""trial"",""time""
""fullscreenenter"",""1"",""77108""
","
","","","","","","1298.0999999940395","images/flower2.png","","","memory_trial","1","definitely_old","","","","","","",""
"html-keyboard-response","72","393517","0.0-15.0-0.15","1508","2","""event"",""trial"",""time""
""fullscreenenter"",""1"",""77108""
","
","
","""event"",""trial"",""time""
""fullscreenenter"",""1"",""77108""
","
","","","","","","null","<div style=""font-size:60px;"">+</div>","null","","fixation","","","","","","","","",""
"memory-trial","73","396863","0.0-15.0-1.15","1508","2","""event"",""trial"",""time""
""fullscreenenter"",""1"",""77108""
","
","
","""event"",""trial"",""time""
""fullscreenenter"",""1"",""77108""
","
","","","","","","2340.9000000059605","images/feline2.png","","","memory_trial","4","definitely_new","","","","","","",""
"html-keyboard-response","74","397365","0.0-15.0-0.16","1508","2","""event"",""trial"",""time""
""fullscreenenter"",""1"",""77108""
","
","
","""event"",""trial"",""time""
""fullscreenenter"",""1"",""77108""
","
","","","","","","null","<div style=""font-size:60px;"">+</div>","null","","fixation","","","","","","","","",""
"memory-trial","75","400463","0.0-15.0-1.16","1508","2","""event"",""trial"",""time""
""fullscreenenter"",""1"",""77108""
","
","
","""event"",""trial"",""time""
""fullscreenenter"",""1"",""77108""
","
","","","","","","2094.4000000059605","images/sheep3.png","","","memory_trial","1","definitely_old","","","","","","",""
"html-keyboard-response","76","400965","0.0-15.0-0.17","1508","2","""event"",""trial"",""time""
""fullscreenenter"",""1"",""77108""
","
","
","""event"",""trial"",""time""
""fullscreenenter"",""1"",""77108""
","
","","","","","","null","<div style=""font-size:60px;"">+</div>","null","","fixation","","","","","","","","",""
"memory-trial","77","403507","0.0-15.0-1.17","1508","2","""event"",""trial"",""time""
""fullscreenenter"",""1"",""77108""
","
","
","""event"",""trial"",""time""
""fullscreenenter"",""1"",""77108""
","
","","","","","","1538.6000000089407","images/dog5.png","","","memory_trial","1","definitely_old","","","","","","",""
"html-keyboard-response","78","404009","0.0-15.0-0.18","1508","2","""event"",""trial"",""time""
""fullscreenenter"",""1"",""77108""
","
","
","""event"",""trial"",""time""
""fullscreenenter"",""1"",""77108""
","
","","","","","","null","<div style=""font-size:60px;"">+</div>","null","","fixation","","","","","","","","",""
"memory-trial","79","406885","0.0-15.0-1.18","1508","2","""event"",""trial"",""time""
""fullscreenenter"",""1"",""77108""
","
","
","""event"",""trial"",""time""
""fullscreenenter"",""1"",""77108""
","
","","","","","","1870.2999999970198","images/cow2.png","","","memory_trial","1","definitely_old","","","","","","",""
"html-keyboard-response","80","407388","0.0-15.0-0.19","1508","2","""event"",""trial"",""time""
""fullscreenenter"",""1"",""77108""
","
","
","""event"",""trial"",""time""
""fullscreenenter"",""1"",""77108""
","
","","","","","","null","<div style=""font-size:60px;"">+</div>","null","","fixation","","","","","","","","",""
"memory-trial","81","413399","0.0-15.0-1.19","1508","2","""event"",""trial"",""time""
""fullscreenenter"",""1"",""77108""
","
","
","""event"",""trial"",""time""
""fullscreenenter"",""1"",""77108""
","
","","","","","","5007.20000000298","images/apple3.png","","","memory_trial","3","maybe_new","","","","","","",""
"html-keyboard-response","82","413902","0.0-15.0-0.20","1508","2","""event"",""trial"",""time""
""fullscreenenter"",""1"",""77108""
","
","
","""event"",""trial"",""time""
""fullscreenenter"",""1"",""77108""
","
","","","","","","null","<div style=""font-size:60px;"">+</div>","null","","fixation","","","","","","","","",""
"memory-trial","83","417846","0.0-15.0-1.20","1508","2","""event"",""trial"",""time""
""fullscreenenter"",""1"",""77108""
","
","
","""event"",""trial"",""time""
""fullscreenenter"",""1"",""77108""
","
","","","","","","2936.6000000089407","images/table1.png","","","memory_trial","1","definitely_old","","","","","","",""
"html-keyboard-response","84","418348","0.0-15.0-0.21","1508","2","""event"",""trial"",""time""
""fullscreenenter"",""1"",""77108""
","
","
","""event"",""trial"",""time""
""fullscreenenter"",""1"",""77108""
","
","","","","","","null","<div style=""font-size:60px;"">+</div>","null","","fixation","","","","","","","","",""
"memory-trial","85","422550","0.0-15.0-1.21","1508","2","""event"",""trial"",""time""
""fullscreenenter"",""1"",""77108""
","
","
","""event"",""trial"",""time""
""fullscreenenter"",""1"",""77108""
","
","","","","","","3198.7000000029802","images/cow5.png","","","memory_trial","2","maybe_old","","","","","","",""
"html-keyboard-response","86","423051","0.0-15.0-0.22","1508","2","""event"",""trial"",""time""
""fullscreenenter"",""1"",""77108""
","
","
","""event"",""trial"",""time""
""fullscreenenter"",""1"",""77108""
","
","","","","","","null","<div style=""font-size:60px;"">+</div>","null","","fixation","","","","","","","","",""
"memory-trial","87","427655","0.0-15.0-1.22","1508","2","""event"",""trial"",""time""
""fullscreenenter"",""1"",""77108""
","
","
","""event"",""trial"",""time""
""fullscreenenter"",""1"",""77108""
","
","","","","","","3596.7000000029802","images/sofa3.png","","","memory_trial","3","maybe_new","","","","","","",""
"html-keyboard-response","88","428157","0.0-15.0-0.23","1508","2","""event"",""trial"",""time""
""fullscreenenter"",""1"",""77108""
","
","
","""event"",""trial"",""time""
""fullscreenenter"",""1"",""77108""
","
","","","","","","null","<div style=""font-size:60px;"">+</div>","null","","fixation","","","","","","","","",""
"memory-trial","89","430821","0.0-15.0-1.23","1508","2","""event"",""trial"",""time""
""fullscreenenter"",""1"",""77108""
","
","
","""event"",""trial"",""time""
""fullscreenenter"",""1"",""77108""
","
","","","","","","1658.9000000059605","images/sheep4.png","","","memory_trial","1","definitely_old","","","","","","",""
"html-keyboard-response","90","431324","0.0-15.0-0.24","1508","2","""event"",""trial"",""time""
""fullscreenenter"",""1"",""77108""
","
","
","""event"",""trial"",""time""
""fullscreenenter"",""1"",""77108""
","
","","","","","","null","<div style=""font-size:60px;"">+</div>","null","","fixation","","","","","","","","",""
"memory-trial","91","433511","0.0-15.0-1.24","1508","2","""event"",""trial"",""time""
""fullscreenenter"",""1"",""77108""
","
","
","""event"",""trial"",""time""
""fullscreenenter"",""1"",""77108""
","
","","","","","","1182.199999988079","images/flower1.png","","","memory_trial","1","definitely_old","","","","","","",""
"html-keyboard-response","92","434019","0.0-15.0-0.25","1508","2","""event"",""trial"",""time""
""fullscreenenter"",""1"",""77108""
","
","
","""event"",""trial"",""time""
""fullscreenenter"",""1"",""77108""
","
","","","","","","null","<div style=""font-size:60px;"">+</div>","null","","fixation","","","","","","","","",""
"memory-trial","93","436118","0.0-15.0-1.25","1508","2","""event"",""trial"",""time""
""fullscreenenter"",""1"",""77108""
","
","
","""event"",""trial"",""time""
""fullscreenenter"",""1"",""77108""
","
","","","","","","1093.1000000089407","images/flower5.png","","","memory_trial","1","definitely_old","","","","","","",""
"html-keyboard-response","94","436620","0.0-15.0-0.26","1508","2","""event"",""trial"",""time""
""fullscreenenter"",""1"",""77108""
","
","
","""event"",""trial"",""time""
""fullscreenenter"",""1"",""77108""
","
","","","","","","null","<div style=""font-size:60px;"">+</div>","null","","fixation","","","","","","","","",""
"memory-trial","95","440255","0.0-15.0-1.26","1508","2","""event"",""trial"",""time""
""fullscreenenter"",""1"",""77108""
","
","
","""event"",""trial"",""time""
""fullscreenenter"",""1"",""77108""
","
","","","","","","2632.2000000029802","images/bush2.png","","","memory_trial","1","definitely_old","","","","","","",""
"html-keyboard-response","96","440758","0.0-15.0-0.27","1508","2","""event"",""trial"",""time""
""fullscreenenter"",""1"",""77108""
","
","
","""event"",""trial"",""time""
""fullscreenenter"",""1"",""77108""
","
","","","","","","null","<div style=""font-size:60px;"">+</div>","null","","fixation","","","","","","","","",""
"memory-trial","97","447591","0.0-15.0-1.27","1508","2","""event"",""trial"",""time""
""fullscreenenter"",""1"",""77108""
","
","
","""event"",""trial"",""time""
""fullscreenenter"",""1"",""77108""
","
","","","","","","5828.70000000298","images/apple1.png","","","memory_trial","2","maybe_old","","","","","","",""
"html-keyboard-response","98","448094","0.0-15.0-0.28","1508","2","""event"",""trial"",""time""
""fullscreenenter"",""1"",""77108""
","
","
","""event"",""trial"",""time""
""fullscreenenter"",""1"",""77108""
","
","","","","","","null","<div style=""font-size:60px;"">+</div>","null","","fixation","","","","","","","","",""
"memory-trial","99","452713","0.0-15.0-1.28","1508","2","""event"",""trial"",""time""
""fullscreenenter"",""1"",""77108""
","
","
","""event"",""trial"",""time""
""fullscreenenter"",""1"",""77108""
","
","","","","","","3614.7000000029802","images/banana4.png","","","memory_trial","1","definitely_old","","","","","","",""
"html-keyboard-response","100","453215","0.0-15.0-0.29","1508","2","""event"",""trial"",""time""
""fullscreenenter"",""1"",""77108""
","
","
","""event"",""trial"",""time""
""fullscreenenter"",""1"",""77108""
","
","","","","","","null","<div style=""font-size:60px;"">+</div>","null","","fixation","","","","","","","","",""
"memory-trial","101","454944","0.0-15.0-1.29","1508","2","""event"",""trial"",""time""
""fullscreenenter"",""1"",""77108""
","
","
","""event"",""trial"",""time""
""fullscreenenter"",""1"",""77108""
","
","","","","","","723.4000000059605","images/banana5.png","","","memory_trial","1","definitely_old","","","","","","",""
"html-keyboard-response","102","455447","0.0-15.0-0.30","1508","2","""event"",""trial"",""time""
""fullscreenenter"",""1"",""77108""
","
","
","""event"",""trial"",""time""
""fullscreenenter"",""1"",""77108""
","
","","","","","","null","<div style=""font-size:60px;"">+</div>","null","","fixation","","","","","","","","",""
"memory-trial","103","457818","0.0-15.0-1.30","1508","2","""event"",""trial"",""time""
""fullscreenenter"",""1"",""77108""
","
","
","""event"",""trial"",""time""
""fullscreenenter"",""1"",""77108""
","
","","","","","","1365","images/cow4.png","","","memory_trial","1","definitely_old","","","","","","",""
"html-keyboard-response","104","458320","0.0-15.0-0.31","1508","2","""event"",""trial"",""time""
""fullscreenenter"",""1"",""77108""
","
","
","""event"",""trial"",""time""
""fullscreenenter"",""1"",""77108""
","
","","","","","","null","<div style=""font-size:60px;"">+</div>","null","","fixation","","","","","","","","",""
"memory-trial","105","462106","0.0-15.0-1.31","1508","2","""event"",""trial"",""time""
""fullscreenenter"",""1"",""77108""
","
","
","""event"",""trial"",""time""
""fullscreenenter"",""1"",""77108""
","
","","","","","","2780.2999999970198","images/boat3.png","","","memory_trial","1","definitely_old","","","","","","",""
"html-keyboard-response","106","462607","0.0-15.0-0.32","1508","2","""event"",""trial"",""time""
""fullscreenenter"",""1"",""77108""
","
","
","""event"",""trial"",""time""
""fullscreenenter"",""1"",""77108""
","
","","","","","","null","<div style=""font-size:60px;"">+</div>","null","","fixation","","","","","","","","",""
"memory-trial","107","464855","0.0-15.0-1.32","1508","2","""event"",""trial"",""time""
""fullscreenenter"",""1"",""77108""
","
","
","""event"",""trial"",""time""
""fullscreenenter"",""1"",""77108""
","
","","","","","","1242","images/rodent3.png","","","memory_trial","1","definitely_old","","","","","","",""
"html-keyboard-response","108","465358","0.0-15.0-0.33","1508","2","""event"",""trial"",""time""
""fullscreenenter"",""1"",""77108""
","
","
","""event"",""trial"",""time""
""fullscreenenter"",""1"",""77108""
","
","","","","","","null","<div style=""font-size:60px;"">+</div>","null","","fixation","","","","","","","","",""
"memory-trial","109","474040","0.0-15.0-1.33","1508","2","""event"",""trial"",""time""
""fullscreenenter"",""1"",""77108""
","
","
","""event"",""trial"",""time""
""fullscreenenter"",""1"",""77108""
","
","","","","","","7679","images/bed2.png","","","memory_trial","3","maybe_new","","","","","","",""
"html-keyboard-response","110","474543","0.0-15.0-0.34","1508","2","""event"",""trial"",""time""
""fullscreenenter"",""1"",""77108""
","
","
","""event"",""trial"",""time""
""fullscreenenter"",""1"",""77108""
","
","","","","","","null","<div style=""font-size:60px;"">+</div>","null","","fixation","","","","","","","","",""
"memory-trial","111","478191","0.0-15.0-1.34","1508","2","""event"",""trial"",""time""
""fullscreenenter"",""1"",""77108""
","
","
","""event"",""trial"",""time""
""fullscreenenter"",""1"",""77108""
","
","","","","","","2643.6000000089407","images/orange2.png","","","memory_trial","1","definitely_old","","","","","","",""
"html-keyboard-response","112","478693","0.0-15.0-0.35","1508","2","""event"",""trial"",""time""
""fullscreenenter"",""1"",""77108""
","
","
","""event"",""trial"",""time""
""fullscreenenter"",""1"",""77108""
","
","","","","","","null","<div style=""font-size:60px;"">+</div>","null","","fixation","","","","","","","","",""
"memory-trial","113","481143","0.0-15.0-1.35","1508","2","""event"",""trial"",""time""
""fullscreenenter"",""1"",""77108""
","
","
","""event"",""trial"",""time""
""fullscreenenter"",""1"",""77108""
","
","","","","","","1444.5999999940395","images/dog4.png","","","memory_trial","1","definitely_old","","","","","","",""
"html-keyboard-response","114","481645","0.0-15.0-0.36","1508","2","""event"",""trial"",""time""
""fullscreenenter"",""1"",""77108""
","
","
","""event"",""trial"",""time""
""fullscreenenter"",""1"",""77108""
","
","","","","","","null","<div style=""font-size:60px;"">+</div>","null","","fixation","","","","","","","","",""
"memory-trial","115","483885","0.0-15.0-1.36","1508","2","""event"",""trial"",""time""
""fullscreenenter"",""1"",""77108""
","
","
","""event"",""trial"",""time""
""fullscreenenter"",""1"",""77108""
","
","","","","","","1233.9000000059605","images/cow3.png","","","memory_trial","1","definitely_old","","","","","","",""
"html-keyboard-response","116","484386","0.0-15.0-0.37","1508","2","""event"",""trial"",""time""
""fullscreenenter"",""1"",""77108""
","
","
","""event"",""trial"",""time""
""fullscreenenter"",""1"",""77108""
","
","","","","","","null","<div style=""font-size:60px;"">+</div>","null","","fixation","","","","","","","","",""
"memory-trial","117","487725","0.0-15.0-1.37","1508","2","""event"",""trial"",""time""
""fullscreenenter"",""1"",""77108""
","
","
","""event"",""trial"",""time""
""fullscreenenter"",""1"",""77108""
","
","","","","","","2335.2000000029802","images/straw3.png","","","memory_trial","1","definitely_old","","","","","","",""
"html-keyboard-response","118","488229","0.0-15.0-0.38","1508","2","""event"",""trial"",""time""
""fullscreenenter"",""1"",""77108""
","
","
","""event"",""trial"",""time""
""fullscreenenter"",""1"",""77108""
","
","","","","","","null","<div style=""font-size:60px;"">+</div>","null","","fixation","","","","","","","","",""
"memory-trial","119","491400","0.0-15.0-1.38","1508","2","""event"",""trial"",""time""
""fullscreenenter"",""1"",""77108""
","
","
","""event"",""trial"",""time""
""fullscreenenter"",""1"",""77108""
","
","","","","","","2167.9000000059605","images/rabbit3.png","","","memory_trial","4","definitely_new","","","","","","",""
"html-keyboard-response","120","491902","0.0-15.0-0.39","1508","2","""event"",""trial"",""time""
""fullscreenenter"",""1"",""77108""
","
","
","""event"",""trial"",""time""
""fullscreenenter"",""1"",""77108""
","
","","","","","","null","<div style=""font-size:60px;"">+</div>","null","","fixation","","","","","","","","",""
"memory-trial","121","494640","0.0-15.0-1.39","1508","2","""event"",""trial"",""time""
""fullscreenenter"",""1"",""77108""
","
","
","""event"",""trial"",""time""
""fullscreenenter"",""1"",""77108""
","
","","","","","","1733.5","images/goat1.png","","","memory_trial","1","definitely_old","","","","","","",""
"html-keyboard-response","122","495143","0.0-15.0-0.40","1508","2","""event"",""trial"",""time""
""fullscreenenter"",""1"",""77108""
","
","
","""event"",""trial"",""time""
""fullscreenenter"",""1"",""77108""
","
","","","","","","null","<div style=""font-size:60px;"">+</div>","null","","fixation","","","","","","","","",""
"memory-trial","123","499058","0.0-15.0-1.40","1508","2","""event"",""trial"",""time""
""fullscreenenter"",""1"",""77108""
","
","
","""event"",""trial"",""time""
""fullscreenenter"",""1"",""77108""
","
","","","","","","2908.7999999970198","images/apple2.png","","","memory_trial","1","definitely_old","","","","","","",""
"html-keyboard-response","124","499562","0.0-15.0-0.41","1508","2","""event"",""trial"",""time""
""fullscreenenter"",""1"",""77108""
","
","
","""event"",""trial"",""time""
""fullscreenenter"",""1"",""77108""
","
","","","","","","null","<div style=""font-size:60px;"">+</div>","null","","fixation","","","","","","","","",""
"memory-trial","125","503960","0.0-15.0-1.41","1508","2","""event"",""trial"",""time""
""fullscreenenter"",""1"",""77108""
","
","
","""event"",""trial"",""time""
""fullscreenenter"",""1"",""77108""
","
","","","","","","3391.0999999940395","images/bush3.png","","","memory_trial","1","definitely_old","","","","","","",""
"html-keyboard-response","126","504462","0.0-15.0-0.42","1508","2","""event"",""trial"",""time""
""fullscreenenter"",""1"",""77108""
","
","
","""event"",""trial"",""time""
""fullscreenenter"",""1"",""77108""
","
","","","","","","null","<div style=""font-size:60px;"">+</div>","null","","fixation","","","","","","","","",""
"memory-trial","127","511945","0.0-15.0-1.42","1508","2","""event"",""trial"",""time""
""fullscreenenter"",""1"",""77108""
","
","
","""event"",""trial"",""time""
""fullscreenenter"",""1"",""77108""
","
","","","","","","6478.29999999702","images/table3.png","","","memory_trial","4","definitely_new","","","","","","",""
"html-keyboard-response","128","512447","0.0-15.0-0.43","1508","2","""event"",""trial"",""time""
""fullscreenenter"",""1"",""77108""
","
","
","""event"",""trial"",""time""
""fullscreenenter"",""1"",""77108""
","
","","","","","","null","<div style=""font-size:60px;"">+</div>","null","","fixation","","","","","","","","",""
"memory-trial","129","519286","0.0-15.0-1.43","1508","2","""event"",""trial"",""time""
""fullscreenenter"",""1"",""77108""
","
","
","""event"",""trial"",""time""
""fullscreenenter"",""1"",""77108""
","
","","","","","","5835","images/chair3.png","","","memory_trial","3","maybe_new","","","","","","",""
"html-keyboard-response","130","519788","0.0-15.0-0.44","1508","2","""event"",""trial"",""time""
""fullscreenenter"",""1"",""77108""
","
","
","""event"",""trial"",""time""
""fullscreenenter"",""1"",""77108""
","
","","","","","","null","<div style=""font-size:60px;"">+</div>","null","","fixation","","","","","","","","",""
"memory-trial","131","524639","0.0-15.0-1.44","1508","2","""event"",""trial"",""time""
""fullscreenenter"",""1"",""77108""
","
","
","""event"",""trial"",""time""
""fullscreenenter"",""1"",""77108""
","
","","","","","","3844.8999999910593","images/train3.png","","","memory_trial","1","definitely_old","","","","","","",""
"html-keyboard-response","132","525141","0.0-15.0-0.45","1508","2","""event"",""trial"",""time""
""fullscreenenter"",""1"",""77108""
","
","
","""event"",""trial"",""time""
""fullscreenenter"",""1"",""77108""
","
","","","","","","null","<div style=""font-size:60px;"">+</div>","null","","fixation","","","","","","","","",""
"memory-trial","133","528927","0.0-15.0-1.45","1508","2","""event"",""trial"",""time""
""fullscreenenter"",""1"",""77108""
","
","
","""event"",""trial"",""time""
""fullscreenenter"",""1"",""77108""
","
","","","","","","2781.0999999940395","images/horse5.png","","","memory_trial","4","definitely_new","","","","","","",""
"html-keyboard-response","134","529430","0.0-15.0-0.46","1508","2","""event"",""trial"",""time""
""fullscreenenter"",""1"",""77108""
","
","
","""event"",""trial"",""time""
""fullscreenenter"",""1"",""77108""
","
","","","","","","null","<div style=""font-size:60px;"">+</div>","null","","fixation","","","","","","","","",""
"memory-trial","135","534680","0.0-15.0-1.46","1508","2","""event"",""trial"",""time""
""fullscreenenter"",""1"",""77108""
","
","
","""event"",""trial"",""time""
""fullscreenenter"",""1"",""77108""
","
","","","","","","4245.5","images/boat1.png","","","memory_trial","1","definitely_old","","","","","","",""
"html-button-response","136","544629","0.0-15.0-2.46-0.46","1508","2","""event"",""trial"",""time""
""fullscreenenter"",""1"",""77108""
","
","
","""event"",""trial"",""time""
""fullscreenenter"",""1"",""77108""
","
","","","","","","9945.699999988079","<p> Take a break! </p><p> Click the button to continue. </p>","0","","break","","","","","","","","",""
"html-keyboard-response","137","545131","0.0-15.0-0.47","1508","2","""event"",""trial"",""time""
""fullscreenenter"",""1"",""77108""
","
","
","""event"",""trial"",""time""
""fullscreenenter"",""1"",""77108""
","
","","","","","","null","<div style=""font-size:60px;"">+</div>","null","","fixation","","","","","","","","",""
"memory-trial","138","551760","0.0-15.0-1.47","1508","2","""event"",""trial"",""time""
""fullscreenenter"",""1"",""77108""
","
","
","""event"",""trial"",""time""
""fullscreenenter"",""1"",""77108""
","
","","","","","","5623.29999999702","images/cactus2.png","","","memory_trial","2","maybe_old","","","","","","",""
"html-keyboard-response","139","552263","0.0-15.0-0.48","1508","2","""event"",""trial"",""time""
""fullscreenenter"",""1"",""77108""
","
","
","""event"",""trial"",""time""
""fullscreenenter"",""1"",""77108""
","
","","","","","","null","<div style=""font-size:60px;"">+</div>","null","","fixation","","","","","","","","",""
"memory-trial","140","557321","0.0-15.0-1.48","1508","2","""event"",""trial"",""time""
""fullscreenenter"",""1"",""77108""
","
","
","""event"",""trial"",""time""
""fullscreenenter"",""1"",""77108""
","
","","","","","","4053.1000000089407","images/boat5.png","","","memory_trial","4","definitely_new","","","","","","",""
"html-keyboard-response","141","557824","0.0-15.0-0.49","1508","2","""event"",""trial"",""time""
""fullscreenenter"",""1"",""77108""
","
","
","""event"",""trial"",""time""
""fullscreenenter"",""1"",""77108""
","
","","","","","","null","<div style=""font-size:60px;"">+</div>","null","","fixation","","","","","","","","",""
"memory-trial","142","560681","0.0-15.0-1.49","1508","2","""event"",""trial"",""time""
""fullscreenenter"",""1"",""77108""
","
","
","""event"",""trial"",""time""
""fullscreenenter"",""1"",""77108""
","
","","","","","","1853.5","images/sofa2.png","","","memory_trial","1","definitely_old","","","","","","",""
"html-keyboard-response","143","561184","0.0-15.0-0.50","1508","2","""event"",""trial"",""time""
""fullscreenenter"",""1"",""77108""
","
","
","""event"",""trial"",""time""
""fullscreenenter"",""1"",""77108""
","
","","","","","","null","<div style=""font-size:60px;"">+</div>","null","","fixation","","","","","","","","",""
"memory-trial","144","563705","0.0-15.0-1.50","1508","2","""event"",""trial"",""time""
""fullscreenenter"",""1"",""77108""
","
","
","""event"",""trial"",""time""
""fullscreenenter"",""1"",""77108""
","
","","","","","","1515.2000000029802","images/sofa5.png","","","memory_trial","1","definitely_old","","","","","","",""
"html-keyboard-response","145","564207","0.0-15.0-0.51","1508","2","""event"",""trial"",""time""
""fullscreenenter"",""1"",""77108""
","
","
","""event"",""trial"",""time""
""fullscreenenter"",""1"",""77108""
","
","","","","","","null","<div style=""font-size:60px;"">+</div>","null","","fixation","","","","","","","","",""
"memory-trial","146","566616","0.0-15.0-1.51","1508","2","""event"",""trial"",""time""
""fullscreenenter"",""1"",""77108""
","
","
","""event"",""trial"",""time""
""fullscreenenter"",""1"",""77108""
","
","","","","","","1404.5999999940395","images/cactus4.png","","","memory_trial","4","definitely_new","","","","","","",""
"html-keyboard-response","147","567119","0.0-15.0-0.52","1508","2","""event"",""trial"",""time""
""fullscreenenter"",""1"",""77108""
","
","
","""event"",""trial"",""time""
""fullscreenenter"",""1"",""77108""
","
","","","","","","null","<div style=""font-size:60px;"">+</div>","null","","fixation","","","","","","","","",""
"memory-trial","148","569764","0.0-15.0-1.52","1508","2","""event"",""trial"",""time""
""fullscreenenter"",""1"",""77108""
","
","
","""event"",""trial"",""time""
""fullscreenenter"",""1"",""77108""
","
","","","","","","1639.199999988079","images/train1.png","","","memory_trial","4","definitely_new","","","","","","",""
"html-keyboard-response","149","570266","0.0-15.0-0.53","1508","2","""event"",""trial"",""time""
""fullscreenenter"",""1"",""77108""
","
","
","""event"",""trial"",""time""
""fullscreenenter"",""1"",""77108""
","
","","","","","","null","<div style=""font-size:60px;"">+</div>","null","","fixation","","","","","","","","",""
"memory-trial","150","572457","0.0-15.0-1.53","1508","2","""event"",""trial"",""time""
""fullscreenenter"",""1"",""77108""
","
","
","""event"",""trial"",""time""
""fullscreenenter"",""1"",""77108""
","
","","","","","","1184.0999999940395","images/rabbit4.png","","","memory_trial","1","definitely_old","","","","","","",""
"html-keyboard-response","151","572959","0.0-15.0-0.54","1508","2","""event"",""trial"",""time""
""fullscreenenter"",""1"",""77108""
","
","
","""event"",""trial"",""time""
""fullscreenenter"",""1"",""77108""
","
","","","","","","null","<div style=""font-size:60px;"">+</div>","null","","fixation","","","","","","","","",""
"memory-trial","152","574913","0.0-15.0-1.54","1508","2","""event"",""trial"",""time""
""fullscreenenter"",""1"",""77108""
","
","
","""event"",""trial"",""time""
""fullscreenenter"",""1"",""77108""
","
","","","","","","950.5999999940395","images/plane3.png","","","memory_trial","1","definitely_old","","","","","","",""
"html-keyboard-response","153","575416","0.0-15.0-0.55","1508","2","""event"",""trial"",""time""
""fullscreenenter"",""1"",""77108""
","
","
","""event"",""trial"",""time""
""fullscreenenter"",""1"",""77108""
","
","","","","","","null","<div style=""font-size:60px;"">+</div>","null","","fixation","","","","","","","","",""
"memory-trial","154","578825","0.0-15.0-1.55","1508","2","""event"",""trial"",""time""
""fullscreenenter"",""1"",""77108""
","
","
","""event"",""trial"",""time""
""fullscreenenter"",""1"",""77108""
","
","","","","","","2403.300000011921","images/cactus1.png","","","memory_trial","3","maybe_new","","","","","","",""
"html-keyboard-response","155","579333","0.0-15.0-0.56","1508","2","""event"",""trial"",""time""
""fullscreenenter"",""1"",""77108""
","
","
","""event"",""trial"",""time""
""fullscreenenter"",""1"",""77108""
","
","","","","","","null","<div style=""font-size:60px;"">+</div>","null","","fixation","","","","","","","","",""
"memory-trial","156","584090","0.0-15.0-1.56","1508","2","""event"",""trial"",""time""
""fullscreenenter"",""1"",""77108""
","
","
","""event"",""trial"",""time""
""fullscreenenter"",""1"",""77108""
","
","","","","","","3753.7999999970198","images/horse2.png","","","memory_trial","4","definitely_new","","","","","","",""
"html-keyboard-response","157","584591","0.0-15.0-0.57","1508","2","""event"",""trial"",""time""
""fullscreenenter"",""1"",""77108""
","
","
","""event"",""trial"",""time""
""fullscreenenter"",""1"",""77108""
","
","","","","","","null","<div style=""font-size:60px;"">+</div>","null","","fixation","","","","","","","","",""
"memory-trial","158","589958","0.0-15.0-1.57","1508","2","""event"",""trial"",""time""
""fullscreenenter"",""1"",""77108""
","
","
","""event"",""trial"",""time""
""fullscreenenter"",""1"",""77108""
","
","","","","","","4361.4000000059605","images/plane1.png","","","memory_trial","3","maybe_new","","","","","","",""
"html-keyboard-response","159","590462","0.0-15.0-0.58","1508","2","""event"",""trial"",""time""
""fullscreenenter"",""1"",""77108""
","
","
","""event"",""trial"",""time""
""fullscreenenter"",""1"",""77108""
","
","","","","","","null","<div style=""font-size:60px;"">+</div>","null","","fixation","","","","","","","","",""
"memory-trial","160","593294","0.0-15.0-1.58","1508","2","""event"",""trial"",""time""
""fullscreenenter"",""1"",""77108""
","
","
","""event"",""trial"",""time""
""fullscreenenter"",""1"",""77108""
","
","","","","","","1827.7000000029802","images/cactus3.png","","","memory_trial","1","definitely_old","","","","","","",""
"html-keyboard-response","161","593798","0.0-15.0-0.59","1508","2","""event"",""trial"",""time""
""fullscreenenter"",""1"",""77108""
","
","
","""event"",""trial"",""time""
""fullscreenenter"",""1"",""77108""
","
","","","","","","null","<div style=""font-size:60px;"">+</div>","null","","fixation","","","","","","","","",""
"memory-trial","162","599513","0.0-15.0-1.59","1508","2","""event"",""trial"",""time""
""fullscreenenter"",""1"",""77108""
","
","
","""event"",""trial"",""time""
""fullscreenenter"",""1"",""77108""
","
","","","","","","4712","images/train5.png","","","memory_trial","4","definitely_new","","","","","","",""
"html-keyboard-response","163","600015","0.0-15.0-0.60","1508","2","""event"",""trial"",""time""
""fullscreenenter"",""1"",""77108""
","
","
","""event"",""trial"",""time""
""fullscreenenter"",""1"",""77108""
","
","","","","","","null","<div style=""font-size:60px;"">+</div>","null","","fixation","","","","","","","","",""
"memory-trial","164","602568","0.0-15.0-1.60","1508","2","""event"",""trial"",""time""
""fullscreenenter"",""1"",""77108""
","
","
","""event"",""trial"",""time""
""fullscreenenter"",""1"",""77108""
","
","","","","","","1549.8999999910593","images/truck2.png","","","memory_trial","4","definitely_new","","","","","","",""
"html-keyboard-response","165","603071","0.0-15.0-0.61","1508","2","""event"",""trial"",""time""
""fullscreenenter"",""1"",""77108""
","
","
","""event"",""trial"",""time""
""fullscreenenter"",""1"",""77108""
","
","","","","","","null","<div style=""font-size:60px;"">+</div>","null","","fixation","","","","","","","","",""
"memory-trial","166","605294","0.0-15.0-1.61","1508","2","""event"",""trial"",""time""
""fullscreenenter"",""1"",""77108""
","
","
","""event"",""trial"",""time""
""fullscreenenter"",""1"",""77108""
","
","","","","","","1218.1000000089407","images/tree2.png","","","memory_trial","4","definitely_new","","","","","","",""
"html-keyboard-response","167","605796","0.0-15.0-0.62","1508","2","""event"",""trial"",""time""
""fullscreenenter"",""1"",""77108""
","
","
","""event"",""trial"",""time""
""fullscreenenter"",""1"",""77108""
","
","","","","","","null","<div style=""font-size:60px;"">+</div>","null","","fixation","","","","","","","","",""
"memory-trial","168","607759","0.0-15.0-1.62","1508","2","""event"",""trial"",""time""
""fullscreenenter"",""1"",""77108""
","
","
","""event"",""trial"",""time""
""fullscreenenter"",""1"",""77108""
","
","","","","","","956.5999999940395","images/rodent5.png","","","memory_trial","1","definitely_old","","","","","","",""
"html-keyboard-response","169","608262","0.0-15.0-0.63","1508","2","""event"",""trial"",""time""
""fullscreenenter"",""1"",""77108""
","
","
","""event"",""trial"",""time""
""fullscreenenter"",""1"",""77108""
","
","","","","","","null","<div style=""font-size:60px;"">+</div>","null","","fixation","","","","","","","","",""
"memory-trial","170","610455","0.0-15.0-1.63","1508","2","""event"",""trial"",""time""
""fullscreenenter"",""1"",""77108""
","
","
","""event"",""trial"",""time""
""fullscreenenter"",""1"",""77108""
","
","","","","","","1188.7000000029802","images/chair5.png","","","memory_trial","1","definitely_old","","","","","","",""
"html-keyboard-response","171","610958","0.0-15.0-0.64","1508","2","""event"",""trial"",""time""
""fullscreenenter"",""1"",""77108""
","
","
","""event"",""trial"",""time""
""fullscreenenter"",""1"",""77108""
","
","","","","","","null","<div style=""font-size:60px;"">+</div>","null","","fixation","","","","","","","","",""
"memory-trial","172","613134","0.0-15.0-1.64","1508","2","""event"",""trial"",""time""
""fullscreenenter"",""1"",""77108""
","
","
","""event"",""trial"",""time""
""fullscreenenter"",""1"",""77108""
","
","","","","","","1171.4000000059605","images/table4.png","","","memory_trial","1","definitely_old","","","","","","",""
"html-keyboard-response","173","613636","0.0-15.0-0.65","1508","2","""event"",""trial"",""time""
""fullscreenenter"",""1"",""77108""
","
","
","""event"",""trial"",""time""
""fullscreenenter"",""1"",""77108""
","
","","","","","","null","<div style=""font-size:60px;"">+</div>","null","","fixation","","","","","","","","",""
"memory-trial","174","615841","0.0-15.0-1.65","1508","2","""event"",""trial"",""time""
""fullscreenenter"",""1"",""77108""
","
","
","""event"",""trial"",""time""
""fullscreenenter"",""1"",""77108""
","
","","","","","","1199.2000000029802","images/plane5.png","","","memory_trial","1","definitely_old","","","","","","",""
"html-keyboard-response","175","616343","0.0-15.0-0.66","1508","2","""event"",""trial"",""time""
""fullscreenenter"",""1"",""77108""
","
","
","""event"",""trial"",""time""
""fullscreenenter"",""1"",""77108""
","
","","","","","","null","<div style=""font-size:60px;"">+</div>","null","","fixation","","","","","","","","",""
"memory-trial","176","618383","0.0-15.0-1.66","1508","2","""event"",""trial"",""time""
""fullscreenenter"",""1"",""77108""
","
","
","""event"",""trial"",""time""
""fullscreenenter"",""1"",""77108""
","
","","","","","","1035.2999999970198","images/goat5.png","","","memory_trial","1","definitely_old","","","","","","",""
"html-keyboard-response","177","618885","0.0-15.0-0.67","1508","2","""event"",""trial"",""time""
""fullscreenenter"",""1"",""77108""
","
","
","""event"",""trial"",""time""
""fullscreenenter"",""1"",""77108""
","
","","","","","","null","<div style=""font-size:60px;"">+</div>","null","","fixation","","","","","","","","",""
"memory-trial","178","622279","0.0-15.0-1.67","1508","2","""event"",""trial"",""time""
""fullscreenenter"",""1"",""77108""
","
","
","""event"",""trial"",""time""
""fullscreenenter"",""1"",""77108""
","
","","","","","","2390.5","images/dog3.png","","","memory_trial","2","maybe_old","","","","","","",""
"html-keyboard-response","179","622781","0.0-15.0-0.68","1508","2","""event"",""trial"",""time""
""fullscreenenter"",""1"",""77108""
","
","
","""event"",""trial"",""time""
""fullscreenenter"",""1"",""77108""
","
","","","","","","null","<div style=""font-size:60px;"">+</div>","null","","fixation","","","","","","","","",""
"memory-trial","180","625384","0.0-15.0-1.68","1508","2","""event"",""trial"",""time""
""fullscreenenter"",""1"",""77108""
","
","
","""event"",""trial"",""time""
""fullscreenenter"",""1"",""77108""
","
","","","","","","1598.8999999910593","images/chair4.png","","","memory_trial","1","definitely_old","","","","","","",""
"html-keyboard-response","181","625887","0.0-15.0-0.69","1508","2","""event"",""trial"",""time""
""fullscreenenter"",""1"",""77108""
","
","
","""event"",""trial"",""time""
""fullscreenenter"",""1"",""77108""
","
","","","","","","null","<div style=""font-size:60px;"">+</div>","null","","fixation","","","","","","","","",""
"memory-trial","182","627952","0.0-15.0-1.69","1508","2","""event"",""trial"",""time""
""fullscreenenter"",""1"",""77108""
","
","
","""event"",""trial"",""time""
""fullscreenenter"",""1"",""77108""
","
","","","","","","1059.7999999970198","images/goat2.png","","","memory_trial","1","definitely_old","","","","","","",""
"html-keyboard-response","183","628455","0.0-15.0-0.70","1508","2","""event"",""trial"",""time""
""fullscreenenter"",""1"",""77108""
","
","
","""event"",""trial"",""time""
""fullscreenenter"",""1"",""77108""
","
","","","","","","null","<div style=""font-size:60px;"">+</div>","null","","fixation","","","","","","","","",""
"memory-trial","184","630935","0.0-15.0-1.70","1508","2","""event"",""trial"",""time""
""fullscreenenter"",""1"",""77108""
","
","
","""event"",""trial"",""time""
""fullscreenenter"",""1"",""77108""
","
","","","","","","1477.4000000059605","images/feline1.png","","","memory_trial","4","definitely_new","","","","","","",""
"html-keyboard-response","185","631437","0.0-15.0-0.71","1508","2","""event"",""trial"",""time""
""fullscreenenter"",""1"",""77108""
","
","
","""event"",""trial"",""time""
""fullscreenenter"",""1"",""77108""
","
","","","","","","null","<div style=""font-size:60px;"">+</div>","null","","fixation","","","","","","","","",""
"memory-trial","186","633585","0.0-15.0-1.71","1508","2","""event"",""trial"",""time""
""fullscreenenter"",""1"",""77108""
","
","
","""event"",""trial"",""time""
""fullscreenenter"",""1"",""77108""
","
","","","","","","1141.9000000059605","images/bed3.png","","","memory_trial","4","definitely_new","","","","","","",""
"html-keyboard-response","187","634087","0.0-15.0-0.72","1508","2","""event"",""trial"",""time""
""fullscreenenter"",""1"",""77108""
","
","
","""event"",""trial"",""time""
""fullscreenenter"",""1"",""77108""
","
","","","","","","null","<div style=""font-size:60px;"">+</div>","null","","fixation","","","","","","","","",""
"memory-trial","188","637726","0.0-15.0-1.72","1508","2","""event"",""trial"",""time""
""fullscreenenter"",""1"",""77108""
","
","
","""event"",""trial"",""time""
""fullscreenenter"",""1"",""77108""
","
","","","","","","2634.5999999940395","images/banana1.png","","","memory_trial","3","maybe_new","","","","","","",""
"html-keyboard-response","189","638228","0.0-15.0-0.73","1508","2","""event"",""trial"",""time""
""fullscreenenter"",""1"",""77108""
","
","
","""event"",""trial"",""time""
""fullscreenenter"",""1"",""77108""
","
","","","","","","null","<div style=""font-size:60px;"">+</div>","null","","fixation","","","","","","","","",""
"memory-trial","190","640857","0.0-15.0-1.73","1508","2","""event"",""trial"",""time""
""fullscreenenter"",""1"",""77108""
","
","
","""event"",""trial"",""time""
""fullscreenenter"",""1"",""77108""
","
","","","","","","1625.0999999940395","images/train2.png","","","memory_trial","1","definitely_old","","","","","","",""
"html-keyboard-response","191","641360","0.0-15.0-0.74","1508","2","""event"",""trial"",""time""
""fullscreenenter"",""1"",""77108""
","
","
","""event"",""trial"",""time""
""fullscreenenter"",""1"",""77108""
","
","","","","","","null","<div style=""font-size:60px;"">+</div>","null","","fixation","","","","","","","","",""
"memory-trial","192","644130","0.0-15.0-1.74","1508","2","""event"",""trial"",""time""
""fullscreenenter"",""1"",""77108""
","
","
","""event"",""trial"",""time""
""fullscreenenter"",""1"",""77108""
","
","","","","","","1749","images/flower3.png","","","memory_trial","1","definitely_old","","","","","","",""
"html-keyboard-response","193","644632","0.0-15.0-0.75","1508","2","""event"",""trial"",""time""
""fullscreenenter"",""1"",""77108""
","
","
","""event"",""trial"",""time""
""fullscreenenter"",""1"",""77108""
","
","","","","","","null","<div style=""font-size:60px;"">+</div>","null","","fixation","","","","","","","","",""
"memory-trial","194","649841","0.0-15.0-1.75","1508","2","""event"",""trial"",""time""
""fullscreenenter"",""1"",""77108""
","
","
","""event"",""trial"",""time""
""fullscreenenter"",""1"",""77108""
","
","","","","","","4206.399999991059","images/orange3.png","","","memory_trial","3","maybe_new","","","","","","",""
"html-keyboard-response","195","650342","0.0-15.0-0.76","1508","2","""event"",""trial"",""time""
""fullscreenenter"",""1"",""77108""
","
","
","""event"",""trial"",""time""
""fullscreenenter"",""1"",""77108""
","
","","","","","","null","<div style=""font-size:60px;"">+</div>","null","","fixation","","","","","","","","",""
"memory-trial","196","660347","0.0-15.0-1.76","1508","2","""event"",""trial"",""time""
""fullscreenenter"",""1"",""77108""
","
","
","""event"",""trial"",""time""
""fullscreenenter"",""1"",""77108""
","
","","","","","","null","images/horse3.png","","","memory_trial","null","null","","","","","","",""
"html-keyboard-response","197","660850","0.0-15.0-0.77","1508","2","""event"",""trial"",""time""
""fullscreenenter"",""1"",""77108""
","
","
","""event"",""trial"",""time""
""fullscreenenter"",""1"",""77108""
","
","","","","","","null","<div style=""font-size:60px;"">+</div>","null","","fixation","","","","","","","","",""
"memory-trial","198","670222","0.0-15.0-1.77","1508","2","""event"",""trial"",""time""
""fullscreenenter"",""1"",""77108""
","
","
","""event"",""trial"",""time""
""fullscreenenter"",""1"",""77108""
","
","","","","","","8366.59999999404","images/table5.png","","","memory_trial","4","definitely_new","","","","","","",""
"html-keyboard-response","199","670724","0.0-15.0-0.78","1508","2","""event"",""trial"",""time""
""fullscreenenter"",""1"",""77108""
","
","
","""event"",""trial"",""time""
""fullscreenenter"",""1"",""77108""
","
","","","","","","null","<div style=""font-size:60px;"">+</div>","null","","fixation","","","","","","","","",""
"memory-trial","200","675545","0.0-15.0-1.78","1508","2","""event"",""trial"",""time""
""fullscreenenter"",""1"",""77108""
","
","
","""event"",""trial"",""time""
""fullscreenenter"",""1"",""77108""
","
","","","","","","3817","images/train4.png","","","memory_trial","2","maybe_old","","","","","","",""
"html-keyboard-response","201","676048","0.0-15.0-0.79","1508","2","""event"",""trial"",""time""
""fullscreenenter"",""1"",""77108""
","
","
","""event"",""trial"",""time""
""fullscreenenter"",""1"",""77108""
","
","","","","","","null","<div style=""font-size:60px;"">+</div>","null","","fixation","","","","","","","","",""
"memory-trial","202","679409","0.0-15.0-1.79","1508","2","""event"",""trial"",""time""
""fullscreenenter"",""1"",""77108""
","
","
","""event"",""trial"",""time""
""fullscreenenter"",""1"",""77108""
","
","","","","","","2357.7000000029802","images/dog1.png","","","memory_trial","4","definitely_new","","","","","","",""
"html-keyboard-response","203","679911","0.0-15.0-0.80","1508","2","""event"",""trial"",""time""
""fullscreenenter"",""1"",""77108""
","
","
","""event"",""trial"",""time""
""fullscreenenter"",""1"",""77108""
","
","","","","","","null","<div style=""font-size:60px;"">+</div>","null","","fixation","","","","","","","","",""
"memory-trial","204","682371","0.0-15.0-1.80","1508","2","""event"",""trial"",""time""
""fullscreenenter"",""1"",""77108""
","
","
","""event"",""trial"",""time""
""fullscreenenter"",""1"",""77108""
","
","","","","","","1452.4000000059605","images/straw2.png","","","memory_trial","1","definitely_old","","","","","","",""
"html-keyboard-response","205","682874","0.0-15.0-0.81","1508","2","""event"",""trial"",""time""
""fullscreenenter"",""1"",""77108""
","
","
","""event"",""trial"",""time""
""fullscreenenter"",""1"",""77108""
","
","","","","","","null","<div style=""font-size:60px;"">+</div>","null","","fixation","","","","","","","","",""
"memory-trial","206","684975","0.0-15.0-1.81","1508","2","""event"",""trial"",""time""
""fullscreenenter"",""1"",""77108""
","
","
","""event"",""trial"",""time""
""fullscreenenter"",""1"",""77108""
","
","","","","","","1096.8999999910593","images/chair1.png","","","memory_trial","1","definitely_old","","","","","","",""
"html-keyboard-response","207","685477","0.0-15.0-0.82","1508","2","""event"",""trial"",""time""
""fullscreenenter"",""1"",""77108""
","
","
","""event"",""trial"",""time""
""fullscreenenter"",""1"",""77108""
","
","","","","","","null","<div style=""font-size:60px;"">+</div>","null","","fixation","","","","","","","","",""
"memory-trial","208","690975","0.0-15.0-1.82","1508","2","""event"",""trial"",""time""
""fullscreenenter"",""1"",""77108""
","
","
","""event"",""trial"",""time""
""fullscreenenter"",""1"",""77108""
","
","","","","","","4494.5","images/sheep2.png","","","memory_trial","2","maybe_old","","","","","","",""
"html-keyboard-response","209","691477","0.0-15.0-0.83","1508","2","""event"",""trial"",""time""
""fullscreenenter"",""1"",""77108""
","
","
","""event"",""trial"",""time""
""fullscreenenter"",""1"",""77108""
","
","","","","","","null","<div style=""font-size:60px;"">+</div>","null","","fixation","","","","","","","","",""
"memory-trial","210","693672","0.0-15.0-1.83","1508","2","""event"",""trial"",""time""
""fullscreenenter"",""1"",""77108""
","
","
","""event"",""trial"",""time""
""fullscreenenter"",""1"",""77108""
","
","","","","","","1189.0999999940395","images/truck4.png","","","memory_trial","4","definitely_new","","","","","","",""
"html-keyboard-response","211","694175","0.0-15.0-0.84","1508","2","""event"",""trial"",""time""
""fullscreenenter"",""1"",""77108""
","
","
","""event"",""trial"",""time""
""fullscreenenter"",""1"",""77108""
","
","","","","","","null","<div style=""font-size:60px;"">+</div>","null","","fixation","","","","","","","","",""
"memory-trial","212","696768","0.0-15.0-1.84","1508","2","""event"",""trial"",""time""
""fullscreenenter"",""1"",""77108""
","
","
","""event"",""trial"",""time""
""fullscreenenter"",""1"",""77108""
","
","","","","","","1588.0999999940395","images/truck3.png","","","memory_trial","4","definitely_new","","","","","","",""
"html-keyboard-response","213","697270","0.0-15.0-0.85","1508","2","""event"",""trial"",""time""
""fullscreenenter"",""1"",""77108""
","
","
","""event"",""trial"",""time""
""fullscreenenter"",""1"",""77108""
","
","","","","","","null","<div style=""font-size:60px;"">+</div>","null","","fixation","","","","","","","","",""
"memory-trial","214","699791","0.0-15.0-1.85","1508","2","""event"",""trial"",""time""
""fullscreenenter"",""1"",""77108""
","
","
","""event"",""trial"",""time""
""fullscreenenter"",""1"",""77108""
","
","","","","","","1517.4000000059605","images/horse1.png","","","memory_trial","4","definitely_new","","","","","","",""
"html-keyboard-response","215","700292","0.0-15.0-0.86","1508","2","""event"",""trial"",""time""
""fullscreenenter"",""1"",""77108""
","
","
","""event"",""trial"",""time""
""fullscreenenter"",""1"",""77108""
","
","","","","","","null","<div style=""font-size:60px;"">+</div>","null","","fixation","","","","","","","","",""
"memory-trial","216","704104","0.0-15.0-1.86","1508","2","""event"",""trial"",""time""
""fullscreenenter"",""1"",""77108""
","
","
","""event"",""trial"",""time""
""fullscreenenter"",""1"",""77108""
","
","","","","","","2806.3999999910593","images/bush5.png","","","memory_trial","3","maybe_new","","","","","","",""
"html-keyboard-response","217","704607","0.0-15.0-0.87","1508","2","""event"",""trial"",""time""
""fullscreenenter"",""1"",""77108""
","
","
","""event"",""trial"",""time""
""fullscreenenter"",""1"",""77108""
","
","","","","","","null","<div style=""font-size:60px;"">+</div>","null","","fixation","","","","","","","","",""
"memory-trial","218","707727","0.0-15.0-1.87","1508","2","""event"",""trial"",""time""
""fullscreenenter"",""1"",""77108""
","
","
","""event"",""trial"",""time""
""fullscreenenter"",""1"",""77108""
","
","","","","","","2115.6000000089407","images/horse4.png","","","memory_trial","4","definitely_new","","","","","","",""
"html-keyboard-response","219","708230","0.0-15.0-0.88","1508","2","""event"",""trial"",""time""
""fullscreenenter"",""1"",""77108""
","
","
","""event"",""trial"",""time""
""fullscreenenter"",""1"",""77108""
","
","","","","","","null","<div style=""font-size:60px;"">+</div>","null","","fixation","","","","","","","","",""
"memory-trial","220","710221","0.0-15.0-1.88","1508","2","""event"",""trial"",""time""
""fullscreenenter"",""1"",""77108""
","
","
","""event"",""trial"",""time""
""fullscreenenter"",""1"",""77108""
","
","","","","","","986.7000000029802","images/rodent2.png","","","memory_trial","1","definitely_old","","","","","","",""
"html-keyboard-response","221","710723","0.0-15.0-0.89","1508","2","""event"",""trial"",""time""
""fullscreenenter"",""1"",""77108""
","
","
","""event"",""trial"",""time""
""fullscreenenter"",""1"",""77108""
","
","","","","","","null","<div style=""font-size:60px;"">+</div>","null","","fixation","","","","","","","","",""
"memory-trial","222","713824","0.0-15.0-1.89","1508","2","""event"",""trial"",""time""
""fullscreenenter"",""1"",""77108""
","
","
","""event"",""trial"",""time""
""fullscreenenter"",""1"",""77108""
","
","","","","","","2095","images/boat4.png","","","memory_trial","1","definitely_old","","","","","","",""
"html-keyboard-response","223","714325","0.0-15.0-0.90","1508","2","""event"",""trial"",""time""
""fullscreenenter"",""1"",""77108""
","
","
","""event"",""trial"",""time""
""fullscreenenter"",""1"",""77108""
","
","","","","","","null","<div style=""font-size:60px;"">+</div>","null","","fixation","","","","","","","","",""
"memory-trial","224","722768","0.0-15.0-1.90","1508","2","""event"",""trial"",""time""
""fullscreenenter"",""1"",""77108""
","
","
","""event"",""trial"",""time""
""fullscreenenter"",""1"",""77108""
","
","","","","","","7438.79999999702","images/sheep1.png","","","memory_trial","2","maybe_old","","","","","","",""
"html-keyboard-response","225","723272","0.0-15.0-0.91","1508","2","""event"",""trial"",""time""
""fullscreenenter"",""1"",""77108""
","
","
","""event"",""trial"",""time""
""fullscreenenter"",""1"",""77108""
","
","","","","","","null","<div style=""font-size:60px;"">+</div>","null","","fixation","","","","","","","","",""
"memory-trial","226","727151","0.0-15.0-1.91","1508","2","""event"",""trial"",""time""
""fullscreenenter"",""1"",""77108""
","
","
","""event"",""trial"",""time""
""fullscreenenter"",""1"",""77108""
","
","","","","","","2873.4000000059605","images/apple5.png","","","memory_trial","4","definitely_new","","","","","","",""
"html-keyboard-response","227","727653","0.0-15.0-0.92","1508","2","""event"",""trial"",""time""
""fullscreenenter"",""1"",""77108""
","
","
","""event"",""trial"",""time""
""fullscreenenter"",""1"",""77108""
","
","","","","","","null","<div style=""font-size:60px;"">+</div>","null","","fixation","","","","","","","","",""
"memory-trial","228","731495","0.0-15.0-1.92","1508","2","""event"",""trial"",""time""
""fullscreenenter"",""1"",""77108""
","
","
","""event"",""trial"",""time""
""fullscreenenter"",""1"",""77108""
","
","","","","","","2836.0999999940395","images/straw5.png","","","memory_trial","2","maybe_old","","","","","","",""
"html-keyboard-response","229","731998","0.0-15.0-0.93","1508","2","""event"",""trial"",""time""
""fullscreenenter"",""1"",""77108""
","
","
","""event"",""trial"",""time""
""fullscreenenter"",""1"",""77108""
","
","","","","","","null","<div style=""font-size:60px;"">+</div>","null","","fixation","","","","","","","","",""
"memory-trial","230","734149","0.0-15.0-1.93","1508","2","""event"",""trial"",""time""
""fullscreenenter"",""1"",""77108""
","
","
","""event"",""trial"",""time""
""fullscreenenter"",""1"",""77108""
","
","","","","","","1146.7999999970198","images/bed4.png","","","memory_trial","4","definitely_new","","","","","","",""
"html-keyboard-response","231","734652","0.0-15.0-0.94","1508","2","""event"",""trial"",""time""
""fullscreenenter"",""1"",""77108""
","
","
","""event"",""trial"",""time""
""fullscreenenter"",""1"",""77108""
","
","","","","","","null","<div style=""font-size:60px;"">+</div>","null","","fixation","","","","","","","","",""
"memory-trial","232","737008","0.0-15.0-1.94","1508","2","""event"",""trial"",""time""
""fullscreenenter"",""1"",""77108""
","
","
","""event"",""trial"",""time""
""fullscreenenter"",""1"",""77108""
","
","","","","","","1350","images/feline5.png","","","memory_trial","4","definitely_new","","","","","","",""
"html-keyboard-response","233","737511","0.0-15.0-0.95","1508","2","""event"",""trial"",""time""
""fullscreenenter"",""1"",""77108""
","
","
","""event"",""trial"",""time""
""fullscreenenter"",""1"",""77108""
","
","","","","","","null","<div style=""font-size:60px;"">+</div>","null","","fixation","","","","","","","","",""
"memory-trial","234","742385","0.0-15.0-1.95","1508","2","""event"",""trial"",""time""
""fullscreenenter"",""1"",""77108""
","
","
","""event"",""trial"",""time""
""fullscreenenter"",""1"",""77108""
","
","","","","","","3870.0999999940395","images/orange4.png","","","memory_trial","3","maybe_new","","","","","","",""
"html-keyboard-response","235","742887","0.0-15.0-0.96","1508","2","""event"",""trial"",""time""
""fullscreenenter"",""1"",""77108""
","
","
","""event"",""trial"",""time""
""fullscreenenter"",""1"",""77108""
","
","","","","","","null","<div style=""font-size:60px;"">+</div>","null","","fixation","","","","","","","","",""
"memory-trial","236","746550","0.0-15.0-1.96","1508","2","""event"",""trial"",""time""
""fullscreenenter"",""1"",""77108""
","
","
","""event"",""trial"",""time""
""fullscreenenter"",""1"",""77108""
","
","","","","","","2659.4000000059605","images/rabbit5.png","","","memory_trial","1","definitely_old","","","","","","",""
"html-keyboard-response","237","747053","0.0-15.0-0.97","1508","2","""event"",""trial"",""time""
""fullscreenenter"",""1"",""77108""
","
","
","""event"",""trial"",""time""
""fullscreenenter"",""1"",""77108""
","
","","","","","","null","<div style=""font-size:60px;"">+</div>","null","","fixation","","","","","","","","",""
"memory-trial","238","754191","0.0-15.0-1.97","1508","2","""event"",""trial"",""time""
""fullscreenenter"",""1"",""77108""
","
","
","""event"",""trial"",""time""
""fullscreenenter"",""1"",""77108""
","
","","","","","","6134.20000000298","images/bush1.png","","","memory_trial","4","definitely_new","","","","","","",""
"html-keyboard-response","239","754695","0.0-15.0-0.98","1508","2","""event"",""trial"",""time""
""fullscreenenter"",""1"",""77108""
","
","
","""event"",""trial"",""time""
""fullscreenenter"",""1"",""77108""
","
","","","","","","null","<div style=""font-size:60px;"">+</div>","null","","fixation","","","","","","","","",""
"memory-trial","240","763050","0.0-15.0-1.98","1508","2","""event"",""trial"",""time""
""fullscreenenter"",""1"",""77108""
","
","
","""event"",""trial"",""time""
""fullscreenenter"",""1"",""77108""
","
","","","","","","7334.5","images/truck5.png","","","memory_trial","4","definitely_new","","","","","","",""
"html-keyboard-response","241","763552","0.0-15.0-0.99","1508","2","""event"",""trial"",""time""
""fullscreenenter"",""1"",""77108""
","
","
","""event"",""trial"",""time""
""fullscreenenter"",""1"",""77108""
","
","","","","","","null","<div style=""font-size:60px;"">+</div>","null","","fixation","","","","","","","","",""
"memory-trial","242","767002","0.0-15.0-1.99","1508","2","""event"",""trial"",""time""
""fullscreenenter"",""1"",""77108""
","
","
","""event"",""trial"",""time""
""fullscreenenter"",""1"",""77108""
","
","","","","","","2445.7999999970198","images/cactus5.png","","","memory_trial","3","maybe_new","","","","","","",""
"html-keyboard-response","243","767506","0.0-15.0-0.100","1508","2","""event"",""trial"",""time""
""fullscreenenter"",""1"",""77108""
","
","
","""event"",""trial"",""time""
""fullscreenenter"",""1"",""77108""
","
","","","","","","null","<div style=""font-size:60px;"">+</div>","null","","fixation","","","","","","","","",""
"memory-trial","244","773471","0.0-15.0-1.100","1508","2","""event"",""trial"",""time""
""fullscreenenter"",""1"",""77108""
","
","
","""event"",""trial"",""time""
""fullscreenenter"",""1"",""77108""
","
","","","","","","4962.100000008941","images/orange1.png","","","memory_trial","3","maybe_new","","","","","","",""
"html-keyboard-response","245","773973","0.0-15.0-0.101","1508","2","""event"",""trial"",""time""
""fullscreenenter"",""1"",""77108""
","
","
","""event"",""trial"",""time""
""fullscreenenter"",""1"",""77108""
","
","","","","","","null","<div style=""font-size:60px;"">+</div>","null","","fixation","","","","","","","","",""
"memory-trial","246","777328","0.0-15.0-1.101","1508","2","""event"",""trial"",""time""
""fullscreenenter"",""1"",""77108""
","
","
","""event"",""trial"",""time""
""fullscreenenter"",""1"",""77108""
","
","","","","","","2349.5999999940395","images/sofa1.png","","","memory_trial","4","definitely_new","","","","","","",""
"html-button-response","247","861772","0.0-15.0-2.101-0.101","1508","2","""event"",""trial"",""time""
""fullscreenenter"",""1"",""77108""
","
","
","""event"",""trial"",""time""
""fullscreenenter"",""1"",""77108""
","
","","","","","","84443.09999999404","<p> Take a break! </p><p> Click the button to continue. </p>","0","","break","","","","","","","","",""
"html-keyboard-response","248","862274","0.0-15.0-0.102","1508","2","""event"",""trial"",""time""
""fullscreenenter"",""1"",""77108""
","
","
","""event"",""trial"",""time""
""fullscreenenter"",""1"",""77108""
","
","","","","","","null","<div style=""font-size:60px;"">+</div>","null","","fixation","","","","","","","","",""
"memory-trial","249","865197","0.0-15.0-1.102","1508","2","""event"",""trial"",""time""
""fullscreenenter"",""1"",""77108""
","
","
","""event"",""trial"",""time""
""fullscreenenter"",""1"",""77108""
","
","","","","","","1916.2000000029802","images/table2.png","","","memory_trial","1","definitely_old","","","","","","",""
"html-keyboard-response","250","865700","0.0-15.0-0.103","1508","2","""event"",""trial"",""time""
""fullscreenenter"",""1"",""77108""
""blur"",""251"",""866313""
""focus"",""251"",""870254""
","""event"",""trial"",""time""
""blur"",""251"",""866313""
","""event"",""trial"",""time""
""focus"",""251"",""870254""
","""event"",""trial"",""time""
""fullscreenenter"",""1"",""77108""
","
","","","","","","null","<div style=""font-size:60px;"">+</div>","null","","fixation","","","","","","","","",""
"memory-trial","251","871968","0.0-15.0-1.103","1508","2","""event"",""trial"",""time""
""fullscreenenter"",""1"",""77108""
""blur"",""251"",""866313""
""focus"",""251"",""870254""
","""event"",""trial"",""time""
""blur"",""251"",""866313""
","""event"",""trial"",""time""
""focus"",""251"",""870254""
","""event"",""trial"",""time""
""fullscreenenter"",""1"",""77108""
","
","","","","","","5265.100000008941","images/cow1.png","","","memory_trial","1","definitely_old","","","","","","",""
"html-keyboard-response","252","872470","0.0-15.0-0.104","1508","2","""event"",""trial"",""time""
""fullscreenenter"",""1"",""77108""
""blur"",""251"",""866313""
""focus"",""251"",""870254""
","""event"",""trial"",""time""
""blur"",""251"",""866313""
","""event"",""trial"",""time""
""focus"",""251"",""870254""
","""event"",""trial"",""time""
""fullscreenenter"",""1"",""77108""
","
","","","","","","null","<div style=""font-size:60px;"">+</div>","null","","fixation","","","","","","","","",""
"memory-trial","253","875534","0.0-15.0-1.104","1508","2","""event"",""trial"",""time""
""fullscreenenter"",""1"",""77108""
""blur"",""251"",""866313""
""focus"",""251"",""870254""
","""event"",""trial"",""time""
""blur"",""251"",""866313""
","""event"",""trial"",""time""
""focus"",""251"",""870254""
","""event"",""trial"",""time""
""fullscreenenter"",""1"",""77108""
","
","","","","","","2057.5","images/sofa4.png","","","memory_trial","4","definitely_new","","","","","","",""
"html-keyboard-response","254","876035","0.0-15.0-0.105","1508","2","""event"",""trial"",""time""
""fullscreenenter"",""1"",""77108""
""blur"",""251"",""866313""
""focus"",""251"",""870254""
","""event"",""trial"",""time""
""blur"",""251"",""866313""
","""event"",""trial"",""time""
""focus"",""251"",""870254""
","""event"",""trial"",""time""
""fullscreenenter"",""1"",""77108""
","
","","","","","","null","<div style=""font-size:60px;"">+</div>","null","","fixation","","","","","","","","",""
"memory-trial","255","882144","0.0-15.0-1.105","1508","2","""event"",""trial"",""time""
""fullscreenenter"",""1"",""77108""
""blur"",""251"",""866313""
""focus"",""251"",""870254""
","""event"",""trial"",""time""
""blur"",""251"",""866313""
","""event"",""trial"",""time""
""focus"",""251"",""870254""
","""event"",""trial"",""time""
""fullscreenenter"",""1"",""77108""
","
","","","","","","5103.899999991059","images/rabbit2.png","","","memory_trial","2","maybe_old","","","","","","",""
"html-keyboard-response","256","882645","0.0-15.0-0.106","1508","2","""event"",""trial"",""time""
""fullscreenenter"",""1"",""77108""
""blur"",""251"",""866313""
""focus"",""251"",""870254""
","""event"",""trial"",""time""
""blur"",""251"",""866313""
","""event"",""trial"",""time""
""focus"",""251"",""870254""
","""event"",""trial"",""time""
""fullscreenenter"",""1"",""77108""
","
","","","","","","null","<div style=""font-size:60px;"">+</div>","null","","fixation","","","","","","","","",""
"memory-trial","257","886819","0.0-15.0-1.106","1508","2","""event"",""trial"",""time""
""fullscreenenter"",""1"",""77108""
""blur"",""251"",""866313""
""focus"",""251"",""870254""
","""event"",""trial"",""time""
""blur"",""251"",""866313""
","""event"",""trial"",""time""
""focus"",""251"",""870254""
","""event"",""trial"",""time""
""fullscreenenter"",""1"",""77108""
","
","","","","","","3164.7999999970198","images/rabbit1.png","","","memory_trial","2","maybe_old","","","","","","",""
"html-keyboard-response","258","887321","0.0-15.0-0.107","1508","2","""event"",""trial"",""time""
""fullscreenenter"",""1"",""77108""
""blur"",""251"",""866313""
""focus"",""251"",""870254""
","""event"",""trial"",""time""
""blur"",""251"",""866313""
","""event"",""trial"",""time""
""focus"",""251"",""870254""
","""event"",""trial"",""time""
""fullscreenenter"",""1"",""77108""
","
","","","","","","null","<div style=""font-size:60px;"">+</div>","null","","fixation","","","","","","","","",""
"memory-trial","259","890191","0.0-15.0-1.107","1508","2","""event"",""trial"",""time""
""fullscreenenter"",""1"",""77108""
""blur"",""251"",""866313""
""focus"",""251"",""870254""
","""event"",""trial"",""time""
""blur"",""251"",""866313""
","""event"",""trial"",""time""
""focus"",""251"",""870254""
","""event"",""trial"",""time""
""fullscreenenter"",""1"",""77108""
","
","","","","","","1865.2000000029802","images/tree3.png","","","memory_trial","4","definitely_new","","","","","","",""
"html-keyboard-response","260","890692","0.0-15.0-0.108","1508","2","""event"",""trial"",""time""
""fullscreenenter"",""1"",""77108""
""blur"",""251"",""866313""
""focus"",""251"",""870254""
","""event"",""trial"",""time""
""blur"",""251"",""866313""
","""event"",""trial"",""time""
""focus"",""251"",""870254""
","""event"",""trial"",""time""
""fullscreenenter"",""1"",""77108""
","
","","","","","","null","<div style=""font-size:60px;"">+</div>","null","","fixation","","","","","","","","",""
"memory-trial","261","894471","0.0-15.0-1.108","1508","2","""event"",""trial"",""time""
""fullscreenenter"",""1"",""77108""
""blur"",""251"",""866313""
""focus"",""251"",""870254""
","""event"",""trial"",""time""
""blur"",""251"",""866313""
","""event"",""trial"",""time""
""focus"",""251"",""870254""
","""event"",""trial"",""time""
""fullscreenenter"",""1"",""77108""
","
","","","","","","2775.9000000059605","images/feline3.png","","","memory_trial","4","definitely_new","","","","","","",""
"html-keyboard-response","262","894973","0.0-15.0-0.109","1508","2","""event"",""trial"",""time""
""fullscreenenter"",""1"",""77108""
""blur"",""251"",""866313""
""focus"",""251"",""870254""
","""event"",""trial"",""time""
""blur"",""251"",""866313""
","""event"",""trial"",""time""
""focus"",""251"",""870254""
","""event"",""trial"",""time""
""fullscreenenter"",""1"",""77108""
","
","","","","","","null","<div style=""font-size:60px;"">+</div>","null","","fixation","","","","","","","","",""
"memory-trial","263","898401","0.0-15.0-1.109","1508","2","""event"",""trial"",""time""
""fullscreenenter"",""1"",""77108""
""blur"",""251"",""866313""
""focus"",""251"",""870254""
","""event"",""trial"",""time""
""blur"",""251"",""866313""
","""event"",""trial"",""time""
""focus"",""251"",""870254""
","""event"",""trial"",""time""
""fullscreenenter"",""1"",""77108""
","
","","","","","","2421.5999999940395","images/bed5.png","","","memory_trial","4","definitely_new","","","","","","",""
"html-keyboard-response","264","898904","0.0-15.0-0.110","1508","2","""event"",""trial"",""time""
""fullscreenenter"",""1"",""77108""
""blur"",""251"",""866313""
""focus"",""251"",""870254""
","""event"",""trial"",""time""
""blur"",""251"",""866313""
","""event"",""trial"",""time""
""focus"",""251"",""870254""
","""event"",""trial"",""time""
""fullscreenenter"",""1"",""77108""
","
","","","","","","null","<div style=""font-size:60px;"">+</div>","null","","fixation","","","","","","","","",""
"memory-trial","265","904685","0.0-15.0-1.110","1508","2","""event"",""trial"",""time""
""fullscreenenter"",""1"",""77108""
""blur"",""251"",""866313""
""focus"",""251"",""870254""
","""event"",""trial"",""time""
""blur"",""251"",""866313""
","""event"",""trial"",""time""
""focus"",""251"",""870254""
","""event"",""trial"",""time""
""fullscreenenter"",""1"",""77108""
","
","","","","","","4775","images/bush4.png","","","memory_trial","3","maybe_new","","","","","","",""
"html-keyboard-response","266","905188","0.0-15.0-0.111","1508","2","""event"",""trial"",""time""
""fullscreenenter"",""1"",""77108""
""blur"",""251"",""866313""
""focus"",""251"",""870254""
","""event"",""trial"",""time""
""blur"",""251"",""866313""
","""event"",""trial"",""time""
""focus"",""251"",""870254""
","""event"",""trial"",""time""
""fullscreenenter"",""1"",""77108""
","
","","","","","","null","<div style=""font-size:60px;"">+</div>","null","","fixation","","","","","","","","",""
"memory-trial","267","910673","0.0-15.0-1.111","1508","2","""event"",""trial"",""time""
""fullscreenenter"",""1"",""77108""
""blur"",""251"",""866313""
""focus"",""251"",""870254""
","""event"",""trial"",""time""
""blur"",""251"",""866313""
","""event"",""trial"",""time""
""focus"",""251"",""870254""
","""event"",""trial"",""time""
""fullscreenenter"",""1"",""77108""
","
","","","","","","4480.70000000298","images/straw1.png","","","memory_trial","2","maybe_old","","","","","","",""
"html-keyboard-response","268","911176","0.0-15.0-0.112","1508","2","""event"",""trial"",""time""
""fullscreenenter"",""1"",""77108""
""blur"",""251"",""866313""
""focus"",""251"",""870254""
","""event"",""trial"",""time""
""blur"",""251"",""866313""
","""event"",""trial"",""time""
""focus"",""251"",""870254""
","""event"",""trial"",""time""
""fullscreenenter"",""1"",""77108""
","
","","","","","","null","<div style=""font-size:60px;"">+</div>","null","","fixation","","","","","","","","",""
"memory-trial","269","914201","0.0-15.0-1.112","1508","2","""event"",""trial"",""time""
""fullscreenenter"",""1"",""77108""
""blur"",""251"",""866313""
""focus"",""251"",""870254""
","""event"",""trial"",""time""
""blur"",""251"",""866313""
","""event"",""trial"",""time""
""focus"",""251"",""870254""
","""event"",""trial"",""time""
""fullscreenenter"",""1"",""77108""
","
","","","","","","2017.1000000089407","images/tree5.png","","","memory_trial","4","definitely_new","","","","","","",""
"html-keyboard-response","270","914704","0.0-15.0-0.113","1508","2","""event"",""trial"",""time""
""fullscreenenter"",""1"",""77108""
""blur"",""251"",""866313""
""focus"",""251"",""870254""
","""event"",""trial"",""time""
""blur"",""251"",""866313""
","""event"",""trial"",""time""
""focus"",""251"",""870254""
","""event"",""trial"",""time""
""fullscreenenter"",""1"",""77108""
","
","","","","","","null","<div style=""font-size:60px;"">+</div>","null","","fixation","","","","","","","","",""
"memory-trial","271","918288","0.0-15.0-1.113","1508","2","""event"",""trial"",""time""
""fullscreenenter"",""1"",""77108""
""blur"",""251"",""866313""
""focus"",""251"",""870254""
","""event"",""trial"",""time""
""blur"",""251"",""866313""
","""event"",""trial"",""time""
""focus"",""251"",""870254""
","""event"",""trial"",""time""
""fullscreenenter"",""1"",""77108""
","
","","","","","","2578.4000000059605","images/orange5.png","","","memory_trial","3","maybe_new","","","","","","",""
"html-keyboard-response","272","918791","0.0-15.0-0.114","1508","2","""event"",""trial"",""time""
""fullscreenenter"",""1"",""77108""
""blur"",""251"",""866313""
""focus"",""251"",""870254""
","""event"",""trial"",""time""
""blur"",""251"",""866313""
","""event"",""trial"",""time""
""focus"",""251"",""870254""
","""event"",""trial"",""time""
""fullscreenenter"",""1"",""77108""
","
","","","","","","null","<div style=""font-size:60px;"">+</div>","null","","fixation","","","","","","","","",""
"memory-trial","273","921032","0.0-15.0-1.114","1508","2","""event"",""trial"",""time""
""fullscreenenter"",""1"",""77108""
""blur"",""251"",""866313""
""focus"",""251"",""870254""
","""event"",""trial"",""time""
""blur"",""251"",""866313""
","""event"",""trial"",""time""
""focus"",""251"",""870254""
","""event"",""trial"",""time""
""fullscreenenter"",""1"",""77108""
","
","","","","","","1238.2999999970198","images/goat3.png","","","memory_trial","1","definitely_old","","","","","","",""
"html-keyboard-response","274","921535","0.0-15.0-0.115","1508","2","""event"",""trial"",""time""
""fullscreenenter"",""1"",""77108""
""blur"",""251"",""866313""
""focus"",""251"",""870254""
","""event"",""trial"",""time""
""blur"",""251"",""866313""
","""event"",""trial"",""time""
""focus"",""251"",""870254""
","""event"",""trial"",""time""
""fullscreenenter"",""1"",""77108""
","
","","","","","","null","<div style=""font-size:60px;"">+</div>","null","","fixation","","","","","","","","",""
"memory-trial","275","924391","0.0-15.0-1.115","1508","2","""event"",""trial"",""time""
""fullscreenenter"",""1"",""77108""
""blur"",""251"",""866313""
""focus"",""251"",""870254""
","""event"",""trial"",""time""
""blur"",""251"",""866313""
","""event"",""trial"",""time""
""focus"",""251"",""870254""
","""event"",""trial"",""time""
""fullscreenenter"",""1"",""77108""
","
","","","","","","1852.6000000089407","images/feline4.png","","","memory_trial","4","definitely_new","","","","","","",""
"html-keyboard-response","276","924894","0.0-15.0-0.116","1508","2","""event"",""trial"",""time""
""fullscreenenter"",""1"",""77108""
""blur"",""251"",""866313""
""focus"",""251"",""870254""
","""event"",""trial"",""time""
""blur"",""251"",""866313""
","""event"",""trial"",""time""
""focus"",""251"",""870254""
","""event"",""trial"",""time""
""fullscreenenter"",""1"",""77108""
","
","","","","","","null","<div style=""font-size:60px;"">+</div>","null","","fixation","","","","","","","","",""
"memory-trial","277","927943","0.0-15.0-1.116","1508","2","""event"",""trial"",""time""
""fullscreenenter"",""1"",""77108""
""blur"",""251"",""866313""
""focus"",""251"",""870254""
","""event"",""trial"",""time""
""blur"",""251"",""866313""
","""event"",""trial"",""time""
""focus"",""251"",""870254""
","""event"",""trial"",""time""
""fullscreenenter"",""1"",""77108""
","
","","","","","","2044.0999999940395","images/bed1.png","","","memory_trial","4","definitely_new","","","","","","",""
"html-keyboard-response","278","928445","0.0-15.0-0.117","1508","2","""event"",""trial"",""time""
""fullscreenenter"",""1"",""77108""
""blur"",""251"",""866313""
""focus"",""251"",""870254""
","""event"",""trial"",""time""
""blur"",""251"",""866313""
","""event"",""trial"",""time""
""focus"",""251"",""870254""
","""event"",""trial"",""time""
""fullscreenenter"",""1"",""77108""
","
