"trial_type","trial_index","time_elapsed","internal_node_id","subject_id","task_version","interactions","blur_events","focus_events","fullscreenenter_events","fullscreenexit_events","success","timeout","failed_images","failed_audio","failed_video","rt","stimulus","response","button_pressed","task_part","key_press","answer","correct","left_choice","middle_choice","right_choice","choice_positions","option_selected","block"
"pavlovia","0","3","0.0-0.0","1927","2","""event"",""trial"",""time""
""fullscreenenter"",""1"",""1389""
","
","
","""event"",""trial"",""time""
""fullscreenenter"",""1"",""1389""
","
","","","","","","","","","","","","","","","","","","",""
"fullscreen","1","2362","0.0-1.0","1927","2","""event"",""trial"",""time""
""fullscreenenter"",""1"",""1389""
","
","
","""event"",""trial"",""time""
""fullscreenenter"",""1"",""1389""
","
","true","","","","","","","","","","","","","","","","","",""
"preload","2","3138","0.0-2.0","1927","2","""event"",""trial"",""time""
""fullscreenenter"",""1"",""1389""
","
","
","""event"",""trial"",""time""
""fullscreenenter"",""1"",""1389""
","
","true","false","[]","[]","[]","","","","","","","","","","","","","",""
"audio-keyboard-response","3","5299","0.0-3.0","1927","2","""event"",""trial"",""time""
""fullscreenenter"",""1"",""1389""
","
","
","""event"",""trial"",""time""
""fullscreenenter"",""1"",""1389""
","
","","","","","","2154.6666666666665","audio/beep_loop.wav"," ","","","","","","","","","","",""
"audio-button-response","4","7019","0.0-4.0","1927","2","""event"",""trial"",""time""
""fullscreenenter"",""1"",""1389""
","
","
","""event"",""trial"",""time""
""fullscreenenter"",""1"",""1389""
","
","","","","","","1712","audio/turtle.wav","3","","","","","","","","","","",""
"audio-button-response","5","9312","0.0-5.0","1927","2","""event"",""trial"",""time""
""fullscreenenter"",""1"",""1389""
","
","
","""event"",""trial"",""time""
""fullscreenenter"",""1"",""1389""
","
","","","","","","1291","audio/shark.wav","2","","","","","","","","","","",""
"preload","6","11875","0.0-6.0","1927","2","""event"",""trial"",""time""
""fullscreenenter"",""1"",""1389""
","
","
","""event"",""trial"",""time""
""fullscreenenter"",""1"",""1389""
","
","true","false","[]","[]","[]","","","","","","","","","","","","","",""
"learning-instructions","7","19278","0.0-7.0-0.0","1927","2","""event"",""trial"",""time""
""fullscreenenter"",""1"",""1389""
","
","
","""event"",""trial"",""time""
""fullscreenenter"",""1"",""1389""
","
","","","","","","2599.100000023842","<p> Welcome back! </p><p> Last week, you had to make choices about lots of different items.  </p>","","0","instructions","","","","","","","","",""
"learning-instructions","8","24835","0.0-7.0-0.1","1927","2","""event"",""trial"",""time""
""fullscreenenter"",""1"",""1389""
","
","
","""event"",""trial"",""time""
""fullscreenenter"",""1"",""1389""
","
","","","","","","1342.3000000715256","<p> Today, we are going to ask you to try to remember all the items. </p>","","0","instructions","","","","","","","","",""
"learning-instructions","9","35653","0.0-7.0-0.2","1927","2","""event"",""trial"",""time""
""fullscreenenter"",""1"",""1389""
","
","
","""event"",""trial"",""time""
""fullscreenenter"",""1"",""1389""
","
","","","","","","677.5999999046326","<p> On every trial, you will see an image. </p><p> The image may be an OLD image you saw during the games last week or it may be a NEW image that was not presented. </p>","","0","instructions","","","","","","","","",""
"learning-instructions","10","44797","0.0-7.0-0.3","1927","2","""event"",""trial"",""time""
""fullscreenenter"",""1"",""1389""
","
","
","""event"",""trial"",""time""
""fullscreenenter"",""1"",""1389""
","
","","","","","","641.9000000953674","<p> You need to select whether the image is:  </p><p>  'Definitely old', 'Maybe old', 'Maybe new', or 'Definitely new.'  </p><div class=""mem-choice-instructions-grid""><div class=""choice-option"" id=""choice-option-1"" ><img src=""images/definitely_old_1.png"" id=""choice-option-img-1"" class=""choice-option-img"" stage=""1""></div><div class=""choice-option"" id=""choice-option-2"" ><img src=""images/maybe_old_1.png"" id=""choice-option-img-2"" class=""choice-option-img"" stage=""1""></div><div class=""choice-option"" id=""choice-option-3"" ><img src=""images/maybe_new_1.png"" id=""choice-option-img-3"" class=""choice-option-img"" stage=""1""></div><div class=""choice-option"" id=""choice-option-4"" > <img src=""images/definitely_new_1.png"" id=""choice-option-img-4"" class=""choice-option-img"" stage=""1""></div></div>","","0","instructions","","","","","","","","",""
"learning-instructions","11","52866","0.0-7.0-0.4","1927","2","""event"",""trial"",""time""
""fullscreenenter"",""1"",""1389""
","
","
","""event"",""trial"",""time""
""fullscreenenter"",""1"",""1389""
","
","","","","","","1377.7000000476837","<p> You should use the 1, 2, 3, and 4 keys to make your responses.  </p><div class=""mem-choice-instructions-grid""><div class=""choice-option"" id=""choice-option-1"" ><img src=""images/definitely_old.png"" id=""choice-option-img-1"" class=""choice-option-img"" stage=""1""></div><div class=""choice-option"" id=""choice-option-2"" ><img src=""images/maybe_old.png"" id=""choice-option-img-2"" class=""choice-option-img"" stage=""1""></div><div class=""choice-option"" id=""choice-option-3"" ><img src=""images/maybe_new.png"" id=""choice-option-img-3"" class=""choice-option-img"" stage=""1""></div><div class=""choice-option"" id=""choice-option-4"" > <img src=""images/definitely_new.png"" id=""choice-option-img-4"" class=""choice-option-img"" stage=""1""></div></div>","","0","instructions","","","","","","","","",""
"learning-instructions","12","60531","0.0-7.0-0.5","1927","2","""event"",""trial"",""time""
""fullscreenenter"",""1"",""1389""
","
","
","""event"",""trial"",""time""
""fullscreenenter"",""1"",""1389""
","
","","","","","","904.6999999284744","<p> You will have 10 seconds to make each response.  </p><p>  Make sure to respond before time runs out! </p>","","0","instructions","","","","","","","","",""
"learning-instructions","13","68716","0.0-7.0-0.6","1927","2","""event"",""trial"",""time""
""fullscreenenter"",""1"",""1389""
","
","
","""event"",""trial"",""time""
""fullscreenenter"",""1"",""1389""
","
","","","","","","604.5","<p> Today, you will see each image ONCE only.  </p><p>  That means none of the images will repeat. </p>","","0","instructions","","","","","","","","",""
"learning-instructions","14","81819","0.0-7.0-0.7","1927","2","""event"",""trial"",""time""
""fullscreenenter"",""1"",""1389""
","
","
","""event"",""trial"",""time""
""fullscreenenter"",""1"",""1389""
","
","","","","","","432.7999999523163","<p> Before you play the real game, it is time to practice. </p><p>  Just like in the real game, some of the images in the practice will be ones you have seen before. </p><p>  Others will be entirely new. </p>","","0","instructions","","","","","","","","",""
"html-button-response","15","83159","0.0-8.0","1927","2","""event"",""trial"",""time""
""fullscreenenter"",""1"",""1389""
","
","
","""event"",""trial"",""time""
""fullscreenenter"",""1"",""1389""
","
","","","","","","1235.6000000238419","<p> Ready to practice? </p><p> Remember, use the 1, 2, 3, and 4 keys to make your responses. </p>","0","","instructions","","","","","","","","",""
"html-keyboard-response","16","83762","0.0-9.0-0.0","1927","2","""event"",""trial"",""time""
""fullscreenenter"",""1"",""1389""
","
","
","""event"",""trial"",""time""
""fullscreenenter"",""1"",""1389""
","
","","","","","","null","<div style=""font-size:60px;"">+</div>","null","","fixation","","","","","","","","",""
"memory-trial","17","87483","0.0-9.0-1.0","1927","2","""event"",""trial"",""time""
""fullscreenenter"",""1"",""1389""
","
","
","""event"",""trial"",""time""
""fullscreenenter"",""1"",""1389""
","
","","","","","","2712.4000000953674","images/racket1.png","","","practice","2","maybe_old","","","","","","",""
"html-keyboard-response","18","87988","0.0-9.0-0.1","1927","2","""event"",""trial"",""time""
""fullscreenenter"",""1"",""1389""
","
","
","""event"",""trial"",""time""
""fullscreenenter"",""1"",""1389""
","
","","","","","","null","<div style=""font-size:60px;"">+</div>","null","","fixation","","","","","","","","",""
"memory-trial","19","92428","0.0-9.0-1.1","1927","2","""event"",""trial"",""time""
""fullscreenenter"",""1"",""1389""
","
","
","""event"",""trial"",""time""
""fullscreenenter"",""1"",""1389""
","
","","","","","","3435.8000000715256","images/ball4.png","","","practice","3","maybe_new","","","","","","",""
"html-keyboard-response","20","92934","0.0-9.0-0.2","1927","2","""event"",""trial"",""time""
""fullscreenenter"",""1"",""1389""
","
","
","""event"",""trial"",""time""
""fullscreenenter"",""1"",""1389""
","
","","","","","","null","<div style=""font-size:60px;"">+</div>","null","","fixation","","","","","","","","",""
"memory-trial","21","96107","0.0-9.0-1.2","1927","2","""event"",""trial"",""time""
""fullscreenenter"",""1"",""1389""
","
","
","""event"",""trial"",""time""
""fullscreenenter"",""1"",""1389""
","
","","","","","","2165.2000000476837","images/ball3.png","","","practice","2","maybe_old","","","","","","",""
"html-keyboard-response","22","96612","0.0-9.0-0.3","1927","2","""event"",""trial"",""time""
""fullscreenenter"",""1"",""1389""
","
","
","""event"",""trial"",""time""
""fullscreenenter"",""1"",""1389""
","
","","","","","","null","<div style=""font-size:60px;"">+</div>","null","","fixation","","","","","","","","",""
"memory-trial","23","100647","0.0-9.0-1.3","1927","2","""event"",""trial"",""time""
""fullscreenenter"",""1"",""1389""
","
","
","""event"",""trial"",""time""
""fullscreenenter"",""1"",""1389""
","
","","","","","","3028.3000000715256","images/ball2.png","","","practice","3","maybe_new","","","","","","",""
"html-keyboard-response","24","101149","0.0-9.0-0.4","1927","2","""event"",""trial"",""time""
""fullscreenenter"",""1"",""1389""
","
","
","""event"",""trial"",""time""
""fullscreenenter"",""1"",""1389""
","
","","","","","","null","<div style=""font-size:60px;"">+</div>","null","","fixation","","","","","","","","",""
"memory-trial","25","103926","0.0-9.0-1.4","1927","2","""event"",""trial"",""time""
""fullscreenenter"",""1"",""1389""
","
","
","""event"",""trial"",""time""
""fullscreenenter"",""1"",""1389""
","
","","","","","","1769.8000000715256","images/racket3.png","","","practice","3","maybe_new","","","","","","",""
"html-keyboard-response","26","104431","0.0-9.0-0.5","1927","2","""event"",""trial"",""time""
""fullscreenenter"",""1"",""1389""
","
","
","""event"",""trial"",""time""
""fullscreenenter"",""1"",""1389""
","
","","","","","","null","<div style=""font-size:60px;"">+</div>","null","","fixation","","","","","","","","",""
"memory-trial","27","107312","0.0-9.0-1.5","1927","2","""event"",""trial"",""time""
""fullscreenenter"",""1"",""1389""
","
","
","""event"",""trial"",""time""
""fullscreenenter"",""1"",""1389""
","
","","","","","","1873.7999999523163","images/racket4.png","","","practice","3","maybe_new","","","","","","",""
"html-keyboard-response","28","107817","0.0-9.0-0.6","1927","2","""event"",""trial"",""time""
""fullscreenenter"",""1"",""1389""
","
","
","""event"",""trial"",""time""
""fullscreenenter"",""1"",""1389""
","
","","","","","","null","<div style=""font-size:60px;"">+</div>","null","","fixation","","","","","","","","",""
"memory-trial","29","110315","0.0-9.0-1.6","1927","2","""event"",""trial"",""time""
""fullscreenenter"",""1"",""1389""
","
","
","""event"",""trial"",""time""
""fullscreenenter"",""1"",""1389""
","
","","","","","","1493.2999999523163","images/ball1.png","","","practice","2","maybe_old","","","","","","",""
"html-keyboard-response","30","110819","0.0-9.0-0.7","1927","2","""event"",""trial"",""time""
""fullscreenenter"",""1"",""1389""
","
","
","""event"",""trial"",""time""
""fullscreenenter"",""1"",""1389""
","
","","","","","","null","<div style=""font-size:60px;"">+</div>","null","","fixation","","","","","","","","",""
"memory-trial","31","113264","0.0-9.0-1.7","1927","2","""event"",""trial"",""time""
""fullscreenenter"",""1"",""1389""
","
","
","""event"",""trial"",""time""
""fullscreenenter"",""1"",""1389""
","
","","","","","","1438","images/racket2.png","","","practice","2","maybe_old","","","","","","",""
"learning-instructions","32","122989","0.0-10.0-0.0","1927","2","""event"",""trial"",""time""
""fullscreenenter"",""1"",""1389""
","
","
","""event"",""trial"",""time""
""fullscreenenter"",""1"",""1389""
","
","","","","","","1752.8999999761581","<p> Great! You have completed the practice. </p><p> Before you start, we're going to ask you a few questions about how the game works.  </p>","","0","instructions","","","","","","","","",""
"preload","33","124396","0.0-11.0","1927","2","""event"",""trial"",""time""
""fullscreenenter"",""1"",""1389""
","
","
","""event"",""trial"",""time""
""fullscreenenter"",""1"",""1389""
","
","true","false","[]","[]","[]","","","","","","","","","","","","","",""
"comp-q","34","131233","0.0-12.0-0.0","1927","2","""event"",""trial"",""time""
""fullscreenenter"",""1"",""1389""
","
","
","""event"",""trial"",""time""
""fullscreenenter"",""1"",""1389""
","
","","","","","","1005.1000000238419","<p> <b> True or False? </b> </p><p> In this game, you will only see each image once. </p>","","0","comp_question","","","true","","","","","",""
"comp-q","35","140184","0.0-12.0-1.0","1927","2","""event"",""trial"",""time""
""fullscreenenter"",""1"",""1389""
","
","
","""event"",""trial"",""time""
""fullscreenenter"",""1"",""1389""
","
","","","","","","2612.5","<p> <b> That's right! </b> You will see many different images <i> one time each </i> in this game. </p>","","0","comp_answer","","","","","","","","",""
"comp-q","36","146755","0.0-12.0-0.1","1927","2","""event"",""trial"",""time""
""fullscreenenter"",""1"",""1389""
","
","
","""event"",""trial"",""time""
""fullscreenenter"",""1"",""1389""
","
","","","","","","771.1999999284744","<p> <b> True or False? </b> </p><p> You should use the mouse and click to make your response. </p>","","1","comp_question","","","true","","","","","",""
"comp-q","37","155650","0.0-12.0-1.1","1927","2","""event"",""trial"",""time""
""fullscreenenter"",""1"",""1389""
","
","
","""event"",""trial"",""time""
""fullscreenenter"",""1"",""1389""
","
","","","","","","1550.5999999046326","<p><b> That's right! </b> You should use the '1', '2', '3', and '4' keys to make your response. </p>","","0","comp_answer","","","","","","","","",""
"comp-q","38","162281","0.0-12.0-0.2","1927","2","""event"",""trial"",""time""
""fullscreenenter"",""1"",""1389""
","
","
","""event"",""trial"",""time""
""fullscreenenter"",""1"",""1389""
","
","","","","","","634.8999999761581","<p> <b> True or False? </b> </p><p> You will have as much time as you want to make each choice. </p>","","1","comp_question","","","true","","","","","",""
"comp-q","39","169534","0.0-12.0-1.2","1927","2","""event"",""trial"",""time""
""fullscreenenter"",""1"",""1389""
","
","
","""event"",""trial"",""time""
""fullscreenenter"",""1"",""1389""
","
","","","","","","1865","<p> <b> That's right! </b> You will only have 10 seconds to make each choice. </p>","","0","comp_answer","","","","","","","","",""
"learning-instructions","40","179589","0.0-13.0","1927","2","""event"",""trial"",""time""
""fullscreenenter"",""1"",""1389""
","
","
","""event"",""trial"",""time""
""fullscreenenter"",""1"",""1389""
","
","","","","","","1386.6000000238419","<p> Great! You are now ready to begin the game. </p><p> Remember, use the 1, 2, 3, and 4 keys to make your responses. </p>","","0","instructions","","","","","","","","",""
"preload","41","181618","0.0-14.0","1927","2","""event"",""trial"",""time""
""fullscreenenter"",""1"",""1389""
","
","
","""event"",""trial"",""time""
""fullscreenenter"",""1"",""1389""
","
","true","false","[]","[]","[]","","","","","","","","","","","","","",""
"html-keyboard-response","42","182122","0.0-15.0-0.0","1927","2","""event"",""trial"",""time""
""fullscreenenter"",""1"",""1389""
","
","
","""event"",""trial"",""time""
""fullscreenenter"",""1"",""1389""
","
","","","","","","null","<div style=""font-size:60px;"">+</div>","null","","fixation","","","","","","","","",""
"memory-trial","43","184838","0.0-15.0-1.0","1927","2","""event"",""trial"",""time""
""fullscreenenter"",""1"",""1389""
","
","
","""event"",""trial"",""time""
""fullscreenenter"",""1"",""1389""
","
","","","","","","1710.1000000238419","images/sheep4.png","","","memory_trial","3","maybe_new","","","","","","",""
"html-keyboard-response","44","185341","0.0-15.0-0.1","1927","2","""event"",""trial"",""time""
""fullscreenenter"",""1"",""1389""
","
","
","""event"",""trial"",""time""
""fullscreenenter"",""1"",""1389""
","
","","","","","","null","<div style=""font-size:60px;"">+</div>","null","","fixation","","","","","","","","",""
"memory-trial","45","187729","0.0-15.0-1.1","1927","2","""event"",""trial"",""time""
""fullscreenenter"",""1"",""1389""
","
","
","""event"",""trial"",""time""
""fullscreenenter"",""1"",""1389""
","
","","","","","","1381.5999999046326","images/cow4.png","","","memory_trial","2","maybe_old","","","","","","",""
"html-keyboard-response","46","188230","0.0-15.0-0.2","1927","2","""event"",""trial"",""time""
""fullscreenenter"",""1"",""1389""
","
","
","""event"",""trial"",""time""
""fullscreenenter"",""1"",""1389""
","
","","","","","","null","<div style=""font-size:60px;"">+</div>","null","","fixation","","","","","","","","",""
"memory-trial","47","191512","0.0-15.0-1.2","1927","2","""event"",""trial"",""time""
""fullscreenenter"",""1"",""1389""
","
","
","""event"",""trial"",""time""
""fullscreenenter"",""1"",""1389""
","
","","","","","","2275.7999999523163","images/truck5.png","","","memory_trial","4","definitely_new","","","","","","",""
"html-keyboard-response","48","192015","0.0-15.0-0.3","1927","2","""event"",""trial"",""time""
""fullscreenenter"",""1"",""1389""
","
","
","""event"",""trial"",""time""
""fullscreenenter"",""1"",""1389""
","
","","","","","","null","<div style=""font-size:60px;"">+</div>","null","","fixation","","","","","","","","",""
"memory-trial","49","194894","0.0-15.0-1.3","1927","2","""event"",""trial"",""time""
""fullscreenenter"",""1"",""1389""
","
","
","""event"",""trial"",""time""
""fullscreenenter"",""1"",""1389""
","
","","","","","","1873.2999999523163","images/sheep3.png","","","memory_trial","3","maybe_new","","","","","","",""
"html-keyboard-response","50","195401","0.0-15.0-0.4","1927","2","""event"",""trial"",""time""
""fullscreenenter"",""1"",""1389""
","
","
","""event"",""trial"",""time""
""fullscreenenter"",""1"",""1389""
","
","","","","","","null","<div style=""font-size:60px;"">+</div>","null","","fixation","","","","","","","","",""
"memory-trial","51","197570","0.0-15.0-1.4","1927","2","""event"",""trial"",""time""
""fullscreenenter"",""1"",""1389""
","
","
","""event"",""trial"",""time""
""fullscreenenter"",""1"",""1389""
","
","","","","","","1161.1000000238419","images/plane4.png","","","memory_trial","2","maybe_old","","","","","","",""
"html-keyboard-response","52","198071","0.0-15.0-0.5","1927","2","""event"",""trial"",""time""
""fullscreenenter"",""1"",""1389""
","
","
","""event"",""trial"",""time""
""fullscreenenter"",""1"",""1389""
","
","","","","","","null","<div style=""font-size:60px;"">+</div>","null","","fixation","","","","","","","","",""
"memory-trial","53","199955","0.0-15.0-1.5","1927","2","""event"",""trial"",""time""
""fullscreenenter"",""1"",""1389""
","
","
","""event"",""trial"",""time""
""fullscreenenter"",""1"",""1389""
","
","","","","","","876","images/bush3.png","","","memory_trial","2","maybe_old","","","","","","",""
"html-keyboard-response","54","200459","0.0-15.0-0.6","1927","2","""event"",""trial"",""time""
""fullscreenenter"",""1"",""1389""
","
","
","""event"",""trial"",""time""
""fullscreenenter"",""1"",""1389""
","
","","","","","","null","<div style=""font-size:60px;"">+</div>","null","","fixation","","","","","","","","",""
"memory-trial","55","202117","0.0-15.0-1.6","1927","2","""event"",""trial"",""time""
""fullscreenenter"",""1"",""1389""
","
","
","""event"",""trial"",""time""
""fullscreenenter"",""1"",""1389""
","
","","","","","","654.1000000238419","images/plane1.png","","","memory_trial","2","maybe_old","","","","","","",""
"html-keyboard-response","56","202621","0.0-15.0-0.7","1927","2","""event"",""trial"",""time""
""fullscreenenter"",""1"",""1389""
","
","
","""event"",""trial"",""time""
""fullscreenenter"",""1"",""1389""
","
","","","","","","null","<div style=""font-size:60px;"">+</div>","null","","fixation","","","","","","","","",""
"memory-trial","57","204452","0.0-15.0-1.7","1927","2","""event"",""trial"",""time""
""fullscreenenter"",""1"",""1389""
","
","
","""event"",""trial"",""time""
""fullscreenenter"",""1"",""1389""
","
","","","","","","826.6000000238419","images/flower2.png","","","memory_trial","4","definitely_new","","","","","","",""
"html-keyboard-response","58","204956","0.0-15.0-0.8","1927","2","""event"",""trial"",""time""
""fullscreenenter"",""1"",""1389""
","
","
","""event"",""trial"",""time""
""fullscreenenter"",""1"",""1389""
","
","","","","","","null","<div style=""font-size:60px;"">+</div>","null","","fixation","","","","","","","","",""
"memory-trial","59","207180","0.0-15.0-1.8","1927","2","""event"",""trial"",""time""
""fullscreenenter"",""1"",""1389""
","
","
","""event"",""trial"",""time""
""fullscreenenter"",""1"",""1389""
","
","","","","","","1219","images/horse5.png","","","memory_trial","1","definitely_old","","","","","","",""
"html-keyboard-response","60","207684","0.0-15.0-0.9","1927","2","""event"",""trial"",""time""
""fullscreenenter"",""1"",""1389""
","
","
","""event"",""trial"",""time""
""fullscreenenter"",""1"",""1389""
","
","","","","","","null","<div style=""font-size:60px;"">+</div>","null","","fixation","","","","","","","","",""
"memory-trial","61","209963","0.0-15.0-1.9","1927","2","""event"",""trial"",""time""
""fullscreenenter"",""1"",""1389""
","
","
","""event"",""trial"",""time""
""fullscreenenter"",""1"",""1389""
","
","","","","","","1272","images/table4.png","","","memory_trial","2","maybe_old","","","","","","",""
"html-keyboard-response","62","210468","0.0-15.0-0.10","1927","2","""event"",""trial"",""time""
""fullscreenenter"",""1"",""1389""
","
","
","""event"",""trial"",""time""
""fullscreenenter"",""1"",""1389""
","
","","","","","","null","<div style=""font-size:60px;"">+</div>","null","","fixation","","","","","","","","",""
"memory-trial","63","213166","0.0-15.0-1.10","1927","2","""event"",""trial"",""time""
""fullscreenenter"",""1"",""1389""
","
","
","""event"",""trial"",""time""
""fullscreenenter"",""1"",""1389""
","
","","","","","","1690.8000000715256","images/apple5.png","","","memory_trial","2","maybe_old","","","","","","",""
"html-keyboard-response","64","213670","0.0-15.0-0.11","1927","2","""event"",""trial"",""time""
""fullscreenenter"",""1"",""1389""
","
","
","""event"",""trial"",""time""
""fullscreenenter"",""1"",""1389""
","
","","","","","","null","<div style=""font-size:60px;"">+</div>","null","","fixation","","","","","","","","",""
"memory-trial","65","216761","0.0-15.0-1.11","1927","2","""event"",""trial"",""time""
""fullscreenenter"",""1"",""1389""
","
","
","""event"",""trial"",""time""
""fullscreenenter"",""1"",""1389""
","
","","","","","","2084.399999976158","images/feline5.png","","","memory_trial","2","maybe_old","","","","","","",""
"html-keyboard-response","66","217265","0.0-15.0-0.12","1927","2","""event"",""trial"",""time""
""fullscreenenter"",""1"",""1389""
","
","
","""event"",""trial"",""time""
""fullscreenenter"",""1"",""1389""
","
","","","","","","null","<div style=""font-size:60px;"">+</div>","null","","fixation","","","","","","","","",""
"memory-trial","67","219257","0.0-15.0-1.12","1927","2","""event"",""trial"",""time""
""fullscreenenter"",""1"",""1389""
","
","
","""event"",""trial"",""time""
""fullscreenenter"",""1"",""1389""
","
","","","","","","987.2999999523163","images/feline2.png","","","memory_trial","3","maybe_new","","","","","","",""
"html-keyboard-response","68","219762","0.0-15.0-0.13","1927","2","""event"",""trial"",""time""
""fullscreenenter"",""1"",""1389""
","
","
","""event"",""trial"",""time""
""fullscreenenter"",""1"",""1389""
","
","","","","","","null","<div style=""font-size:60px;"">+</div>","null","","fixation","","","","","","","","",""
"memory-trial","69","221760","0.0-15.0-1.13","1927","2","""event"",""trial"",""time""
""fullscreenenter"",""1"",""1389""
","
","
","""event"",""trial"",""time""
""fullscreenenter"",""1"",""1389""
","
","","","","","","992.3999999761581","images/boat1.png","","","memory_trial","1","definitely_old","","","","","","",""
"html-keyboard-response","70","222261","0.0-15.0-0.14","1927","2","""event"",""trial"",""time""
""fullscreenenter"",""1"",""1389""
","
","
","""event"",""trial"",""time""
""fullscreenenter"",""1"",""1389""
","
","","","","","","null","<div style=""font-size:60px;"">+</div>","null","","fixation","","","","","","","","",""
"memory-trial","71","224278","0.0-15.0-1.14","1927","2","""event"",""trial"",""time""
""fullscreenenter"",""1"",""1389""
","
","
","""event"",""trial"",""time""
""fullscreenenter"",""1"",""1389""
","
","","","","","","1014.3000000715256","images/rabbit2.png","","","memory_trial","2","maybe_old","","","","","","",""
"html-keyboard-response","72","224779","0.0-15.0-0.15","1927","2","""event"",""trial"",""time""
""fullscreenenter"",""1"",""1389""
","
","
","""event"",""trial"",""time""
""fullscreenenter"",""1"",""1389""
","
","","","","","","null","<div style=""font-size:60px;"">+</div>","null","","fixation","","","","","","","","",""
"memory-trial","73","228309","0.0-15.0-1.15","1927","2","""event"",""trial"",""time""
""fullscreenenter"",""1"",""1389""
","
","
","""event"",""trial"",""time""
""fullscreenenter"",""1"",""1389""
","
","","","","","","2525.899999976158","images/table3.png","","","memory_trial","3","maybe_new","","","","","","",""
"html-keyboard-response","74","228813","0.0-15.0-0.16","1927","2","""event"",""trial"",""time""
""fullscreenenter"",""1"",""1389""
","
","
","""event"",""trial"",""time""
""fullscreenenter"",""1"",""1389""
","
","","","","","","null","<div style=""font-size:60px;"">+</div>","null","","fixation","","","","","","","","",""
"memory-trial","75","231030","0.0-15.0-1.16","1927","2","""event"",""trial"",""time""
""fullscreenenter"",""1"",""1389""
","
","
","""event"",""trial"",""time""
""fullscreenenter"",""1"",""1389""
","
","","","","","","1212.2999999523163","images/truck2.png","","","memory_trial","4","definitely_new","","","","","","",""
"html-keyboard-response","76","231533","0.0-15.0-0.17","1927","2","""event"",""trial"",""time""
""fullscreenenter"",""1"",""1389""
","
","
","""event"",""trial"",""time""
""fullscreenenter"",""1"",""1389""
","
","","","","","","null","<div style=""font-size:60px;"">+</div>","null","","fixation","","","","","","","","",""
"memory-trial","77","233894","0.0-15.0-1.17","1927","2","""event"",""trial"",""time""
""fullscreenenter"",""1"",""1389""
","
","
","""event"",""trial"",""time""
""fullscreenenter"",""1"",""1389""
","
","","","","","","1352.1999999284744","images/banana1.png","","","memory_trial","3","maybe_new","","","","","","",""
"html-keyboard-response","78","234400","0.0-15.0-0.18","1927","2","""event"",""trial"",""time""
""fullscreenenter"",""1"",""1389""
","
","
","""event"",""trial"",""time""
""fullscreenenter"",""1"",""1389""
","
","","","","","","null","<div style=""font-size:60px;"">+</div>","null","","fixation","","","","","","","","",""
"memory-trial","79","237595","0.0-15.0-1.18","1927","2","""event"",""trial"",""time""
""fullscreenenter"",""1"",""1389""
","
","
","""event"",""trial"",""time""
""fullscreenenter"",""1"",""1389""
","
","","","","","","2189.5","images/bed3.png","","","memory_trial","4","definitely_new","","","","","","",""
"html-keyboard-response","80","238097","0.0-15.0-0.19","1927","2","""event"",""trial"",""time""
""fullscreenenter"",""1"",""1389""
","
","
","""event"",""trial"",""time""
""fullscreenenter"",""1"",""1389""
","
","","","","","","null","<div style=""font-size:60px;"">+</div>","null","","fixation","","","","","","","","",""
"memory-trial","81","240603","0.0-15.0-1.19","1927","2","""event"",""trial"",""time""
""fullscreenenter"",""1"",""1389""
","
","
","""event"",""trial"",""time""
""fullscreenenter"",""1"",""1389""
","
","","","","","","1501","images/chair2.png","","","memory_trial","2","maybe_old","","","","","","",""
"html-keyboard-response","82","241104","0.0-15.0-0.20","1927","2","""event"",""trial"",""time""
""fullscreenenter"",""1"",""1389""
","
","
","""event"",""trial"",""time""
""fullscreenenter"",""1"",""1389""
","
","","","","","","null","<div style=""font-size:60px;"">+</div>","null","","fixation","","","","","","","","",""
"memory-trial","83","243568","0.0-15.0-1.20","1927","2","""event"",""trial"",""time""
""fullscreenenter"",""1"",""1389""
","
","
","""event"",""trial"",""time""
""fullscreenenter"",""1"",""1389""
","
","","","","","","1455.5","images/straw1.png","","","memory_trial","2","maybe_old","","","","","","",""
"html-keyboard-response","84","244071","0.0-15.0-0.21","1927","2","""event"",""trial"",""time""
""fullscreenenter"",""1"",""1389""
","
","
","""event"",""trial"",""time""
""fullscreenenter"",""1"",""1389""
","
","","","","","","null","<div style=""font-size:60px;"">+</div>","null","","fixation","","","","","","","","",""
"memory-trial","85","248934","0.0-15.0-1.21","1927","2","""event"",""trial"",""time""
""fullscreenenter"",""1"",""1389""
","
","
","""event"",""trial"",""time""
""fullscreenenter"",""1"",""1389""
","
","","","","","","3860","images/straw4.png","","","memory_trial","2","maybe_old","","","","","","",""
"html-keyboard-response","86","249436","0.0-15.0-0.22","1927","2","""event"",""trial"",""time""
""fullscreenenter"",""1"",""1389""
","
","
","""event"",""trial"",""time""
""fullscreenenter"",""1"",""1389""
","
","","","","","","null","<div style=""font-size:60px;"">+</div>","null","","fixation","","","","","","","","",""
"memory-trial","87","251489","0.0-15.0-1.22","1927","2","""event"",""trial"",""time""
""fullscreenenter"",""1"",""1389""
","
","
","""event"",""trial"",""time""
""fullscreenenter"",""1"",""1389""
","
","","","","","","1048.7999999523163","images/feline3.png","","","memory_trial","1","definitely_old","","","","","","",""
"html-keyboard-response","88","251996","0.0-15.0-0.23","1927","2","""event"",""trial"",""time""
""fullscreenenter"",""1"",""1389""
","
","
","""event"",""trial"",""time""
""fullscreenenter"",""1"",""1389""
","
","","","","","","null","<div style=""font-size:60px;"">+</div>","null","","fixation","","","","","","","","",""
"memory-trial","89","254045","0.0-15.0-1.23","1927","2","""event"",""trial"",""time""
""fullscreenenter"",""1"",""1389""
","
","
","""event"",""trial"",""time""
""fullscreenenter"",""1"",""1389""
","
","","","","","","1042.8999999761581","images/bush1.png","","","memory_trial","1","definitely_old","","","","","","",""
"html-keyboard-response","90","254550","0.0-15.0-0.24","1927","2","""event"",""trial"",""time""
""fullscreenenter"",""1"",""1389""
","
","
","""event"",""trial"",""time""
""fullscreenenter"",""1"",""1389""
","
","","","","","","null","<div style=""font-size:60px;"">+</div>","null","","fixation","","","","","","","","",""
"memory-trial","91","256665","0.0-15.0-1.24","1927","2","""event"",""trial"",""time""
""fullscreenenter"",""1"",""1389""
","
","
","""event"",""trial"",""time""
""fullscreenenter"",""1"",""1389""
","
","","","","","","1107.1999999284744","images/rodent4.png","","","memory_trial","1","definitely_old","","","","","","",""
"html-keyboard-response","92","257168","0.0-15.0-0.25","1927","2","""event"",""trial"",""time""
""fullscreenenter"",""1"",""1389""
","
","
","""event"",""trial"",""time""
""fullscreenenter"",""1"",""1389""
","
","","","","","","null","<div style=""font-size:60px;"">+</div>","null","","fixation","","","","","","","","",""
"memory-trial","93","259945","0.0-15.0-1.25","1927","2","""event"",""trial"",""time""
""fullscreenenter"",""1"",""1389""
","
","
","""event"",""trial"",""time""
""fullscreenenter"",""1"",""1389""
","
","","","","","","1769.7000000476837","images/chair3.png","","","memory_trial","3","maybe_new","","","","","","",""
"html-keyboard-response","94","260450","0.0-15.0-0.26","1927","2","""event"",""trial"",""time""
""fullscreenenter"",""1"",""1389""
","
","
","""event"",""trial"",""time""
""fullscreenenter"",""1"",""1389""
","
","","","","","","null","<div style=""font-size:60px;"">+</div>","null","","fixation","","","","","","","","",""
"memory-trial","95","262598","0.0-15.0-1.26","1927","2","""event"",""trial"",""time""
""fullscreenenter"",""1"",""1389""
","
","
","""event"",""trial"",""time""
""fullscreenenter"",""1"",""1389""
","
","","","","","","1141.6999999284744","images/tree2.png","","","memory_trial","1","definitely_old","","","","","","",""
"html-keyboard-response","96","263100","0.0-15.0-0.27","1927","2","""event"",""trial"",""time""
""fullscreenenter"",""1"",""1389""
","
","
","""event"",""trial"",""time""
""fullscreenenter"",""1"",""1389""
","
","","","","","","null","<div style=""font-size:60px;"">+</div>","null","","fixation","","","","","","","","",""
"memory-trial","97","265453","0.0-15.0-1.27","1927","2","""event"",""trial"",""time""
""fullscreenenter"",""1"",""1389""
","
","
","""event"",""trial"",""time""
""fullscreenenter"",""1"",""1389""
","
","","","","","","1348.1000000238419","images/dog5.png","","","memory_trial","3","maybe_new","","","","","","",""
"html-keyboard-response","98","265958","0.0-15.0-0.28","1927","2","""event"",""trial"",""time""
""fullscreenenter"",""1"",""1389""
","
","
","""event"",""trial"",""time""
""fullscreenenter"",""1"",""1389""
","
","","","","","","null","<div style=""font-size:60px;"">+</div>","null","","fixation","","","","","","","","",""
"memory-trial","99","269186","0.0-15.0-1.28","1927","2","""event"",""trial"",""time""
""fullscreenenter"",""1"",""1389""
","
","
","""event"",""trial"",""time""
""fullscreenenter"",""1"",""1389""
","
","","","","","","2223.3000000715256","images/plane5.png","","","memory_trial","1","definitely_old","","","","","","",""
"html-keyboard-response","100","269691","0.0-15.0-0.29","1927","2","""event"",""trial"",""time""
""fullscreenenter"",""1"",""1389""
","
","
","""event"",""trial"",""time""
""fullscreenenter"",""1"",""1389""
","
","","","","","","null","<div style=""font-size:60px;"">+</div>","null","","fixation","","","","","","","","",""
"memory-trial","101","273186","0.0-15.0-1.29","1927","2","""event"",""trial"",""time""
""fullscreenenter"",""1"",""1389""
","
","
","""event"",""trial"",""time""
""fullscreenenter"",""1"",""1389""
","
","","","","","","2488.7999999523163","images/rodent1.png","","","memory_trial","3","maybe_new","","","","","","",""
"html-keyboard-response","102","273690","0.0-15.0-0.30","1927","2","""event"",""trial"",""time""
""fullscreenenter"",""1"",""1389""
","
","
","""event"",""trial"",""time""
""fullscreenenter"",""1"",""1389""
","
","","","","","","null","<div style=""font-size:60px;"">+</div>","null","","fixation","","","","","","","","",""
"memory-trial","103","276001","0.0-15.0-1.30","1927","2","""event"",""trial"",""time""
""fullscreenenter"",""1"",""1389""
","
","
","""event"",""trial"",""time""
""fullscreenenter"",""1"",""1389""
","
","","","","","","1305.0999999046326","images/horse3.png","","","memory_trial","2","maybe_old","","","","","","",""
"html-keyboard-response","104","276504","0.0-15.0-0.31","1927","2","""event"",""trial"",""time""
""fullscreenenter"",""1"",""1389""
","
","
","""event"",""trial"",""time""
""fullscreenenter"",""1"",""1389""
","
","","","","","","null","<div style=""font-size:60px;"">+</div>","null","","fixation","","","","","","","","",""
"memory-trial","105","278967","0.0-15.0-1.31","1927","2","""event"",""trial"",""time""
""fullscreenenter"",""1"",""1389""
","
","
","""event"",""trial"",""time""
""fullscreenenter"",""1"",""1389""
","
","","","","","","1459.1000000238419","images/orange2.png","","","memory_trial","1","definitely_old","","","","","","",""
"html-keyboard-response","106","279473","0.0-15.0-0.32","1927","2","""event"",""trial"",""time""
""fullscreenenter"",""1"",""1389""
","
","
","""event"",""trial"",""time""
""fullscreenenter"",""1"",""1389""
","
","","","","","","null","<div style=""font-size:60px;"">+</div>","null","","fixation","","","","","","","","",""
"memory-trial","107","281857","0.0-15.0-1.32","1927","2","""event"",""trial"",""time""
""fullscreenenter"",""1"",""1389""
","
","
","""event"",""trial"",""time""
""fullscreenenter"",""1"",""1389""
","
","","","","","","1378","images/train3.png","","","memory_trial","3","maybe_new","","","","","","",""
"html-keyboard-response","108","282361","0.0-15.0-0.33","1927","2","""event"",""trial"",""time""
""fullscreenenter"",""1"",""1389""
","
","
","""event"",""trial"",""time""
""fullscreenenter"",""1"",""1389""
","
","","","","","","null","<div style=""font-size:60px;"">+</div>","null","","fixation","","","","","","","","",""
"memory-trial","109","286396","0.0-15.0-1.33","1927","2","""event"",""trial"",""time""
""fullscreenenter"",""1"",""1389""
","
","
","""event"",""trial"",""time""
""fullscreenenter"",""1"",""1389""
","
","","","","","","3029.2999999523163","images/flower1.png","","","memory_trial","3","maybe_new","","","","","","",""
"html-keyboard-response","110","286902","0.0-15.0-0.34","1927","2","""event"",""trial"",""time""
""fullscreenenter"",""1"",""1389""
","
","
","""event"",""trial"",""time""
""fullscreenenter"",""1"",""1389""
","
","","","","","","null","<div style=""font-size:60px;"">+</div>","null","","fixation","","","","","","","","",""
"memory-trial","111","289026","0.0-15.0-1.34","1927","2","""event"",""trial"",""time""
""fullscreenenter"",""1"",""1389""
","
","
","""event"",""trial"",""time""
""fullscreenenter"",""1"",""1389""
","
","","","","","","1117.4000000953674","images/banana5.png","","","memory_trial","2","maybe_old","","","","","","",""
"html-keyboard-response","112","289531","0.0-15.0-0.35","1927","2","""event"",""trial"",""time""
""fullscreenenter"",""1"",""1389""
","
","
","""event"",""trial"",""time""
""fullscreenenter"",""1"",""1389""
","
","","","","","","null","<div style=""font-size:60px;"">+</div>","null","","fixation","","","","","","","","",""
"memory-trial","113","292809","0.0-15.0-1.35","1927","2","""event"",""trial"",""time""
""fullscreenenter"",""1"",""1389""
","
","
","""event"",""trial"",""time""
""fullscreenenter"",""1"",""1389""
","
","","","","","","2271.600000023842","images/bush4.png","","","memory_trial","2","maybe_old","","","","","","",""
"html-keyboard-response","114","293315","0.0-15.0-0.36","1927","2","""event"",""trial"",""time""
""fullscreenenter"",""1"",""1389""
","
","
","""event"",""trial"",""time""
""fullscreenenter"",""1"",""1389""
","
","","","","","","null","<div style=""font-size:60px;"">+</div>","null","","fixation","","","","","","","","",""
"memory-trial","115","296029","0.0-15.0-1.36","1927","2","""event"",""trial"",""time""
""fullscreenenter"",""1"",""1389""
","
","
","""event"",""trial"",""time""
""fullscreenenter"",""1"",""1389""
","
","","","","","","1704.8000000715256","images/cactus3.png","","","memory_trial","2","maybe_old","","","","","","",""
"html-keyboard-response","116","296535","0.0-15.0-0.37","1927","2","""event"",""trial"",""time""
""fullscreenenter"",""1"",""1389""
","
","
","""event"",""trial"",""time""
""fullscreenenter"",""1"",""1389""
","
","","","","","","null","<div style=""font-size:60px;"">+</div>","null","","fixation","","","","","","","","",""
"memory-trial","117","298623","0.0-15.0-1.37","1927","2","""event"",""trial"",""time""
""fullscreenenter"",""1"",""1389""
","
","
","""event"",""trial"",""time""
""fullscreenenter"",""1"",""1389""
","
","","","","","","1080.2999999523163","images/straw5.png","","","memory_trial","2","maybe_old","","","","","","",""
"html-keyboard-response","118","299127","0.0-15.0-0.38","1927","2","""event"",""trial"",""time""
""fullscreenenter"",""1"",""1389""
","
","
","""event"",""trial"",""time""
""fullscreenenter"",""1"",""1389""
","
","","","","","","null","<div style=""font-size:60px;"">+</div>","null","","fixation","","","","","","","","",""
"memory-trial","119","301228","0.0-15.0-1.38","1927","2","""event"",""trial"",""time""
""fullscreenenter"",""1"",""1389""
","
","
","""event"",""trial"",""time""
""fullscreenenter"",""1"",""1389""
","
","","","","","","1092.3000000715256","images/cactus2.png","","","memory_trial","3","maybe_new","","","","","","",""
"html-keyboard-response","120","301730","0.0-15.0-0.39","1927","2","""event"",""trial"",""time""
""fullscreenenter"",""1"",""1389""
","
","
","""event"",""trial"",""time""
""fullscreenenter"",""1"",""1389""
","
","","","","","","null","<div style=""font-size:60px;"">+</div>","null","","fixation","","","","","","","","",""
"memory-trial","121","304958","0.0-15.0-1.39","1927","2","""event"",""trial"",""time""
""fullscreenenter"",""1"",""1389""
","
","
","""event"",""trial"",""time""
""fullscreenenter"",""1"",""1389""
","
","","","","","","2221.399999976158","images/straw3.png","","","memory_trial","3","maybe_new","","","","","","",""
"html-keyboard-response","122","305462","0.0-15.0-0.40","1927","2","""event"",""trial"",""time""
""fullscreenenter"",""1"",""1389""
","
","
","""event"",""trial"",""time""
""fullscreenenter"",""1"",""1389""
","
","","","","","","null","<div style=""font-size:60px;"">+</div>","null","","fixation","","","","","","","","",""
"memory-trial","123","308279","0.0-15.0-1.40","1927","2","""event"",""trial"",""time""
""fullscreenenter"",""1"",""1389""
","
","
","""event"",""trial"",""time""
""fullscreenenter"",""1"",""1389""
","
","","","","","","1811.3000000715256","images/dog4.png","","","memory_trial","4","definitely_new","","","","","","",""
"html-keyboard-response","124","308784","0.0-15.0-0.41","1927","2","""event"",""trial"",""time""
""fullscreenenter"",""1"",""1389""
","
","
","""event"",""trial"",""time""
""fullscreenenter"",""1"",""1389""
","
","","","","","","null","<div style=""font-size:60px;"">+</div>","null","","fixation","","","","","","","","",""
"memory-trial","125","310770","0.0-15.0-1.41","1927","2","""event"",""trial"",""time""
""fullscreenenter"",""1"",""1389""
","
","
","""event"",""trial"",""time""
""fullscreenenter"",""1"",""1389""
","
","","","","","","981.3999999761581","images/cow5.png","","","memory_trial","1","definitely_old","","","","","","",""
"html-keyboard-response","126","311276","0.0-15.0-0.42","1927","2","""event"",""trial"",""time""
""fullscreenenter"",""1"",""1389""
","
","
","""event"",""trial"",""time""
""fullscreenenter"",""1"",""1389""
","
","","","","","","null","<div style=""font-size:60px;"">+</div>","null","","fixation","","","","","","","","",""
"memory-trial","127","313698","0.0-15.0-1.42","1927","2","""event"",""trial"",""time""
""fullscreenenter"",""1"",""1389""
","
","
","""event"",""trial"",""time""
""fullscreenenter"",""1"",""1389""
","
","","","","","","1417.7000000476837","images/cactus5.png","","","memory_trial","3","maybe_new","","","","","","",""
"html-keyboard-response","128","314205","0.0-15.0-0.43","1927","2","""event"",""trial"",""time""
""fullscreenenter"",""1"",""1389""
","
","
","""event"",""trial"",""time""
""fullscreenenter"",""1"",""1389""
","
","","","","","","null","<div style=""font-size:60px;"">+</div>","null","","fixation","","","","","","","","",""
"memory-trial","129","316301","0.0-15.0-1.43","1927","2","""event"",""trial"",""time""
""fullscreenenter"",""1"",""1389""
","
","
","""event"",""trial"",""time""
""fullscreenenter"",""1"",""1389""
","
","","","","","","1090.3000000715256","images/bed5.png","","","memory_trial","4","definitely_new","","","","","","",""
"html-keyboard-response","130","316807","0.0-15.0-0.44","1927","2","""event"",""trial"",""time""
""fullscreenenter"",""1"",""1389""
","
","
","""event"",""trial"",""time""
""fullscreenenter"",""1"",""1389""
","
","","","","","","null","<div style=""font-size:60px;"">+</div>","null","","fixation","","","","","","","","",""
"memory-trial","131","318759","0.0-15.0-1.44","1927","2","""event"",""trial"",""time""
""fullscreenenter"",""1"",""1389""
","
","
","""event"",""trial"",""time""
""fullscreenenter"",""1"",""1389""
","
","","","","","","946.3000000715256","images/table1.png","","","memory_trial","2","maybe_old","","","","","","",""
"html-keyboard-response","132","319262","0.0-15.0-0.45","1927","2","""event"",""trial"",""time""
""fullscreenenter"",""1"",""1389""
","
","
","""event"",""trial"",""time""
""fullscreenenter"",""1"",""1389""
","
","","","","","","null","<div style=""font-size:60px;"">+</div>","null","","fixation","","","","","","","","",""
"memory-trial","133","322109","0.0-15.0-1.45","1927","2","""event"",""trial"",""time""
""fullscreenenter"",""1"",""1389""
","
","
","""event"",""trial"",""time""
""fullscreenenter"",""1"",""1389""
","
","","","","","","1840.7999999523163","images/sofa1.png","","","memory_trial","3","maybe_new","","","","","","",""
"html-keyboard-response","134","322615","0.0-15.0-0.46","1927","2","""event"",""trial"",""time""
""fullscreenenter"",""1"",""1389""
","
","
","""event"",""trial"",""time""
""fullscreenenter"",""1"",""1389""
","
","","","","","","null","<div style=""font-size:60px;"">+</div>","null","","fixation","","","","","","","","",""
"memory-trial","135","324562","0.0-15.0-1.46","1927","2","""event"",""trial"",""time""
""fullscreenenter"",""1"",""1389""
","
","
","""event"",""trial"",""time""
""fullscreenenter"",""1"",""1389""
","
","","","","","","941.7999999523163","images/flower5.png","","","memory_trial","4","definitely_new","","","","","","",""
"html-button-response","136","327176","0.0-15.0-2.46-0.46","1927","2","""event"",""trial"",""time""
""fullscreenenter"",""1"",""1389""
","
","
","""event"",""trial"",""time""
""fullscreenenter"",""1"",""1389""
","
","","","","","","2612.399999976158","<p> Take a break! </p><p> Click the button to continue. </p>","0","","break","","","","","","","","",""
"html-keyboard-response","137","327679","0.0-15.0-0.47","1927","2","""event"",""trial"",""time""
""fullscreenenter"",""1"",""1389""
","
","
","""event"",""trial"",""time""
""fullscreenenter"",""1"",""1389""
","
","","","","","","null","<div style=""font-size:60px;"">+</div>","null","","fixation","","","","","","","","",""
"memory-trial","138","329837","0.0-15.0-1.47","1927","2","""event"",""trial"",""time""
""fullscreenenter"",""1"",""1389""
","
","
","""event"",""trial"",""time""
""fullscreenenter"",""1"",""1389""
","
","","","","","","1149.2000000476837","images/apple1.png","","","memory_trial","4","definitely_new","","","","","","",""
"html-keyboard-response","139","330341","0.0-15.0-0.48","1927","2","""event"",""trial"",""time""
""fullscreenenter"",""1"",""1389""
","
","
","""event"",""trial"",""time""
""fullscreenenter"",""1"",""1389""
","
","","","","","","null","<div style=""font-size:60px;"">+</div>","null","","fixation","","","","","","","","",""
"memory-trial","140","333661","0.0-15.0-1.48","1927","2","""event"",""trial"",""time""
""fullscreenenter"",""1"",""1389""
","
","
","""event"",""trial"",""time""
""fullscreenenter"",""1"",""1389""
","
","","","","","","2313.5","images/apple4.png","","","memory_trial","3","maybe_new","","","","","","",""
"html-keyboard-response","141","334167","0.0-15.0-0.49","1927","2","""event"",""trial"",""time""
""fullscreenenter"",""1"",""1389""
","
","
","""event"",""trial"",""time""
""fullscreenenter"",""1"",""1389""
","
","","","","","","null","<div style=""font-size:60px;"">+</div>","null","","fixation","","","","","","","","",""
"memory-trial","142","336013","0.0-15.0-1.49","1927","2","""event"",""trial"",""time""
""fullscreenenter"",""1"",""1389""
","
","
","""event"",""trial"",""time""
""fullscreenenter"",""1"",""1389""
","
","","","","","","838.7999999523163","images/bed1.png","","","memory_trial","4","definitely_new","","","","","","",""
"html-keyboard-response","143","336517","0.0-15.0-0.50","1927","2","""event"",""trial"",""time""
""fullscreenenter"",""1"",""1389""
","
","
","""event"",""trial"",""time""
""fullscreenenter"",""1"",""1389""
","
","","","","","","null","<div style=""font-size:60px;"">+</div>","null","","fixation","","","","","","","","",""
"memory-trial","144","338527","0.0-15.0-1.50","1927","2","""event"",""trial"",""time""
""fullscreenenter"",""1"",""1389""
","
","
","""event"",""trial"",""time""
""fullscreenenter"",""1"",""1389""
","
","","","","","","1005.3000000715256","images/feline1.png","","","memory_trial","1","definitely_old","","","","","","",""
"html-keyboard-response","145","339030","0.0-15.0-0.51","1927","2","""event"",""trial"",""time""
""fullscreenenter"",""1"",""1389""
","
","
","""event"",""trial"",""time""
""fullscreenenter"",""1"",""1389""
","
","","","","","","null","<div style=""font-size:60px;"">+</div>","null","","fixation","","","","","","","","",""
"memory-trial","146","340952","0.0-15.0-1.51","1927","2","""event"",""trial"",""time""
""fullscreenenter"",""1"",""1389""
","
","
","""event"",""trial"",""time""
""fullscreenenter"",""1"",""1389""
","
","","","","","","915.9000000953674","images/plane2.png","","","memory_trial","1","definitely_old","","","","","","",""
"html-keyboard-response","147","341458","0.0-15.0-0.52","1927","2","""event"",""trial"",""time""
""fullscreenenter"",""1"",""1389""
","
","
","""event"",""trial"",""time""
""fullscreenenter"",""1"",""1389""
","
","","","","","","null","<div style=""font-size:60px;"">+</div>","null","","fixation","","","","","","","","",""
"memory-trial","148","343367","0.0-15.0-1.52","1927","2","""event"",""trial"",""time""
""fullscreenenter"",""1"",""1389""
","
","
","""event"",""trial"",""time""
""fullscreenenter"",""1"",""1389""
","
","","","","","","904.6999999284744","images/bed2.png","","","memory_trial","4","definitely_new","","","","","","",""
"html-keyboard-response","149","343869","0.0-15.0-0.53","1927","2","""event"",""trial"",""time""
""fullscreenenter"",""1"",""1389""
","
","
","""event"",""trial"",""time""
""fullscreenenter"",""1"",""1389""
","
","","","","","","null","<div style=""font-size:60px;"">+</div>","null","","fixation","","","","","","","","",""
"memory-trial","150","346093","0.0-15.0-1.53","1927","2","""event"",""trial"",""time""
""fullscreenenter"",""1"",""1389""
","
","
","""event"",""trial"",""time""
""fullscreenenter"",""1"",""1389""
","
","","","","","","1217","images/rodent2.png","","","memory_trial","2","maybe_old","","","","","","",""
"html-keyboard-response","151","346595","0.0-15.0-0.54","1927","2","""event"",""trial"",""time""
""fullscreenenter"",""1"",""1389""
","
","
","""event"",""trial"",""time""
""fullscreenenter"",""1"",""1389""
","
","","","","","","null","<div style=""font-size:60px;"">+</div>","null","","fixation","","","","","","","","",""
"memory-trial","152","348935","0.0-15.0-1.54","1927","2","""event"",""trial"",""time""
""fullscreenenter"",""1"",""1389""
","
","
","""event"",""trial"",""time""
""fullscreenenter"",""1"",""1389""
","
","","","","","","1337.0999999046326","images/train2.png","","","memory_trial","2","maybe_old","","","","","","",""
"html-keyboard-response","153","349437","0.0-15.0-0.55","1927","2","""event"",""trial"",""time""
""fullscreenenter"",""1"",""1389""
","
","
","""event"",""trial"",""time""
""fullscreenenter"",""1"",""1389""
","
","","","","","","null","<div style=""font-size:60px;"">+</div>","null","","fixation","","","","","","","","",""
"memory-trial","154","351698","0.0-15.0-1.55","1927","2","""event"",""trial"",""time""
""fullscreenenter"",""1"",""1389""
","
","
","""event"",""trial"",""time""
""fullscreenenter"",""1"",""1389""
","
","","","","","","1257.1000000238419","images/horse4.png","","","memory_trial","3","maybe_new","","","","","","",""
"html-keyboard-response","155","352200","0.0-15.0-0.56","1927","2","""event"",""trial"",""time""
""fullscreenenter"",""1"",""1389""
","
","
","""event"",""trial"",""time""
""fullscreenenter"",""1"",""1389""
","
","","","","","","null","<div style=""font-size:60px;"">+</div>","null","","fixation","","","","","","","","",""
"memory-trial","156","354247","0.0-15.0-1.56","1927","2","""event"",""trial"",""time""
""fullscreenenter"",""1"",""1389""
","
","
","""event"",""trial"",""time""
""fullscreenenter"",""1"",""1389""
","
","","","","","","1041.6999999284744","images/straw2.png","","","memory_trial","2","maybe_old","","","","","","",""
"html-keyboard-response","157","354749","0.0-15.0-0.57","1927","2","""event"",""trial"",""time""
""fullscreenenter"",""1"",""1389""
","
","
","""event"",""trial"",""time""
""fullscreenenter"",""1"",""1389""
","
","","","","","","null","<div style=""font-size:60px;"">+</div>","null","","fixation","","","","","","","","",""
"memory-trial","158","356436","0.0-15.0-1.57","1927","2","""event"",""trial"",""time""
""fullscreenenter"",""1"",""1389""
","
","
","""event"",""trial"",""time""
""fullscreenenter"",""1"",""1389""
","
","","","","","","682.6000000238419","images/apple2.png","","","memory_trial","4","definitely_new","","","","","","",""
"html-keyboard-response","159","356941","0.0-15.0-0.58","1927","2","""event"",""trial"",""time""
""fullscreenenter"",""1"",""1389""
","
","
","""event"",""trial"",""time""
""fullscreenenter"",""1"",""1389""
","
","","","","","","null","<div style=""font-size:60px;"">+</div>","null","","fixation","","","","","","","","",""
"memory-trial","160","358946","0.0-15.0-1.58","1927","2","""event"",""trial"",""time""
""fullscreenenter"",""1"",""1389""
","
","
","""event"",""trial"",""time""
""fullscreenenter"",""1"",""1389""
","
","","","","","","997.6000000238419","images/sofa5.png","","","memory_trial","3","maybe_new","","","","","","",""
"html-keyboard-response","161","359450","0.0-15.0-0.59","1927","2","""event"",""trial"",""time""
""fullscreenenter"",""1"",""1389""
","
","
","""event"",""trial"",""time""
""fullscreenenter"",""1"",""1389""
","
","","","","","","null","<div style=""font-size:60px;"">+</div>","null","","fixation","","","","","","","","",""
"memory-trial","162","361949","0.0-15.0-1.59","1927","2","""event"",""trial"",""time""
""fullscreenenter"",""1"",""1389""
","
","
","""event"",""trial"",""time""
""fullscreenenter"",""1"",""1389""
","
","","","","","","1493.8999999761581","images/orange5.png","","","memory_trial","2","maybe_old","","","","","","",""
"html-keyboard-response","163","362452","0.0-15.0-0.60","1927","2","""event"",""trial"",""time""
""fullscreenenter"",""1"",""1389""
","
","
","""event"",""trial"",""time""
""fullscreenenter"",""1"",""1389""
","
","","","","","","null","<div style=""font-size:60px;"">+</div>","null","","fixation","","","","","","","","",""
"memory-trial","164","365785","0.0-15.0-1.60","1927","2","""event"",""trial"",""time""
""fullscreenenter"",""1"",""1389""
","
","
","""event"",""trial"",""time""
""fullscreenenter"",""1"",""1389""
","
","","","","","","2326.2000000476837","images/goat1.png","","","memory_trial","3","maybe_new","","","","","","",""
"html-keyboard-response","165","366291","0.0-15.0-0.61","1927","2","""event"",""trial"",""time""
""fullscreenenter"",""1"",""1389""
","
","
","""event"",""trial"",""time""
""fullscreenenter"",""1"",""1389""
","
","","","","","","null","<div style=""font-size:60px;"">+</div>","null","","fixation","","","","","","","","",""
"memory-trial","166","368403","0.0-15.0-1.61","1927","2","""event"",""trial"",""time""
""fullscreenenter"",""1"",""1389""
","
","
","""event"",""trial"",""time""
""fullscreenenter"",""1"",""1389""
","
","","","","","","1106","images/banana2.png","","","memory_trial","3","maybe_new","","","","","","",""
"html-keyboard-response","167","368909","0.0-15.0-0.62","1927","2","""event"",""trial"",""time""
""fullscreenenter"",""1"",""1389""
","
","
","""event"",""trial"",""time""
""fullscreenenter"",""1"",""1389""
","
","","","","","","null","<div style=""font-size:60px;"">+</div>","null","","fixation","","","","","","","","",""
"memory-trial","168","371453","0.0-15.0-1.62","1927","2","""event"",""trial"",""time""
""fullscreenenter"",""1"",""1389""
","
","
","""event"",""trial"",""time""
""fullscreenenter"",""1"",""1389""
","
","","","","","","1537.1999999284744","images/bush5.png","","","memory_trial","3","maybe_new","","","","","","",""
"html-keyboard-response","169","371958","0.0-15.0-0.63","1927","2","""event"",""trial"",""time""
""fullscreenenter"",""1"",""1389""
","
","
","""event"",""trial"",""time""
""fullscreenenter"",""1"",""1389""
","
","","","","","","null","<div style=""font-size:60px;"">+</div>","null","","fixation","","","","","","","","",""
"memory-trial","170","374349","0.0-15.0-1.63","1927","2","""event"",""trial"",""time""
""fullscreenenter"",""1"",""1389""
","
","
","""event"",""trial"",""time""
""fullscreenenter"",""1"",""1389""
","
","","","","","","1384.7999999523163","images/rabbit3.png","","","memory_trial","3","maybe_new","","","","","","",""
"html-keyboard-response","171","374855","0.0-15.0-0.64","1927","2","""event"",""trial"",""time""
""fullscreenenter"",""1"",""1389""
","
","
","""event"",""trial"",""time""
""fullscreenenter"",""1"",""1389""
","
","","","","","","null","<div style=""font-size:60px;"">+</div>","null","","fixation","","","","","","","","",""
"memory-trial","172","377466","0.0-15.0-1.64","1927","2","""event"",""trial"",""time""
""fullscreenenter"",""1"",""1389""
","
","
","""event"",""trial"",""time""
""fullscreenenter"",""1"",""1389""
","
","","","","","","1605.1000000238419","images/apple3.png","","","memory_trial","4","definitely_new","","","","","","",""
"html-keyboard-response","173","377971","0.0-15.0-0.65","1927","2","""event"",""trial"",""time""
""fullscreenenter"",""1"",""1389""
","
","
","""event"",""trial"",""time""
""fullscreenenter"",""1"",""1389""
","
","","","","","","null","<div style=""font-size:60px;"">+</div>","null","","fixation","","","","","","","","",""
"memory-trial","174","380280","0.0-15.0-1.65","1927","2","""event"",""trial"",""time""
""fullscreenenter"",""1"",""1389""
","
","
","""event"",""trial"",""time""
""fullscreenenter"",""1"",""1389""
","
","","","","","","1300.1999999284744","images/rabbit4.png","","","memory_trial","1","definitely_old","","","","","","",""
"html-keyboard-response","175","380787","0.0-15.0-0.66","1927","2","""event"",""trial"",""time""
""fullscreenenter"",""1"",""1389""
","
","
","""event"",""trial"",""time""
""fullscreenenter"",""1"",""1389""
","
","","","","","","null","<div style=""font-size:60px;"">+</div>","null","","fixation","","","","","","","","",""
"memory-trial","176","382546","0.0-15.0-1.66","1927","2","""event"",""trial"",""time""
""fullscreenenter"",""1"",""1389""
","
","
","""event"",""trial"",""time""
""fullscreenenter"",""1"",""1389""
","
","","","","","","756.4000000953674","images/boat5.png","","","memory_trial","1","definitely_old","","","","","","",""
"html-keyboard-response","177","383048","0.0-15.0-0.67","1927","2","""event"",""trial"",""time""
""fullscreenenter"",""1"",""1389""
","
","
","""event"",""trial"",""time""
""fullscreenenter"",""1"",""1389""
","
","","","","","","null","<div style=""font-size:60px;"">+</div>","null","","fixation","","","","","","","","",""
"memory-trial","178","385298","0.0-15.0-1.67","1927","2","""event"",""trial"",""time""
""fullscreenenter"",""1"",""1389""
","
","
","""event"",""trial"",""time""
""fullscreenenter"",""1"",""1389""
","
","","","","","","1243.7999999523163","images/chair5.png","","","memory_trial","2","maybe_old","","","","","","",""
"html-keyboard-response","179","385802","0.0-15.0-0.68","1927","2","""event"",""trial"",""time""
""fullscreenenter"",""1"",""1389""
","
","
","""event"",""trial"",""time""
""fullscreenenter"",""1"",""1389""
","
","","","","","","null","<div style=""font-size:60px;"">+</div>","null","","fixation","","","","","","","","",""
"memory-trial","180","388141","0.0-15.0-1.68","1927","2","""event"",""trial"",""time""
""fullscreenenter"",""1"",""1389""
","
","
","""event"",""trial"",""time""
""fullscreenenter"",""1"",""1389""
","
","","","","","","1333.1000000238419","images/tree3.png","","","memory_trial","3","maybe_new","","","","","","",""
"html-keyboard-response","181","388643","0.0-15.0-0.69","1927","2","""event"",""trial"",""time""
""fullscreenenter"",""1"",""1389""
","
","
","""event"",""trial"",""time""
""fullscreenenter"",""1"",""1389""
","
","","","","","","null","<div style=""font-size:60px;"">+</div>","null","","fixation","","","","","","","","",""
"memory-trial","182","391188","0.0-15.0-1.69","1927","2","""event"",""trial"",""time""
""fullscreenenter"",""1"",""1389""
","
","
","""event"",""trial"",""time""
""fullscreenenter"",""1"",""1389""
","
","","","","","","1541.1999999284744","images/truck4.png","","","memory_trial","3","maybe_new","","","","","","",""
"html-keyboard-response","183","391693","0.0-15.0-0.70","1927","2","""event"",""trial"",""time""
""fullscreenenter"",""1"",""1389""
","
","
","""event"",""trial"",""time""
""fullscreenenter"",""1"",""1389""
","
","","","","","","null","<div style=""font-size:60px;"">+</div>","null","","fixation","","","","","","","","",""
"memory-trial","184","394624","0.0-15.0-1.70","1927","2","""event"",""trial"",""time""
""fullscreenenter"",""1"",""1389""
","
","
","""event"",""trial"",""time""
""fullscreenenter"",""1"",""1389""
","
","","","","","","1925.3999999761581","images/tree5.png","","","memory_trial","2","maybe_old","","","","","","",""
"html-keyboard-response","185","395126","0.0-15.0-0.71","1927","2","""event"",""trial"",""time""
""fullscreenenter"",""1"",""1389""
","
","
","""event"",""trial"",""time""
""fullscreenenter"",""1"",""1389""
","
","","","","","","null","<div style=""font-size:60px;"">+</div>","null","","fixation","","","","","","","","",""
"memory-trial","186","397726","0.0-15.0-1.71","1927","2","""event"",""trial"",""time""
""fullscreenenter"",""1"",""1389""
","
","
","""event"",""trial"",""time""
""fullscreenenter"",""1"",""1389""
","
","","","","","","1592.7000000476837","images/plane3.png","","","memory_trial","3","maybe_new","","","","","","",""
"html-keyboard-response","187","398230","0.0-15.0-0.72","1927","2","""event"",""trial"",""time""
""fullscreenenter"",""1"",""1389""
","
","
","""event"",""trial"",""time""
""fullscreenenter"",""1"",""1389""
","
","","","","","","null","<div style=""font-size:60px;"">+</div>","null","","fixation","","","","","","","","",""
"memory-trial","188","400248","0.0-15.0-1.72","1927","2","""event"",""trial"",""time""
""fullscreenenter"",""1"",""1389""
","
","
","""event"",""trial"",""time""
""fullscreenenter"",""1"",""1389""
","
","","","","","","1014.7999999523163","images/truck3.png","","","memory_trial","3","maybe_new","","","","","","",""
"html-keyboard-response","189","400749","0.0-15.0-0.73","1927","2","""event"",""trial"",""time""
""fullscreenenter"",""1"",""1389""
","
","
","""event"",""trial"",""time""
""fullscreenenter"",""1"",""1389""
","
","","","","","","null","<div style=""font-size:60px;"">+</div>","null","","fixation","","","","","","","","",""
"memory-trial","190","403907","0.0-15.0-1.73","1927","2","""event"",""trial"",""time""
""fullscreenenter"",""1"",""1389""
","
","
","""event"",""trial"",""time""
""fullscreenenter"",""1"",""1389""
","
","","","","","","2154.100000023842","images/rodent5.png","","","memory_trial","2","maybe_old","","","","","","",""
"html-keyboard-response","191","404414","0.0-15.0-0.74","1927","2","""event"",""trial"",""time""
""fullscreenenter"",""1"",""1389""
","
","
","""event"",""trial"",""time""
""fullscreenenter"",""1"",""1389""
","
","","","","","","null","<div style=""font-size:60px;"">+</div>","null","","fixation","","","","","","","","",""
"memory-trial","192","406669","0.0-15.0-1.74","1927","2","""event"",""trial"",""time""
""fullscreenenter"",""1"",""1389""
","
","
","""event"",""trial"",""time""
""fullscreenenter"",""1"",""1389""
","
","","","","","","1252.2000000476837","images/horse1.png","","","memory_trial","3","maybe_new","","","","","","",""
"html-keyboard-response","193","407173","0.0-15.0-0.75","1927","2","""event"",""trial"",""time""
""fullscreenenter"",""1"",""1389""
","
","
","""event"",""trial"",""time""
""fullscreenenter"",""1"",""1389""
","
","","","","","","null","<div style=""font-size:60px;"">+</div>","null","","fixation","","","","","","","","",""
"memory-trial","194","409038","0.0-15.0-1.75","1927","2","""event"",""trial"",""time""
""fullscreenenter"",""1"",""1389""
","
","
","""event"",""trial"",""time""
""fullscreenenter"",""1"",""1389""
","
","","","","","","857.9000000953674","images/horse2.png","","","memory_trial","1","definitely_old","","","","","","",""
"html-keyboard-response","195","409545","0.0-15.0-0.76","1927","2","""event"",""trial"",""time""
""fullscreenenter"",""1"",""1389""
","
","
","""event"",""trial"",""time""
""fullscreenenter"",""1"",""1389""
","
","","","","","","null","<div style=""font-size:60px;"">+</div>","null","","fixation","","","","","","","","",""
"memory-trial","196","411437","0.0-15.0-1.76","1927","2","""event"",""trial"",""time""
""fullscreenenter"",""1"",""1389""
","
","
","""event"",""trial"",""time""
""fullscreenenter"",""1"",""1389""
","
","","","","","","884.7999999523163","images/table5.png","","","memory_trial","2","maybe_old","","","","","","",""
"html-keyboard-response","197","411939","0.0-15.0-0.77","1927","2","""event"",""trial"",""time""
""fullscreenenter"",""1"",""1389""
","
","
","""event"",""trial"",""time""
""fullscreenenter"",""1"",""1389""
","
","","","","","","null","<div style=""font-size:60px;"">+</div>","null","","fixation","","","","","","","","",""
"memory-trial","198","413805","0.0-15.0-1.77","1927","2","""event"",""trial"",""time""
""fullscreenenter"",""1"",""1389""
","
","
","""event"",""trial"",""time""
""fullscreenenter"",""1"",""1389""
","
","","","","","","862.6999999284744","images/sheep1.png","","","memory_trial","3","maybe_new","","","","","","",""
"html-keyboard-response","199","414307","0.0-15.0-0.78","1927","2","""event"",""trial"",""time""
""fullscreenenter"",""1"",""1389""
","
","
","""event"",""trial"",""time""
""fullscreenenter"",""1"",""1389""
","
","","","","","","null","<div style=""font-size:60px;"">+</div>","null","","fixation","","","","","","","","",""
"memory-trial","200","417976","0.0-15.0-1.78","1927","2","""event"",""trial"",""time""
""fullscreenenter"",""1"",""1389""
","
","
","""event"",""trial"",""time""
""fullscreenenter"",""1"",""1389""
","
","","","","","","2661.600000023842","images/train5.png","","","memory_trial","3","maybe_new","","","","","","",""
"html-keyboard-response","201","418482","0.0-15.0-0.79","1927","2","""event"",""trial"",""time""
""fullscreenenter"",""1"",""1389""
","
","
","""event"",""trial"",""time""
""fullscreenenter"",""1"",""1389""
","
","","","","","","null","<div style=""font-size:60px;"">+</div>","null","","fixation","","","","","","","","",""
"memory-trial","202","420344","0.0-15.0-1.79","1927","2","""event"",""trial"",""time""
""fullscreenenter"",""1"",""1389""
","
","
","""event"",""trial"",""time""
""fullscreenenter"",""1"",""1389""
","
","","","","","","854.5","images/cow3.png","","","memory_trial","3","maybe_new","","","","","","",""
"html-keyboard-response","203","420847","0.0-15.0-0.80","1927","2","""event"",""trial"",""time""
""fullscreenenter"",""1"",""1389""
","
","
","""event"",""trial"",""time""
""fullscreenenter"",""1"",""1389""
","
","","","","","","null","<div style=""font-size:60px;"">+</div>","null","","fixation","","","","","","","","",""
"memory-trial","204","422820","0.0-15.0-1.80","1927","2","""event"",""trial"",""time""
""fullscreenenter"",""1"",""1389""
","
","
","""event"",""trial"",""time""
""fullscreenenter"",""1"",""1389""
","
","","","","","","965.3000000715256","images/dog2.png","","","memory_trial","4","definitely_new","","","","","","",""
"html-keyboard-response","205","423326","0.0-15.0-0.81","1927","2","""event"",""trial"",""time""
""fullscreenenter"",""1"",""1389""
","
","
","""event"",""trial"",""time""
""fullscreenenter"",""1"",""1389""
","
","","","","","","null","<div style=""font-size:60px;"">+</div>","null","","fixation","","","","","","","","",""
"memory-trial","206","425300","0.0-15.0-1.81","1927","2","""event"",""trial"",""time""
""fullscreenenter"",""1"",""1389""
","
","
","""event"",""trial"",""time""
""fullscreenenter"",""1"",""1389""
","
","","","","","","964.6000000238419","images/bush2.png","","","memory_trial","2","maybe_old","","","","","","",""
"html-keyboard-response","207","425803","0.0-15.0-0.82","1927","2","""event"",""trial"",""time""
""fullscreenenter"",""1"",""1389""
","
","
","""event"",""trial"",""time""
""fullscreenenter"",""1"",""1389""
","
","","","","","","null","<div style=""font-size:60px;"">+</div>","null","","fixation","","","","","","","","",""
"memory-trial","208","428122","0.0-15.0-1.82","1927","2","""event"",""trial"",""time""
""fullscreenenter"",""1"",""1389""
","
","
","""event"",""trial"",""time""
""fullscreenenter"",""1"",""1389""
","
","","","","","","1313.1000000238419","images/sheep5.png","","","memory_trial","3","maybe_new","","","","","","",""
"html-keyboard-response","209","428628","0.0-15.0-0.83","1927","2","""event"",""trial"",""time""
""fullscreenenter"",""1"",""1389""
","
","
","""event"",""trial"",""time""
""fullscreenenter"",""1"",""1389""
","
","","","","","","null","<div style=""font-size:60px;"">+</div>","null","","fixation","","","","","","","","",""
"memory-trial","210","430488","0.0-15.0-1.83","1927","2","""event"",""trial"",""time""
""fullscreenenter"",""1"",""1389""
","
","
","""event"",""trial"",""time""
""fullscreenenter"",""1"",""1389""
","
","","","","","","853","images/dog1.png","","","memory_trial","4","definitely_new","","","","","","",""
"html-keyboard-response","211","430990","0.0-15.0-0.84","1927","2","""event"",""trial"",""time""
""fullscreenenter"",""1"",""1389""
","
","
","""event"",""trial"",""time""
""fullscreenenter"",""1"",""1389""
","
","","","","","","null","<div style=""font-size:60px;"">+</div>","null","","fixation","","","","","","","","",""
"memory-trial","212","433230","0.0-15.0-1.84","1927","2","""event"",""trial"",""time""
""fullscreenenter"",""1"",""1389""
","
","
","""event"",""trial"",""time""
""fullscreenenter"",""1"",""1389""
","
","","","","","","1235.6000000238419","images/train1.png","","","memory_trial","4","definitely_new","","","","","","",""
"html-keyboard-response","213","433737","0.0-15.0-0.85","1927","2","""event"",""trial"",""time""
""fullscreenenter"",""1"",""1389""
","
","
","""event"",""trial"",""time""
""fullscreenenter"",""1"",""1389""
","
","","","","","","null","<div style=""font-size:60px;"">+</div>","null","","fixation","","","","","","","","",""
"memory-trial","214","435966","0.0-15.0-1.85","1927","2","""event"",""trial"",""time""
""fullscreenenter"",""1"",""1389""
","
","
","""event"",""trial"",""time""
""fullscreenenter"",""1"",""1389""
","
","","","","","","1223.1999999284744","images/cactus1.png","","","memory_trial","2","maybe_old","","","","","","",""
"html-keyboard-response","215","436472","0.0-15.0-0.86","1927","2","""event"",""trial"",""time""
""fullscreenenter"",""1"",""1389""
","
","
","""event"",""trial"",""time""
""fullscreenenter"",""1"",""1389""
","
","","","","","","null","<div style=""font-size:60px;"">+</div>","null","","fixation","","","","","","","","",""
"memory-trial","216","438697","0.0-15.0-1.86","1927","2","""event"",""trial"",""time""
""fullscreenenter"",""1"",""1389""
","
","
","""event"",""trial"",""time""
""fullscreenenter"",""1"",""1389""
","
","","","","","","1220.2999999523163","images/tree1.png","","","memory_trial","2","maybe_old","","","","","","",""
"html-keyboard-response","217","439202","0.0-15.0-0.87","1927","2","""event"",""trial"",""time""
""fullscreenenter"",""1"",""1389""
","
","
","""event"",""trial"",""time""
""fullscreenenter"",""1"",""1389""
","
","","","","","","null","<div style=""font-size:60px;"">+</div>","null","","fixation","","","","","","","","",""
"memory-trial","218","441385","0.0-15.0-1.87","1927","2","""event"",""trial"",""time""
""fullscreenenter"",""1"",""1389""
","
","
","""event"",""trial"",""time""
""fullscreenenter"",""1"",""1389""
","
","","","","","","1178.6000000238419","images/rabbit1.png","","","memory_trial","3","maybe_new","","","","","","",""
"html-keyboard-response","219","441891","0.0-15.0-0.88","1927","2","""event"",""trial"",""time""
""fullscreenenter"",""1"",""1389""
","
","
","""event"",""trial"",""time""
""fullscreenenter"",""1"",""1389""
","
","","","","","","null","<div style=""font-size:60px;"">+</div>","null","","fixation","","","","","","","","",""
"memory-trial","220","444292","0.0-15.0-1.88","1927","2","""event"",""trial"",""time""
""fullscreenenter"",""1"",""1389""
","
","
","""event"",""trial"",""time""
""fullscreenenter"",""1"",""1389""
","
","","","","","","1394.5","images/tree4.png","","","memory_trial","2","maybe_old","","","","","","",""
"html-keyboard-response","221","444799","0.0-15.0-0.89","1927","2","""event"",""trial"",""time""
""fullscreenenter"",""1"",""1389""
","
","
","""event"",""trial"",""time""
""fullscreenenter"",""1"",""1389""
","
","","","","","","null","<div style=""font-size:60px;"">+</div>","null","","fixation","","","","","","","","",""
"memory-trial","222","446878","0.0-15.0-1.89","1927","2","""event"",""trial"",""time""
""fullscreenenter"",""1"",""1389""
","
","
","""event"",""trial"",""time""
""fullscreenenter"",""1"",""1389""
","
","","","","","","1074.9000000953674","images/chair4.png","","","memory_trial","3","maybe_new","","","","","","",""
"html-keyboard-response","223","447383","0.0-15.0-0.90","1927","2","""event"",""trial"",""time""
""fullscreenenter"",""1"",""1389""
","
","
","""event"",""trial"",""time""
""fullscreenenter"",""1"",""1389""
","
","","","","","","null","<div style=""font-size:60px;"">+</div>","null","","fixation","","","","","","","","",""
"memory-trial","224","450134","0.0-15.0-1.90","1927","2","""event"",""trial"",""time""
""fullscreenenter"",""1"",""1389""
","
","
","""event"",""trial"",""time""
""fullscreenenter"",""1"",""1389""
","
","","","","","","1742.6999999284744","images/goat2.png","","","memory_trial","2","maybe_old","","","","","","",""
"html-keyboard-response","225","450638","0.0-15.0-0.91","1927","2","""event"",""trial"",""time""
""fullscreenenter"",""1"",""1389""
","
","
","""event"",""trial"",""time""
""fullscreenenter"",""1"",""1389""
","
","","","","","","null","<div style=""font-size:60px;"">+</div>","null","","fixation","","","","","","","","",""
"memory-trial","226","452742","0.0-15.0-1.91","1927","2","""event"",""trial"",""time""
""fullscreenenter"",""1"",""1389""
","
","
","""event"",""trial"",""time""
""fullscreenenter"",""1"",""1389""
","
","","","","","","1097.6999999284744","images/feline4.png","","","memory_trial","3","maybe_new","","","","","","",""
"html-keyboard-response","227","453247","0.0-15.0-0.92","1927","2","""event"",""trial"",""time""
""fullscreenenter"",""1"",""1389""
","
","
","""event"",""trial"",""time""
""fullscreenenter"",""1"",""1389""
","
","","","","","","null","<div style=""font-size:60px;"">+</div>","null","","fixation","","","","","","","","",""
"memory-trial","228","455385","0.0-15.0-1.92","1927","2","""event"",""trial"",""time""
""fullscreenenter"",""1"",""1389""
","
","
","""event"",""trial"",""time""
""fullscreenenter"",""1"",""1389""
","
","","","","","","1132.3999999761581","images/goat5.png","","","memory_trial","2","maybe_old","","","","","","",""
"html-keyboard-response","229","455892","0.0-15.0-0.93","1927","2","""event"",""trial"",""time""
""fullscreenenter"",""1"",""1389""
","
","
","""event"",""trial"",""time""
""fullscreenenter"",""1"",""1389""
","
","","","","","","null","<div style=""font-size:60px;"">+</div>","null","","fixation","","","","","","","","",""
"memory-trial","230","458714","0.0-15.0-1.93","1927","2","""event"",""trial"",""time""
""fullscreenenter"",""1"",""1389""
","
","
","""event"",""trial"",""time""
""fullscreenenter"",""1"",""1389""
","
","","","","","","1818.5","images/train4.png","","","memory_trial","2","maybe_old","","","","","","",""
"html-keyboard-response","231","459220","0.0-15.0-0.94","1927","2","""event"",""trial"",""time""
""fullscreenenter"",""1"",""1389""
","
","
","""event"",""trial"",""time""
""fullscreenenter"",""1"",""1389""
","
","","","","","","null","<div style=""font-size:60px;"">+</div>","null","","fixation","","","","","","","","",""
"memory-trial","232","461374","0.0-15.0-1.94","1927","2","""event"",""trial"",""time""
""fullscreenenter"",""1"",""1389""
","
","
","""event"",""trial"",""time""
""fullscreenenter"",""1"",""1389""
","
","","","","","","1146.7000000476837","images/cow1.png","","","memory_trial","3","maybe_new","","","","","","",""
"html-keyboard-response","233","461880","0.0-15.0-0.95","1927","2","""event"",""trial"",""time""
""fullscreenenter"",""1"",""1389""
","
","
","""event"",""trial"",""time""
""fullscreenenter"",""1"",""1389""
","
","","","","","","null","<div style=""font-size:60px;"">+</div>","null","","fixation","","","","","","","","",""
"memory-trial","234","463631","0.0-15.0-1.95","1927","2","""event"",""trial"",""time""
""fullscreenenter"",""1"",""1389""
","
","
","""event"",""trial"",""time""
""fullscreenenter"",""1"",""1389""
","
","","","","","","745.3000000715256","images/bed4.png","","","memory_trial","4","definitely_new","","","","","","",""
"html-keyboard-response","235","464137","0.0-15.0-0.96","1927","2","""event"",""trial"",""time""
""fullscreenenter"",""1"",""1389""
","
","
","""event"",""trial"",""time""
""fullscreenenter"",""1"",""1389""
","
","","","","","","null","<div style=""font-size:60px;"">+</div>","null","","fixation","","","","","","","","",""
"memory-trial","236","466730","0.0-15.0-1.96","1927","2","""event"",""trial"",""time""
""fullscreenenter"",""1"",""1389""
","
","
","""event"",""trial"",""time""
""fullscreenenter"",""1"",""1389""
","
","","","","","","1591.2000000476837","images/rodent3.png","","","memory_trial","3","maybe_new","","","","","","",""
"html-keyboard-response","237","467236","0.0-15.0-0.97","1927","2","""event"",""trial"",""time""
""fullscreenenter"",""1"",""1389""
","
","
","""event"",""trial"",""time""
""fullscreenenter"",""1"",""1389""
","
","","","","","","null","<div style=""font-size:60px;"">+</div>","null","","fixation","","","","","","","","",""
"memory-trial","238","468926","0.0-15.0-1.97","1927","2","""event"",""trial"",""time""
""fullscreenenter"",""1"",""1389""
","
","
","""event"",""trial"",""time""
""fullscreenenter"",""1"",""1389""
","
","","","","","","687.1000000238419","images/dog3.png","","","memory_trial","4","definitely_new","","","","","","",""
"html-keyboard-response","239","469432","0.0-15.0-0.98","1927","2","""event"",""trial"",""time""
""fullscreenenter"",""1"",""1389""
","
","
","""event"",""trial"",""time""
""fullscreenenter"",""1"",""1389""
","
","","","","","","null","<div style=""font-size:60px;"">+</div>","null","","fixation","","","","","","","","",""
"memory-trial","240","471361","0.0-15.0-1.98","1927","2","""event"",""trial"",""time""
""fullscreenenter"",""1"",""1389""
","
","
","""event"",""trial"",""time""
""fullscreenenter"",""1"",""1389""
","
","","","","","","921.3999999761581","images/truck1.png","","","memory_trial","4","definitely_new","","","","","","",""
"html-keyboard-response","241","471866","0.0-15.0-0.99","1927","2","""event"",""trial"",""time""
""fullscreenenter"",""1"",""1389""
","
","
","""event"",""trial"",""time""
""fullscreenenter"",""1"",""1389""
","
","","","","","","null","<div style=""font-size:60px;"">+</div>","null","","fixation","","","","","","","","",""
"memory-trial","242","474378","0.0-15.0-1.99","1927","2","""event"",""trial"",""time""
""fullscreenenter"",""1"",""1389""
","
","
","""event"",""trial"",""time""
""fullscreenenter"",""1"",""1389""
","
","","","","","","1504.2999999523163","images/boat2.png","","","memory_trial","1","definitely_old","","","","","","",""
"html-keyboard-response","243","474884","0.0-15.0-0.100","1927","2","""event"",""trial"",""time""
""fullscreenenter"",""1"",""1389""
","
","
","""event"",""trial"",""time""
""fullscreenenter"",""1"",""1389""
","
","","","","","","null","<div style=""font-size:60px;"">+</div>","null","","fixation","","","","","","","","",""
"memory-trial","244","476911","0.0-15.0-1.100","1927","2","""event"",""trial"",""time""
""fullscreenenter"",""1"",""1389""
","
","
","""event"",""trial"",""time""
""fullscreenenter"",""1"",""1389""
","
","","","","","","1021.3999999761581","images/banana3.png","","","memory_trial","3","maybe_new","","","","","","",""
"html-keyboard-response","245","477417","0.0-15.0-0.101","1927","2","""event"",""trial"",""time""
""fullscreenenter"",""1"",""1389""
","
","
","""event"",""trial"",""time""
""fullscreenenter"",""1"",""1389""
","
","","","","","","null","<div style=""font-size:60px;"">+</div>","null","","fixation","","","","","","","","",""
"memory-trial","246","479117","0.0-15.0-1.101","1927","2","""event"",""trial"",""time""
""fullscreenenter"",""1"",""1389""
","
","
","""event"",""trial"",""time""
""fullscreenenter"",""1"",""1389""
","
","","","","","","692.6000000238419","images/flower3.png","","","memory_trial","4","definitely_new","","","","","","",""
"html-button-response","247","480750","0.0-15.0-2.101-0.101","1927","2","""event"",""trial"",""time""
""fullscreenenter"",""1"",""1389""
","
","
","""event"",""trial"",""time""
""fullscreenenter"",""1"",""1389""
","
","","","","","","1630.8999999761581","<p> Take a break! </p><p> Click the button to continue. </p>","0","","break","","","","","","","","",""
"html-keyboard-response","248","481252","0.0-15.0-0.102","1927","2","""event"",""trial"",""time""
""fullscreenenter"",""1"",""1389""
","
","
","""event"",""trial"",""time""
""fullscreenenter"",""1"",""1389""
","
","","","","","","null","<div style=""font-size:60px;"">+</div>","null","","fixation","","","","","","","","",""
"memory-trial","249","483837","0.0-15.0-1.102","1927","2","""event"",""trial"",""time""
""fullscreenenter"",""1"",""1389""
","
","
","""event"",""trial"",""time""
""fullscreenenter"",""1"",""1389""
","
","","","","","","1577.2000000476837","images/cow2.png","","","memory_trial","3","maybe_new","","","","","","",""
"html-keyboard-response","250","484342","0.0-15.0-0.103","1927","2","""event"",""trial"",""time""
""fullscreenenter"",""1"",""1389""
","
","
","""event"",""trial"",""time""
""fullscreenenter"",""1"",""1389""
","
","","","","","","null","<div style=""font-size:60px;"">+</div>","null","","fixation","","","","","","","","",""
"memory-trial","251","486485","0.0-15.0-1.103","1927","2","""event"",""trial"",""time""
""fullscreenenter"",""1"",""1389""
","
","
","""event"",""trial"",""time""
""fullscreenenter"",""1"",""1389""
","
","","","","","","1138.5","images/sofa4.png","","","memory_trial","3","maybe_new","","","","","","",""
"html-keyboard-response","252","486991","0.0-15.0-0.104","1927","2","""event"",""trial"",""time""
""fullscreenenter"",""1"",""1389""
","
","
","""event"",""trial"",""time""
""fullscreenenter"",""1"",""1389""
","
","","","","","","null","<div style=""font-size:60px;"">+</div>","null","","fixation","","","","","","","","",""
"memory-trial","253","488842","0.0-15.0-1.104","1927","2","""event"",""trial"",""time""
""fullscreenenter"",""1"",""1389""
","
","
","""event"",""trial"",""time""
""fullscreenenter"",""1"",""1389""
","
","","","","","","845","images/orange1.png","","","memory_trial","2","maybe_old","","","","","","",""
"html-keyboard-response","254","489348","0.0-15.0-0.105","1927","2","""event"",""trial"",""time""
""fullscreenenter"",""1"",""1389""
","
","
","""event"",""trial"",""time""
""fullscreenenter"",""1"",""1389""
","
","","","","","","null","<div style=""font-size:60px;"">+</div>","null","","fixation","","","","","","","","",""
"memory-trial","255","491754","0.0-15.0-1.105","1927","2","""event"",""trial"",""time""
""fullscreenenter"",""1"",""1389""
","
","
","""event"",""trial"",""time""
""fullscreenenter"",""1"",""1389""
","
","","","","","","1400.1999999284744","images/goat4.png","","","memory_trial","3","maybe_new","","","","","","",""
"html-keyboard-response","256","492261","0.0-15.0-0.106","1927","2","""event"",""trial"",""time""
""fullscreenenter"",""1"",""1389""
","
","
","""event"",""trial"",""time""
""fullscreenenter"",""1"",""1389""
","
","","","","","","null","<div style=""font-size:60px;"">+</div>","null","","fixation","","","","","","","","",""
"memory-trial","257","493951","0.0-15.0-1.106","1927","2","""event"",""trial"",""time""
""fullscreenenter"",""1"",""1389""
","
","
","""event"",""trial"",""time""
""fullscreenenter"",""1"",""1389""
","
","","","","","","684.5","images/flower4.png","","","memory_trial","4","definitely_new","","","","","","",""
"html-keyboard-response","258","494454","0.0-15.0-0.107","1927","2","""event"",""trial"",""time""
""fullscreenenter"",""1"",""1389""
","
","
","""event"",""trial"",""time""
""fullscreenenter"",""1"",""1389""
","
","","","","","","null","<div style=""font-size:60px;"">+</div>","null","","fixation","","","","","","","","",""
"memory-trial","259","496501","0.0-15.0-1.107","1927","2","""event"",""trial"",""time""
""fullscreenenter"",""1"",""1389""
","
","
","""event"",""trial"",""time""
""fullscreenenter"",""1"",""1389""
","
","","","","","","1039.7000000476837","images/sheep2.png","","","memory_trial","3","maybe_new","","","","","","",""
"html-keyboard-response","260","497007","0.0-15.0-0.108","1927","2","""event"",""trial"",""time""
""fullscreenenter"",""1"",""1389""
","
","
","""event"",""trial"",""time""
""fullscreenenter"",""1"",""1389""
","
","","","","","","null","<div style=""font-size:60px;"">+</div>","null","","fixation","","","","","","","","",""
"memory-trial","261","498966","0.0-15.0-1.108","1927","2","""event"",""trial"",""time""
""fullscreenenter"",""1"",""1389""
","
","
","""event"",""trial"",""time""
""fullscreenenter"",""1"",""1389""
","
","","","","","","952.5","images/cactus4.png","","","memory_trial","3","maybe_new","","","","","","",""
"html-keyboard-response","262","499471","0.0-15.0-0.109","1927","2","""event"",""trial"",""time""
""fullscreenenter"",""1"",""1389""
","
","
","""event"",""trial"",""time""
""fullscreenenter"",""1"",""1389""
","
","","","","","","null","<div style=""font-size:60px;"">+</div>","null","","fixation","","","","","","","","",""
"memory-trial","263","501642","0.0-15.0-1.109","1927","2","""event"",""trial"",""time""
""fullscreenenter"",""1"",""1389""
","
","
","""event"",""trial"",""time""
""fullscreenenter"",""1"",""1389""
","
","","","","","","1162.2999999523163","images/goat3.png","","","memory_trial","2","maybe_old","","","","","","",""
"html-keyboard-response","264","502148","0.0-15.0-0.110","1927","2","""event"",""trial"",""time""
""fullscreenenter"",""1"",""1389""
","
","
","""event"",""trial"",""time""
""fullscreenenter"",""1"",""1389""
","
","","","","","","null","<div style=""font-size:60px;"">+</div>","null","","fixation","","","","","","","","",""
"memory-trial","265","504015","0.0-15.0-1.110","1927","2","""event"",""trial"",""time""
""fullscreenenter"",""1"",""1389""
","
","
","""event"",""trial"",""time""
""fullscreenenter"",""1"",""1389""
","
","","","","","","859.7000000476837","images/sofa3.png","","","memory_trial","3","maybe_new","","","","","","",""
"html-keyboard-response","266","504519","0.0-15.0-0.111","1927","2","""event"",""trial"",""time""
""fullscreenenter"",""1"",""1389""
","
","
","""event"",""trial"",""time""
""fullscreenenter"",""1"",""1389""
","
","","","","","","null","<div style=""font-size:60px;"">+</div>","null","","fixation","","","","","","","","",""
"memory-trial","267","506354","0.0-15.0-1.111","1927","2","""event"",""trial"",""time""
""fullscreenenter"",""1"",""1389""
","
","
","""event"",""trial"",""time""
""fullscreenenter"",""1"",""1389""
","
","","","","","","829.7999999523163","images/chair1.png","","","memory_trial","2","maybe_old","","","","","","",""
"html-keyboard-response","268","506860","0.0-15.0-0.112","1927","2","""event"",""trial"",""time""
""fullscreenenter"",""1"",""1389""
","
","
","""event"",""trial"",""time""
""fullscreenenter"",""1"",""1389""
","
","","","","","","null","<div style=""font-size:60px;"">+</div>","null","","fixation","","","","","","","","",""
"memory-trial","269","509087","0.0-15.0-1.112","1927","2","""event"",""trial"",""time""
""fullscreenenter"",""1"",""1389""
","
","
","""event"",""trial"",""time""
""fullscreenenter"",""1"",""1389""
","
","","","","","","1219.2999999523163","images/boat3.png","","","memory_trial","4","definitely_new","","","","","","",""
"html-keyboard-response","270","509589","0.0-15.0-0.113","1927","2","""event"",""trial"",""time""
""fullscreenenter"",""1"",""1389""
","
","
","""event"",""trial"",""time""
""fullscreenenter"",""1"",""1389""
","
","","","","","","null","<div style=""font-size:60px;"">+</div>","null","","fixation","","","","","","","","",""
"memory-trial","271","511696","0.0-15.0-1.113","1927","2","""event"",""trial"",""time""
""fullscreenenter"",""1"",""1389""
","
","
","""event"",""trial"",""time""
""fullscreenenter"",""1"",""1389""
","
","","","","","","1104.6999999284744","images/table2.png","","","memory_trial","2","maybe_old","","","","","","",""
"html-keyboard-response","272","512199","0.0-15.0-0.114","1927","2","""event"",""trial"",""time""
""fullscreenenter"",""1"",""1389""
","
","
","""event"",""trial"",""time""
""fullscreenenter"",""1"",""1389""
","
","","","","","","null","<div style=""font-size:60px;"">+</div>","null","","fixation","","","","","","","","",""
"memory-trial","273","514352","0.0-15.0-1.114","1927","2","""event"",""trial"",""time""
""fullscreenenter"",""1"",""1389""
","
","
","""event"",""trial"",""time""
""fullscreenenter"",""1"",""1389""
","
","","","","","","1146","images/boat4.png","","","memory_trial","4","definitely_new","","","","","","",""
"html-keyboard-response","274","514858","0.0-15.0-0.115","1927","2","""event"",""trial"",""time""
""fullscreenenter"",""1"",""1389""
","
","
","""event"",""trial"",""time""
""fullscreenenter"",""1"",""1389""
","
","","","","","","null","<div style=""font-size:60px;"">+</div>","null","","fixation","","","","","","","","",""
"memory-trial","275","517061","0.0-15.0-1.115","1927","2","""event"",""trial"",""time""
""fullscreenenter"",""1"",""1389""
","
","
","""event"",""trial"",""time""
""fullscreenenter"",""1"",""1389""
","
","","","","","","1196.8000000715256","images/orange4.png","","","memory_trial","2","maybe_old","","","","","","",""
"html-keyboard-response","276","517562","0.0-15.0-0.116","1927","2","""event"",""trial"",""time""
""fullscreenenter"",""1"",""1389""
","
","
","""event"",""trial"",""time""
""fullscreenenter"",""1"",""1389""
","
","","","","","","null","<div style=""font-size:60px;"">+</div>","null","","fixation","","","","","","","","",""
"memory-trial","277","519781","0.0-15.0-1.116","1927","2","""event"",""trial"",""time""
""fullscreenenter"",""1"",""1389""
","
","
","""event"",""trial"",""time""
""fullscreenenter"",""1"",""1389""
","
","","","","","","1212.8999999761581","images/banana4.png","","","memory_trial","2","maybe_old","","","","","","",""
"html-keyboard-response","278","520288","0.0-15.0-0.117","1927","2","""event"",""trial"",""time""
""fullscreenenter"",""1"",""1389""
","
","
","""event"",""trial"",""time""
""fullscreenenter"",""1"",""1389""
","
","","","","","","null","<div style=""font-size:60px;"">+</div>","null","","fixation","","","","","","","","",""
"memory-trial","279","522354","0.0-15.0-1.117","1927","2","""event"",""trial"",""time""
""fullscreenenter"",""1"",""1389""
","
","
","""event"",""trial"",""time""
""fullscreenenter"",""1"",""1389""
","
","","","","","","1060.3999999761581","images/rabbit5.png","","","memory_trial","3","maybe_new","","","","","","",""
"html-keyboard-response","280","522858","0.0-15.0-0.118","1927","2","""event"",""trial"",""time""
""fullscreenenter"",""1"",""1389""
","
","
","""event"",""trial"",""time""
""fullscreenenter"",""1"",""1389""
","
","","","","","","null","<div style=""font-size:60px;"">+</div>","null","","fixation","","","","","","","","",""
"memory-trial","281","525045","0.0-15.0-1.118","1927","2","""event"",""trial"",""time""
""fullscreenenter"",""1"",""1389""
","
","
","""event"",""trial"",""time""
""fullscreenenter"",""1"",""1389""
","
","","","","","","1183.1000000238419","images/orange3.png","","","memory_trial","3","maybe_new","","","","","","",""
"html-keyboard-response","282","525547","0.0-15.0-0.119","1927","2","""event"",""trial"",""time""
""fullscreenenter"",""1"",""1389""
","
","
","""event"",""trial"",""time""
""fullscreenenter"",""1"",""1389""
","
","","","","","","null","<div style=""font-size:60px;"">+</div>","null","","fixation","","","","","","","","",""
"memory-trial","283","528278","0.0-15.0-1.119","1927","2","""event"",""trial"",""time""
""fullscreenenter"",""1"",""1389""
","
","
","""event"",""trial"",""time""
""fullscreenenter"",""1"",""1389""
","
","","","","","","1725","images/sofa2.png","","","memory_trial","2","maybe_old","","","","","","",""
"preload","284","532070","0.0-16.0","1927","2","""event"",""trial"",""time""
""fullscreenenter"",""1"",""1389""
","
","
","""event"",""trial"",""time""
""fullscreenenter"",""1"",""1389""
","
","true","false","[]","[]","[]","","","","","","","","","","","","","",""
"learning-instructions","285","537717","0.0-17.0-0.0-0.0-0.0","1927","2","""event"",""trial"",""time""
""fullscreenenter"",""1"",""1389""
","
","
","""event"",""trial"",""time""
""fullscreenenter"",""1"",""1389""
","
","","","","","","1898.7999999523163","<p> We're now going to ask you to put fuel in your vehicles again. </p>","","0","instructions","","","","","","","","",""
"learning-instructions","286","544407","0.0-17.0-0.0-0.0-0.1","1927","2","""event"",""trial"",""time""
""fullscreenenter"",""1"",""1389""
","
","
","""event"",""trial"",""time""
""fullscreenenter"",""1"",""1389""
","
","","","","","","648.4000000953674","<p> On each trial, you will see a vehicle. Select the fuel that you think will make the vehicle start. </p>","","0","instructions","","","","","","","","",""
"learning-instructions","287","551903","0.0-17.0-0.0-0.0-0.2","1927","2","""event"",""trial"",""time""
""fullscreenenter"",""1"",""1389""
","
","
","""event"",""trial"",""time""
""fullscreenenter"",""1"",""1389""
","
","","","","","","436.40000009536743","<p> To make your selection, think about what you learned last week. You will NOT receive any feedback about your choice. </p>","","0","instructions","","","","","","","","",""
"learning-instructions","288","559973","0.0-17.0-0.0-0.0-0.3","1927","2","""event"",""trial"",""time""
""fullscreenenter"",""1"",""1389""
","
","
","""event"",""trial"",""time""
""fullscreenenter"",""1"",""1389""
","
","","","","","","629.5","<p> You should use the 1 key to select the fuel on the left, the 2 key to select the fuel in the middle, and the 3 key to select the fuel on the right. </p><br><div class=""choice-mem-instructions-grid""> <div class=""choice-mem-option""><img src=""images/vehicles_choice1.png"" class=""choice-mem-option-img"" stage=""instructions"" position=""0"" ><div class=""choice-mem-option-text""> Press ""1."" </div></div><div class=""choice-mem-option""><img src=""images/vehicles_choice2.png"" class=""choice-mem-option-img"" stage=""instructions"" position=""1"" ><div class=""choice-mem-option-text""> Press ""2."" </div></div><div class=""choice-mem-option""><img src=""images/vehicles_choice3.png"" class=""choice-mem-option-img"" stage=""instructions"" position=""2"" ><div class=""choice-mem-option-text""> Press ""3."" </div></div></div>","","0","instructions","","","","","","","","",""
"learning-instructions","289","566797","0.0-17.0-0.0-0.0-0.4","1927","2","""event"",""trial"",""time""
""fullscreenenter"",""1"",""1389""
","
","
","""event"",""trial"",""time""
""fullscreenenter"",""1"",""1389""
","
","","","","","","551.7000000476837","<p> You will have 10 seconds to make each selection. Try to respond before time runs out! </p>","","0","instructions","","","","","","","","",""
"learning-instructions","290","570234","0.0-17.0-0.0-1.0","1927","2","""event"",""trial"",""time""
""fullscreenenter"",""1"",""1389""
","
","
","""event"",""trial"",""time""
""fullscreenenter"",""1"",""1389""
","
","","","","","","1381.2000000476837","<p> You are now ready to begin the game. </p>","","0","instructions","","","","","","","","",""
"html-keyboard-response","291","570839","0.0-17.0-0.0-2.0-0.0","1927","2","""event"",""trial"",""time""
""fullscreenenter"",""1"",""1389""
","
","
","""event"",""trial"",""time""
""fullscreenenter"",""1"",""1389""
","
","","","","","","null","<div style=""font-size:60px;"">+</div>","null","","fixation","","","","","","","","",""
"choice-memory-trial","292","574388","0.0-17.0-0.0-2.0-1.0","1927","2","""event"",""trial"",""time""
""fullscreenenter"",""1"",""1389""
","
","
","""event"",""trial"",""time""
""fullscreenenter"",""1"",""1389""
","
