"trial_type","trial_index","time_elapsed","internal_node_id","subject_id","task_version","interactions","blur_events","focus_events","fullscreenenter_events","fullscreenexit_events","success","timeout","failed_images","failed_audio","failed_video","rt","stimulus","response","button_pressed","task_part","key_press","answer","correct","left_choice","middle_choice","right_choice","choice_positions","option_selected","block"
"pavlovia","0","4","0.0-0.0","1745","2","""event"",""trial"",""time""
""fullscreenenter"",""1"",""2502""
","
","
","""event"",""trial"",""time""
""fullscreenenter"",""1"",""2502""
","
","","","","","","","","","","","","","","","","","","",""
"fullscreen","1","3492","0.0-1.0","1745","2","""event"",""trial"",""time""
""fullscreenenter"",""1"",""2502""
","
","
","""event"",""trial"",""time""
""fullscreenenter"",""1"",""2502""
","
","true","","","","","","","","","","","","","","","","","",""
"preload","2","4133","0.0-2.0","1745","2","""event"",""trial"",""time""
""fullscreenenter"",""1"",""2502""
","
","
","""event"",""trial"",""time""
""fullscreenenter"",""1"",""2502""
","
","true","false","[]","[]","[]","","","","","","","","","","","","","",""
"audio-keyboard-response","3","11353","0.0-3.0","1745","2","""event"",""trial"",""time""
""fullscreenenter"",""1"",""2502""
","
","
","""event"",""trial"",""time""
""fullscreenenter"",""1"",""2502""
","
","","","","","","7210.666666666667","audio/beep_loop.wav"," ","","","","","","","","","","",""
"audio-button-response","4","12628","0.0-4.0","1745","2","""event"",""trial"",""time""
""fullscreenenter"",""1"",""2502""
","
","
","""event"",""trial"",""time""
""fullscreenenter"",""1"",""2502""
","
","","","","","","1275","audio/turtle.wav","3","","","","","","","","","","",""
"audio-button-response","5","14530","0.0-5.0","1745","2","""event"",""trial"",""time""
""fullscreenenter"",""1"",""2502""
","
","
","""event"",""trial"",""time""
""fullscreenenter"",""1"",""2502""
","
","","","","","","896","audio/shark.wav","2","","","","","","","","","","",""
"preload","6","17126","0.0-6.0","1745","2","""event"",""trial"",""time""
""fullscreenenter"",""1"",""2502""
","
","
","""event"",""trial"",""time""
""fullscreenenter"",""1"",""2502""
","
","true","false","[]","[]","[]","","","","","","","","","","","","","",""
"learning-instructions","7","24215","0.0-7.0-0.0","1745","2","""event"",""trial"",""time""
""fullscreenenter"",""1"",""2502""
","
","
","""event"",""trial"",""time""
""fullscreenenter"",""1"",""2502""
","
","","","","","","2273.899999976158","<p> Welcome back! </p><p> Last week, you had to make choices about lots of different items.  </p>","","0","instructions","","","","","","","","",""
"learning-instructions","8","29757","0.0-7.0-0.1","1745","2","""event"",""trial"",""time""
""fullscreenenter"",""1"",""2502""
","
","
","""event"",""trial"",""time""
""fullscreenenter"",""1"",""2502""
","
","","","","","","1240.5","<p> Today, we are going to ask you to try to remember all the items. </p>","","0","instructions","","","","","","","","",""
"learning-instructions","9","41606","0.0-7.0-0.2","1745","2","""event"",""trial"",""time""
""fullscreenenter"",""1"",""2502""
","
","
","""event"",""trial"",""time""
""fullscreenenter"",""1"",""2502""
","
","","","","","","1713.8999999761581","<p> On every trial, you will see an image. </p><p> The image may be an OLD image you saw during the games last week or it may be a NEW image that was not presented. </p>","","0","instructions","","","","","","","","",""
"learning-instructions","10","51285","0.0-7.0-0.3","1745","2","""event"",""trial"",""time""
""fullscreenenter"",""1"",""2502""
","
","
","""event"",""trial"",""time""
""fullscreenenter"",""1"",""2502""
","
","","","","","","1178.4000000357628","<p> You need to select whether the image is:  </p><p>  'Definitely old', 'Maybe old', 'Maybe new', or 'Definitely new.'  </p><div class=""mem-choice-instructions-grid""><div class=""choice-option"" id=""choice-option-1"" ><img src=""images/definitely_old_1.png"" id=""choice-option-img-1"" class=""choice-option-img"" stage=""1""></div><div class=""choice-option"" id=""choice-option-2"" ><img src=""images/maybe_old_1.png"" id=""choice-option-img-2"" class=""choice-option-img"" stage=""1""></div><div class=""choice-option"" id=""choice-option-3"" ><img src=""images/maybe_new_1.png"" id=""choice-option-img-3"" class=""choice-option-img"" stage=""1""></div><div class=""choice-option"" id=""choice-option-4"" > <img src=""images/definitely_new_1.png"" id=""choice-option-img-4"" class=""choice-option-img"" stage=""1""></div></div>","","0","instructions","","","","","","","","",""
"learning-instructions","11","60072","0.0-7.0-0.4","1745","2","""event"",""trial"",""time""
""fullscreenenter"",""1"",""2502""
","
","
","""event"",""trial"",""time""
""fullscreenenter"",""1"",""2502""
","
","","","","","","2093.699999988079","<p> You should use the 1, 2, 3, and 4 keys to make your responses.  </p><div class=""mem-choice-instructions-grid""><div class=""choice-option"" id=""choice-option-1"" ><img src=""images/definitely_old.png"" id=""choice-option-img-1"" class=""choice-option-img"" stage=""1""></div><div class=""choice-option"" id=""choice-option-2"" ><img src=""images/maybe_old.png"" id=""choice-option-img-2"" class=""choice-option-img"" stage=""1""></div><div class=""choice-option"" id=""choice-option-3"" ><img src=""images/maybe_new.png"" id=""choice-option-img-3"" class=""choice-option-img"" stage=""1""></div><div class=""choice-option"" id=""choice-option-4"" > <img src=""images/definitely_new.png"" id=""choice-option-img-4"" class=""choice-option-img"" stage=""1""></div></div>","","0","instructions","","","","","","","","",""
"learning-instructions","12","68067","0.0-7.0-0.5","1745","2","""event"",""trial"",""time""
""fullscreenenter"",""1"",""2502""
","
","
","""event"",""trial"",""time""
""fullscreenenter"",""1"",""2502""
","
","","","","","","1235.800000011921","<p> You will have 10 seconds to make each response.  </p><p>  Make sure to respond before time runs out! </p>","","0","instructions","","","","","","","","",""
"learning-instructions","13","76198","0.0-7.0-0.6","1745","2","""event"",""trial"",""time""
""fullscreenenter"",""1"",""2502""
","
","
","""event"",""trial"",""time""
""fullscreenenter"",""1"",""2502""
","
","","","","","","550.4000000357628","<p> Today, you will see each image ONCE only.  </p><p>  That means none of the images will repeat. </p>","","0","instructions","","","","","","","","",""
"learning-instructions","14","89466","0.0-7.0-0.7","1745","2","""event"",""trial"",""time""
""fullscreenenter"",""1"",""2502""
","
","
","""event"",""trial"",""time""
""fullscreenenter"",""1"",""2502""
","
","","","","","","597","<p> Before you play the real game, it is time to practice. </p><p>  Just like in the real game, some of the images in the practice will be ones you have seen before. </p><p>  Others will be entirely new. </p>","","0","instructions","","","","","","","","",""
"html-button-response","15","90831","0.0-8.0","1745","2","""event"",""trial"",""time""
""fullscreenenter"",""1"",""2502""
","
","
","""event"",""trial"",""time""
""fullscreenenter"",""1"",""2502""
","
","","","","","","1262.1000000238419","<p> Ready to practice? </p><p> Remember, use the 1, 2, 3, and 4 keys to make your responses. </p>","0","","instructions","","","","","","","","",""
"html-keyboard-response","16","91434","0.0-9.0-0.0","1745","2","""event"",""trial"",""time""
""fullscreenenter"",""1"",""2502""
","
","
","""event"",""trial"",""time""
""fullscreenenter"",""1"",""2502""
","
","","","","","","null","<div style=""font-size:60px;"">+</div>","null","","fixation","","","","","","","","",""
"memory-trial","17","96110","0.0-9.0-1.0","1745","2","""event"",""trial"",""time""
""fullscreenenter"",""1"",""2502""
","
","
","""event"",""trial"",""time""
""fullscreenenter"",""1"",""2502""
","
","","","","","","3670.5","images/ball3.png","","","practice","1","definitely_old","","","","","","",""
"html-keyboard-response","18","96612","0.0-9.0-0.1","1745","2","""event"",""trial"",""time""
""fullscreenenter"",""1"",""2502""
","
","
","""event"",""trial"",""time""
""fullscreenenter"",""1"",""2502""
","
","","","","","","null","<div style=""font-size:60px;"">+</div>","null","","fixation","","","","","","","","",""
"memory-trial","19","100092","0.0-9.0-1.1","1745","2","""event"",""trial"",""time""
""fullscreenenter"",""1"",""2502""
","
","
","""event"",""trial"",""time""
""fullscreenenter"",""1"",""2502""
","
","","","","","","2474.199999988079","images/racket2.png","","","practice","1","definitely_old","","","","","","",""
"html-keyboard-response","20","100596","0.0-9.0-0.2","1745","2","""event"",""trial"",""time""
""fullscreenenter"",""1"",""2502""
","
","
","""event"",""trial"",""time""
""fullscreenenter"",""1"",""2502""
","
","","","","","","null","<div style=""font-size:60px;"">+</div>","null","","fixation","","","","","","","","",""
"memory-trial","21","102623","0.0-9.0-1.2","1745","2","""event"",""trial"",""time""
""fullscreenenter"",""1"",""2502""
","
","
","""event"",""trial"",""time""
""fullscreenenter"",""1"",""2502""
","
","","","","","","1020.3000000119209","images/ball1.png","","","practice","1","definitely_old","","","","","","",""
"html-keyboard-response","22","103125","0.0-9.0-0.3","1745","2","""event"",""trial"",""time""
""fullscreenenter"",""1"",""2502""
","
","
","""event"",""trial"",""time""
""fullscreenenter"",""1"",""2502""
","
","","","","","","null","<div style=""font-size:60px;"">+</div>","null","","fixation","","","","","","","","",""
"memory-trial","23","105189","0.0-9.0-1.3","1745","2","""event"",""trial"",""time""
""fullscreenenter"",""1"",""2502""
","
","
","""event"",""trial"",""time""
""fullscreenenter"",""1"",""2502""
","
","","","","","","1058.1000000238419","images/racket1.png","","","practice","1","definitely_old","","","","","","",""
"html-keyboard-response","24","105690","0.0-9.0-0.4","1745","2","""event"",""trial"",""time""
""fullscreenenter"",""1"",""2502""
","
","
","""event"",""trial"",""time""
""fullscreenenter"",""1"",""2502""
","
","","","","","","null","<div style=""font-size:60px;"">+</div>","null","","fixation","","","","","","","","",""
"memory-trial","25","107802","0.0-9.0-1.4","1745","2","""event"",""trial"",""time""
""fullscreenenter"",""1"",""2502""
","
","
","""event"",""trial"",""time""
""fullscreenenter"",""1"",""2502""
","
","","","","","","1105.3999999761581","images/racket3.png","","","practice","1","definitely_old","","","","","","",""
"html-keyboard-response","26","108303","0.0-9.0-0.5","1745","2","""event"",""trial"",""time""
""fullscreenenter"",""1"",""2502""
","
","
","""event"",""trial"",""time""
""fullscreenenter"",""1"",""2502""
","
","","","","","","null","<div style=""font-size:60px;"">+</div>","null","","fixation","","","","","","","","",""
"memory-trial","27","110522","0.0-9.0-1.5","1745","2","""event"",""trial"",""time""
""fullscreenenter"",""1"",""2502""
","
","
","""event"",""trial"",""time""
""fullscreenenter"",""1"",""2502""
","
","","","","","","1211.800000011921","images/ball4.png","","","practice","1","definitely_old","","","","","","",""
"html-keyboard-response","28","111024","0.0-9.0-0.6","1745","2","""event"",""trial"",""time""
""fullscreenenter"",""1"",""2502""
","
","
","""event"",""trial"",""time""
""fullscreenenter"",""1"",""2502""
","
","","","","","","null","<div style=""font-size:60px;"">+</div>","null","","fixation","","","","","","","","",""
"memory-trial","29","114101","0.0-9.0-1.6","1745","2","""event"",""trial"",""time""
""fullscreenenter"",""1"",""2502""
","
","
","""event"",""trial"",""time""
""fullscreenenter"",""1"",""2502""
","
","","","","","","2071.699999988079","images/ball2.png","","","practice","1","definitely_old","","","","","","",""
"html-keyboard-response","30","114602","0.0-9.0-0.7","1745","2","""event"",""trial"",""time""
""fullscreenenter"",""1"",""2502""
","
","
","""event"",""trial"",""time""
""fullscreenenter"",""1"",""2502""
","
","","","","","","null","<div style=""font-size:60px;"">+</div>","null","","fixation","","","","","","","","",""
"memory-trial","31","117006","0.0-9.0-1.7","1745","2","""event"",""trial"",""time""
""fullscreenenter"",""1"",""2502""
","
","
","""event"",""trial"",""time""
""fullscreenenter"",""1"",""2502""
","
","","","","","","1400.5","images/racket4.png","","","practice","2","maybe_old","","","","","","",""
"learning-instructions","32","125864","0.0-10.0-0.0","1745","2","""event"",""trial"",""time""
""fullscreenenter"",""1"",""2502""
","
","
","""event"",""trial"",""time""
""fullscreenenter"",""1"",""2502""
","
","","","","","","903.4000000357628","<p> Great! You have completed the practice. </p><p> Before you start, we're going to ask you a few questions about how the game works.  </p>","","0","instructions","","","","","","","","",""
"preload","33","127172","0.0-11.0","1745","2","""event"",""trial"",""time""
""fullscreenenter"",""1"",""2502""
","
","
","""event"",""trial"",""time""
""fullscreenenter"",""1"",""2502""
","
","true","false","[]","[]","[]","","","","","","","","","","","","","",""
"comp-q","34","135922","0.0-12.0-0.0","1745","2","""event"",""trial"",""time""
""fullscreenenter"",""1"",""2502""
","
","
","""event"",""trial"",""time""
""fullscreenenter"",""1"",""2502""
","
","","","","","","2918.100000023842","<p> <b> True or False? </b> </p><p> In this game, you will only see each image once. </p>","","0","comp_question","","","true","","","","","",""
"comp-q","35","143070","0.0-12.0-1.0","1745","2","""event"",""trial"",""time""
""fullscreenenter"",""1"",""2502""
","
","
","""event"",""trial"",""time""
""fullscreenenter"",""1"",""2502""
","
","","","","","","813.1999999880791","<p> <b> That's right! </b> You will see many different images <i> one time each </i> in this game. </p>","","0","comp_answer","","","","","","","","",""
"comp-q","36","149588","0.0-12.0-0.1","1745","2","""event"",""trial"",""time""
""fullscreenenter"",""1"",""2502""
","
","
","""event"",""trial"",""time""
""fullscreenenter"",""1"",""2502""
","
","","","","","","717.3999999761581","<p> <b> True or False? </b> </p><p> You should use the mouse and click to make your response. </p>","","1","comp_question","","","true","","","","","",""
"comp-q","37","157657","0.0-12.0-1.1","1745","2","""event"",""trial"",""time""
""fullscreenenter"",""1"",""2502""
","
","
","""event"",""trial"",""time""
""fullscreenenter"",""1"",""2502""
","
","","","","","","723.3999999761581","<p><b> That's right! </b> You should use the '1', '2', '3', and '4' keys to make your response. </p>","","0","comp_answer","","","","","","","","",""
"comp-q","38","164242","0.0-12.0-0.2","1745","2","""event"",""trial"",""time""
""fullscreenenter"",""1"",""2502""
","
","
","""event"",""trial"",""time""
""fullscreenenter"",""1"",""2502""
","
","","","","","","587.1999999880791","<p> <b> True or False? </b> </p><p> You will have as much time as you want to make each choice. </p>","","1","comp_question","","","true","","","","","",""
"comp-q","39","170169","0.0-12.0-1.2","1745","2","""event"",""trial"",""time""
""fullscreenenter"",""1"",""2502""
","
","
","""event"",""trial"",""time""
""fullscreenenter"",""1"",""2502""
","
","","","","","","535.5","<p> <b> That's right! </b> You will only have 10 seconds to make each choice. </p>","","0","comp_answer","","","","","","","","",""
"learning-instructions","40","179776","0.0-13.0","1745","2","""event"",""trial"",""time""
""fullscreenenter"",""1"",""2502""
","
","
","""event"",""trial"",""time""
""fullscreenenter"",""1"",""2502""
","
","","","","","","937.5","<p> Great! You are now ready to begin the game. </p><p> Remember, use the 1, 2, 3, and 4 keys to make your responses. </p>","","0","instructions","","","","","","","","",""
"preload","41","182126","0.0-14.0","1745","2","""event"",""trial"",""time""
""fullscreenenter"",""1"",""2502""
","
","
","""event"",""trial"",""time""
""fullscreenenter"",""1"",""2502""
","
","true","false","[]","[]","[]","","","","","","","","","","","","","",""
"html-keyboard-response","42","182630","0.0-15.0-0.0","1745","2","""event"",""trial"",""time""
""fullscreenenter"",""1"",""2502""
","
","
","""event"",""trial"",""time""
""fullscreenenter"",""1"",""2502""
","
","","","","","","null","<div style=""font-size:60px;"">+</div>","null","","fixation","","","","","","","","",""
"memory-trial","43","185805","0.0-15.0-1.0","1745","2","""event"",""trial"",""time""
""fullscreenenter"",""1"",""2502""
","
","
","""event"",""trial"",""time""
""fullscreenenter"",""1"",""2502""
","
","","","","","","2168.5","images/truck5.png","","","memory_trial","3","maybe_new","","","","","","",""
"html-keyboard-response","44","186310","0.0-15.0-0.1","1745","2","""event"",""trial"",""time""
""fullscreenenter"",""1"",""2502""
","
","
","""event"",""trial"",""time""
""fullscreenenter"",""1"",""2502""
","
","","","","","","null","<div style=""font-size:60px;"">+</div>","null","","fixation","","","","","","","","",""
"memory-trial","45","189027","0.0-15.0-1.1","1745","2","""event"",""trial"",""time""
""fullscreenenter"",""1"",""2502""
","
","
","""event"",""trial"",""time""
""fullscreenenter"",""1"",""2502""
","
","","","","","","1710.5999999642372","images/chair4.png","","","memory_trial","2","maybe_old","","","","","","",""
"html-keyboard-response","46","189531","0.0-15.0-0.2","1745","2","""event"",""trial"",""time""
""fullscreenenter"",""1"",""2502""
","
","
","""event"",""trial"",""time""
""fullscreenenter"",""1"",""2502""
","
","","","","","","null","<div style=""font-size:60px;"">+</div>","null","","fixation","","","","","","","","",""
"memory-trial","47","192218","0.0-15.0-1.2","1745","2","""event"",""trial"",""time""
""fullscreenenter"",""1"",""2502""
","
","
","""event"",""trial"",""time""
""fullscreenenter"",""1"",""2502""
","
","","","","","","1678.5","images/bush2.png","","","memory_trial","2","maybe_old","","","","","","",""
"html-keyboard-response","48","192721","0.0-15.0-0.3","1745","2","""event"",""trial"",""time""
""fullscreenenter"",""1"",""2502""
","
","
","""event"",""trial"",""time""
""fullscreenenter"",""1"",""2502""
","
","","","","","","null","<div style=""font-size:60px;"">+</div>","null","","fixation","","","","","","","","",""
"memory-trial","49","195585","0.0-15.0-1.3","1745","2","""event"",""trial"",""time""
""fullscreenenter"",""1"",""2502""
","
","
","""event"",""trial"",""time""
""fullscreenenter"",""1"",""2502""
","
","","","","","","1857.1000000238419","images/sofa3.png","","","memory_trial","2","maybe_old","","","","","","",""
"html-keyboard-response","50","196090","0.0-15.0-0.4","1745","2","""event"",""trial"",""time""
""fullscreenenter"",""1"",""2502""
","
","
","""event"",""trial"",""time""
""fullscreenenter"",""1"",""2502""
","
","","","","","","null","<div style=""font-size:60px;"">+</div>","null","","fixation","","","","","","","","",""
"memory-trial","51","198488","0.0-15.0-1.4","1745","2","""event"",""trial"",""time""
""fullscreenenter"",""1"",""2502""
","
","
","""event"",""trial"",""time""
""fullscreenenter"",""1"",""2502""
","
","","","","","","1391","images/bush1.png","","","memory_trial","2","maybe_old","","","","","","",""
"html-keyboard-response","52","198993","0.0-15.0-0.5","1745","2","""event"",""trial"",""time""
""fullscreenenter"",""1"",""2502""
","
","
","""event"",""trial"",""time""
""fullscreenenter"",""1"",""2502""
","
","","","","","","null","<div style=""font-size:60px;"">+</div>","null","","fixation","","","","","","","","",""
"memory-trial","53","201825","0.0-15.0-1.5","1745","2","""event"",""trial"",""time""
""fullscreenenter"",""1"",""2502""
","
","
","""event"",""trial"",""time""
""fullscreenenter"",""1"",""2502""
","
","","","","","","1826.1000000238419","images/plane3.png","","","memory_trial","3","maybe_new","","","","","","",""
"html-keyboard-response","54","202330","0.0-15.0-0.6","1745","2","""event"",""trial"",""time""
""fullscreenenter"",""1"",""2502""
","
","
","""event"",""trial"",""time""
""fullscreenenter"",""1"",""2502""
","
","","","","","","null","<div style=""font-size:60px;"">+</div>","null","","fixation","","","","","","","","",""
"memory-trial","55","205196","0.0-15.0-1.6","1745","2","""event"",""trial"",""time""
""fullscreenenter"",""1"",""2502""
","
","
","""event"",""trial"",""time""
""fullscreenenter"",""1"",""2502""
","
","","","","","","1858.6000000238419","images/sheep5.png","","","memory_trial","4","definitely_new","","","","","","",""
"html-keyboard-response","56","205702","0.0-15.0-0.7","1745","2","""event"",""trial"",""time""
""fullscreenenter"",""1"",""2502""
","
","
","""event"",""trial"",""time""
""fullscreenenter"",""1"",""2502""
","
","","","","","","null","<div style=""font-size:60px;"">+</div>","null","","fixation","","","","","","","","",""
"memory-trial","57","208374","0.0-15.0-1.7","1745","2","""event"",""trial"",""time""
""fullscreenenter"",""1"",""2502""
","
","
","""event"",""trial"",""time""
""fullscreenenter"",""1"",""2502""
","
","","","","","","1663.8999999761581","images/flower2.png","","","memory_trial","2","maybe_old","","","","","","",""
"html-keyboard-response","58","208877","0.0-15.0-0.8","1745","2","""event"",""trial"",""time""
""fullscreenenter"",""1"",""2502""
","
","
","""event"",""trial"",""time""
""fullscreenenter"",""1"",""2502""
","
","","","","","","null","<div style=""font-size:60px;"">+</div>","null","","fixation","","","","","","","","",""
"memory-trial","59","210855","0.0-15.0-1.8","1745","2","""event"",""trial"",""time""
""fullscreenenter"",""1"",""2502""
","
","
","""event"",""trial"",""time""
""fullscreenenter"",""1"",""2502""
","
","","","","","","975.1000000238419","images/bush5.png","","","memory_trial","2","maybe_old","","","","","","",""
"html-keyboard-response","60","211357","0.0-15.0-0.9","1745","2","""event"",""trial"",""time""
""fullscreenenter"",""1"",""2502""
","
","
","""event"",""trial"",""time""
""fullscreenenter"",""1"",""2502""
","
","","","","","","null","<div style=""font-size:60px;"">+</div>","null","","fixation","","","","","","","","",""
"memory-trial","61","214056","0.0-15.0-1.9","1745","2","""event"",""trial"",""time""
""fullscreenenter"",""1"",""2502""
","
","
","""event"",""trial"",""time""
""fullscreenenter"",""1"",""2502""
","
","","","","","","1692.6000000238419","images/rodent5.png","","","memory_trial","4","definitely_new","","","","","","",""
"html-keyboard-response","62","214557","0.0-15.0-0.10","1745","2","""event"",""trial"",""time""
""fullscreenenter"",""1"",""2502""
","
","
","""event"",""trial"",""time""
""fullscreenenter"",""1"",""2502""
","
","","","","","","null","<div style=""font-size:60px;"">+</div>","null","","fixation","","","","","","","","",""
"memory-trial","63","217026","0.0-15.0-1.10","1745","2","""event"",""trial"",""time""
""fullscreenenter"",""1"",""2502""
","
","
","""event"",""trial"",""time""
""fullscreenenter"",""1"",""2502""
","
","","","","","","1467.2000000476837","images/cactus1.png","","","memory_trial","4","definitely_new","","","","","","",""
"html-keyboard-response","64","217533","0.0-15.0-0.11","1745","2","""event"",""trial"",""time""
""fullscreenenter"",""1"",""2502""
","
","
","""event"",""trial"",""time""
""fullscreenenter"",""1"",""2502""
","
","","","","","","null","<div style=""font-size:60px;"">+</div>","null","","fixation","","","","","","","","",""
"memory-trial","65","219677","0.0-15.0-1.11","1745","2","""event"",""trial"",""time""
""fullscreenenter"",""1"",""2502""
","
","
","""event"",""trial"",""time""
""fullscreenenter"",""1"",""2502""
","
","","","","","","1137.699999988079","images/chair2.png","","","memory_trial","2","maybe_old","","","","","","",""
"html-keyboard-response","66","220178","0.0-15.0-0.12","1745","2","""event"",""trial"",""time""
""fullscreenenter"",""1"",""2502""
","
","
","""event"",""trial"",""time""
""fullscreenenter"",""1"",""2502""
","
","","","","","","null","<div style=""font-size:60px;"">+</div>","null","","fixation","","","","","","","","",""
"memory-trial","67","222264","0.0-15.0-1.12","1745","2","""event"",""trial"",""time""
""fullscreenenter"",""1"",""2502""
","
","
","""event"",""trial"",""time""
""fullscreenenter"",""1"",""2502""
","
","","","","","","1082.3999999761581","images/flower5.png","","","memory_trial","1","definitely_old","","","","","","",""
"html-keyboard-response","68","222765","0.0-15.0-0.13","1745","2","""event"",""trial"",""time""
""fullscreenenter"",""1"",""2502""
","
","
","""event"",""trial"",""time""
""fullscreenenter"",""1"",""2502""
","
","","","","","","null","<div style=""font-size:60px;"">+</div>","null","","fixation","","","","","","","","",""
"memory-trial","69","225570","0.0-15.0-1.13","1745","2","""event"",""trial"",""time""
""fullscreenenter"",""1"",""2502""
","
","
","""event"",""trial"",""time""
""fullscreenenter"",""1"",""2502""
","
","","","","","","1799.1000000238419","images/plane2.png","","","memory_trial","2","maybe_old","","","","","","",""
"html-keyboard-response","70","226072","0.0-15.0-0.14","1745","2","""event"",""trial"",""time""
""fullscreenenter"",""1"",""2502""
","
","
","""event"",""trial"",""time""
""fullscreenenter"",""1"",""2502""
","
","","","","","","null","<div style=""font-size:60px;"">+</div>","null","","fixation","","","","","","","","",""
"memory-trial","71","228669","0.0-15.0-1.14","1745","2","""event"",""trial"",""time""
""fullscreenenter"",""1"",""2502""
","
","
","""event"",""trial"",""time""
""fullscreenenter"",""1"",""2502""
","
","","","","","","1594","images/cow5.png","","","memory_trial","2","maybe_old","","","","","","",""
"html-keyboard-response","72","229171","0.0-15.0-0.15","1745","2","""event"",""trial"",""time""
""fullscreenenter"",""1"",""2502""
","
","
","""event"",""trial"",""time""
""fullscreenenter"",""1"",""2502""
","
","","","","","","null","<div style=""font-size:60px;"">+</div>","null","","fixation","","","","","","","","",""
"memory-trial","73","231549","0.0-15.0-1.15","1745","2","""event"",""trial"",""time""
""fullscreenenter"",""1"",""2502""
","
","
","""event"",""trial"",""time""
""fullscreenenter"",""1"",""2502""
","
","","","","","","1375.800000011921","images/horse5.png","","","memory_trial","1","definitely_old","","","","","","",""
"html-keyboard-response","74","232051","0.0-15.0-0.16","1745","2","""event"",""trial"",""time""
""fullscreenenter"",""1"",""2502""
","
","
","""event"",""trial"",""time""
""fullscreenenter"",""1"",""2502""
","
","","","","","","null","<div style=""font-size:60px;"">+</div>","null","","fixation","","","","","","","","",""
"memory-trial","75","234142","0.0-15.0-1.16","1745","2","""event"",""trial"",""time""
""fullscreenenter"",""1"",""2502""
","
","
","""event"",""trial"",""time""
""fullscreenenter"",""1"",""2502""
","
","","","","","","1084.199999988079","images/flower1.png","","","memory_trial","2","maybe_old","","","","","","",""
"html-keyboard-response","76","234644","0.0-15.0-0.17","1745","2","""event"",""trial"",""time""
""fullscreenenter"",""1"",""2502""
","
","
","""event"",""trial"",""time""
""fullscreenenter"",""1"",""2502""
","
","","","","","","null","<div style=""font-size:60px;"">+</div>","null","","fixation","","","","","","","","",""
"memory-trial","77","237528","0.0-15.0-1.17","1745","2","""event"",""trial"",""time""
""fullscreenenter"",""1"",""2502""
","
","
","""event"",""trial"",""time""
""fullscreenenter"",""1"",""2502""
","
","","","","","","1877.1000000238419","images/boat1.png","","","memory_trial","4","definitely_new","","","","","","",""
"html-keyboard-response","78","238029","0.0-15.0-0.18","1745","2","""event"",""trial"",""time""
""fullscreenenter"",""1"",""2502""
","
","
","""event"",""trial"",""time""
""fullscreenenter"",""1"",""2502""
","
","","","","","","null","<div style=""font-size:60px;"">+</div>","null","","fixation","","","","","","","","",""
"memory-trial","79","240077","0.0-15.0-1.18","1745","2","""event"",""trial"",""time""
""fullscreenenter"",""1"",""2502""
","
","
","""event"",""trial"",""time""
""fullscreenenter"",""1"",""2502""
","
","","","","","","1041.2999999523163","images/flower3.png","","","memory_trial","2","maybe_old","","","","","","",""
"html-keyboard-response","80","240579","0.0-15.0-0.19","1745","2","""event"",""trial"",""time""
""fullscreenenter"",""1"",""2502""
","
","
","""event"",""trial"",""time""
""fullscreenenter"",""1"",""2502""
","
","","","","","","null","<div style=""font-size:60px;"">+</div>","null","","fixation","","","","","","","","",""
"memory-trial","81","243550","0.0-15.0-1.19","1745","2","""event"",""trial"",""time""
""fullscreenenter"",""1"",""2502""
","
","
","""event"",""trial"",""time""
""fullscreenenter"",""1"",""2502""
","
","","","","","","1965.1000000238419","images/goat5.png","","","memory_trial","3","maybe_new","","","","","","",""
"html-keyboard-response","82","244053","0.0-15.0-0.20","1745","2","""event"",""trial"",""time""
""fullscreenenter"",""1"",""2502""
","
","
","""event"",""trial"",""time""
""fullscreenenter"",""1"",""2502""
","
","","","","","","null","<div style=""font-size:60px;"">+</div>","null","","fixation","","","","","","","","",""
"memory-trial","83","246579","0.0-15.0-1.20","1745","2","""event"",""trial"",""time""
""fullscreenenter"",""1"",""2502""
","
","
","""event"",""trial"",""time""
""fullscreenenter"",""1"",""2502""
","
","","","","","","1518","images/chair3.png","","","memory_trial","3","maybe_new","","","","","","",""
"html-keyboard-response","84","247085","0.0-15.0-0.21","1745","2","""event"",""trial"",""time""
""fullscreenenter"",""1"",""2502""
","
","
","""event"",""trial"",""time""
""fullscreenenter"",""1"",""2502""
","
","","","","","","null","<div style=""font-size:60px;"">+</div>","null","","fixation","","","","","","","","",""
"memory-trial","85","249285","0.0-15.0-1.21","1745","2","""event"",""trial"",""time""
""fullscreenenter"",""1"",""2502""
","
","
","""event"",""trial"",""time""
""fullscreenenter"",""1"",""2502""
","
","","","","","","1194.7999999523163","images/goat2.png","","","memory_trial","3","maybe_new","","","","","","",""
"html-keyboard-response","86","249790","0.0-15.0-0.22","1745","2","""event"",""trial"",""time""
""fullscreenenter"",""1"",""2502""
","
","
","""event"",""trial"",""time""
""fullscreenenter"",""1"",""2502""
","
","","","","","","null","<div style=""font-size:60px;"">+</div>","null","","fixation","","","","","","","","",""
"memory-trial","87","251971","0.0-15.0-1.22","1745","2","""event"",""trial"",""time""
""fullscreenenter"",""1"",""2502""
","
","
","""event"",""trial"",""time""
""fullscreenenter"",""1"",""2502""
","
","","","","","","1178.9000000357628","images/rodent2.png","","","memory_trial","1","definitely_old","","","","","","",""
"html-keyboard-response","88","252473","0.0-15.0-0.23","1745","2","""event"",""trial"",""time""
""fullscreenenter"",""1"",""2502""
","
","
","""event"",""trial"",""time""
""fullscreenenter"",""1"",""2502""
","
","","","","","","null","<div style=""font-size:60px;"">+</div>","null","","fixation","","","","","","","","",""
"memory-trial","89","254745","0.0-15.0-1.23","1745","2","""event"",""trial"",""time""
""fullscreenenter"",""1"",""2502""
","
","
","""event"",""trial"",""time""
""fullscreenenter"",""1"",""2502""
","
","","","","","","1266.800000011921","images/tree2.png","","","memory_trial","2","maybe_old","","","","","","",""
"html-keyboard-response","90","255246","0.0-15.0-0.24","1745","2","""event"",""trial"",""time""
""fullscreenenter"",""1"",""2502""
","
","
","""event"",""trial"",""time""
""fullscreenenter"",""1"",""2502""
","
","","","","","","null","<div style=""font-size:60px;"">+</div>","null","","fixation","","","","","","","","",""
"memory-trial","91","257262","0.0-15.0-1.24","1745","2","""event"",""trial"",""time""
""fullscreenenter"",""1"",""2502""
","
","
","""event"",""trial"",""time""
""fullscreenenter"",""1"",""2502""
","
","","","","","","1011.8999999761581","images/flower4.png","","","memory_trial","2","maybe_old","","","","","","",""
"html-keyboard-response","92","257763","0.0-15.0-0.25","1745","2","""event"",""trial"",""time""
""fullscreenenter"",""1"",""2502""
","
","
","""event"",""trial"",""time""
""fullscreenenter"",""1"",""2502""
","
","","","","","","null","<div style=""font-size:60px;"">+</div>","null","","fixation","","","","","","","","",""
"memory-trial","93","260057","0.0-15.0-1.25","1745","2","""event"",""trial"",""time""
""fullscreenenter"",""1"",""2502""
","
","
","""event"",""trial"",""time""
""fullscreenenter"",""1"",""2502""
","
","","","","","","1290","images/rabbit4.png","","","memory_trial","4","definitely_new","","","","","","",""
"html-keyboard-response","94","260558","0.0-15.0-0.26","1745","2","""event"",""trial"",""time""
""fullscreenenter"",""1"",""2502""
","
","
","""event"",""trial"",""time""
""fullscreenenter"",""1"",""2502""
","
","","","","","","null","<div style=""font-size:60px;"">+</div>","null","","fixation","","","","","","","","",""
"memory-trial","95","262932","0.0-15.0-1.26","1745","2","""event"",""trial"",""time""
""fullscreenenter"",""1"",""2502""
","
","
","""event"",""trial"",""time""
""fullscreenenter"",""1"",""2502""
","
","","","","","","1368.7000000476837","images/boat2.png","","","memory_trial","3","maybe_new","","","","","","",""
"html-keyboard-response","96","263433","0.0-15.0-0.27","1745","2","""event"",""trial"",""time""
""fullscreenenter"",""1"",""2502""
","
","
","""event"",""trial"",""time""
""fullscreenenter"",""1"",""2502""
","
","","","","","","null","<div style=""font-size:60px;"">+</div>","null","","fixation","","","","","","","","",""
"memory-trial","97","265822","0.0-15.0-1.27","1745","2","""event"",""trial"",""time""
""fullscreenenter"",""1"",""2502""
","
","
","""event"",""trial"",""time""
""fullscreenenter"",""1"",""2502""
","
","","","","","","1381.7000000476837","images/rodent3.png","","","memory_trial","3","maybe_new","","","","","","",""
"html-keyboard-response","98","266324","0.0-15.0-0.28","1745","2","""event"",""trial"",""time""
""fullscreenenter"",""1"",""2502""
","
","
","""event"",""trial"",""time""
""fullscreenenter"",""1"",""2502""
","
","","","","","","null","<div style=""font-size:60px;"">+</div>","null","","fixation","","","","","","","","",""
"memory-trial","99","268441","0.0-15.0-1.28","1745","2","""event"",""trial"",""time""
""fullscreenenter"",""1"",""2502""
","
","
","""event"",""trial"",""time""
""fullscreenenter"",""1"",""2502""
","
","","","","","","1113.699999988079","images/orange2.png","","","memory_trial","1","definitely_old","","","","","","",""
"html-keyboard-response","100","268942","0.0-15.0-0.29","1745","2","""event"",""trial"",""time""
""fullscreenenter"",""1"",""2502""
","
","
","""event"",""trial"",""time""
""fullscreenenter"",""1"",""2502""
","
","","","","","","null","<div style=""font-size:60px;"">+</div>","null","","fixation","","","","","","","","",""
"memory-trial","101","271631","0.0-15.0-1.29","1745","2","""event"",""trial"",""time""
""fullscreenenter"",""1"",""2502""
","
","
","""event"",""trial"",""time""
""fullscreenenter"",""1"",""2502""
","
","","","","","","1684.199999988079","images/bed5.png","","","memory_trial","4","definitely_new","","","","","","",""
"html-keyboard-response","102","272132","0.0-15.0-0.30","1745","2","""event"",""trial"",""time""
""fullscreenenter"",""1"",""2502""
","
","
","""event"",""trial"",""time""
""fullscreenenter"",""1"",""2502""
","
","","","","","","null","<div style=""font-size:60px;"">+</div>","null","","fixation","","","","","","","","",""
"memory-trial","103","274089","0.0-15.0-1.30","1745","2","""event"",""trial"",""time""
""fullscreenenter"",""1"",""2502""
","
","
","""event"",""trial"",""time""
""fullscreenenter"",""1"",""2502""
","
","","","","","","955.1999999880791","images/bed4.png","","","memory_trial","4","definitely_new","","","","","","",""
"html-keyboard-response","104","274591","0.0-15.0-0.31","1745","2","""event"",""trial"",""time""
""fullscreenenter"",""1"",""2502""
","
","
","""event"",""trial"",""time""
""fullscreenenter"",""1"",""2502""
","
","","","","","","null","<div style=""font-size:60px;"">+</div>","null","","fixation","","","","","","","","",""
"memory-trial","105","276500","0.0-15.0-1.31","1745","2","""event"",""trial"",""time""
""fullscreenenter"",""1"",""2502""
","
","
","""event"",""trial"",""time""
""fullscreenenter"",""1"",""2502""
","
","","","","","","907.1000000238419","images/sofa5.png","","","memory_trial","2","maybe_old","","","","","","",""
"html-keyboard-response","106","277001","0.0-15.0-0.32","1745","2","""event"",""trial"",""time""
""fullscreenenter"",""1"",""2502""
","
","
","""event"",""trial"",""time""
""fullscreenenter"",""1"",""2502""
","
","","","","","","null","<div style=""font-size:60px;"">+</div>","null","","fixation","","","","","","","","",""
"memory-trial","107","279503","0.0-15.0-1.32","1745","2","""event"",""trial"",""time""
""fullscreenenter"",""1"",""2502""
","
","
","""event"",""trial"",""time""
""fullscreenenter"",""1"",""2502""
","
","","","","","","1496.5999999642372","images/table1.png","","","memory_trial","3","maybe_new","","","","","","",""
"html-keyboard-response","108","280004","0.0-15.0-0.33","1745","2","""event"",""trial"",""time""
""fullscreenenter"",""1"",""2502""
","
","
","""event"",""trial"",""time""
""fullscreenenter"",""1"",""2502""
","
","","","","","","null","<div style=""font-size:60px;"">+</div>","null","","fixation","","","","","","","","",""
"memory-trial","109","281791","0.0-15.0-1.33","1745","2","""event"",""trial"",""time""
""fullscreenenter"",""1"",""2502""
","
","
","""event"",""trial"",""time""
""fullscreenenter"",""1"",""2502""
","
","","","","","","783.1999999880791","images/sofa2.png","","","memory_trial","2","maybe_old","","","","","","",""
"html-keyboard-response","110","282293","0.0-15.0-0.34","1745","2","""event"",""trial"",""time""
""fullscreenenter"",""1"",""2502""
","
","
","""event"",""trial"",""time""
""fullscreenenter"",""1"",""2502""
","
","","","","","","null","<div style=""font-size:60px;"">+</div>","null","","fixation","","","","","","","","",""
"memory-trial","111","284206","0.0-15.0-1.34","1745","2","""event"",""trial"",""time""
""fullscreenenter"",""1"",""2502""
","
","
","""event"",""trial"",""time""
""fullscreenenter"",""1"",""2502""
","
","","","","","","909.8000000119209","images/sofa1.png","","","memory_trial","2","maybe_old","","","","","","",""
"html-keyboard-response","112","284708","0.0-15.0-0.35","1745","2","""event"",""trial"",""time""
""fullscreenenter"",""1"",""2502""
","
","
","""event"",""trial"",""time""
""fullscreenenter"",""1"",""2502""
","
","","","","","","null","<div style=""font-size:60px;"">+</div>","null","","fixation","","","","","","","","",""
"memory-trial","113","287076","0.0-15.0-1.35","1745","2","""event"",""trial"",""time""
""fullscreenenter"",""1"",""2502""
","
","
","""event"",""trial"",""time""
""fullscreenenter"",""1"",""2502""
","
","","","","","","1363.3999999761581","images/banana4.png","","","memory_trial","2","maybe_old","","","","","","",""
"html-keyboard-response","114","287581","0.0-15.0-0.36","1745","2","""event"",""trial"",""time""
""fullscreenenter"",""1"",""2502""
","
","
","""event"",""trial"",""time""
""fullscreenenter"",""1"",""2502""
","
","","","","","","null","<div style=""font-size:60px;"">+</div>","null","","fixation","","","","","","","","",""
"memory-trial","115","290740","0.0-15.0-1.36","1745","2","""event"",""trial"",""time""
""fullscreenenter"",""1"",""2502""
","
","
","""event"",""trial"",""time""
""fullscreenenter"",""1"",""2502""
","
","","","","","","2156.5","images/rabbit5.png","","","memory_trial","2","maybe_old","","","","","","",""
"html-keyboard-response","116","291242","0.0-15.0-0.37","1745","2","""event"",""trial"",""time""
""fullscreenenter"",""1"",""2502""
","
","
","""event"",""trial"",""time""
""fullscreenenter"",""1"",""2502""
","
","","","","","","null","<div style=""font-size:60px;"">+</div>","null","","fixation","","","","","","","","",""
"memory-trial","117","293343","0.0-15.0-1.37","1745","2","""event"",""trial"",""time""
""fullscreenenter"",""1"",""2502""
","
","
","""event"",""trial"",""time""
""fullscreenenter"",""1"",""2502""
","
","","","","","","1095.5","images/straw4.png","","","memory_trial","1","definitely_old","","","","","","",""
"html-keyboard-response","118","293844","0.0-15.0-0.38","1745","2","""event"",""trial"",""time""
""fullscreenenter"",""1"",""2502""
","
","
","""event"",""trial"",""time""
""fullscreenenter"",""1"",""2502""
","
","","","","","","null","<div style=""font-size:60px;"">+</div>","null","","fixation","","","","","","","","",""
"memory-trial","119","296207","0.0-15.0-1.38","1745","2","""event"",""trial"",""time""
""fullscreenenter"",""1"",""2502""
","
","
","""event"",""trial"",""time""
""fullscreenenter"",""1"",""2502""
","
","","","","","","1356.8999999761581","images/dog1.png","","","memory_trial","4","definitely_new","","","","","","",""
"html-keyboard-response","120","296708","0.0-15.0-0.39","1745","2","""event"",""trial"",""time""
""fullscreenenter"",""1"",""2502""
","
","
","""event"",""trial"",""time""
""fullscreenenter"",""1"",""2502""
","
","","","","","","null","<div style=""font-size:60px;"">+</div>","null","","fixation","","","","","","","","",""
"memory-trial","121","298932","0.0-15.0-1.39","1745","2","""event"",""trial"",""time""
""fullscreenenter"",""1"",""2502""
","
","
","""event"",""trial"",""time""
""fullscreenenter"",""1"",""2502""
","
","","","","","","1220.800000011921","images/straw3.png","","","memory_trial","2","maybe_old","","","","","","",""
"html-keyboard-response","122","299434","0.0-15.0-0.40","1745","2","""event"",""trial"",""time""
""fullscreenenter"",""1"",""2502""
","
","
","""event"",""trial"",""time""
""fullscreenenter"",""1"",""2502""
","
","","","","","","null","<div style=""font-size:60px;"">+</div>","null","","fixation","","","","","","","","",""
"memory-trial","123","301903","0.0-15.0-1.40","1745","2","""event"",""trial"",""time""
""fullscreenenter"",""1"",""2502""
","
","
","""event"",""trial"",""time""
""fullscreenenter"",""1"",""2502""
","
","","","","","","1465.800000011921","images/feline3.png","","","memory_trial","1","definitely_old","","","","","","",""
"html-keyboard-response","124","302405","0.0-15.0-0.41","1745","2","""event"",""trial"",""time""
""fullscreenenter"",""1"",""2502""
","
","
","""event"",""trial"",""time""
""fullscreenenter"",""1"",""2502""
","
","","","","","","null","<div style=""font-size:60px;"">+</div>","null","","fixation","","","","","","","","",""
"memory-trial","125","304314","0.0-15.0-1.41","1745","2","""event"",""trial"",""time""
""fullscreenenter"",""1"",""2502""
","
","
","""event"",""trial"",""time""
""fullscreenenter"",""1"",""2502""
","
","","","","","","905","images/bush4.png","","","memory_trial","2","maybe_old","","","","","","",""
"html-keyboard-response","126","304815","0.0-15.0-0.42","1745","2","""event"",""trial"",""time""
""fullscreenenter"",""1"",""2502""
","
","
","""event"",""trial"",""time""
""fullscreenenter"",""1"",""2502""
","
","","","","","","null","<div style=""font-size:60px;"">+</div>","null","","fixation","","","","","","","","",""
"memory-trial","127","307725","0.0-15.0-1.42","1745","2","""event"",""trial"",""time""
""fullscreenenter"",""1"",""2502""
","
","
","""event"",""trial"",""time""
""fullscreenenter"",""1"",""2502""
","
","","","","","","1903.1000000238419","images/cactus4.png","","","memory_trial","3","maybe_new","","","","","","",""
"html-keyboard-response","128","308228","0.0-15.0-0.43","1745","2","""event"",""trial"",""time""
""fullscreenenter"",""1"",""2502""
","
","
","""event"",""trial"",""time""
""fullscreenenter"",""1"",""2502""
","
","","","","","","null","<div style=""font-size:60px;"">+</div>","null","","fixation","","","","","","","","",""
"memory-trial","129","310688","0.0-15.0-1.43","1745","2","""event"",""trial"",""time""
""fullscreenenter"",""1"",""2502""
","
","
","""event"",""trial"",""time""
""fullscreenenter"",""1"",""2502""
","
","","","","","","1453.300000011921","images/bed1.png","","","memory_trial","2","maybe_old","","","","","","",""
"html-keyboard-response","130","311189","0.0-15.0-0.44","1745","2","""event"",""trial"",""time""
""fullscreenenter"",""1"",""2502""
","
","
","""event"",""trial"",""time""
""fullscreenenter"",""1"",""2502""
","
","","","","","","null","<div style=""font-size:60px;"">+</div>","null","","fixation","","","","","","","","",""
"memory-trial","131","313285","0.0-15.0-1.44","1745","2","""event"",""trial"",""time""
""fullscreenenter"",""1"",""2502""
","
","
","""event"",""trial"",""time""
""fullscreenenter"",""1"",""2502""
","
","","","","","","1089.300000011921","images/sheep3.png","","","memory_trial","4","definitely_new","","","","","","",""
"html-keyboard-response","132","313786","0.0-15.0-0.45","1745","2","""event"",""trial"",""time""
""fullscreenenter"",""1"",""2502""
","
","
","""event"",""trial"",""time""
""fullscreenenter"",""1"",""2502""
","
","","","","","","null","<div style=""font-size:60px;"">+</div>","null","","fixation","","","","","","","","",""
"memory-trial","133","316496","0.0-15.0-1.45","1745","2","""event"",""trial"",""time""
""fullscreenenter"",""1"",""2502""
","
","
","""event"",""trial"",""time""
""fullscreenenter"",""1"",""2502""
","
","","","","","","1707.199999988079","images/tree5.png","","","memory_trial","2","maybe_old","","","","","","",""
"html-keyboard-response","134","316997","0.0-15.0-0.46","1745","2","""event"",""trial"",""time""
""fullscreenenter"",""1"",""2502""
","
","
","""event"",""trial"",""time""
""fullscreenenter"",""1"",""2502""
","
","","","","","","null","<div style=""font-size:60px;"">+</div>","null","","fixation","","","","","","","","",""
"memory-trial","135","319637","0.0-15.0-1.46","1745","2","""event"",""trial"",""time""
""fullscreenenter"",""1"",""2502""
","
","
","""event"",""trial"",""time""
""fullscreenenter"",""1"",""2502""
","
","","","","","","1633.5999999642372","images/apple2.png","","","memory_trial","3","maybe_new","","","","","","",""
"html-button-response","136","323586","0.0-15.0-2.46-0.46","1745","2","""event"",""trial"",""time""
""fullscreenenter"",""1"",""2502""
","
","
","""event"",""trial"",""time""
""fullscreenenter"",""1"",""2502""
","
","","","","","","3947.5","<p> Take a break! </p><p> Click the button to continue. </p>","0","","break","","","","","","","","",""
"html-keyboard-response","137","324087","0.0-15.0-0.47","1745","2","""event"",""trial"",""time""
""fullscreenenter"",""1"",""2502""
","
","
","""event"",""trial"",""time""
""fullscreenenter"",""1"",""2502""
","
","","","","","","null","<div style=""font-size:60px;"">+</div>","null","","fixation","","","","","","","","",""
"memory-trial","138","326079","0.0-15.0-1.47","1745","2","""event"",""trial"",""time""
""fullscreenenter"",""1"",""2502""
","
","
","""event"",""trial"",""time""
""fullscreenenter"",""1"",""2502""
","
","","","","","","988.5","images/table2.png","","","memory_trial","1","definitely_old","","","","","","",""
"html-keyboard-response","139","326581","0.0-15.0-0.48","1745","2","""event"",""trial"",""time""
""fullscreenenter"",""1"",""2502""
","
","
","""event"",""trial"",""time""
""fullscreenenter"",""1"",""2502""
","
","","","","","","null","<div style=""font-size:60px;"">+</div>","null","","fixation","","","","","","","","",""
"memory-trial","140","329003","0.0-15.0-1.48","1745","2","""event"",""trial"",""time""
""fullscreenenter"",""1"",""2502""
","
","
","""event"",""trial"",""time""
""fullscreenenter"",""1"",""2502""
","
","","","","","","1418","images/bed2.png","","","memory_trial","3","maybe_new","","","","","","",""
"html-keyboard-response","141","329504","0.0-15.0-0.49","1745","2","""event"",""trial"",""time""
""fullscreenenter"",""1"",""2502""
","
","
","""event"",""trial"",""time""
""fullscreenenter"",""1"",""2502""
","
","","","","","","null","<div style=""font-size:60px;"">+</div>","null","","fixation","","","","","","","","",""
"memory-trial","142","332256","0.0-15.0-1.49","1745","2","""event"",""trial"",""time""
""fullscreenenter"",""1"",""2502""
","
","
","""event"",""trial"",""time""
""fullscreenenter"",""1"",""2502""
","
","","","","","","1748.199999988079","images/apple3.png","","","memory_trial","4","definitely_new","","","","","","",""
"html-keyboard-response","143","332757","0.0-15.0-0.50","1745","2","""event"",""trial"",""time""
""fullscreenenter"",""1"",""2502""
","
","
","""event"",""trial"",""time""
""fullscreenenter"",""1"",""2502""
","
","","","","","","null","<div style=""font-size:60px;"">+</div>","null","","fixation","","","","","","","","",""
"memory-trial","144","334608","0.0-15.0-1.50","1745","2","""event"",""trial"",""time""
""fullscreenenter"",""1"",""2502""
","
","
","""event"",""trial"",""time""
""fullscreenenter"",""1"",""2502""
","
","","","","","","848.3000000119209","images/sofa4.png","","","memory_trial","2","maybe_old","","","","","","",""
"html-keyboard-response","145","335109","0.0-15.0-0.51","1745","2","""event"",""trial"",""time""
""fullscreenenter"",""1"",""2502""
","
","
","""event"",""trial"",""time""
""fullscreenenter"",""1"",""2502""
","
","","","","","","null","<div style=""font-size:60px;"">+</div>","null","","fixation","","","","","","","","",""
"memory-trial","146","337344","0.0-15.0-1.51","1745","2","""event"",""trial"",""time""
""fullscreenenter"",""1"",""2502""
","
","
","""event"",""trial"",""time""
""fullscreenenter"",""1"",""2502""
","
","","","","","","1228","images/orange1.png","","","memory_trial","2","maybe_old","","","","","","",""
"html-keyboard-response","147","337846","0.0-15.0-0.52","1745","2","""event"",""trial"",""time""
""fullscreenenter"",""1"",""2502""
","
","
","""event"",""trial"",""time""
""fullscreenenter"",""1"",""2502""
","
","","","","","","null","<div style=""font-size:60px;"">+</div>","null","","fixation","","","","","","","","",""
"memory-trial","148","340651","0.0-15.0-1.52","1745","2","""event"",""trial"",""time""
""fullscreenenter"",""1"",""2502""
","
","
","""event"",""trial"",""time""
""fullscreenenter"",""1"",""2502""
","
","","","","","","1798.699999988079","images/cow3.png","","","memory_trial","3","maybe_new","","","","","","",""
"html-keyboard-response","149","341152","0.0-15.0-0.53","1745","2","""event"",""trial"",""time""
""fullscreenenter"",""1"",""2502""
","
","
","""event"",""trial"",""time""
""fullscreenenter"",""1"",""2502""
","
","","","","","","null","<div style=""font-size:60px;"">+</div>","null","","fixation","","","","","","","","",""
"memory-trial","150","344192","0.0-15.0-1.53","1745","2","""event"",""trial"",""time""
""fullscreenenter"",""1"",""2502""
","
","
","""event"",""trial"",""time""
""fullscreenenter"",""1"",""2502""
","
","","","","","","2036.300000011921","images/feline2.png","","","memory_trial","2","maybe_old","","","","","","",""
"html-keyboard-response","151","344694","0.0-15.0-0.54","1745","2","""event"",""trial"",""time""
""fullscreenenter"",""1"",""2502""
","
","
","""event"",""trial"",""time""
""fullscreenenter"",""1"",""2502""
","
","","","","","","null","<div style=""font-size:60px;"">+</div>","null","","fixation","","","","","","","","",""
"memory-trial","152","346961","0.0-15.0-1.54","1745","2","""event"",""trial"",""time""
""fullscreenenter"",""1"",""2502""
","
","
","""event"",""trial"",""time""
""fullscreenenter"",""1"",""2502""
","
","","","","","","1264.9000000357628","images/table3.png","","","memory_trial","1","definitely_old","","","","","","",""
"html-keyboard-response","153","347462","0.0-15.0-0.55","1745","2","""event"",""trial"",""time""
""fullscreenenter"",""1"",""2502""
","
","
","""event"",""trial"",""time""
""fullscreenenter"",""1"",""2502""
","
","","","","","","null","<div style=""font-size:60px;"">+</div>","null","","fixation","","","","","","","","",""
"memory-trial","154","349441","0.0-15.0-1.55","1745","2","""event"",""trial"",""time""
""fullscreenenter"",""1"",""2502""
","
","
","""event"",""trial"",""time""
""fullscreenenter"",""1"",""2502""
","
","","","","","","972.0999999642372","images/boat5.png","","","memory_trial","3","maybe_new","","","","","","",""
"html-keyboard-response","155","349945","0.0-15.0-0.56","1745","2","""event"",""trial"",""time""
""fullscreenenter"",""1"",""2502""
","
","
","""event"",""trial"",""time""
""fullscreenenter"",""1"",""2502""
","
","","","","","","null","<div style=""font-size:60px;"">+</div>","null","","fixation","","","","","","","","",""
"memory-trial","156","352257","0.0-15.0-1.56","1745","2","""event"",""trial"",""time""
""fullscreenenter"",""1"",""2502""
","
","
","""event"",""trial"",""time""
""fullscreenenter"",""1"",""2502""
","
","","","","","","1308.7999999523163","images/banana3.png","","","memory_trial","2","maybe_old","","","","","","",""
"html-keyboard-response","157","352758","0.0-15.0-0.57","1745","2","""event"",""trial"",""time""
""fullscreenenter"",""1"",""2502""
","
","
","""event"",""trial"",""time""
""fullscreenenter"",""1"",""2502""
","
","","","","","","null","<div style=""font-size:60px;"">+</div>","null","","fixation","","","","","","","","",""
"memory-trial","158","354715","0.0-15.0-1.57","1745","2","""event"",""trial"",""time""
""fullscreenenter"",""1"",""2502""
","
","
","""event"",""trial"",""time""
""fullscreenenter"",""1"",""2502""
","
","","","","","","955.1000000238419","images/orange5.png","","","memory_trial","1","definitely_old","","","","","","",""
"html-keyboard-response","159","355217","0.0-15.0-0.58","1745","2","""event"",""trial"",""time""
""fullscreenenter"",""1"",""2502""
","
","
","""event"",""trial"",""time""
""fullscreenenter"",""1"",""2502""
","
","","","","","","null","<div style=""font-size:60px;"">+</div>","null","","fixation","","","","","","","","",""
"memory-trial","160","357419","0.0-15.0-1.58","1745","2","""event"",""trial"",""time""
""fullscreenenter"",""1"",""2502""
","
","
","""event"",""trial"",""time""
""fullscreenenter"",""1"",""2502""
","
","","","","","","1195.5","images/straw1.png","","","memory_trial","1","definitely_old","","","","","","",""
"html-keyboard-response","161","357921","0.0-15.0-0.59","1745","2","""event"",""trial"",""time""
""fullscreenenter"",""1"",""2502""
","
","
","""event"",""trial"",""time""
""fullscreenenter"",""1"",""2502""
","
","","","","","","null","<div style=""font-size:60px;"">+</div>","null","","fixation","","","","","","","","",""
"memory-trial","162","360732","0.0-15.0-1.59","1745","2","""event"",""trial"",""time""
""fullscreenenter"",""1"",""2502""
","
","
","""event"",""trial"",""time""
""fullscreenenter"",""1"",""2502""
","
","","","","","","1805.199999988079","images/cactus5.png","","","memory_trial","3","maybe_new","","","","","","",""
"html-keyboard-response","163","361233","0.0-15.0-0.60","1745","2","""event"",""trial"",""time""
""fullscreenenter"",""1"",""2502""
","
","
","""event"",""trial"",""time""
""fullscreenenter"",""1"",""2502""
","
","","","","","","null","<div style=""font-size:60px;"">+</div>","null","","fixation","","","","","","","","",""
"memory-trial","164","363308","0.0-15.0-1.60","1745","2","""event"",""trial"",""time""
""fullscreenenter"",""1"",""2502""
","
","
","""event"",""trial"",""time""
""fullscreenenter"",""1"",""2502""
","
","","","","","","1071.1000000238419","images/feline4.png","","","memory_trial","4","definitely_new","","","","","","",""
"html-keyboard-response","165","363809","0.0-15.0-0.61","1745","2","""event"",""trial"",""time""
""fullscreenenter"",""1"",""2502""
","
","
","""event"",""trial"",""time""
""fullscreenenter"",""1"",""2502""
","
","","","","","","null","<div style=""font-size:60px;"">+</div>","null","","fixation","","","","","","","","",""
"memory-trial","166","366422","0.0-15.0-1.61","1745","2","""event"",""trial"",""time""
""fullscreenenter"",""1"",""2502""
","
","
","""event"",""trial"",""time""
""fullscreenenter"",""1"",""2502""
","
","","","","","","1607.300000011921","images/plane5.png","","","memory_trial","3","maybe_new","","","","","","",""
"html-keyboard-response","167","366924","0.0-15.0-0.62","1745","2","""event"",""trial"",""time""
""fullscreenenter"",""1"",""2502""
","
","
","""event"",""trial"",""time""
""fullscreenenter"",""1"",""2502""
","
","","","","","","null","<div style=""font-size:60px;"">+</div>","null","","fixation","","","","","","","","",""
"memory-trial","168","369665","0.0-15.0-1.62","1745","2","""event"",""trial"",""time""
""fullscreenenter"",""1"",""2502""
","
","
","""event"",""trial"",""time""
""fullscreenenter"",""1"",""2502""
","
","","","","","","1734.5","images/plane1.png","","","memory_trial","1","definitely_old","","","","","","",""
"html-keyboard-response","169","370166","0.0-15.0-0.63","1745","2","""event"",""trial"",""time""
""fullscreenenter"",""1"",""2502""
","
","
","""event"",""trial"",""time""
""fullscreenenter"",""1"",""2502""
","
","","","","","","null","<div style=""font-size:60px;"">+</div>","null","","fixation","","","","","","","","",""
"memory-trial","170","372428","0.0-15.0-1.63","1745","2","""event"",""trial"",""time""
""fullscreenenter"",""1"",""2502""
","
","
","""event"",""trial"",""time""
""fullscreenenter"",""1"",""2502""
","
","","","","","","1254.699999988079","images/dog4.png","","","memory_trial","4","definitely_new","","","","","","",""
"html-keyboard-response","171","372929","0.0-15.0-0.64","1745","2","""event"",""trial"",""time""
""fullscreenenter"",""1"",""2502""
","
","
","""event"",""trial"",""time""
""fullscreenenter"",""1"",""2502""
","
","","","","","","null","<div style=""font-size:60px;"">+</div>","null","","fixation","","","","","","","","",""
"memory-trial","172","375516","0.0-15.0-1.64","1745","2","""event"",""trial"",""time""
""fullscreenenter"",""1"",""2502""
","
","
","""event"",""trial"",""time""
""fullscreenenter"",""1"",""2502""
","
","","","","","","1583.5","images/sheep4.png","","","memory_trial","4","definitely_new","","","","","","",""
"html-keyboard-response","173","376017","0.0-15.0-0.65","1745","2","""event"",""trial"",""time""
""fullscreenenter"",""1"",""2502""
","
","
","""event"",""trial"",""time""
""fullscreenenter"",""1"",""2502""
","
","","","","","","null","<div style=""font-size:60px;"">+</div>","null","","fixation","","","","","","","","",""
"memory-trial","174","377863","0.0-15.0-1.65","1745","2","""event"",""trial"",""time""
""fullscreenenter"",""1"",""2502""
","
","
","""event"",""trial"",""time""
""fullscreenenter"",""1"",""2502""
","
","","","","","","840","images/straw2.png","","","memory_trial","1","definitely_old","","","","","","",""
"html-keyboard-response","175","378364","0.0-15.0-0.66","1745","2","""event"",""trial"",""time""
""fullscreenenter"",""1"",""2502""
","
","
","""event"",""trial"",""time""
""fullscreenenter"",""1"",""2502""
","
","","","","","","null","<div style=""font-size:60px;"">+</div>","null","","fixation","","","","","","","","",""
"memory-trial","176","380652","0.0-15.0-1.66","1745","2","""event"",""trial"",""time""
""fullscreenenter"",""1"",""2502""
","
","
","""event"",""trial"",""time""
""fullscreenenter"",""1"",""2502""
","
","","","","","","1285.199999988079","images/cow4.png","","","memory_trial","3","maybe_new","","","","","","",""
"html-keyboard-response","177","381154","0.0-15.0-0.67","1745","2","""event"",""trial"",""time""
""fullscreenenter"",""1"",""2502""
","
","
","""event"",""trial"",""time""
""fullscreenenter"",""1"",""2502""
","
","","","","","","null","<div style=""font-size:60px;"">+</div>","null","","fixation","","","","","","","","",""
"memory-trial","178","383681","0.0-15.0-1.67","1745","2","""event"",""trial"",""time""
""fullscreenenter"",""1"",""2502""
","
","
","""event"",""trial"",""time""
""fullscreenenter"",""1"",""2502""
","
","","","","","","1520.7000000476837","images/feline1.png","","","memory_trial","3","maybe_new","","","","","","",""
"html-keyboard-response","179","384183","0.0-15.0-0.68","1745","2","""event"",""trial"",""time""
""fullscreenenter"",""1"",""2502""
","
","
","""event"",""trial"",""time""
""fullscreenenter"",""1"",""2502""
","
","","","","","","null","<div style=""font-size:60px;"">+</div>","null","","fixation","","","","","","","","",""
"memory-trial","180","386258","0.0-15.0-1.68","1745","2","""event"",""trial"",""time""
""fullscreenenter"",""1"",""2502""
","
","
","""event"",""trial"",""time""
""fullscreenenter"",""1"",""2502""
","
","","","","","","1072.4000000357628","images/banana5.png","","","memory_trial","1","definitely_old","","","","","","",""
"html-keyboard-response","181","386759","0.0-15.0-0.69","1745","2","""event"",""trial"",""time""
""fullscreenenter"",""1"",""2502""
","
","
","""event"",""trial"",""time""
""fullscreenenter"",""1"",""2502""
","
","","","","","","null","<div style=""font-size:60px;"">+</div>","null","","fixation","","","","","","","","",""
"memory-trial","182","388903","0.0-15.0-1.69","1745","2","""event"",""trial"",""time""
""fullscreenenter"",""1"",""2502""
","
","
","""event"",""trial"",""time""
""fullscreenenter"",""1"",""2502""
","
","","","","","","1137.300000011921","images/sheep2.png","","","memory_trial","4","definitely_new","","","","","","",""
"html-keyboard-response","183","389404","0.0-15.0-0.70","1745","2","""event"",""trial"",""time""
""fullscreenenter"",""1"",""2502""
","
","
","""event"",""trial"",""time""
""fullscreenenter"",""1"",""2502""
","
","","","","","","null","<div style=""font-size:60px;"">+</div>","null","","fixation","","","","","","","","",""
"memory-trial","184","391431","0.0-15.0-1.70","1745","2","""event"",""trial"",""time""
""fullscreenenter"",""1"",""2502""
","
","
","""event"",""trial"",""time""
""fullscreenenter"",""1"",""2502""
","
","","","","","","1022.1999999880791","images/chair1.png","","","memory_trial","2","maybe_old","","","","","","",""
"html-keyboard-response","185","391932","0.0-15.0-0.71","1745","2","""event"",""trial"",""time""
""fullscreenenter"",""1"",""2502""
","
","
","""event"",""trial"",""time""
""fullscreenenter"",""1"",""2502""
","
","","","","","","null","<div style=""font-size:60px;"">+</div>","null","","fixation","","","","","","","","",""
"memory-trial","186","394370","0.0-15.0-1.71","1745","2","""event"",""trial"",""time""
""fullscreenenter"",""1"",""2502""
","
","
","""event"",""trial"",""time""
""fullscreenenter"",""1"",""2502""
","
","","","","","","1433.699999988079","images/boat4.png","","","memory_trial","3","maybe_new","","","","","","",""
"html-keyboard-response","187","394871","0.0-15.0-0.72","1745","2","""event"",""trial"",""time""
""fullscreenenter"",""1"",""2502""
","
","
","""event"",""trial"",""time""
""fullscreenenter"",""1"",""2502""
","
","","","","","","null","<div style=""font-size:60px;"">+</div>","null","","fixation","","","","","","","","",""
"memory-trial","188","397010","0.0-15.0-1.72","1745","2","""event"",""trial"",""time""
""fullscreenenter"",""1"",""2502""
","
","
","""event"",""trial"",""time""
""fullscreenenter"",""1"",""2502""
","
","","","","","","1136","images/dog2.png","","","memory_trial","4","definitely_new","","","","","","",""
"html-keyboard-response","189","397511","0.0-15.0-0.73","1745","2","""event"",""trial"",""time""
""fullscreenenter"",""1"",""2502""
","
","
","""event"",""trial"",""time""
""fullscreenenter"",""1"",""2502""
","
","","","","","","null","<div style=""font-size:60px;"">+</div>","null","","fixation","","","","","","","","",""
"memory-trial","190","399698","0.0-15.0-1.73","1745","2","""event"",""trial"",""time""
""fullscreenenter"",""1"",""2502""
","
","
","""event"",""trial"",""time""
""fullscreenenter"",""1"",""2502""
","
","","","","","","1179.5","images/feline5.png","","","memory_trial","4","definitely_new","","","","","","",""
"html-keyboard-response","191","400199","0.0-15.0-0.74","1745","2","""event"",""trial"",""time""
""fullscreenenter"",""1"",""2502""
","
","
","""event"",""trial"",""time""
""fullscreenenter"",""1"",""2502""
","
","","","","","","null","<div style=""font-size:60px;"">+</div>","null","","fixation","","","","","","","","",""
"memory-trial","192","402082","0.0-15.0-1.74","1745","2","""event"",""trial"",""time""
""fullscreenenter"",""1"",""2502""
","
","
","""event"",""trial"",""time""
""fullscreenenter"",""1"",""2502""
","
","","","","","","877.5","images/tree1.png","","","memory_trial","1","definitely_old","","","","","","",""
"html-keyboard-response","193","402583","0.0-15.0-0.75","1745","2","""event"",""trial"",""time""
""fullscreenenter"",""1"",""2502""
","
","
","""event"",""trial"",""time""
""fullscreenenter"",""1"",""2502""
","
","","","","","","null","<div style=""font-size:60px;"">+</div>","null","","fixation","","","","","","","","",""
"memory-trial","194","404247","0.0-15.0-1.75","1745","2","""event"",""trial"",""time""
""fullscreenenter"",""1"",""2502""
","
","
","""event"",""trial"",""time""
""fullscreenenter"",""1"",""2502""
","
","","","","","","661.3000000119209","images/straw5.png","","","memory_trial","1","definitely_old","","","","","","",""
"html-keyboard-response","195","404748","0.0-15.0-0.76","1745","2","""event"",""trial"",""time""
""fullscreenenter"",""1"",""2502""
","
","
","""event"",""trial"",""time""
""fullscreenenter"",""1"",""2502""
","
","","","","","","null","<div style=""font-size:60px;"">+</div>","null","","fixation","","","","","","","","",""
"memory-trial","196","407277","0.0-15.0-1.76","1745","2","""event"",""trial"",""time""
""fullscreenenter"",""1"",""2502""
","
","
","""event"",""trial"",""time""
""fullscreenenter"",""1"",""2502""
","
","","","","","","1523","images/cow1.png","","","memory_trial","3","maybe_new","","","","","","",""
"html-keyboard-response","197","407778","0.0-15.0-0.77","1745","2","""event"",""trial"",""time""
""fullscreenenter"",""1"",""2502""
","
","
","""event"",""trial"",""time""
""fullscreenenter"",""1"",""2502""
","
","","","","","","null","<div style=""font-size:60px;"">+</div>","null","","fixation","","","","","","","","",""
"memory-trial","198","410194","0.0-15.0-1.77","1745","2","""event"",""trial"",""time""
""fullscreenenter"",""1"",""2502""
","
","
","""event"",""trial"",""time""
""fullscreenenter"",""1"",""2502""
","
","","","","","","1408.800000011921","images/table5.png","","","memory_trial","2","maybe_old","","","","","","",""
"html-keyboard-response","199","410696","0.0-15.0-0.78","1745","2","""event"",""trial"",""time""
""fullscreenenter"",""1"",""2502""
","
","
","""event"",""trial"",""time""
""fullscreenenter"",""1"",""2502""
","
","","","","","","null","<div style=""font-size:60px;"">+</div>","null","","fixation","","","","","","","","",""
"memory-trial","200","412920","0.0-15.0-1.78","1745","2","""event"",""trial"",""time""
""fullscreenenter"",""1"",""2502""
","
","
","""event"",""trial"",""time""
""fullscreenenter"",""1"",""2502""
","
","","","","","","1217.3999999761581","images/table4.png","","","memory_trial","2","maybe_old","","","","","","",""
"html-keyboard-response","201","413421","0.0-15.0-0.79","1745","2","""event"",""trial"",""time""
""fullscreenenter"",""1"",""2502""
","
","
","""event"",""trial"",""time""
""fullscreenenter"",""1"",""2502""
","
","","","","","","null","<div style=""font-size:60px;"">+</div>","null","","fixation","","","","","","","","",""
"memory-trial","202","415302","0.0-15.0-1.79","1745","2","""event"",""trial"",""time""
""fullscreenenter"",""1"",""2502""
","
","
","""event"",""trial"",""time""
""fullscreenenter"",""1"",""2502""
","
","","","","","","877.9000000357628","images/dog3.png","","","memory_trial","4","definitely_new","","","","","","",""
"html-keyboard-response","203","415805","0.0-15.0-0.80","1745","2","""event"",""trial"",""time""
""fullscreenenter"",""1"",""2502""
","
","
","""event"",""trial"",""time""
""fullscreenenter"",""1"",""2502""
","
","","","","","","null","<div style=""font-size:60px;"">+</div>","null","","fixation","","","","","","","","",""
"memory-trial","204","418141","0.0-15.0-1.80","1745","2","""event"",""trial"",""time""
""fullscreenenter"",""1"",""2502""
","
","
","""event"",""trial"",""time""
""fullscreenenter"",""1"",""2502""
","
","","","","","","1331","images/train4.png","","","memory_trial","3","maybe_new","","","","","","",""
"html-keyboard-response","205","418642","0.0-15.0-0.81","1745","2","""event"",""trial"",""time""
""fullscreenenter"",""1"",""2502""
","
","
","""event"",""trial"",""time""
""fullscreenenter"",""1"",""2502""
","
","","","","","","null","<div style=""font-size:60px;"">+</div>","null","","fixation","","","","","","","","",""
"memory-trial","206","420440","0.0-15.0-1.81","1745","2","""event"",""trial"",""time""
""fullscreenenter"",""1"",""2502""
","
","
","""event"",""trial"",""time""
""fullscreenenter"",""1"",""2502""
","
","","","","","","794.9000000357628","images/boat3.png","","","memory_trial","3","maybe_new","","","","","","",""
"html-keyboard-response","207","420944","0.0-15.0-0.82","1745","2","""event"",""trial"",""time""
""fullscreenenter"",""1"",""2502""
","
","
","""event"",""trial"",""time""
""fullscreenenter"",""1"",""2502""
","
","","","","","","null","<div style=""font-size:60px;"">+</div>","null","","fixation","","","","","","","","",""
"memory-trial","208","423416","0.0-15.0-1.82","1745","2","""event"",""trial"",""time""
""fullscreenenter"",""1"",""2502""
","
","
","""event"",""trial"",""time""
""fullscreenenter"",""1"",""2502""
","
","","","","","","1467.8999999761581","images/horse3.png","","","memory_trial","4","definitely_new","","","","","","",""
"html-keyboard-response","209","423917","0.0-15.0-0.83","1745","2","""event"",""trial"",""time""
""fullscreenenter"",""1"",""2502""
","
","
","""event"",""trial"",""time""
""fullscreenenter"",""1"",""2502""
","
","","","","","","null","<div style=""font-size:60px;"">+</div>","null","","fixation","","","","","","","","",""
"memory-trial","210","426243","0.0-15.0-1.83","1745","2","""event"",""trial"",""time""
""fullscreenenter"",""1"",""2502""
","
","
","""event"",""trial"",""time""
""fullscreenenter"",""1"",""2502""
","
","","","","","","1321.699999988079","images/plane4.png","","","memory_trial","3","maybe_new","","","","","","",""
"html-keyboard-response","211","426744","0.0-15.0-0.84","1745","2","""event"",""trial"",""time""
""fullscreenenter"",""1"",""2502""
","
","
","""event"",""trial"",""time""
""fullscreenenter"",""1"",""2502""
","
","","","","","","null","<div style=""font-size:60px;"">+</div>","null","","fixation","","","","","","","","",""
"memory-trial","212","428753","0.0-15.0-1.84","1745","2","""event"",""trial"",""time""
""fullscreenenter"",""1"",""2502""
","
","
","""event"",""trial"",""time""
""fullscreenenter"",""1"",""2502""
","
","","","","","","1006.5","images/apple1.png","","","memory_trial","4","definitely_new","","","","","","",""
"html-keyboard-response","213","429259","0.0-15.0-0.85","1745","2","""event"",""trial"",""time""
""fullscreenenter"",""1"",""2502""
","
","
","""event"",""trial"",""time""
""fullscreenenter"",""1"",""2502""
","
","","","","","","null","<div style=""font-size:60px;"">+</div>","null","","fixation","","","","","","","","",""
"memory-trial","214","432207","0.0-15.0-1.85","1745","2","""event"",""trial"",""time""
""fullscreenenter"",""1"",""2502""
","
","
","""event"",""trial"",""time""
""fullscreenenter"",""1"",""2502""
","
","","","","","","1942.5","images/horse4.png","","","memory_trial","2","maybe_old","","","","","","",""
"html-keyboard-response","215","432712","0.0-15.0-0.86","1745","2","""event"",""trial"",""time""
""fullscreenenter"",""1"",""2502""
","
","
","""event"",""trial"",""time""
""fullscreenenter"",""1"",""2502""
","
","","","","","","null","<div style=""font-size:60px;"">+</div>","null","","fixation","","","","","","","","",""
"memory-trial","216","435181","0.0-15.0-1.86","1745","2","""event"",""trial"",""time""
""fullscreenenter"",""1"",""2502""
","
","
","""event"",""trial"",""time""
""fullscreenenter"",""1"",""2502""
","
","","","","","","1463.5","images/horse1.png","","","memory_trial","3","maybe_new","","","","","","",""
"html-keyboard-response","217","435683","0.0-15.0-0.87","1745","2","""event"",""trial"",""time""
""fullscreenenter"",""1"",""2502""
","
","
","""event"",""trial"",""time""
""fullscreenenter"",""1"",""2502""
","
","","","","","","null","<div style=""font-size:60px;"">+</div>","null","","fixation","","","","","","","","",""
"memory-trial","218","437912","0.0-15.0-1.87","1745","2","""event"",""trial"",""time""
""fullscreenenter"",""1"",""2502""
","
","
","""event"",""trial"",""time""
""fullscreenenter"",""1"",""2502""
","
","","","","","","1225","images/goat1.png","","","memory_trial","4","definitely_new","","","","","","",""
"html-keyboard-response","219","438414","0.0-15.0-0.88","1745","2","""event"",""trial"",""time""
""fullscreenenter"",""1"",""2502""
","
","
","""event"",""trial"",""time""
""fullscreenenter"",""1"",""2502""
","
","","","","","","null","<div style=""font-size:60px;"">+</div>","null","","fixation","","","","","","","","",""
"memory-trial","220","440035","0.0-15.0-1.88","1745","2","""event"",""trial"",""time""
""fullscreenenter"",""1"",""2502""
","
","
","""event"",""trial"",""time""
""fullscreenenter"",""1"",""2502""
","
","","","","","","616.8000000119209","images/orange4.png","","","memory_trial","1","definitely_old","","","","","","",""
"html-keyboard-response","221","440536","0.0-15.0-0.89","1745","2","""event"",""trial"",""time""
""fullscreenenter"",""1"",""2502""
","
","
","""event"",""trial"",""time""
""fullscreenenter"",""1"",""2502""
","
","","","","","","null","<div style=""font-size:60px;"">+</div>","null","","fixation","","","","","","","","",""
"memory-trial","222","443192","0.0-15.0-1.89","1745","2","""event"",""trial"",""time""
""fullscreenenter"",""1"",""2502""
","
","
","""event"",""trial"",""time""
""fullscreenenter"",""1"",""2502""
","
","","","","","","1652.4000000357628","images/rodent4.png","","","memory_trial","2","maybe_old","","","","","","",""
"html-keyboard-response","223","443694","0.0-15.0-0.90","1745","2","""event"",""trial"",""time""
""fullscreenenter"",""1"",""2502""
","
","
","""event"",""trial"",""time""
""fullscreenenter"",""1"",""2502""
","
","","","","","","null","<div style=""font-size:60px;"">+</div>","null","","fixation","","","","","","","","",""
"memory-trial","224","445603","0.0-15.0-1.90","1745","2","""event"",""trial"",""time""
""fullscreenenter"",""1"",""2502""
","
","
","""event"",""trial"",""time""
""fullscreenenter"",""1"",""2502""
","
","","","","","","904.6999999880791","images/dog5.png","","","memory_trial","4","definitely_new","","","","","","",""
"html-keyboard-response","225","446105","0.0-15.0-0.91","1745","2","""event"",""trial"",""time""
""fullscreenenter"",""1"",""2502""
","
","
","""event"",""trial"",""time""
""fullscreenenter"",""1"",""2502""
","
","","","","","","null","<div style=""font-size:60px;"">+</div>","null","","fixation","","","","","","","","",""
"memory-trial","226","449552","0.0-15.0-1.91","1745","2","""event"",""trial"",""time""
""fullscreenenter"",""1"",""2502""
","
","
","""event"",""trial"",""time""
""fullscreenenter"",""1"",""2502""
","
","","","","","","2442.899999976158","images/truck3.png","","","memory_trial","2","maybe_old","","","","","","",""
"html-keyboard-response","227","450057","0.0-15.0-0.92","1745","2","""event"",""trial"",""time""
""fullscreenenter"",""1"",""2502""
","
","
","""event"",""trial"",""time""
""fullscreenenter"",""1"",""2502""
","
","","","","","","null","<div style=""font-size:60px;"">+</div>","null","","fixation","","","","","","","","",""
"memory-trial","228","452238","0.0-15.0-1.92","1745","2","""event"",""trial"",""time""
""fullscreenenter"",""1"",""2502""
","
","
","""event"",""trial"",""time""
""fullscreenenter"",""1"",""2502""
","
","","","","","","1174.2000000476837","images/train1.png","","","memory_trial","1","definitely_old","","","","","","",""
"html-keyboard-response","229","452739","0.0-15.0-0.93","1745","2","""event"",""trial"",""time""
""fullscreenenter"",""1"",""2502""
","
","
","""event"",""trial"",""time""
""fullscreenenter"",""1"",""2502""
","
","","","","","","null","<div style=""font-size:60px;"">+</div>","null","","fixation","","","","","","","","",""
"memory-trial","230","455353","0.0-15.0-1.93","1745","2","""event"",""trial"",""time""
""fullscreenenter"",""1"",""2502""
","
","
","""event"",""trial"",""time""
""fullscreenenter"",""1"",""2502""
","
","","","","","","1608.6000000238419","images/cactus2.png","","","memory_trial","3","maybe_new","","","","","","",""
"html-keyboard-response","231","455854","0.0-15.0-0.94","1745","2","""event"",""trial"",""time""
""fullscreenenter"",""1"",""2502""
","
","
","""event"",""trial"",""time""
""fullscreenenter"",""1"",""2502""
","
","","","","","","null","<div style=""font-size:60px;"">+</div>","null","","fixation","","","","","","","","",""
"memory-trial","232","458404","0.0-15.0-1.94","1745","2","""event"",""trial"",""time""
""fullscreenenter"",""1"",""2502""
","
","
","""event"",""trial"",""time""
""fullscreenenter"",""1"",""2502""
","
","","","","","","1544.5","images/apple4.png","","","memory_trial","3","maybe_new","","","","","","",""
"html-keyboard-response","233","458905","0.0-15.0-0.95","1745","2","""event"",""trial"",""time""
""fullscreenenter"",""1"",""2502""
","
","
","""event"",""trial"",""time""
""fullscreenenter"",""1"",""2502""
","
","","","","","","null","<div style=""font-size:60px;"">+</div>","null","","fixation","","","","","","","","",""
"memory-trial","234","461481","0.0-15.0-1.95","1745","2","""event"",""trial"",""time""
""fullscreenenter"",""1"",""2502""
","
","
","""event"",""trial"",""time""
""fullscreenenter"",""1"",""2502""
","
","","","","","","1570.5","images/cow2.png","","","memory_trial","3","maybe_new","","","","","","",""
"html-keyboard-response","235","461983","0.0-15.0-0.96","1745","2","""event"",""trial"",""time""
""fullscreenenter"",""1"",""2502""
","
","
","""event"",""trial"",""time""
""fullscreenenter"",""1"",""2502""
","
","","","","","","null","<div style=""font-size:60px;"">+</div>","null","","fixation","","","","","","","","",""
"memory-trial","236","464377","0.0-15.0-1.96","1745","2","""event"",""trial"",""time""
""fullscreenenter"",""1"",""2502""
","
","
","""event"",""trial"",""time""
""fullscreenenter"",""1"",""2502""
","
","","","","","","1387.4000000357628","images/tree3.png","","","memory_trial","2","maybe_old","","","","","","",""
"html-keyboard-response","237","464878","0.0-15.0-0.97","1745","2","""event"",""trial"",""time""
""fullscreenenter"",""1"",""2502""
","
","
","""event"",""trial"",""time""
""fullscreenenter"",""1"",""2502""
","
","","","","","","null","<div style=""font-size:60px;"">+</div>","null","","fixation","","","","","","","","",""
"memory-trial","238","468084","0.0-15.0-1.97","1745","2","""event"",""trial"",""time""
""fullscreenenter"",""1"",""2502""
","
","
","""event"",""trial"",""time""
""fullscreenenter"",""1"",""2502""
","
","","","","","","2203","images/rabbit1.png","","","memory_trial","3","maybe_new","","","","","","",""
"html-keyboard-response","239","468585","0.0-15.0-0.98","1745","2","""event"",""trial"",""time""
""fullscreenenter"",""1"",""2502""
","
","
","""event"",""trial"",""time""
""fullscreenenter"",""1"",""2502""
","
","","","","","","null","<div style=""font-size:60px;"">+</div>","null","","fixation","","","","","","","","",""
"memory-trial","240","470884","0.0-15.0-1.98","1745","2","""event"",""trial"",""time""
""fullscreenenter"",""1"",""2502""
","
","
","""event"",""trial"",""time""
""fullscreenenter"",""1"",""2502""
","
","","","","","","1294.2000000476837","images/goat4.png","","","memory_trial","3","maybe_new","","","","","","",""
"html-keyboard-response","241","471385","0.0-15.0-0.99","1745","2","""event"",""trial"",""time""
""fullscreenenter"",""1"",""2502""
","
","
","""event"",""trial"",""time""
""fullscreenenter"",""1"",""2502""
","
","","","","","","null","<div style=""font-size:60px;"">+</div>","null","","fixation","","","","","","","","",""
"memory-trial","242","474468","0.0-15.0-1.99","1745","2","""event"",""trial"",""time""
""fullscreenenter"",""1"",""2502""
","
","
","""event"",""trial"",""time""
""fullscreenenter"",""1"",""2502""
","
","","","","","","2079.800000011921","images/train2.png","","","memory_trial","2","maybe_old","","","","","","",""
"html-keyboard-response","243","474969","0.0-15.0-0.100","1745","2","""event"",""trial"",""time""
""fullscreenenter"",""1"",""2502""
","
","
","""event"",""trial"",""time""
""fullscreenenter"",""1"",""2502""
","
","","","","","","null","<div style=""font-size:60px;"">+</div>","null","","fixation","","","","","","","","",""
"memory-trial","244","477295","0.0-15.0-1.100","1745","2","""event"",""trial"",""time""
""fullscreenenter"",""1"",""2502""
","
","
","""event"",""trial"",""time""
""fullscreenenter"",""1"",""2502""
","
","","","","","","1320","images/bed3.png","","","memory_trial","2","maybe_old","","","","","","",""
"html-keyboard-response","245","477796","0.0-15.0-0.101","1745","2","""event"",""trial"",""time""
""fullscreenenter"",""1"",""2502""
","
","
","""event"",""trial"",""time""
""fullscreenenter"",""1"",""2502""
","
","","","","","","null","<div style=""font-size:60px;"">+</div>","null","","fixation","","","","","","","","",""
"memory-trial","246","479551","0.0-15.0-1.101","1745","2","""event"",""trial"",""time""
""fullscreenenter"",""1"",""2502""
","
","
","""event"",""trial"",""time""
""fullscreenenter"",""1"",""2502""
","
","","","","","","749.1999999880791","images/orange3.png","","","memory_trial","1","definitely_old","","","","","","",""
"html-button-response","247","480530","0.0-15.0-2.101-0.101","1745","2","""event"",""trial"",""time""
""fullscreenenter"",""1"",""2502""
","
","
","""event"",""trial"",""time""
""fullscreenenter"",""1"",""2502""
","
","","","","","","977.3999999761581","<p> Take a break! </p><p> Click the button to continue. </p>","0","","break","","","","","","","","",""
"html-keyboard-response","248","481033","0.0-15.0-0.102","1745","2","""event"",""trial"",""time""
""fullscreenenter"",""1"",""2502""
","
","
","""event"",""trial"",""time""
""fullscreenenter"",""1"",""2502""
","
","","","","","","null","<div style=""font-size:60px;"">+</div>","null","","fixation","","","","","","","","",""
"memory-trial","249","484026","0.0-15.0-1.102","1745","2","""event"",""trial"",""time""
""fullscreenenter"",""1"",""2502""
","
","
","""event"",""trial"",""time""
""fullscreenenter"",""1"",""2502""
","
","","","","","","1988.9000000357628","images/train5.png","","","memory_trial","2","maybe_old","","","","","","",""
"html-keyboard-response","250","484532","0.0-15.0-0.103","1745","2","""event"",""trial"",""time""
""fullscreenenter"",""1"",""2502""
","
","
","""event"",""trial"",""time""
""fullscreenenter"",""1"",""2502""
","
","","","","","","null","<div style=""font-size:60px;"">+</div>","null","","fixation","","","","","","","","",""
"memory-trial","251","486426","0.0-15.0-1.103","1745","2","""event"",""trial"",""time""
""fullscreenenter"",""1"",""2502""
","
","
","""event"",""trial"",""time""
""fullscreenenter"",""1"",""2502""
","
","","","","","","888.3999999761581","images/bush3.png","","","memory_trial","2","maybe_old","","","","","","",""
"html-keyboard-response","252","486927","0.0-15.0-0.104","1745","2","""event"",""trial"",""time""
""fullscreenenter"",""1"",""2502""
","
","
","""event"",""trial"",""time""
""fullscreenenter"",""1"",""2502""
","
","","","","","","null","<div style=""font-size:60px;"">+</div>","null","","fixation","","","","","","","","",""
"memory-trial","253","489524","0.0-15.0-1.104","1745","2","""event"",""trial"",""time""
""fullscreenenter"",""1"",""2502""
","
","
","""event"",""trial"",""time""
""fullscreenenter"",""1"",""2502""
","
","","","","","","1593.5","images/truck2.png","","","memory_trial","3","maybe_new","","","","","","",""
"html-keyboard-response","254","490026","0.0-15.0-0.105","1745","2","""event"",""trial"",""time""
""fullscreenenter"",""1"",""2502""
","
","
","""event"",""trial"",""time""
""fullscreenenter"",""1"",""2502""
","
","","","","","","null","<div style=""font-size:60px;"">+</div>","null","","fixation","","","","","","","","",""
"memory-trial","255","492303","0.0-15.0-1.105","1745","2","""event"",""trial"",""time""
""fullscreenenter"",""1"",""2502""
","
","
","""event"",""trial"",""time""
""fullscreenenter"",""1"",""2502""
","
","","","","","","1272.699999988079","images/truck1.png","","","memory_trial","2","maybe_old","","","","","","",""
"html-keyboard-response","256","492806","0.0-15.0-0.106","1745","2","""event"",""trial"",""time""
""fullscreenenter"",""1"",""2502""
","
","
","""event"",""trial"",""time""
""fullscreenenter"",""1"",""2502""
","
","","","","","","null","<div style=""font-size:60px;"">+</div>","null","","fixation","","","","","","","","",""
"memory-trial","257","495045","0.0-15.0-1.106","1745","2","""event"",""trial"",""time""
""fullscreenenter"",""1"",""2502""
","
","
","""event"",""trial"",""time""
""fullscreenenter"",""1"",""2502""
","
","","","","","","1235.699999988079","images/rodent1.png","","","memory_trial","1","definitely_old","","","","","","",""
"html-keyboard-response","258","495546","0.0-15.0-0.107","1745","2","""event"",""trial"",""time""
""fullscreenenter"",""1"",""2502""
","
","
","""event"",""trial"",""time""
""fullscreenenter"",""1"",""2502""
","
","","","","","","null","<div style=""font-size:60px;"">+</div>","null","","fixation","","","","","","","","",""
"memory-trial","259","497514","0.0-15.0-1.107","1745","2","""event"",""trial"",""time""
""fullscreenenter"",""1"",""2502""
","
","
","""event"",""trial"",""time""
""fullscreenenter"",""1"",""2502""
","
","","","","","","965.2999999523163","images/sheep1.png","","","memory_trial","4","definitely_new","","","","","","",""
"html-keyboard-response","260","498015","0.0-15.0-0.108","1745","2","""event"",""trial"",""time""
""fullscreenenter"",""1"",""2502""
","
","
","""event"",""trial"",""time""
""fullscreenenter"",""1"",""2502""
","
","","","","","","null","<div style=""font-size:60px;"">+</div>","null","","fixation","","","","","","","","",""
"memory-trial","261","500058","0.0-15.0-1.108","1745","2","""event"",""trial"",""time""
""fullscreenenter"",""1"",""2502""
","
","
","""event"",""trial"",""time""
""fullscreenenter"",""1"",""2502""
","
","","","","","","1038.5","images/banana2.png","","","memory_trial","2","maybe_old","","","","","","",""
"html-keyboard-response","262","500559","0.0-15.0-0.109","1745","2","""event"",""trial"",""time""
""fullscreenenter"",""1"",""2502""
","
","
","""event"",""trial"",""time""
""fullscreenenter"",""1"",""2502""
","
","","","","","","null","<div style=""font-size:60px;"">+</div>","null","","fixation","","","","","","","","",""
"memory-trial","263","502687","0.0-15.0-1.109","1745","2","""event"",""trial"",""time""
""fullscreenenter"",""1"",""2502""
","
","
","""event"",""trial"",""time""
""fullscreenenter"",""1"",""2502""
","
","","","","","","1124.8999999761581","images/rabbit3.png","","","memory_trial","4","definitely_new","","","","","","",""
"html-keyboard-response","264","503189","0.0-15.0-0.110","1745","2","""event"",""trial"",""time""
""fullscreenenter"",""1"",""2502""
","
","
","""event"",""trial"",""time""
""fullscreenenter"",""1"",""2502""
","
","","","","","","null","<div style=""font-size:60px;"">+</div>","null","","fixation","","","","","","","","",""
"memory-trial","265","506132","0.0-15.0-1.110","1745","2","""event"",""trial"",""time""
""fullscreenenter"",""1"",""2502""
","
","
","""event"",""trial"",""time""
""fullscreenenter"",""1"",""2502""
","
","","","","","","1939.4000000357628","images/rabbit2.png","","","memory_trial","3","maybe_new","","","","","","",""
"html-keyboard-response","266","506634","0.0-15.0-0.111","1745","2","""event"",""trial"",""time""
""fullscreenenter"",""1"",""2502""
","
","
","""event"",""trial"",""time""
""fullscreenenter"",""1"",""2502""
","
","","","","","","null","<div style=""font-size:60px;"">+</div>","null","","fixation","","","","","","","","",""
"memory-trial","267","509328","0.0-15.0-1.111","1745","2","""event"",""trial"",""time""
""fullscreenenter"",""1"",""2502""
","
","
","""event"",""trial"",""time""
""fullscreenenter"",""1"",""2502""
","
","","","","","","1689.5999999642372","images/banana1.png","","","memory_trial","2","maybe_old","","","","","","",""
"html-keyboard-response","268","509832","0.0-15.0-0.112","1745","2","""event"",""trial"",""time""
""fullscreenenter"",""1"",""2502""
","
","
","""event"",""trial"",""time""
""fullscreenenter"",""1"",""2502""
","
","","","","","","null","<div style=""font-size:60px;"">+</div>","null","","fixation","","","","","","","","",""
"memory-trial","269","512314","0.0-15.0-1.112","1745","2","""event"",""trial"",""time""
""fullscreenenter"",""1"",""2502""
","
","
","""event"",""trial"",""time""
""fullscreenenter"",""1"",""2502""
","
","","","","","","1478.199999988079","images/chair5.png","","","memory_trial","1","definitely_old","","","","","","",""
"html-keyboard-response","270","512816","0.0-15.0-0.113","1745","2","""event"",""trial"",""time""
""fullscreenenter"",""1"",""2502""
","
","
","""event"",""trial"",""time""
""fullscreenenter"",""1"",""2502""
","
","","","","","","null","<div style=""font-size:60px;"">+</div>","null","","fixation","","","","","","","","",""
"memory-trial","271","514763","0.0-15.0-1.113","1745","2","""event"",""trial"",""time""
""fullscreenenter"",""1"",""2502""
","
","
","""event"",""trial"",""time""
""fullscreenenter"",""1"",""2502""
","
","","","","","","944.3999999761581","images/goat3.png","","","memory_trial","4","definitely_new","","","","","","",""
"html-keyboard-response","272","515264","0.0-15.0-0.114","1745","2","""event"",""trial"",""time""
""fullscreenenter"",""1"",""2502""
","
","
","""event"",""trial"",""time""
""fullscreenenter"",""1"",""2502""
","
","","","","","","null","<div style=""font-size:60px;"">+</div>","null","","fixation","","","","","","","","",""
"memory-trial","273","518256","0.0-15.0-1.114","1745","2","""event"",""trial"",""time""
""fullscreenenter"",""1"",""2502""
","
","
","""event"",""trial"",""time""
""fullscreenenter"",""1"",""2502""
","
","","","","","","1984.5999999642372","images/truck4.png","","","memory_trial","3","maybe_new","","","","","","",""
"html-keyboard-response","274","518757","0.0-15.0-0.115","1745","2","""event"",""trial"",""time""
""fullscreenenter"",""1"",""2502""
","
","
","""event"",""trial"",""time""
""fullscreenenter"",""1"",""2502""
","
","","","","","","null","<div style=""font-size:60px;"">+</div>","null","","fixation","","","","","","","","",""
"memory-trial","275","521375","0.0-15.0-1.115","1745","2","""event"",""trial"",""time""
""fullscreenenter"",""1"",""2502""
","
","
","""event"",""trial"",""time""
""fullscreenenter"",""1"",""2502""
","
","","","","","","1611.6000000238419","images/tree4.png","","","memory_trial","4","definitely_new","","","","","","",""
"html-keyboard-response","276","521877","0.0-15.0-0.116","1745","2","""event"",""trial"",""time""
""fullscreenenter"",""1"",""2502""
","
","
","""event"",""trial"",""time""
""fullscreenenter"",""1"",""2502""
","
","","","","","","null","<div style=""font-size:60px;"">+</div>","null","","fixation","","","","","","","","",""
"memory-trial","277","523963","0.0-15.0-1.116","1745","2","""event"",""trial"",""time""
""fullscreenenter"",""1"",""2502""
","
","
","""event"",""trial"",""time""
""fullscreenenter"",""1"",""2502""
","
","","","","","","1084","images/train3.png","","","memory_trial","3","maybe_new","","","","","","",""
"html-keyboard-response","278","524464","0.0-15.0-0.117","1745","2","""event"",""trial"",""time""
""fullscreenenter"",""1"",""2502""
","
","
","""event"",""trial"",""time""
""fullscreenenter"",""1"",""2502""
","
","","","","","","null","<div style=""font-size:60px;"">+</div>","null","","fixation","","","","","","","","",""
"memory-trial","279","526741","0.0-15.0-1.117","1745","2","""event"",""trial"",""time""
""fullscreenenter"",""1"",""2502""
","
","
","""event"",""trial"",""time""
""fullscreenenter"",""1"",""2502""
","
","","","","","","1271.8999999761581","images/apple5.png","","","memory_trial","4","definitely_new","","","","","","",""
"html-keyboard-response","280","527243","0.0-15.0-0.118","1745","2","""event"",""trial"",""time""
""fullscreenenter"",""1"",""2502""
","
","
","""event"",""trial"",""time""
""fullscreenenter"",""1"",""2502""
","
","","","","","","null","<div style=""font-size:60px;"">+</div>","null","","fixation","","","","","","","","",""
"memory-trial","281","529637","0.0-15.0-1.118","1745","2","""event"",""trial"",""time""
""fullscreenenter"",""1"",""2502""
","
","
","""event"",""trial"",""time""
""fullscreenenter"",""1"",""2502""
","
","","","","","","1390.5999999642372","images/horse2.png","","","memory_trial","3","maybe_new","","","","","","",""
"html-keyboard-response","282","530140","0.0-15.0-0.119","1745","2","""event"",""trial"",""time""
""fullscreenenter"",""1"",""2502""
","
","
","""event"",""trial"",""time""
""fullscreenenter"",""1"",""2502""
","
","","","","","","null","<div style=""font-size:60px;"">+</div>","null","","fixation","","","","","","","","",""
"memory-trial","283","532598","0.0-15.0-1.119","1745","2","""event"",""trial"",""time""
""fullscreenenter"",""1"",""2502""
","
","
","""event"",""trial"",""time""
""fullscreenenter"",""1"",""2502""
","
","","","","","","1453.300000011921","images/cactus3.png","","","memory_trial","3","maybe_new","","","","","","",""
"preload","284","540378","0.0-16.0","1745","2","""event"",""trial"",""time""
""fullscreenenter"",""1"",""2502""
","
","
","""event"",""trial"",""time""
""fullscreenenter"",""1"",""2502""
","
","true","false","[]","[]","[]","","","","","","","","","","","","","",""
"learning-instructions","285","546101","0.0-17.0-0.0-0.0-0.0","1745","2","""event"",""trial"",""time""
""fullscreenenter"",""1"",""2502""
","
","
","""event"",""trial"",""time""
""fullscreenenter"",""1"",""2502""
","
","","","","","","1279.800000011921","<p> We're now going to ask you to return your farm animals to barns again. </p>","","0","instructions","","","","","","","","",""
"learning-instructions","286","552281","0.0-17.0-0.0-0.0-0.1","1745","2","""event"",""trial"",""time""
""fullscreenenter"",""1"",""2502""
","
","
","""event"",""trial"",""time""
""fullscreenenter"",""1"",""2502""
","
","","","","","","739.8000000119209","<p> On each trial, you will see a farm animal. Select the barn where you think the animal belongs. </p>","","0","instructions","","","","","","","","",""
"learning-instructions","287","559976","0.0-17.0-0.0-0.0-0.2","1745","2","""event"",""trial"",""time""
""fullscreenenter"",""1"",""2502""
","
","
","""event"",""trial"",""time""
""fullscreenenter"",""1"",""2502""
","
","","","","","","631.3999999761581","<p> To make your selection, think about what you learned last week. You will NOT receive any feedback about your choice. </p>","","0","instructions","","","","","","","","",""
"learning-instructions","288","568647","0.0-17.0-0.0-0.0-0.3","1745","2","""event"",""trial"",""time""
""fullscreenenter"",""1"",""2502""
","
","
","""event"",""trial"",""time""
""fullscreenenter"",""1"",""2502""
","
","","","","","","581.6999999880791","<p> You should use the 1 key to select the barn on the left, the 2 key to select the barn in the middle, and the 3 key to select the barn on the right. </p><br><div class=""choice-mem-instructions-grid""> <div class=""choice-mem-option""><img src=""images/animals_choice1.png"" class=""choice-mem-option-img"" stage=""instructions"" position=""0"" ><div class=""choice-mem-option-text""> Press ""1."" </div></div><div class=""choice-mem-option""><img src=""images/animals_choice2.png"" class=""choice-mem-option-img"" stage=""instructions"" position=""1"" ><div class=""choice-mem-option-text""> Press ""2."" </div></div><div class=""choice-mem-option""><img src=""images/animals_choice3.png"" class=""choice-mem-option-img"" stage=""instructions"" position=""2"" ><div class=""choice-mem-option-text""> Press ""3."" </div></div></div>","","0","instructions","","","","","","","","",""
"learning-instructions","289","575330","0.0-17.0-0.0-0.0-0.4","1745","2","""event"",""trial"",""time""
""fullscreenenter"",""1"",""2502""
","
","
","""event"",""trial"",""time""
""fullscreenenter"",""1"",""2502""
","
","","","","","","412.19999998807907","<p> You will have 10 seconds to make each selection. Try to respond before time runs out! </p>","","0","instructions","","","","","","","","",""
"learning-instructions","290","578194","0.0-17.0-0.0-1.0","1745","2","""event"",""trial"",""time""
""fullscreenenter"",""1"",""2502""
","
","
","""event"",""trial"",""time""
""fullscreenenter"",""1"",""2502""
","
","","","","","","807.7000000476837","<p> You are now ready to begin the game. </p>","","0","instructions","","","","","","","","",""
"html-keyboard-response","291","578800","0.0-17.0-0.0-2.0-0.0","1745","2","""event"",""trial"",""time""
""fullscreenenter"",""1"",""2502""
","
","
","""event"",""trial"",""time""
""fullscreenenter"",""1"",""2502""
","
","","","","","","null","<div style=""font-size:60px;"">+</div>","null","","fixation","","","","","","","","",""
"choice-memory-trial","292","581323","0.0-17.0-0.0-2.0-1.0","1745","2","""event"",""trial"",""time""
""fullscreenenter"",""1"",""2502""
","
","
","""event"",""trial"",""time""
""fullscreenenter"",""1"",""2502""
","
","","","","","","1515.5","images/goat1.png","","","choice_memory_trial","1","","","images/animals_choice1.png","images/animals_choice2.png","images/animals_choice3.png","[0,1,2]","images/animals_choice1.png","animals"
"html-keyboard-response","293","581829","0.0-17.0-0.0-2.0-0.1","1745","2","""event"",""trial"",""time""
