"trial_type","trial_index","time_elapsed","internal_node_id","subject_id","task_version","interactions","blur_events","focus_events","fullscreenenter_events","fullscreenexit_events","success","timeout","failed_images","failed_audio","failed_video","rt","stimulus","response"
"pavlovia","0","2","0.0-0.0","1696","2","""event"",""trial"",""time""
""fullscreenenter"",""1"",""1199""
","
","
","""event"",""trial"",""time""
""fullscreenenter"",""1"",""1199""
","
","","","","","","","",""
"fullscreen","1","2157","0.0-1.0","1696","2","""event"",""trial"",""time""
""fullscreenenter"",""1"",""1199""
","
","
","""event"",""trial"",""time""
""fullscreenenter"",""1"",""1199""
","
","true","","","","","","",""
"preload","2","2255","0.0-2.0","1696","2","""event"",""trial"",""time""
""fullscreenenter"",""1"",""1199""
","
","
","""event"",""trial"",""time""
""fullscreenenter"",""1"",""1199""
","
","true","false","[]","[]","[]","","",""
"audio-keyboard-response","3","2365","0.0-3.0","1696","2","""event"",""trial"",""time""
""fullscreenenter"",""1"",""1199""
","
","
","""event"",""trial"",""time""
""fullscreenenter"",""1"",""1199""
","
","","","","","","0","audio/beep_loop.wav","audiovolumedown"
"audio-button-response","4","3783","0.0-4.0","1696","2","""event"",""trial"",""time""
""fullscreenenter"",""1"",""1199""
","
","
","""event"",""trial"",""time""
""fullscreenenter"",""1"",""1199""
","
","","","","","","469","audio/turtle.wav","3"
"audio-button-response","5","5443","0.0-5.0","1696","2","""event"",""trial"",""time""
""fullscreenenter"",""1"",""1199""
""fullscreenexit"",""6"",""507260""
""blur"",""6"",""509705""
""focus"",""6"",""509711""
","""event"",""trial"",""time""
""blur"",""6"",""509705""
","""event"",""trial"",""time""
""focus"",""6"",""509711""
","""event"",""trial"",""time""
""fullscreenenter"",""1"",""1199""
","""event"",""trial"",""time""
""fullscreenexit"",""6"",""507260""
","","","","","","651","audio/shark.wav","2"
