"trial_type","trial_index","time_elapsed","internal_node_id","subject_id","task_version","interactions","blur_events","focus_events","fullscreenenter_events","fullscreenexit_events","success","timeout","failed_images","failed_audio","failed_video","rt","stimulus","response","button_pressed","task_part","key_press","answer","correct","left_choice","middle_choice","right_choice","choice_positions","option_selected","block"
"pavlovia","0","6","0.0-0.0","1651","2","""event"",""trial"",""time""
""fullscreenenter"",""1"",""1785""
","
","
","""event"",""trial"",""time""
""fullscreenenter"",""1"",""1785""
","
","","","","","","","","","","","","","","","","","","",""
"fullscreen","1","2740","0.0-1.0","1651","2","""event"",""trial"",""time""
""fullscreenenter"",""1"",""1785""
","
","
","""event"",""trial"",""time""
""fullscreenenter"",""1"",""1785""
","
","true","","","","","","","","","","","","","","","","","",""
"preload","2","4021","0.0-2.0","1651","2","""event"",""trial"",""time""
""fullscreenenter"",""1"",""1785""
","
","
","""event"",""trial"",""time""
""fullscreenenter"",""1"",""1785""
","
","true","false","[]","[]","[]","","","","","","","","","","","","","",""
"audio-keyboard-response","3","10811","0.0-3.0","1651","2","""event"",""trial"",""time""
""fullscreenenter"",""1"",""1785""
","
","
","""event"",""trial"",""time""
""fullscreenenter"",""1"",""1785""
","
","","","","","","6789.333333333333","audio/beep_loop.wav"," ","","","","","","","","","","",""
"audio-button-response","4","34656","0.0-4.0","1651","2","""event"",""trial"",""time""
""fullscreenenter"",""1"",""1785""
","
","
","""event"",""trial"",""time""
""fullscreenenter"",""1"",""1785""
","
","","","","","","23872","audio/turtle.wav","3","","","","","","","","","","",""
"audio-button-response","5","38233","0.0-5.0","1651","2","""event"",""trial"",""time""
""fullscreenenter"",""1"",""1785""
","
","
","""event"",""trial"",""time""
""fullscreenenter"",""1"",""1785""
","
","","","","","","2560","audio/shark.wav","2","","","","","","","","","","",""
"preload","6","43347","0.0-6.0","1651","2","""event"",""trial"",""time""
""fullscreenenter"",""1"",""1785""
","
","
","""event"",""trial"",""time""
""fullscreenenter"",""1"",""1785""
","
","true","false","[]","[]","[]","","","","","","","","","","","","","",""
"learning-instructions","7","55890","0.0-7.0-0.0","1651","2","""event"",""trial"",""time""
""fullscreenenter"",""1"",""1785""
","
","
","""event"",""trial"",""time""
""fullscreenenter"",""1"",""1785""
","
","","","","","","7734.399999976158","<p> Welcome back! </p><p> Last week, you had to make choices about lots of different items.  </p>","","0","instructions","","","","","","","","",""
"learning-instructions","8","65326","0.0-7.0-0.1","1651","2","""event"",""trial"",""time""
""fullscreenenter"",""1"",""1785""
","
","
","""event"",""trial"",""time""
""fullscreenenter"",""1"",""1785""
","
","","","","","","5131.800000011921","<p> Today, we are going to ask you to try to remember all the items. </p>","","0","instructions","","","","","","","","",""
"learning-instructions","9","76009","0.0-7.0-0.2","1651","2","""event"",""trial"",""time""
""fullscreenenter"",""1"",""1785""
","
","
","""event"",""trial"",""time""
""fullscreenenter"",""1"",""1785""
","
","","","","","","553.8999999761581","<p> On every trial, you will see an image. </p><p> The image may be an OLD image you saw during the games last week or it may be a NEW image that was not presented. </p>","","0","instructions","","","","","","","","",""
"learning-instructions","10","85032","0.0-7.0-0.3","1651","2","""event"",""trial"",""time""
""fullscreenenter"",""1"",""1785""
","
","
","""event"",""trial"",""time""
""fullscreenenter"",""1"",""1785""
","
","","","","","","495.39999997615814","<p> You need to select whether the image is:  </p><p>  'Definitely old', 'Maybe old', 'Maybe new', or 'Definitely new.'  </p><div class=""mem-choice-instructions-grid""><div class=""choice-option"" id=""choice-option-1"" ><img src=""images/definitely_old_1.png"" id=""choice-option-img-1"" class=""choice-option-img"" stage=""1""></div><div class=""choice-option"" id=""choice-option-2"" ><img src=""images/maybe_old_1.png"" id=""choice-option-img-2"" class=""choice-option-img"" stage=""1""></div><div class=""choice-option"" id=""choice-option-3"" ><img src=""images/maybe_new_1.png"" id=""choice-option-img-3"" class=""choice-option-img"" stage=""1""></div><div class=""choice-option"" id=""choice-option-4"" > <img src=""images/definitely_new_1.png"" id=""choice-option-img-4"" class=""choice-option-img"" stage=""1""></div></div>","","0","instructions","","","","","","","","",""
"learning-instructions","11","92191","0.0-7.0-0.4","1651","2","""event"",""trial"",""time""
""fullscreenenter"",""1"",""1785""
","
","
","""event"",""trial"",""time""
""fullscreenenter"",""1"",""1785""
","
","","","","","","455.89999997615814","<p> You should use the 1, 2, 3, and 4 keys to make your responses.  </p><div class=""mem-choice-instructions-grid""><div class=""choice-option"" id=""choice-option-1"" ><img src=""images/definitely_old.png"" id=""choice-option-img-1"" class=""choice-option-img"" stage=""1""></div><div class=""choice-option"" id=""choice-option-2"" ><img src=""images/maybe_old.png"" id=""choice-option-img-2"" class=""choice-option-img"" stage=""1""></div><div class=""choice-option"" id=""choice-option-3"" ><img src=""images/maybe_new.png"" id=""choice-option-img-3"" class=""choice-option-img"" stage=""1""></div><div class=""choice-option"" id=""choice-option-4"" > <img src=""images/definitely_new.png"" id=""choice-option-img-4"" class=""choice-option-img"" stage=""1""></div></div>","","0","instructions","","","","","","","","",""
"learning-instructions","12","100984","0.0-7.0-0.5","1651","2","""event"",""trial"",""time""
""fullscreenenter"",""1"",""1785""
","
","
","""event"",""trial"",""time""
""fullscreenenter"",""1"",""1785""
","
","","","","","","2021.2999999523163","<p> You will have 10 seconds to make each response.  </p><p>  Make sure to respond before time runs out! </p>","","0","instructions","","","","","","","","",""
"learning-instructions","13","109372","0.0-7.0-0.6","1651","2","""event"",""trial"",""time""
""fullscreenenter"",""1"",""1785""
","
","
","""event"",""trial"",""time""
""fullscreenenter"",""1"",""1785""
","
","","","","","","797.8999999761581","<p> Today, you will see each image ONCE only.  </p><p>  That means none of the images will repeat. </p>","","0","instructions","","","","","","","","",""
"learning-instructions","14","122930","0.0-7.0-0.7","1651","2","""event"",""trial"",""time""
""fullscreenenter"",""1"",""1785""
","
","
","""event"",""trial"",""time""
""fullscreenenter"",""1"",""1785""
","
","","","","","","876","<p> Before you play the real game, it is time to practice. </p><p>  Just like in the real game, some of the images in the practice will be ones you have seen before. </p><p>  Others will be entirely new. </p>","","0","instructions","","","","","","","","",""
"html-button-response","15","125169","0.0-8.0","1651","2","""event"",""trial"",""time""
""fullscreenenter"",""1"",""1785""
","
","
","""event"",""trial"",""time""
""fullscreenenter"",""1"",""1785""
","
","","","","","","2135.699999988079","<p> Ready to practice? </p><p> Remember, use the 1, 2, 3, and 4 keys to make your responses. </p>","0","","instructions","","","","","","","","",""
"html-keyboard-response","16","125791","0.0-9.0-0.0","1651","2","""event"",""trial"",""time""
""fullscreenenter"",""1"",""1785""
","
","
","""event"",""trial"",""time""
""fullscreenenter"",""1"",""1785""
","
","","","","","","null","<div style=""font-size:60px;"">+</div>","null","","fixation","","","","","","","","",""
"memory-trial","17","131981","0.0-9.0-1.0","1651","2","""event"",""trial"",""time""
""fullscreenenter"",""1"",""1785""
","
","
","""event"",""trial"",""time""
""fullscreenenter"",""1"",""1785""
","
","","","","","","5164.399999976158","images/ball2.png","","","practice","1","definitely_old","","","","","","",""
"html-keyboard-response","18","132492","0.0-9.0-0.1","1651","2","""event"",""trial"",""time""
""fullscreenenter"",""1"",""1785""
","
","
","""event"",""trial"",""time""
""fullscreenenter"",""1"",""1785""
","
","","","","","","null","<div style=""font-size:60px;"">+</div>","null","","fixation","","","","","","","","",""
"memory-trial","19","134731","0.0-9.0-1.1","1651","2","""event"",""trial"",""time""
""fullscreenenter"",""1"",""1785""
","
","
","""event"",""trial"",""time""
""fullscreenenter"",""1"",""1785""
","
","","","","","","1224","images/ball3.png","","","practice","1","definitely_old","","","","","","",""
"html-keyboard-response","20","135251","0.0-9.0-0.2","1651","2","""event"",""trial"",""time""
""fullscreenenter"",""1"",""1785""
","
","
","""event"",""trial"",""time""
""fullscreenenter"",""1"",""1785""
","
","","","","","","null","<div style=""font-size:60px;"">+</div>","null","","fixation","","","","","","","","",""
"memory-trial","21","137281","0.0-9.0-1.2","1651","2","""event"",""trial"",""time""
""fullscreenenter"",""1"",""1785""
","
","
","""event"",""trial"",""time""
""fullscreenenter"",""1"",""1785""
","
","","","","","","1013.1000000238419","images/racket3.png","","","practice","1","definitely_old","","","","","","",""
"html-keyboard-response","22","137802","0.0-9.0-0.3","1651","2","""event"",""trial"",""time""
""fullscreenenter"",""1"",""1785""
","
","
","""event"",""trial"",""time""
""fullscreenenter"",""1"",""1785""
","
","","","","","","null","<div style=""font-size:60px;"">+</div>","null","","fixation","","","","","","","","",""
"memory-trial","23","139521","0.0-9.0-1.3","1651","2","""event"",""trial"",""time""
""fullscreenenter"",""1"",""1785""
","
","
","""event"",""trial"",""time""
""fullscreenenter"",""1"",""1785""
","
","","","","","","708.5","images/ball1.png","","","practice","1","definitely_old","","","","","","",""
"html-keyboard-response","24","140041","0.0-9.0-0.4","1651","2","""event"",""trial"",""time""
""fullscreenenter"",""1"",""1785""
","
","
","""event"",""trial"",""time""
""fullscreenenter"",""1"",""1785""
","
","","","","","","null","<div style=""font-size:60px;"">+</div>","null","","fixation","","","","","","","","",""
"memory-trial","25","142201","0.0-9.0-1.4","1651","2","""event"",""trial"",""time""
""fullscreenenter"",""1"",""1785""
","
","
","""event"",""trial"",""time""
""fullscreenenter"",""1"",""1785""
","
","","","","","","1140.1000000238419","images/ball4.png","","","practice","1","definitely_old","","","","","","",""
"html-keyboard-response","26","142721","0.0-9.0-0.5","1651","2","""event"",""trial"",""time""
""fullscreenenter"",""1"",""1785""
","
","
","""event"",""trial"",""time""
""fullscreenenter"",""1"",""1785""
","
","","","","","","null","<div style=""font-size:60px;"">+</div>","null","","fixation","","","","","","","","",""
"memory-trial","27","144631","0.0-9.0-1.5","1651","2","""event"",""trial"",""time""
""fullscreenenter"",""1"",""1785""
","
","
","""event"",""trial"",""time""
""fullscreenenter"",""1"",""1785""
","
","","","","","","892","images/racket2.png","","","practice","1","definitely_old","","","","","","",""
"html-keyboard-response","28","145139","0.0-9.0-0.6","1651","2","""event"",""trial"",""time""
""fullscreenenter"",""1"",""1785""
","
","
","""event"",""trial"",""time""
""fullscreenenter"",""1"",""1785""
","
","","","","","","null","<div style=""font-size:60px;"">+</div>","null","","fixation","","","","","","","","",""
"memory-trial","29","147031","0.0-9.0-1.6","1651","2","""event"",""trial"",""time""
""fullscreenenter"",""1"",""1785""
","
","
","""event"",""trial"",""time""
""fullscreenenter"",""1"",""1785""
","
","","","","","","872.5","images/racket1.png","","","practice","1","definitely_old","","","","","","",""
"html-keyboard-response","30","147540","0.0-9.0-0.7","1651","2","""event"",""trial"",""time""
""fullscreenenter"",""1"",""1785""
","
","
","""event"",""trial"",""time""
""fullscreenenter"",""1"",""1785""
","
","","","","","","null","<div style=""font-size:60px;"">+</div>","null","","fixation","","","","","","","","",""
"memory-trial","31","149241","0.0-9.0-1.7","1651","2","""event"",""trial"",""time""
""fullscreenenter"",""1"",""1785""
","
","
","""event"",""trial"",""time""
""fullscreenenter"",""1"",""1785""
","
","","","","","","689.3000000119209","images/racket4.png","","","practice","1","definitely_old","","","","","","",""
"learning-instructions","32","157780","0.0-10.0-0.0","1651","2","""event"",""trial"",""time""
""fullscreenenter"",""1"",""1785""
","
","
","""event"",""trial"",""time""
""fullscreenenter"",""1"",""1785""
","
","","","","","","596","<p> Great! You have completed the practice. </p><p> Before you start, we're going to ask you a few questions about how the game works.  </p>","","0","instructions","","","","","","","","",""
"preload","33","160080","0.0-11.0","1651","2","""event"",""trial"",""time""
""fullscreenenter"",""1"",""1785""
","
","
","""event"",""trial"",""time""
""fullscreenenter"",""1"",""1785""
","
","true","false","[]","[]","[]","","","","","","","","","","","","","",""
"comp-q","34","167478","0.0-12.0-0.0","1651","2","""event"",""trial"",""time""
""fullscreenenter"",""1"",""1785""
","
","
","""event"",""trial"",""time""
""fullscreenenter"",""1"",""1785""
","
","","","","","","1583","<p> <b> True or False? </b> </p><p> In this game, you will only see each image once. </p>","","1","comp_question","","","false","","","","","",""
"comp-q","35","175353","0.0-12.0-1.0","1651","2","""event"",""trial"",""time""
""fullscreenenter"",""1"",""1785""
","
","
","""event"",""trial"",""time""
""fullscreenenter"",""1"",""1785""
","
","","","","","","1338.2000000476837","<p> <b>Incorrect.</b> You will see many different images <i> one time each </i> in this game. </p>","","0","comp_answer","","","","","","","","",""
"comp-q","36","181775","0.0-12.0-0.1","1651","2","""event"",""trial"",""time""
""fullscreenenter"",""1"",""1785""
","
","
","""event"",""trial"",""time""
""fullscreenenter"",""1"",""1785""
","
","","","","","","601","<p> <b> True or False? </b> </p><p> You should use the mouse and click to make your response. </p>","","1","comp_question","","","true","","","","","",""
"comp-q","37","190492","0.0-12.0-1.1","1651","2","""event"",""trial"",""time""
""fullscreenenter"",""1"",""1785""
","
","
","""event"",""trial"",""time""
""fullscreenenter"",""1"",""1785""
","
","","","","","","1357.7000000476837","<p><b> That's right! </b> You should use the '1', '2', '3', and '4' keys to make your response. </p>","","0","comp_answer","","","","","","","","",""
"comp-q","38","199356","0.0-12.0-0.2","1651","2","""event"",""trial"",""time""
""fullscreenenter"",""1"",""1785""
","
","
","""event"",""trial"",""time""
""fullscreenenter"",""1"",""1785""
","
","","","","","","2870.300000011921","<p> <b> True or False? </b> </p><p> You will have as much time as you want to make each choice. </p>","","1","comp_question","","","true","","","","","",""
"comp-q","39","206286","0.0-12.0-1.2","1651","2","""event"",""trial"",""time""
""fullscreenenter"",""1"",""1785""
","
","
","""event"",""trial"",""time""
""fullscreenenter"",""1"",""1785""
","
","","","","","","1531.9000000357628","<p> <b> That's right! </b> You will only have 10 seconds to make each choice. </p>","","0","comp_answer","","","","","","","","",""
"learning-instructions","40","289752","0.0-13.0","1651","2","""event"",""trial"",""time""
""fullscreenenter"",""1"",""1785""
","
","
","""event"",""trial"",""time""
""fullscreenenter"",""1"",""1785""
","
","","","","","","74789.79999995232","<p> Great! You are now ready to begin the game. </p><p> Remember, use the 1, 2, 3, and 4 keys to make your responses. </p>","","0","instructions","","","","","","","","",""
"preload","41","294124","0.0-14.0","1651","2","""event"",""trial"",""time""
""fullscreenenter"",""1"",""1785""
","
","
","""event"",""trial"",""time""
""fullscreenenter"",""1"",""1785""
","
","true","false","[]","[]","[]","","","","","","","","","","","","","",""
"html-keyboard-response","42","294638","0.0-15.0-0.0","1651","2","""event"",""trial"",""time""
""fullscreenenter"",""1"",""1785""
","
","
","""event"",""trial"",""time""
""fullscreenenter"",""1"",""1785""
","
","","","","","","null","<div style=""font-size:60px;"">+</div>","null","","fixation","","","","","","","","",""
"memory-trial","43","296954","0.0-15.0-1.0","1651","2","""event"",""trial"",""time""
""fullscreenenter"",""1"",""1785""
","
","
","""event"",""trial"",""time""
""fullscreenenter"",""1"",""1785""
","
","","","","","","1301.4000000357628","images/orange4.png","","","memory_trial","1","definitely_old","","","","","","",""
"html-keyboard-response","44","297470","0.0-15.0-0.1","1651","2","""event"",""trial"",""time""
""fullscreenenter"",""1"",""1785""
","
","
","""event"",""trial"",""time""
""fullscreenenter"",""1"",""1785""
","
","","","","","","null","<div style=""font-size:60px;"">+</div>","null","","fixation","","","","","","","","",""
"memory-trial","45","302322","0.0-15.0-1.1","1651","2","""event"",""trial"",""time""
""fullscreenenter"",""1"",""1785""
","
","
","""event"",""trial"",""time""
""fullscreenenter"",""1"",""1785""
","
","","","","","","3847.899999976158","images/goat4.png","","","memory_trial","3","maybe_new","","","","","","",""
"html-keyboard-response","46","302825","0.0-15.0-0.2","1651","2","""event"",""trial"",""time""
""fullscreenenter"",""1"",""1785""
","
","
","""event"",""trial"",""time""
""fullscreenenter"",""1"",""1785""
","
","","","","","","null","<div style=""font-size:60px;"">+</div>","null","","fixation","","","","","","","","",""
"memory-trial","47","305271","0.0-15.0-1.2","1651","2","""event"",""trial"",""time""
""fullscreenenter"",""1"",""1785""
","
","
","""event"",""trial"",""time""
""fullscreenenter"",""1"",""1785""
","
","","","","","","1429.4000000357628","images/bush5.png","","","memory_trial","1","definitely_old","","","","","","",""
"html-keyboard-response","48","305783","0.0-15.0-0.3","1651","2","""event"",""trial"",""time""
""fullscreenenter"",""1"",""1785""
","
","
","""event"",""trial"",""time""
""fullscreenenter"",""1"",""1785""
","
","","","","","","null","<div style=""font-size:60px;"">+</div>","null","","fixation","","","","","","","","",""
"memory-trial","49","308507","0.0-15.0-1.3","1651","2","""event"",""trial"",""time""
""fullscreenenter"",""1"",""1785""
","
","
","""event"",""trial"",""time""
""fullscreenenter"",""1"",""1785""
","
","","","","","","1712.4000000357628","images/cactus4.png","","","memory_trial","4","definitely_new","","","","","","",""
"html-keyboard-response","50","309013","0.0-15.0-0.4","1651","2","""event"",""trial"",""time""
""fullscreenenter"",""1"",""1785""
","
","
","""event"",""trial"",""time""
""fullscreenenter"",""1"",""1785""
","
","","","","","","null","<div style=""font-size:60px;"">+</div>","null","","fixation","","","","","","","","",""
"memory-trial","51","311813","0.0-15.0-1.4","1651","2","""event"",""trial"",""time""
""fullscreenenter"",""1"",""1785""
","
","
","""event"",""trial"",""time""
""fullscreenenter"",""1"",""1785""
","
","","","","","","1794.8999999761581","images/bush4.png","","","memory_trial","1","definitely_old","","","","","","",""
"html-keyboard-response","52","312320","0.0-15.0-0.5","1651","2","""event"",""trial"",""time""
""fullscreenenter"",""1"",""1785""
","
","
","""event"",""trial"",""time""
""fullscreenenter"",""1"",""1785""
","
","","","","","","null","<div style=""font-size:60px;"">+</div>","null","","fixation","","","","","","","","",""
"memory-trial","53","314554","0.0-15.0-1.5","1651","2","""event"",""trial"",""time""
""fullscreenenter"",""1"",""1785""
","
","
","""event"",""trial"",""time""
""fullscreenenter"",""1"",""1785""
","
","","","","","","1216.2000000476837","images/bed3.png","","","memory_trial","1","definitely_old","","","","","","",""
"html-keyboard-response","54","315063","0.0-15.0-0.6","1651","2","""event"",""trial"",""time""
""fullscreenenter"",""1"",""1785""
","
","
","""event"",""trial"",""time""
""fullscreenenter"",""1"",""1785""
","
","","","","","","null","<div style=""font-size:60px;"">+</div>","null","","fixation","","","","","","","","",""
"memory-trial","55","317508","0.0-15.0-1.6","1651","2","""event"",""trial"",""time""
""fullscreenenter"",""1"",""1785""
","
","
","""event"",""trial"",""time""
""fullscreenenter"",""1"",""1785""
","
","","","","","","1438.7000000476837","images/apple1.png","","","memory_trial","1","definitely_old","","","","","","",""
"html-keyboard-response","56","318011","0.0-15.0-0.7","1651","2","""event"",""trial"",""time""
""fullscreenenter"",""1"",""1785""
","
","
","""event"",""trial"",""time""
""fullscreenenter"",""1"",""1785""
","
","","","","","","null","<div style=""font-size:60px;"">+</div>","null","","fixation","","","","","","","","",""
"memory-trial","57","319868","0.0-15.0-1.7","1651","2","""event"",""trial"",""time""
""fullscreenenter"",""1"",""1785""
","
","
","""event"",""trial"",""time""
""fullscreenenter"",""1"",""1785""
","
","","","","","","845.1000000238419","images/sofa1.png","","","memory_trial","1","definitely_old","","","","","","",""
"html-keyboard-response","58","320377","0.0-15.0-0.8","1651","2","""event"",""trial"",""time""
""fullscreenenter"",""1"",""1785""
","
","
","""event"",""trial"",""time""
""fullscreenenter"",""1"",""1785""
","
","","","","","","null","<div style=""font-size:60px;"">+</div>","null","","fixation","","","","","","","","",""
"memory-trial","59","325050","0.0-15.0-1.8","1651","2","""event"",""trial"",""time""
""fullscreenenter"",""1"",""1785""
","
","
","""event"",""trial"",""time""
""fullscreenenter"",""1"",""1785""
","
","","","","","","3671.300000011921","images/goat1.png","","","memory_trial","3","maybe_new","","","","","","",""
"html-keyboard-response","60","325559","0.0-15.0-0.9","1651","2","""event"",""trial"",""time""
""fullscreenenter"",""1"",""1785""
","
","
","""event"",""trial"",""time""
""fullscreenenter"",""1"",""1785""
","
","","","","","","null","<div style=""font-size:60px;"">+</div>","null","","fixation","","","","","","","","",""
"memory-trial","61","327527","0.0-15.0-1.9","1651","2","""event"",""trial"",""time""
""fullscreenenter"",""1"",""1785""
","
","
","""event"",""trial"",""time""
""fullscreenenter"",""1"",""1785""
","
","","","","","","960.7999999523163","images/banana1.png","","","memory_trial","1","definitely_old","","","","","","",""
"html-keyboard-response","62","328028","0.0-15.0-0.10","1651","2","""event"",""trial"",""time""
""fullscreenenter"",""1"",""1785""
","
","
","""event"",""trial"",""time""
""fullscreenenter"",""1"",""1785""
","
","","","","","","null","<div style=""font-size:60px;"">+</div>","null","","fixation","","","","","","","","",""
"memory-trial","63","331294","0.0-15.0-1.10","1651","2","""event"",""trial"",""time""
""fullscreenenter"",""1"",""1785""
","
","
","""event"",""trial"",""time""
""fullscreenenter"",""1"",""1785""
","
","","","","","","2255","images/sheep2.png","","","memory_trial","1","definitely_old","","","","","","",""
"html-keyboard-response","64","331811","0.0-15.0-0.11","1651","2","""event"",""trial"",""time""
""fullscreenenter"",""1"",""1785""
","
","
","""event"",""trial"",""time""
""fullscreenenter"",""1"",""1785""
","
","","","","","","null","<div style=""font-size:60px;"">+</div>","null","","fixation","","","","","","","","",""
"memory-trial","65","335505","0.0-15.0-1.11","1651","2","""event"",""trial"",""time""
""fullscreenenter"",""1"",""1785""
","
","
","""event"",""trial"",""time""
""fullscreenenter"",""1"",""1785""
","
","","","","","","2684.400000035763","images/rodent3.png","","","memory_trial","3","maybe_new","","","","","","",""
"html-keyboard-response","66","336015","0.0-15.0-0.12","1651","2","""event"",""trial"",""time""
""fullscreenenter"",""1"",""1785""
","
","
","""event"",""trial"",""time""
""fullscreenenter"",""1"",""1785""
","
","","","","","","null","<div style=""font-size:60px;"">+</div>","null","","fixation","","","","","","","","",""
"memory-trial","67","338908","0.0-15.0-1.12","1651","2","""event"",""trial"",""time""
""fullscreenenter"",""1"",""1785""
","
","
","""event"",""trial"",""time""
""fullscreenenter"",""1"",""1785""
","
","","","","","","1884.1000000238419","images/horse2.png","","","memory_trial","1","definitely_old","","","","","","",""
"html-keyboard-response","68","339413","0.0-15.0-0.13","1651","2","""event"",""trial"",""time""
""fullscreenenter"",""1"",""1785""
","
","
","""event"",""trial"",""time""
""fullscreenenter"",""1"",""1785""
","
","","","","","","null","<div style=""font-size:60px;"">+</div>","null","","fixation","","","","","","","","",""
"memory-trial","69","341674","0.0-15.0-1.13","1651","2","""event"",""trial"",""time""
""fullscreenenter"",""1"",""1785""
","
","
","""event"",""trial"",""time""
""fullscreenenter"",""1"",""1785""
","
","","","","","","1256.5","images/tree3.png","","","memory_trial","1","definitely_old","","","","","","",""
"html-keyboard-response","70","342191","0.0-15.0-0.14","1651","2","""event"",""trial"",""time""
""fullscreenenter"",""1"",""1785""
","
","
","""event"",""trial"",""time""
""fullscreenenter"",""1"",""1785""
","
","","","","","","null","<div style=""font-size:60px;"">+</div>","null","","fixation","","","","","","","","",""
"memory-trial","71","344005","0.0-15.0-1.14","1651","2","""event"",""trial"",""time""
""fullscreenenter"",""1"",""1785""
","
","
","""event"",""trial"",""time""
""fullscreenenter"",""1"",""1785""
","
","","","","","","808.6000000238419","images/bed4.png","","","memory_trial","1","definitely_old","","","","","","",""
"html-keyboard-response","72","344517","0.0-15.0-0.15","1651","2","""event"",""trial"",""time""
""fullscreenenter"",""1"",""1785""
","
","
","""event"",""trial"",""time""
""fullscreenenter"",""1"",""1785""
","
","","","","","","null","<div style=""font-size:60px;"">+</div>","null","","fixation","","","","","","","","",""
"memory-trial","73","346737","0.0-15.0-1.15","1651","2","""event"",""trial"",""time""
""fullscreenenter"",""1"",""1785""
","
","
","""event"",""trial"",""time""
""fullscreenenter"",""1"",""1785""
","
","","","","","","1204.5","images/sheep3.png","","","memory_trial","1","definitely_old","","","","","","",""
"html-keyboard-response","74","347251","0.0-15.0-0.16","1651","2","""event"",""trial"",""time""
""fullscreenenter"",""1"",""1785""
","
","
","""event"",""trial"",""time""
""fullscreenenter"",""1"",""1785""
","
","","","","","","null","<div style=""font-size:60px;"">+</div>","null","","fixation","","","","","","","","",""
"memory-trial","75","349267","0.0-15.0-1.16","1651","2","""event"",""trial"",""time""
""fullscreenenter"",""1"",""1785""
","
","
","""event"",""trial"",""time""
""fullscreenenter"",""1"",""1785""
","
","","","","","","1007.4000000357628","images/sheep1.png","","","memory_trial","1","definitely_old","","","","","","",""
"html-keyboard-response","76","349774","0.0-15.0-0.17","1651","2","""event"",""trial"",""time""
""fullscreenenter"",""1"",""1785""
","
","
","""event"",""trial"",""time""
""fullscreenenter"",""1"",""1785""
","
","","","","","","null","<div style=""font-size:60px;"">+</div>","null","","fixation","","","","","","","","",""
"memory-trial","77","352198","0.0-15.0-1.17","1651","2","""event"",""trial"",""time""
""fullscreenenter"",""1"",""1785""
","
","
","""event"",""trial"",""time""
""fullscreenenter"",""1"",""1785""
","
","","","","","","1418.300000011921","images/straw4.png","","","memory_trial","4","definitely_new","","","","","","",""
"html-keyboard-response","78","352714","0.0-15.0-0.18","1651","2","""event"",""trial"",""time""
""fullscreenenter"",""1"",""1785""
","
","
","""event"",""trial"",""time""
""fullscreenenter"",""1"",""1785""
","
","","","","","","null","<div style=""font-size:60px;"">+</div>","null","","fixation","","","","","","","","",""
"memory-trial","79","354763","0.0-15.0-1.18","1651","2","""event"",""trial"",""time""
""fullscreenenter"",""1"",""1785""
","
","
","""event"",""trial"",""time""
""fullscreenenter"",""1"",""1785""
","
","","","","","","1031.699999988079","images/cow4.png","","","memory_trial","1","definitely_old","","","","","","",""
"html-keyboard-response","80","355265","0.0-15.0-0.19","1651","2","""event"",""trial"",""time""
""fullscreenenter"",""1"",""1785""
","
","
","""event"",""trial"",""time""
""fullscreenenter"",""1"",""1785""
","
","","","","","","null","<div style=""font-size:60px;"">+</div>","null","","fixation","","","","","","","","",""
"memory-trial","81","357349","0.0-15.0-1.19","1651","2","""event"",""trial"",""time""
""fullscreenenter"",""1"",""1785""
","
","
","""event"",""trial"",""time""
""fullscreenenter"",""1"",""1785""
","
","","","","","","1080.5","images/cactus1.png","","","memory_trial","4","definitely_new","","","","","","",""
"html-keyboard-response","82","357858","0.0-15.0-0.20","1651","2","""event"",""trial"",""time""
""fullscreenenter"",""1"",""1785""
","
","
","""event"",""trial"",""time""
""fullscreenenter"",""1"",""1785""
","
","","","","","","null","<div style=""font-size:60px;"">+</div>","null","","fixation","","","","","","","","",""
"memory-trial","83","360074","0.0-15.0-1.20","1651","2","""event"",""trial"",""time""
""fullscreenenter"",""1"",""1785""
","
","
","""event"",""trial"",""time""
""fullscreenenter"",""1"",""1785""
","
","","","","","","1198.7999999523163","images/rodent5.png","","","memory_trial","1","definitely_old","","","","","","",""
"html-keyboard-response","84","360584","0.0-15.0-0.21","1651","2","""event"",""trial"",""time""
""fullscreenenter"",""1"",""1785""
","
","
","""event"",""trial"",""time""
""fullscreenenter"",""1"",""1785""
","
","","","","","","null","<div style=""font-size:60px;"">+</div>","null","","fixation","","","","","","","","",""
"memory-trial","85","362343","0.0-15.0-1.21","1651","2","""event"",""trial"",""time""
""fullscreenenter"",""1"",""1785""
","
","
","""event"",""trial"",""time""
""fullscreenenter"",""1"",""1785""
","
","","","","","","752.5999999642372","images/horse4.png","","","memory_trial","1","definitely_old","","","","","","",""
"html-keyboard-response","86","362853","0.0-15.0-0.22","1651","2","""event"",""trial"",""time""
""fullscreenenter"",""1"",""1785""
","
","
","""event"",""trial"",""time""
""fullscreenenter"",""1"",""1785""
","
","","","","","","null","<div style=""font-size:60px;"">+</div>","null","","fixation","","","","","","","","",""
"memory-trial","87","366254","0.0-15.0-1.22","1651","2","""event"",""trial"",""time""
""fullscreenenter"",""1"",""1785""
","
","
","""event"",""trial"",""time""
""fullscreenenter"",""1"",""1785""
","
","","","","","","2390.699999988079","images/sofa4.png","","","memory_trial","4","definitely_new","","","","","","",""
"html-keyboard-response","88","366760","0.0-15.0-0.23","1651","2","""event"",""trial"",""time""
""fullscreenenter"",""1"",""1785""
","
","
","""event"",""trial"",""time""
""fullscreenenter"",""1"",""1785""
","
","","","","","","null","<div style=""font-size:60px;"">+</div>","null","","fixation","","","","","","","","",""
"memory-trial","89","369746","0.0-15.0-1.23","1651","2","""event"",""trial"",""time""
""fullscreenenter"",""1"",""1785""
","
","
","""event"",""trial"",""time""
""fullscreenenter"",""1"",""1785""
","
","","","","","","1981.5","images/sheep5.png","","","memory_trial","2","maybe_old","","","","","","",""
"html-keyboard-response","90","370253","0.0-15.0-0.24","1651","2","""event"",""trial"",""time""
""fullscreenenter"",""1"",""1785""
","
","
","""event"",""trial"",""time""
""fullscreenenter"",""1"",""1785""
","
","","","","","","null","<div style=""font-size:60px;"">+</div>","null","","fixation","","","","","","","","",""
"memory-trial","91","372511","0.0-15.0-1.24","1651","2","""event"",""trial"",""time""
""fullscreenenter"",""1"",""1785""
","
","
","""event"",""trial"",""time""
""fullscreenenter"",""1"",""1785""
","
","","","","","","1242.1000000238419","images/truck1.png","","","memory_trial","1","definitely_old","","","","","","",""
"html-keyboard-response","92","373014","0.0-15.0-0.25","1651","2","""event"",""trial"",""time""
""fullscreenenter"",""1"",""1785""
","
","
","""event"",""trial"",""time""
""fullscreenenter"",""1"",""1785""
","
","","","","","","null","<div style=""font-size:60px;"">+</div>","null","","fixation","","","","","","","","",""
"memory-trial","93","374884","0.0-15.0-1.25","1651","2","""event"",""trial"",""time""
""fullscreenenter"",""1"",""1785""
","
","
","""event"",""trial"",""time""
""fullscreenenter"",""1"",""1785""
","
","","","","","","860.8000000119209","images/plane5.png","","","memory_trial","1","definitely_old","","","","","","",""
"html-keyboard-response","94","375394","0.0-15.0-0.26","1651","2","""event"",""trial"",""time""
""fullscreenenter"",""1"",""1785""
","
","
","""event"",""trial"",""time""
""fullscreenenter"",""1"",""1785""
","
","","","","","","null","<div style=""font-size:60px;"">+</div>","null","","fixation","","","","","","","","",""
"memory-trial","95","378006","0.0-15.0-1.26","1651","2","""event"",""trial"",""time""
""fullscreenenter"",""1"",""1785""
","
","
","""event"",""trial"",""time""
""fullscreenenter"",""1"",""1785""
","
","","","","","","1604.7999999523163","images/sheep4.png","","","memory_trial","3","maybe_new","","","","","","",""
"html-keyboard-response","96","378510","0.0-15.0-0.27","1651","2","""event"",""trial"",""time""
""fullscreenenter"",""1"",""1785""
","
","
","""event"",""trial"",""time""
""fullscreenenter"",""1"",""1785""
","
","","","","","","null","<div style=""font-size:60px;"">+</div>","null","","fixation","","","","","","","","",""
"memory-trial","97","380648","0.0-15.0-1.27","1651","2","""event"",""trial"",""time""
""fullscreenenter"",""1"",""1785""
","
","
","""event"",""trial"",""time""
""fullscreenenter"",""1"",""1785""
","
","","","","","","1119.5","images/dog2.png","","","memory_trial","4","definitely_new","","","","","","",""
"html-keyboard-response","98","381154","0.0-15.0-0.28","1651","2","""event"",""trial"",""time""
""fullscreenenter"",""1"",""1785""
","
","
","""event"",""trial"",""time""
""fullscreenenter"",""1"",""1785""
","
","","","","","","null","<div style=""font-size:60px;"">+</div>","null","","fixation","","","","","","","","",""
"memory-trial","99","382965","0.0-15.0-1.28","1651","2","""event"",""trial"",""time""
""fullscreenenter"",""1"",""1785""
","
","
","""event"",""trial"",""time""
""fullscreenenter"",""1"",""1785""
","
","","","","","","792.6000000238419","images/orange3.png","","","memory_trial","1","definitely_old","","","","","","",""
"html-keyboard-response","100","383471","0.0-15.0-0.29","1651","2","""event"",""trial"",""time""
""fullscreenenter"",""1"",""1785""
","
","
","""event"",""trial"",""time""
""fullscreenenter"",""1"",""1785""
","
","","","","","","null","<div style=""font-size:60px;"">+</div>","null","","fixation","","","","","","","","",""
"memory-trial","101","386240","0.0-15.0-1.29","1651","2","""event"",""trial"",""time""
""fullscreenenter"",""1"",""1785""
","
","
","""event"",""trial"",""time""
""fullscreenenter"",""1"",""1785""
","
","","","","","","1760.3999999761581","images/feline5.png","","","memory_trial","1","definitely_old","","","","","","",""
"html-keyboard-response","102","386747","0.0-15.0-0.30","1651","2","""event"",""trial"",""time""
""fullscreenenter"",""1"",""1785""
","
","
","""event"",""trial"",""time""
""fullscreenenter"",""1"",""1785""
","
","","","","","","null","<div style=""font-size:60px;"">+</div>","null","","fixation","","","","","","","","",""
"memory-trial","103","388892","0.0-15.0-1.30","1651","2","""event"",""trial"",""time""
""fullscreenenter"",""1"",""1785""
","
","
","""event"",""trial"",""time""
""fullscreenenter"",""1"",""1785""
","
","","","","","","1141.5999999642372","images/boat4.png","","","memory_trial","1","definitely_old","","","","","","",""
"html-keyboard-response","104","389394","0.0-15.0-0.31","1651","2","""event"",""trial"",""time""
""fullscreenenter"",""1"",""1785""
","
","
","""event"",""trial"",""time""
""fullscreenenter"",""1"",""1785""
","
","","","","","","null","<div style=""font-size:60px;"">+</div>","null","","fixation","","","","","","","","",""
"memory-trial","105","391125","0.0-15.0-1.31","1651","2","""event"",""trial"",""time""
""fullscreenenter"",""1"",""1785""
","
","
","""event"",""trial"",""time""
""fullscreenenter"",""1"",""1785""
","
","","","","","","718.6999999880791","images/feline2.png","","","memory_trial","1","definitely_old","","","","","","",""
"html-keyboard-response","106","391631","0.0-15.0-0.32","1651","2","""event"",""trial"",""time""
""fullscreenenter"",""1"",""1785""
","
","
","""event"",""trial"",""time""
""fullscreenenter"",""1"",""1785""
","
","","","","","","null","<div style=""font-size:60px;"">+</div>","null","","fixation","","","","","","","","",""
"memory-trial","107","394294","0.0-15.0-1.32","1651","2","""event"",""trial"",""time""
""fullscreenenter"",""1"",""1785""
","
","
","""event"",""trial"",""time""
""fullscreenenter"",""1"",""1785""
","
","","","","","","1655.5","images/dog4.png","","","memory_trial","4","definitely_new","","","","","","",""
"html-keyboard-response","108","394797","0.0-15.0-0.33","1651","2","""event"",""trial"",""time""
""fullscreenenter"",""1"",""1785""
","
","
","""event"",""trial"",""time""
""fullscreenenter"",""1"",""1785""
","
","","","","","","null","<div style=""font-size:60px;"">+</div>","null","","fixation","","","","","","","","",""
"memory-trial","109","396880","0.0-15.0-1.33","1651","2","""event"",""trial"",""time""
""fullscreenenter"",""1"",""1785""
","
","
","""event"",""trial"",""time""
""fullscreenenter"",""1"",""1785""
","
","","","","","","1068.6000000238419","images/dog3.png","","","memory_trial","4","definitely_new","","","","","","",""
"html-keyboard-response","110","397385","0.0-15.0-0.34","1651","2","""event"",""trial"",""time""
""fullscreenenter"",""1"",""1785""
","
","
","""event"",""trial"",""time""
""fullscreenenter"",""1"",""1785""
","
","","","","","","null","<div style=""font-size:60px;"">+</div>","null","","fixation","","","","","","","","",""
"memory-trial","111","399635","0.0-15.0-1.34","1651","2","""event"",""trial"",""time""
""fullscreenenter"",""1"",""1785""
","
","
","""event"",""trial"",""time""
""fullscreenenter"",""1"",""1785""
","
","","","","","","1238.699999988079","images/rabbit4.png","","","memory_trial","1","definitely_old","","","","","","",""
"html-keyboard-response","112","400151","0.0-15.0-0.35","1651","2","""event"",""trial"",""time""
""fullscreenenter"",""1"",""1785""
","
","
","""event"",""trial"",""time""
""fullscreenenter"",""1"",""1785""
","
","","","","","","null","<div style=""font-size:60px;"">+</div>","null","","fixation","","","","","","","","",""
"memory-trial","113","402931","0.0-15.0-1.35","1651","2","""event"",""trial"",""time""
""fullscreenenter"",""1"",""1785""
","
","
","""event"",""trial"",""time""
""fullscreenenter"",""1"",""1785""
","
","","","","","","1776.300000011921","images/rabbit1.png","","","memory_trial","2","maybe_old","","","","","","",""
"html-keyboard-response","114","403447","0.0-15.0-0.36","1651","2","""event"",""trial"",""time""
""fullscreenenter"",""1"",""1785""
","
","
","""event"",""trial"",""time""
""fullscreenenter"",""1"",""1785""
","
","","","","","","null","<div style=""font-size:60px;"">+</div>","null","","fixation","","","","","","","","",""
"memory-trial","115","406119","0.0-15.0-1.36","1651","2","""event"",""trial"",""time""
""fullscreenenter"",""1"",""1785""
","
","
","""event"",""trial"",""time""
""fullscreenenter"",""1"",""1785""
","
","","","","","","1667","images/dog1.png","","","memory_trial","4","definitely_new","","","","","","",""
"html-keyboard-response","116","406627","0.0-15.0-0.37","1651","2","""event"",""trial"",""time""
""fullscreenenter"",""1"",""1785""
","
","
","""event"",""trial"",""time""
""fullscreenenter"",""1"",""1785""
","
","","","","","","null","<div style=""font-size:60px;"">+</div>","null","","fixation","","","","","","","","",""
"memory-trial","117","409020","0.0-15.0-1.37","1651","2","""event"",""trial"",""time""
""fullscreenenter"",""1"",""1785""
","
","
","""event"",""trial"",""time""
""fullscreenenter"",""1"",""1785""
","
","","","","","","1384.1000000238419","images/train4.png","","","memory_trial","4","definitely_new","","","","","","",""
"html-keyboard-response","118","409523","0.0-15.0-0.38","1651","2","""event"",""trial"",""time""
""fullscreenenter"",""1"",""1785""
","
","
","""event"",""trial"",""time""
""fullscreenenter"",""1"",""1785""
","
","","","","","","null","<div style=""font-size:60px;"">+</div>","null","","fixation","","","","","","","","",""
"memory-trial","119","412389","0.0-15.0-1.38","1651","2","""event"",""trial"",""time""
""fullscreenenter"",""1"",""1785""
","
","
","""event"",""trial"",""time""
""fullscreenenter"",""1"",""1785""
","
","","","","","","1856.9000000357628","images/apple3.png","","","memory_trial","1","definitely_old","","","","","","",""
"html-keyboard-response","120","412891","0.0-15.0-0.39","1651","2","""event"",""trial"",""time""
""fullscreenenter"",""1"",""1785""
","
","
","""event"",""trial"",""time""
""fullscreenenter"",""1"",""1785""
","
","","","","","","null","<div style=""font-size:60px;"">+</div>","null","","fixation","","","","","","","","",""
"memory-trial","121","416172","0.0-15.0-1.39","1651","2","""event"",""trial"",""time""
""fullscreenenter"",""1"",""1785""
","
","
","""event"",""trial"",""time""
""fullscreenenter"",""1"",""1785""
","
","","","","","","2275.399999976158","images/feline1.png","","","memory_trial","1","definitely_old","","","","","","",""
"html-keyboard-response","122","416687","0.0-15.0-0.40","1651","2","""event"",""trial"",""time""
""fullscreenenter"",""1"",""1785""
","
","
","""event"",""trial"",""time""
""fullscreenenter"",""1"",""1785""
","
","","","","","","null","<div style=""font-size:60px;"">+</div>","null","","fixation","","","","","","","","",""
"memory-trial","123","419638","0.0-15.0-1.40","1651","2","""event"",""trial"",""time""
""fullscreenenter"",""1"",""1785""
","
","
","""event"",""trial"",""time""
""fullscreenenter"",""1"",""1785""
","
","","","","","","1938.699999988079","images/train2.png","","","memory_trial","3","maybe_new","","","","","","",""
"html-keyboard-response","124","420146","0.0-15.0-0.41","1651","2","""event"",""trial"",""time""
""fullscreenenter"",""1"",""1785""
","
","
","""event"",""trial"",""time""
""fullscreenenter"",""1"",""1785""
","
","","","","","","null","<div style=""font-size:60px;"">+</div>","null","","fixation","","","","","","","","",""
"memory-trial","125","422521","0.0-15.0-1.41","1651","2","""event"",""trial"",""time""
""fullscreenenter"",""1"",""1785""
","
","
","""event"",""trial"",""time""
""fullscreenenter"",""1"",""1785""
","
","","","","","","1361.3999999761581","images/horse5.png","","","memory_trial","4","definitely_new","","","","","","",""
"html-keyboard-response","126","423035","0.0-15.0-0.42","1651","2","""event"",""trial"",""time""
""fullscreenenter"",""1"",""1785""
","
","
","""event"",""trial"",""time""
""fullscreenenter"",""1"",""1785""
","
","","","","","","null","<div style=""font-size:60px;"">+</div>","null","","fixation","","","","","","","","",""
"memory-trial","127","425434","0.0-15.0-1.42","1651","2","""event"",""trial"",""time""
""fullscreenenter"",""1"",""1785""
","
","
","""event"",""trial"",""time""
""fullscreenenter"",""1"",""1785""
","
","","","","","","1390","images/train5.png","","","memory_trial","4","definitely_new","","","","","","",""
"html-keyboard-response","128","425944","0.0-15.0-0.43","1651","2","""event"",""trial"",""time""
""fullscreenenter"",""1"",""1785""
","
","
","""event"",""trial"",""time""
""fullscreenenter"",""1"",""1785""
","
","","","","","","null","<div style=""font-size:60px;"">+</div>","null","","fixation","","","","","","","","",""
"memory-trial","129","427972","0.0-15.0-1.43","1651","2","""event"",""trial"",""time""
""fullscreenenter"",""1"",""1785""
","
","
","""event"",""trial"",""time""
""fullscreenenter"",""1"",""1785""
","
","","","","","","1021.8000000119209","images/chair2.png","","","memory_trial","1","definitely_old","","","","","","",""
"html-keyboard-response","130","428481","0.0-15.0-0.44","1651","2","""event"",""trial"",""time""
""fullscreenenter"",""1"",""1785""
","
","
","""event"",""trial"",""time""
""fullscreenenter"",""1"",""1785""
","
","","","","","","null","<div style=""font-size:60px;"">+</div>","null","","fixation","","","","","","","","",""
"memory-trial","131","431277","0.0-15.0-1.44","1651","2","""event"",""trial"",""time""
""fullscreenenter"",""1"",""1785""
","
","
","""event"",""trial"",""time""
""fullscreenenter"",""1"",""1785""
","
","","","","","","1782.699999988079","images/apple4.png","","","memory_trial","4","definitely_new","","","","","","",""
"html-keyboard-response","132","431780","0.0-15.0-0.45","1651","2","""event"",""trial"",""time""
""fullscreenenter"",""1"",""1785""
","
","
","""event"",""trial"",""time""
""fullscreenenter"",""1"",""1785""
","
","","","","","","null","<div style=""font-size:60px;"">+</div>","null","","fixation","","","","","","","","",""
"memory-trial","133","433716","0.0-15.0-1.45","1651","2","""event"",""trial"",""time""
""fullscreenenter"",""1"",""1785""
","
","
","""event"",""trial"",""time""
""fullscreenenter"",""1"",""1785""
","
","","","","","","927.6000000238419","images/flower1.png","","","memory_trial","1","definitely_old","","","","","","",""
"html-keyboard-response","134","434226","0.0-15.0-0.46","1651","2","""event"",""trial"",""time""
""fullscreenenter"",""1"",""1785""
","
","
","""event"",""trial"",""time""
""fullscreenenter"",""1"",""1785""
","
","","","","","","null","<div style=""font-size:60px;"">+</div>","null","","fixation","","","","","","","","",""
"memory-trial","135","436312","0.0-15.0-1.46","1651","2","""event"",""trial"",""time""
""fullscreenenter"",""1"",""1785""
","
","
","""event"",""trial"",""time""
""fullscreenenter"",""1"",""1785""
","
","","","","","","1077.300000011921","images/table3.png","","","memory_trial","4","definitely_new","","","","","","",""
"html-button-response","136","439702","0.0-15.0-2.46-0.46","1651","2","""event"",""trial"",""time""
""fullscreenenter"",""1"",""1785""
","
","
","""event"",""trial"",""time""
""fullscreenenter"",""1"",""1785""
","
","","","","","","3388.199999988079","<p> Take a break! </p><p> Click the button to continue. </p>","0","","break","","","","","","","","",""
"html-keyboard-response","137","440205","0.0-15.0-0.47","1651","2","""event"",""trial"",""time""
""fullscreenenter"",""1"",""1785""
","
","
","""event"",""trial"",""time""
""fullscreenenter"",""1"",""1785""
","
","","","","","","null","<div style=""font-size:60px;"">+</div>","null","","fixation","","","","","","","","",""
"memory-trial","138","443042","0.0-15.0-1.47","1651","2","""event"",""trial"",""time""
""fullscreenenter"",""1"",""1785""
","
","
","""event"",""trial"",""time""
""fullscreenenter"",""1"",""1785""
","
","","","","","","1827.800000011921","images/flower2.png","","","memory_trial","4","definitely_new","","","","","","",""
"html-keyboard-response","139","443557","0.0-15.0-0.48","1651","2","""event"",""trial"",""time""
""fullscreenenter"",""1"",""1785""
","
","
","""event"",""trial"",""time""
""fullscreenenter"",""1"",""1785""
","
","","","","","","null","<div style=""font-size:60px;"">+</div>","null","","fixation","","","","","","","","",""
"memory-trial","140","445970","0.0-15.0-1.48","1651","2","""event"",""trial"",""time""
""fullscreenenter"",""1"",""1785""
","
","
","""event"",""trial"",""time""
""fullscreenenter"",""1"",""1785""
","
","","","","","","1405.9000000357628","images/sofa3.png","","","memory_trial","1","definitely_old","","","","","","",""
"html-keyboard-response","141","446487","0.0-15.0-0.49","1651","2","""event"",""trial"",""time""
""fullscreenenter"",""1"",""1785""
","
","
","""event"",""trial"",""time""
""fullscreenenter"",""1"",""1785""
","
","","","","","","null","<div style=""font-size:60px;"">+</div>","null","","fixation","","","","","","","","",""
"memory-trial","142","448686","0.0-15.0-1.49","1651","2","""event"",""trial"",""time""
""fullscreenenter"",""1"",""1785""
","
","
","""event"",""trial"",""time""
""fullscreenenter"",""1"",""1785""
","
","","","","","","1189.1000000238419","images/straw5.png","","","memory_trial","4","definitely_new","","","","","","",""
"html-keyboard-response","143","449190","0.0-15.0-0.50","1651","2","""event"",""trial"",""time""
""fullscreenenter"",""1"",""1785""
","
","
","""event"",""trial"",""time""
""fullscreenenter"",""1"",""1785""
","
","","","","","","null","<div style=""font-size:60px;"">+</div>","null","","fixation","","","","","","","","",""
"memory-trial","144","451252","0.0-15.0-1.50","1651","2","""event"",""trial"",""time""
""fullscreenenter"",""1"",""1785""
","
","
","""event"",""trial"",""time""
""fullscreenenter"",""1"",""1785""
","
","","","","","","1057.8999999761581","images/cow3.png","","","memory_trial","1","definitely_old","","","","","","",""
"html-keyboard-response","145","451754","0.0-15.0-0.51","1651","2","""event"",""trial"",""time""
""fullscreenenter"",""1"",""1785""
","
","
","""event"",""trial"",""time""
""fullscreenenter"",""1"",""1785""
","
","","","","","","null","<div style=""font-size:60px;"">+</div>","null","","fixation","","","","","","","","",""
"memory-trial","146","454347","0.0-15.0-1.51","1651","2","""event"",""trial"",""time""
""fullscreenenter"",""1"",""1785""
","
","
","""event"",""trial"",""time""
""fullscreenenter"",""1"",""1785""
","
","","","","","","1579.5","images/plane2.png","","","memory_trial","4","definitely_new","","","","","","",""
"html-keyboard-response","147","454861","0.0-15.0-0.52","1651","2","""event"",""trial"",""time""
""fullscreenenter"",""1"",""1785""
","
","
","""event"",""trial"",""time""
""fullscreenenter"",""1"",""1785""
","
","","","","","","null","<div style=""font-size:60px;"">+</div>","null","","fixation","","","","","","","","",""
"memory-trial","148","456654","0.0-15.0-1.52","1651","2","""event"",""trial"",""time""
""fullscreenenter"",""1"",""1785""
","
","
","""event"",""trial"",""time""
""fullscreenenter"",""1"",""1785""
","
","","","","","","790.8999999761581","images/chair1.png","","","memory_trial","1","definitely_old","","","","","","",""
"html-keyboard-response","149","457157","0.0-15.0-0.53","1651","2","""event"",""trial"",""time""
""fullscreenenter"",""1"",""1785""
","
","
","""event"",""trial"",""time""
""fullscreenenter"",""1"",""1785""
","
","","","","","","null","<div style=""font-size:60px;"">+</div>","null","","fixation","","","","","","","","",""
"memory-trial","150","459185","0.0-15.0-1.53","1651","2","""event"",""trial"",""time""
""fullscreenenter"",""1"",""1785""
","
","
","""event"",""trial"",""time""
""fullscreenenter"",""1"",""1785""
","
","","","","","","1015.1999999880791","images/rodent1.png","","","memory_trial","1","definitely_old","","","","","","",""
"html-keyboard-response","151","459695","0.0-15.0-0.54","1651","2","""event"",""trial"",""time""
""fullscreenenter"",""1"",""1785""
","
","
","""event"",""trial"",""time""
""fullscreenenter"",""1"",""1785""
","
","","","","","","null","<div style=""font-size:60px;"">+</div>","null","","fixation","","","","","","","","",""
"memory-trial","152","461356","0.0-15.0-1.54","1651","2","""event"",""trial"",""time""
""fullscreenenter"",""1"",""1785""
","
","
","""event"",""trial"",""time""
""fullscreenenter"",""1"",""1785""
","
","","","","","","656.3000000119209","images/banana2.png","","","memory_trial","1","definitely_old","","","","","","",""
"html-keyboard-response","153","461859","0.0-15.0-0.55","1651","2","""event"",""trial"",""time""
""fullscreenenter"",""1"",""1785""
","
","
","""event"",""trial"",""time""
""fullscreenenter"",""1"",""1785""
","
","","","","","","null","<div style=""font-size:60px;"">+</div>","null","","fixation","","","","","","","","",""
"memory-trial","154","464168","0.0-15.0-1.55","1651","2","""event"",""trial"",""time""
""fullscreenenter"",""1"",""1785""
","
","
","""event"",""trial"",""time""
""fullscreenenter"",""1"",""1785""
","
","","","","","","1291.3999999761581","images/goat5.png","","","memory_trial","4","definitely_new","","","","","","",""
"html-keyboard-response","155","464684","0.0-15.0-0.56","1651","2","""event"",""trial"",""time""
""fullscreenenter"",""1"",""1785""
","
","
","""event"",""trial"",""time""
""fullscreenenter"",""1"",""1785""
","
","","","","","","null","<div style=""font-size:60px;"">+</div>","null","","fixation","","","","","","","","",""
"memory-trial","156","467128","0.0-15.0-1.56","1651","2","""event"",""trial"",""time""
""fullscreenenter"",""1"",""1785""
","
","
","""event"",""trial"",""time""
""fullscreenenter"",""1"",""1785""
","
","","","","","","1441.300000011921","images/straw1.png","","","memory_trial","4","definitely_new","","","","","","",""
"html-keyboard-response","157","467634","0.0-15.0-0.57","1651","2","""event"",""trial"",""time""
""fullscreenenter"",""1"",""1785""
","
","
","""event"",""trial"",""time""
""fullscreenenter"",""1"",""1785""
","
","","","","","","null","<div style=""font-size:60px;"">+</div>","null","","fixation","","","","","","","","",""
"memory-trial","158","469546","0.0-15.0-1.57","1651","2","""event"",""trial"",""time""
""fullscreenenter"",""1"",""1785""
","
","
","""event"",""trial"",""time""
""fullscreenenter"",""1"",""1785""
","
","","","","","","893.3000000119209","images/boat2.png","","","memory_trial","1","definitely_old","","","","","","",""
"html-keyboard-response","159","470058","0.0-15.0-0.58","1651","2","""event"",""trial"",""time""
""fullscreenenter"",""1"",""1785""
","
","
","""event"",""trial"",""time""
""fullscreenenter"",""1"",""1785""
","
","","","","","","null","<div style=""font-size:60px;"">+</div>","null","","fixation","","","","","","","","",""
"memory-trial","160","471981","0.0-15.0-1.58","1651","2","""event"",""trial"",""time""
""fullscreenenter"",""1"",""1785""
","
","
","""event"",""trial"",""time""
""fullscreenenter"",""1"",""1785""
","
","","","","","","904.6000000238419","images/straw2.png","","","memory_trial","4","definitely_new","","","","","","",""
"html-keyboard-response","161","472490","0.0-15.0-0.59","1651","2","""event"",""trial"",""time""
""fullscreenenter"",""1"",""1785""
","
","
","""event"",""trial"",""time""
""fullscreenenter"",""1"",""1785""
","
","","","","","","null","<div style=""font-size:60px;"">+</div>","null","","fixation","","","","","","","","",""
"memory-trial","162","474365","0.0-15.0-1.59","1651","2","""event"",""trial"",""time""
""fullscreenenter"",""1"",""1785""
","
","
","""event"",""trial"",""time""
""fullscreenenter"",""1"",""1785""
","
","","","","","","869.8000000119209","images/table1.png","","","memory_trial","4","definitely_new","","","","","","",""
"html-keyboard-response","163","474868","0.0-15.0-0.60","1651","2","""event"",""trial"",""time""
""fullscreenenter"",""1"",""1785""
","
","
","""event"",""trial"",""time""
""fullscreenenter"",""1"",""1785""
","
","","","","","","null","<div style=""font-size:60px;"">+</div>","null","","fixation","","","","","","","","",""
"memory-trial","164","478309","0.0-15.0-1.60","1651","2","""event"",""trial"",""time""
""fullscreenenter"",""1"",""1785""
","
","
","""event"",""trial"",""time""
""fullscreenenter"",""1"",""1785""
","
","","","","","","2431.400000035763","images/orange2.png","","","memory_trial","2","maybe_old","","","","","","",""
"html-keyboard-response","165","478816","0.0-15.0-0.61","1651","2","""event"",""trial"",""time""
""fullscreenenter"",""1"",""1785""
","
","
","""event"",""trial"",""time""
""fullscreenenter"",""1"",""1785""
","
","","","","","","null","<div style=""font-size:60px;"">+</div>","null","","fixation","","","","","","","","",""
"memory-trial","166","481677","0.0-15.0-1.61","1651","2","""event"",""trial"",""time""
""fullscreenenter"",""1"",""1785""
","
","
","""event"",""trial"",""time""
""fullscreenenter"",""1"",""1785""
","
","","","","","","1854.1000000238419","images/sofa2.png","","","memory_trial","2","maybe_old","","","","","","",""
"html-keyboard-response","167","482188","0.0-15.0-0.62","1651","2","""event"",""trial"",""time""
""fullscreenenter"",""1"",""1785""
","
","
","""event"",""trial"",""time""
""fullscreenenter"",""1"",""1785""
","
","","","","","","null","<div style=""font-size:60px;"">+</div>","null","","fixation","","","","","","","","",""
"memory-trial","168","484421","0.0-15.0-1.62","1651","2","""event"",""trial"",""time""
""fullscreenenter"",""1"",""1785""
","
","
","""event"",""trial"",""time""
""fullscreenenter"",""1"",""1785""
","
","","","","","","1223.1000000238419","images/orange5.png","","","memory_trial","1","definitely_old","","","","","","",""
"html-keyboard-response","169","484937","0.0-15.0-0.63","1651","2","""event"",""trial"",""time""
""fullscreenenter"",""1"",""1785""
","
","
","""event"",""trial"",""time""
""fullscreenenter"",""1"",""1785""
","
","","","","","","null","<div style=""font-size:60px;"">+</div>","null","","fixation","","","","","","","","",""
"memory-trial","170","486797","0.0-15.0-1.63","1651","2","""event"",""trial"",""time""
""fullscreenenter"",""1"",""1785""
","
","
","""event"",""trial"",""time""
""fullscreenenter"",""1"",""1785""
","
","","","","","","855.7000000476837","images/straw3.png","","","memory_trial","4","definitely_new","","","","","","",""
"html-keyboard-response","171","487306","0.0-15.0-0.64","1651","2","""event"",""trial"",""time""
""fullscreenenter"",""1"",""1785""
","
","
","""event"",""trial"",""time""
""fullscreenenter"",""1"",""1785""
","
","","","","","","null","<div style=""font-size:60px;"">+</div>","null","","fixation","","","","","","","","",""
"memory-trial","172","488951","0.0-15.0-1.64","1651","2","""event"",""trial"",""time""
""fullscreenenter"",""1"",""1785""
","
","
","""event"",""trial"",""time""
""fullscreenenter"",""1"",""1785""
","
","","","","","","627.6000000238419","images/banana3.png","","","memory_trial","1","definitely_old","","","","","","",""
"html-keyboard-response","173","489459","0.0-15.0-0.65","1651","2","""event"",""trial"",""time""
""fullscreenenter"",""1"",""1785""
","
","
","""event"",""trial"",""time""
""fullscreenenter"",""1"",""1785""
","
","","","","","","null","<div style=""font-size:60px;"">+</div>","null","","fixation","","","","","","","","",""
"memory-trial","174","491448","0.0-15.0-1.65","1651","2","""event"",""trial"",""time""
""fullscreenenter"",""1"",""1785""
","
","
","""event"",""trial"",""time""
""fullscreenenter"",""1"",""1785""
","
","","","","","","981.8000000119209","images/bush1.png","","","memory_trial","1","definitely_old","","","","","","",""
"html-keyboard-response","175","491956","0.0-15.0-0.66","1651","2","""event"",""trial"",""time""
""fullscreenenter"",""1"",""1785""
","
","
","""event"",""trial"",""time""
""fullscreenenter"",""1"",""1785""
","
","","","","","","null","<div style=""font-size:60px;"">+</div>","null","","fixation","","","","","","","","",""
"memory-trial","176","496052","0.0-15.0-1.66","1651","2","""event"",""trial"",""time""
""fullscreenenter"",""1"",""1785""
","
","
","""event"",""trial"",""time""
""fullscreenenter"",""1"",""1785""
","
","","","","","","3088.400000035763","images/flower5.png","","","memory_trial","3","maybe_new","","","","","","",""
"html-keyboard-response","177","496563","0.0-15.0-0.67","1651","2","""event"",""trial"",""time""
""fullscreenenter"",""1"",""1785""
","
","
","""event"",""trial"",""time""
""fullscreenenter"",""1"",""1785""
","
","","","","","","null","<div style=""font-size:60px;"">+</div>","null","","fixation","","","","","","","","",""
"memory-trial","178","500425","0.0-15.0-1.67","1651","2","""event"",""trial"",""time""
""fullscreenenter"",""1"",""1785""
","
","
","""event"",""trial"",""time""
""fullscreenenter"",""1"",""1785""
","
","","","","","","2843.900000035763","images/bed5.png","","","memory_trial","3","maybe_new","","","","","","",""
"html-keyboard-response","179","500941","0.0-15.0-0.68","1651","2","""event"",""trial"",""time""
""fullscreenenter"",""1"",""1785""
","
","
","""event"",""trial"",""time""
""fullscreenenter"",""1"",""1785""
","
","","","","","","null","<div style=""font-size:60px;"">+</div>","null","","fixation","","","","","","","","",""
"memory-trial","180","502885","0.0-15.0-1.68","1651","2","""event"",""trial"",""time""
""fullscreenenter"",""1"",""1785""
","
","
","""event"",""trial"",""time""
""fullscreenenter"",""1"",""1785""
","
","","","","","","937.6000000238419","images/bush3.png","","","memory_trial","1","definitely_old","","","","","","",""
"html-keyboard-response","181","503392","0.0-15.0-0.69","1651","2","""event"",""trial"",""time""
""fullscreenenter"",""1"",""1785""
","
","
","""event"",""trial"",""time""
""fullscreenenter"",""1"",""1785""
","
","","","","","","null","<div style=""font-size:60px;"">+</div>","null","","fixation","","","","","","","","",""
"memory-trial","182","505310","0.0-15.0-1.69","1651","2","""event"",""trial"",""time""
""fullscreenenter"",""1"",""1785""
","
","
","""event"",""trial"",""time""
""fullscreenenter"",""1"",""1785""
","
","","","","","","899.3000000119209","images/tree1.png","","","memory_trial","1","definitely_old","","","","","","",""
"html-keyboard-response","183","505825","0.0-15.0-0.70","1651","2","""event"",""trial"",""time""
""fullscreenenter"",""1"",""1785""
","
","
","""event"",""trial"",""time""
""fullscreenenter"",""1"",""1785""
","
","","","","","","null","<div style=""font-size:60px;"">+</div>","null","","fixation","","","","","","","","",""
"memory-trial","184","509084","0.0-15.0-1.70","1651","2","""event"",""trial"",""time""
""fullscreenenter"",""1"",""1785""
","
","
","""event"",""trial"",""time""
""fullscreenenter"",""1"",""1785""
","
","","","","","","2243.699999988079","images/rabbit5.png","","","memory_trial","2","maybe_old","","","","","","",""
"html-keyboard-response","185","509591","0.0-15.0-0.71","1651","2","""event"",""trial"",""time""
""fullscreenenter"",""1"",""1785""
","
","
","""event"",""trial"",""time""
""fullscreenenter"",""1"",""1785""
","
","","","","","","null","<div style=""font-size:60px;"">+</div>","null","","fixation","","","","","","","","",""
"memory-trial","186","511628","0.0-15.0-1.71","1651","2","""event"",""trial"",""time""
""fullscreenenter"",""1"",""1785""
","
","
","""event"",""trial"",""time""
""fullscreenenter"",""1"",""1785""
","
","","","","","","1023.9000000357628","images/cactus2.png","","","memory_trial","4","definitely_new","","","","","","",""
"html-keyboard-response","187","512141","0.0-15.0-0.72","1651","2","""event"",""trial"",""time""
""fullscreenenter"",""1"",""1785""
","
","
","""event"",""trial"",""time""
""fullscreenenter"",""1"",""1785""
","
","","","","","","null","<div style=""font-size:60px;"">+</div>","null","","fixation","","","","","","","","",""
"memory-trial","188","514657","0.0-15.0-1.72","1651","2","""event"",""trial"",""time""
""fullscreenenter"",""1"",""1785""
","
","
","""event"",""trial"",""time""
""fullscreenenter"",""1"",""1785""
","
","","","","","","1505.800000011921","images/plane4.png","","","memory_trial","2","maybe_old","","","","","","",""
"html-keyboard-response","189","515161","0.0-15.0-0.73","1651","2","""event"",""trial"",""time""
""fullscreenenter"",""1"",""1785""
","
","
","""event"",""trial"",""time""
""fullscreenenter"",""1"",""1785""
","
","","","","","","null","<div style=""font-size:60px;"">+</div>","null","","fixation","","","","","","","","",""
"memory-trial","190","517925","0.0-15.0-1.73","1651","2","""event"",""trial"",""time""
""fullscreenenter"",""1"",""1785""
","
","
","""event"",""trial"",""time""
""fullscreenenter"",""1"",""1785""
","
","","","","","","1753.300000011921","images/truck3.png","","","memory_trial","4","definitely_new","","","","","","",""
"html-keyboard-response","191","518435","0.0-15.0-0.74","1651","2","""event"",""trial"",""time""
""fullscreenenter"",""1"",""1785""
","
","
","""event"",""trial"",""time""
""fullscreenenter"",""1"",""1785""
","
","","","","","","null","<div style=""font-size:60px;"">+</div>","null","","fixation","","","","","","","","",""
"memory-trial","192","520471","0.0-15.0-1.74","1651","2","""event"",""trial"",""time""
""fullscreenenter"",""1"",""1785""
","
","
","""event"",""trial"",""time""
""fullscreenenter"",""1"",""1785""
","
","","","","","","1026.3999999761581","images/bed2.png","","","memory_trial","1","definitely_old","","","","","","",""
"html-keyboard-response","193","520975","0.0-15.0-0.75","1651","2","""event"",""trial"",""time""
""fullscreenenter"",""1"",""1785""
","
","
","""event"",""trial"",""time""
""fullscreenenter"",""1"",""1785""
","
","","","","","","null","<div style=""font-size:60px;"">+</div>","null","","fixation","","","","","","","","",""
"memory-trial","194","524267","0.0-15.0-1.75","1651","2","""event"",""trial"",""time""
""fullscreenenter"",""1"",""1785""
","
","
","""event"",""trial"",""time""
""fullscreenenter"",""1"",""1785""
","
","","","","","","2288.600000023842","images/apple5.png","","","memory_trial","2","maybe_old","","","","","","",""
"html-keyboard-response","195","524776","0.0-15.0-0.76","1651","2","""event"",""trial"",""time""
""fullscreenenter"",""1"",""1785""
","
","
","""event"",""trial"",""time""
""fullscreenenter"",""1"",""1785""
","
","","","","","","null","<div style=""font-size:60px;"">+</div>","null","","fixation","","","","","","","","",""
"memory-trial","196","526618","0.0-15.0-1.76","1651","2","""event"",""trial"",""time""
""fullscreenenter"",""1"",""1785""
","
","
","""event"",""trial"",""time""
""fullscreenenter"",""1"",""1785""
","
","","","","","","834.0999999642372","images/horse1.png","","","memory_trial","1","definitely_old","","","","","","",""
"html-keyboard-response","197","527124","0.0-15.0-0.77","1651","2","""event"",""trial"",""time""
""fullscreenenter"",""1"",""1785""
","
","
","""event"",""trial"",""time""
""fullscreenenter"",""1"",""1785""
","
","","","","","","null","<div style=""font-size:60px;"">+</div>","null","","fixation","","","","","","","","",""
"memory-trial","198","529307","0.0-15.0-1.77","1651","2","""event"",""trial"",""time""
""fullscreenenter"",""1"",""1785""
","
","
","""event"",""trial"",""time""
""fullscreenenter"",""1"",""1785""
","
","","","","","","1175.6000000238419","images/horse3.png","","","memory_trial","1","definitely_old","","","","","","",""
"html-keyboard-response","199","529809","0.0-15.0-0.78","1651","2","""event"",""trial"",""time""
""fullscreenenter"",""1"",""1785""
","
","
","""event"",""trial"",""time""
""fullscreenenter"",""1"",""1785""
","
","","","","","","null","<div style=""font-size:60px;"">+</div>","null","","fixation","","","","","","","","",""
"memory-trial","200","531804","0.0-15.0-1.78","1651","2","""event"",""trial"",""time""
""fullscreenenter"",""1"",""1785""
","
","
","""event"",""trial"",""time""
""fullscreenenter"",""1"",""1785""
","
","","","","","","983.6999999880791","images/plane1.png","","","memory_trial","1","definitely_old","","","","","","",""
"html-keyboard-response","201","532315","0.0-15.0-0.79","1651","2","""event"",""trial"",""time""
""fullscreenenter"",""1"",""1785""
","
","
","""event"",""trial"",""time""
""fullscreenenter"",""1"",""1785""
","
","","","","","","null","<div style=""font-size:60px;"">+</div>","null","","fixation","","","","","","","","",""
"memory-trial","202","534781","0.0-15.0-1.79","1651","2","""event"",""trial"",""time""
""fullscreenenter"",""1"",""1785""
","
","
","""event"",""trial"",""time""
""fullscreenenter"",""1"",""1785""
","
","","","","","","1456.5","images/goat2.png","","","memory_trial","4","definitely_new","","","","","","",""
"html-keyboard-response","203","535291","0.0-15.0-0.80","1651","2","""event"",""trial"",""time""
""fullscreenenter"",""1"",""1785""
","
","
","""event"",""trial"",""time""
""fullscreenenter"",""1"",""1785""
","
","","","","","","null","<div style=""font-size:60px;"">+</div>","null","","fixation","","","","","","","","",""
"memory-trial","204","537291","0.0-15.0-1.80","1651","2","""event"",""trial"",""time""
""fullscreenenter"",""1"",""1785""
","
","
","""event"",""trial"",""time""
""fullscreenenter"",""1"",""1785""
","
","","","","","","992.9000000357628","images/boat5.png","","","memory_trial","1","definitely_old","","","","","","",""
"html-keyboard-response","205","537797","0.0-15.0-0.81","1651","2","""event"",""trial"",""time""
""fullscreenenter"",""1"",""1785""
","
","
","""event"",""trial"",""time""
""fullscreenenter"",""1"",""1785""
","
","","","","","","null","<div style=""font-size:60px;"">+</div>","null","","fixation","","","","","","","","",""
"memory-trial","206","540064","0.0-15.0-1.81","1651","2","""event"",""trial"",""time""
""fullscreenenter"",""1"",""1785""
","
","
","""event"",""trial"",""time""
""fullscreenenter"",""1"",""1785""
","
","","","","","","1250.199999988079","images/boat3.png","","","memory_trial","2","maybe_old","","","","","","",""
"html-keyboard-response","207","540568","0.0-15.0-0.82","1651","2","""event"",""trial"",""time""
""fullscreenenter"",""1"",""1785""
","
","
","""event"",""trial"",""time""
""fullscreenenter"",""1"",""1785""
","
","","","","","","null","<div style=""font-size:60px;"">+</div>","null","","fixation","","","","","","","","",""
"memory-trial","208","543013","0.0-15.0-1.82","1651","2","""event"",""trial"",""time""
""fullscreenenter"",""1"",""1785""
","
","
","""event"",""trial"",""time""
""fullscreenenter"",""1"",""1785""
","
","","","","","","1435.5","images/bush2.png","","","memory_trial","2","maybe_old","","","","","","",""
"html-keyboard-response","209","543525","0.0-15.0-0.83","1651","2","""event"",""trial"",""time""
""fullscreenenter"",""1"",""1785""
","
","
","""event"",""trial"",""time""
""fullscreenenter"",""1"",""1785""
","
","","","","","","null","<div style=""font-size:60px;"">+</div>","null","","fixation","","","","","","","","",""
"memory-trial","210","545707","0.0-15.0-1.83","1651","2","""event"",""trial"",""time""
""fullscreenenter"",""1"",""1785""
","
","
","""event"",""trial"",""time""
""fullscreenenter"",""1"",""1785""
","
","","","","","","1172.199999988079","images/rabbit3.png","","","memory_trial","2","maybe_old","","","","","","",""
"html-keyboard-response","211","546224","0.0-15.0-0.84","1651","2","""event"",""trial"",""time""
""fullscreenenter"",""1"",""1785""
","
","
","""event"",""trial"",""time""
""fullscreenenter"",""1"",""1785""
","
","","","","","","null","<div style=""font-size:60px;"">+</div>","null","","fixation","","","","","","","","",""
"memory-trial","212","549545","0.0-15.0-1.84","1651","2","""event"",""trial"",""time""
""fullscreenenter"",""1"",""1785""
","
","
","""event"",""trial"",""time""
""fullscreenenter"",""1"",""1785""
","
","","","","","","2311.7999999523163","images/cow2.png","","","memory_trial","1","definitely_old","","","","","","",""
"html-keyboard-response","213","550053","0.0-15.0-0.85","1651","2","""event"",""trial"",""time""
""fullscreenenter"",""1"",""1785""
","
","
","""event"",""trial"",""time""
""fullscreenenter"",""1"",""1785""
","
","","","","","","null","<div style=""font-size:60px;"">+</div>","null","","fixation","","","","","","","","",""
"memory-trial","214","553057","0.0-15.0-1.85","1651","2","""event"",""trial"",""time""
""fullscreenenter"",""1"",""1785""
","
","
","""event"",""trial"",""time""
""fullscreenenter"",""1"",""1785""
","
","","","","","","1996.800000011921","images/train3.png","","","memory_trial","4","definitely_new","","","","","","",""
"html-keyboard-response","215","553563","0.0-15.0-0.86","1651","2","""event"",""trial"",""time""
""fullscreenenter"",""1"",""1785""
","
","
","""event"",""trial"",""time""
""fullscreenenter"",""1"",""1785""
","
","","","","","","null","<div style=""font-size:60px;"">+</div>","null","","fixation","","","","","","","","",""
"memory-trial","216","555295","0.0-15.0-1.86","1651","2","""event"",""trial"",""time""
""fullscreenenter"",""1"",""1785""
","
","
","""event"",""trial"",""time""
""fullscreenenter"",""1"",""1785""
","
","","","","","","726.9000000357628","images/cactus3.png","","","memory_trial","4","definitely_new","","","","","","",""
"html-keyboard-response","217","555797","0.0-15.0-0.87","1651","2","""event"",""trial"",""time""
""fullscreenenter"",""1"",""1785""
","
","
","""event"",""trial"",""time""
""fullscreenenter"",""1"",""1785""
","
","","","","","","null","<div style=""font-size:60px;"">+</div>","null","","fixation","","","","","","","","",""
"memory-trial","218","558502","0.0-15.0-1.87","1651","2","""event"",""trial"",""time""
""fullscreenenter"",""1"",""1785""
","
","
","""event"",""trial"",""time""
""fullscreenenter"",""1"",""1785""
","
","","","","","","1694.6000000238419","images/rabbit2.png","","","memory_trial","1","definitely_old","","","","","","",""
"html-keyboard-response","219","559008","0.0-15.0-0.88","1651","2","""event"",""trial"",""time""
""fullscreenenter"",""1"",""1785""
","
","
","""event"",""trial"",""time""
""fullscreenenter"",""1"",""1785""
","
","","","","","","null","<div style=""font-size:60px;"">+</div>","null","","fixation","","","","","","","","",""
"memory-trial","220","562612","0.0-15.0-1.88","1651","2","""event"",""trial"",""time""
""fullscreenenter"",""1"",""1785""
","
","
","""event"",""trial"",""time""
""fullscreenenter"",""1"",""1785""
","
","","","","","","2601.7000000476837","images/banana4.png","","","memory_trial","1","definitely_old","","","","","","",""
"html-keyboard-response","221","563115","0.0-15.0-0.89","1651","2","""event"",""trial"",""time""
""fullscreenenter"",""1"",""1785""
","
","
","""event"",""trial"",""time""
""fullscreenenter"",""1"",""1785""
","
","","","","","","null","<div style=""font-size:60px;"">+</div>","null","","fixation","","","","","","","","",""
"memory-trial","222","565298","0.0-15.0-1.89","1651","2","""event"",""trial"",""time""
""fullscreenenter"",""1"",""1785""
","
","
","""event"",""trial"",""time""
""fullscreenenter"",""1"",""1785""
","
","","","","","","1165.3999999761581","images/table2.png","","","memory_trial","4","definitely_new","","","","","","",""
"html-keyboard-response","223","565803","0.0-15.0-0.90","1651","2","""event"",""trial"",""time""
""fullscreenenter"",""1"",""1785""
","
","
","""event"",""trial"",""time""
""fullscreenenter"",""1"",""1785""
","
","","","","","","null","<div style=""font-size:60px;"">+</div>","null","","fixation","","","","","","","","",""
"memory-trial","224","568266","0.0-15.0-1.90","1651","2","""event"",""trial"",""time""
""fullscreenenter"",""1"",""1785""
","
","
","""event"",""trial"",""time""
""fullscreenenter"",""1"",""1785""
","
","","","","","","1452","images/flower4.png","","","memory_trial","1","definitely_old","","","","","","",""
"html-keyboard-response","225","568773","0.0-15.0-0.91","1651","2","""event"",""trial"",""time""
""fullscreenenter"",""1"",""1785""
","
","
","""event"",""trial"",""time""
""fullscreenenter"",""1"",""1785""
","
","","","","","","null","<div style=""font-size:60px;"">+</div>","null","","fixation","","","","","","","","",""
"memory-trial","226","570615","0.0-15.0-1.91","1651","2","""event"",""trial"",""time""
""fullscreenenter"",""1"",""1785""
","
","
","""event"",""trial"",""time""
""fullscreenenter"",""1"",""1785""
","
","","","","","","834.5","images/orange1.png","","","memory_trial","1","definitely_old","","","","","","",""
"html-keyboard-response","227","571124","0.0-15.0-0.92","1651","2","""event"",""trial"",""time""
""fullscreenenter"",""1"",""1785""
","
","
","""event"",""trial"",""time""
""fullscreenenter"",""1"",""1785""
","
","","","","","","null","<div style=""font-size:60px;"">+</div>","null","","fixation","","","","","","","","",""
"memory-trial","228","573125","0.0-15.0-1.92","1651","2","""event"",""trial"",""time""
""fullscreenenter"",""1"",""1785""
","
","
","""event"",""trial"",""time""
""fullscreenenter"",""1"",""1785""
","
","","","","","","994.1999999880791","images/tree5.png","","","memory_trial","4","definitely_new","","","","","","",""
"html-keyboard-response","229","573633","0.0-15.0-0.93","1651","2","""event"",""trial"",""time""
""fullscreenenter"",""1"",""1785""
","
","
","""event"",""trial"",""time""
""fullscreenenter"",""1"",""1785""
","
","","","","","","null","<div style=""font-size:60px;"">+</div>","null","","fixation","","","","","","","","",""
"memory-trial","230","575474","0.0-15.0-1.93","1651","2","""event"",""trial"",""time""
""fullscreenenter"",""1"",""1785""
","
","
","""event"",""trial"",""time""
""fullscreenenter"",""1"",""1785""
","
","","","","","","833.9000000357628","images/truck5.png","","","memory_trial","1","definitely_old","","","","","","",""
"html-keyboard-response","231","575981","0.0-15.0-0.94","1651","2","""event"",""trial"",""time""
""fullscreenenter"",""1"",""1785""
","
","
","""event"",""trial"",""time""
""fullscreenenter"",""1"",""1785""
","
","","","","","","null","<div style=""font-size:60px;"">+</div>","null","","fixation","","","","","","","","",""
"memory-trial","232","578260","0.0-15.0-1.94","1651","2","""event"",""trial"",""time""
""fullscreenenter"",""1"",""1785""
","
","
","""event"",""trial"",""time""
""fullscreenenter"",""1"",""1785""
","
","","","","","","1267.9000000357628","images/table5.png","","","memory_trial","4","definitely_new","","","","","","",""
"html-keyboard-response","233","578768","0.0-15.0-0.95","1651","2","""event"",""trial"",""time""
""fullscreenenter"",""1"",""1785""
","
","
","""event"",""trial"",""time""
""fullscreenenter"",""1"",""1785""
","
","","","","","","null","<div style=""font-size:60px;"">+</div>","null","","fixation","","","","","","","","",""
"memory-trial","234","581871","0.0-15.0-1.95","1651","2","""event"",""trial"",""time""
""fullscreenenter"",""1"",""1785""
","
","
","""event"",""trial"",""time""
""fullscreenenter"",""1"",""1785""
","
","","","","","","2095.099999964237","images/feline3.png","","","memory_trial","1","definitely_old","","","","","","",""
"html-keyboard-response","235","582386","0.0-15.0-0.96","1651","2","""event"",""trial"",""time""
""fullscreenenter"",""1"",""1785""
","
","
","""event"",""trial"",""time""
""fullscreenenter"",""1"",""1785""
","
","","","","","","null","<div style=""font-size:60px;"">+</div>","null","","fixation","","","","","","","","",""
"memory-trial","236","584387","0.0-15.0-1.96","1651","2","""event"",""trial"",""time""
""fullscreenenter"",""1"",""1785""
","
","
","""event"",""trial"",""time""
""fullscreenenter"",""1"",""1785""
","
","","","","","","992.3999999761581","images/tree4.png","","","memory_trial","4","definitely_new","","","","","","",""
"html-keyboard-response","237","584895","0.0-15.0-0.97","1651","2","""event"",""trial"",""time""
""fullscreenenter"",""1"",""1785""
","
","
","""event"",""trial"",""time""
""fullscreenenter"",""1"",""1785""
","
","","","","","","null","<div style=""font-size:60px;"">+</div>","null","","fixation","","","","","","","","",""
"memory-trial","238","587084","0.0-15.0-1.97","1651","2","""event"",""trial"",""time""
""fullscreenenter"",""1"",""1785""
","
","
","""event"",""trial"",""time""
""fullscreenenter"",""1"",""1785""
","
","","","","","","1186.9000000357628","images/cow1.png","","","memory_trial","1","definitely_old","","","","","","",""
"html-keyboard-response","239","587597","0.0-15.0-0.98","1651","2","""event"",""trial"",""time""
""fullscreenenter"",""1"",""1785""
","
","
","""event"",""trial"",""time""
""fullscreenenter"",""1"",""1785""
","
","","","","","","null","<div style=""font-size:60px;"">+</div>","null","","fixation","","","","","","","","",""
"memory-trial","240","589457","0.0-15.0-1.98","1651","2","""event"",""trial"",""time""
""fullscreenenter"",""1"",""1785""
","
","
","""event"",""trial"",""time""
""fullscreenenter"",""1"",""1785""
","
","","","","","","850.0999999642372","images/table4.png","","","memory_trial","4","definitely_new","","","","","","",""
"html-keyboard-response","241","589967","0.0-15.0-0.99","1651","2","""event"",""trial"",""time""
""fullscreenenter"",""1"",""1785""
","
","
","""event"",""trial"",""time""
""fullscreenenter"",""1"",""1785""
","
","","","","","","null","<div style=""font-size:60px;"">+</div>","null","","fixation","","","","","","","","",""
"memory-trial","242","591661","0.0-15.0-1.99","1651","2","""event"",""trial"",""time""
""fullscreenenter"",""1"",""1785""
","
","
","""event"",""trial"",""time""
""fullscreenenter"",""1"",""1785""
","
","","","","","","684.7999999523163","images/banana5.png","","","memory_trial","1","definitely_old","","","","","","",""
"html-keyboard-response","243","592174","0.0-15.0-0.100","1651","2","""event"",""trial"",""time""
""fullscreenenter"",""1"",""1785""
","
","
","""event"",""trial"",""time""
""fullscreenenter"",""1"",""1785""
","
","","","","","","null","<div style=""font-size:60px;"">+</div>","null","","fixation","","","","","","","","",""
"memory-trial","244","594281","0.0-15.0-1.100","1651","2","""event"",""trial"",""time""
""fullscreenenter"",""1"",""1785""
","
","
","""event"",""trial"",""time""
""fullscreenenter"",""1"",""1785""
","
","","","","","","1094.6000000238419","images/goat3.png","","","memory_trial","4","definitely_new","","","","","","",""
"html-keyboard-response","245","594790","0.0-15.0-0.101","1651","2","""event"",""trial"",""time""
""fullscreenenter"",""1"",""1785""
","
","
","""event"",""trial"",""time""
""fullscreenenter"",""1"",""1785""
","
","","","","","","null","<div style=""font-size:60px;"">+</div>","null","","fixation","","","","","","","","",""
"memory-trial","246","596597","0.0-15.0-1.101","1651","2","""event"",""trial"",""time""
""fullscreenenter"",""1"",""1785""
","
","
","""event"",""trial"",""time""
""fullscreenenter"",""1"",""1785""
","
","","","","","","799.3000000119209","images/cactus5.png","","","memory_trial","4","definitely_new","","","","","","",""
"html-button-response","247","601047","0.0-15.0-2.101-0.101","1651","2","""event"",""trial"",""time""
""fullscreenenter"",""1"",""1785""
","
","
","""event"",""trial"",""time""
""fullscreenenter"",""1"",""1785""
","
","","","","","","4448.699999988079","<p> Take a break! </p><p> Click the button to continue. </p>","0","","break","","","","","","","","",""
"html-keyboard-response","248","601550","0.0-15.0-0.102","1651","2","""event"",""trial"",""time""
""fullscreenenter"",""1"",""1785""
","
","
","""event"",""trial"",""time""
""fullscreenenter"",""1"",""1785""
","
","","","","","","null","<div style=""font-size:60px;"">+</div>","null","","fixation","","","","","","","","",""
"memory-trial","249","604019","0.0-15.0-1.102","1651","2","""event"",""trial"",""time""
""fullscreenenter"",""1"",""1785""
","
","
","""event"",""trial"",""time""
""fullscreenenter"",""1"",""1785""
","
","","","","","","1464.1000000238419","images/chair4.png","","","memory_trial","4","definitely_new","","","","","","",""
"html-keyboard-response","250","604524","0.0-15.0-0.103","1651","2","""event"",""trial"",""time""
""fullscreenenter"",""1"",""1785""
","
","
","""event"",""trial"",""time""
""fullscreenenter"",""1"",""1785""
","
","","","","","","null","<div style=""font-size:60px;"">+</div>","null","","fixation","","","","","","","","",""
"memory-trial","251","606381","0.0-15.0-1.103","1651","2","""event"",""trial"",""time""
""fullscreenenter"",""1"",""1785""
","
","
","""event"",""trial"",""time""
""fullscreenenter"",""1"",""1785""
","
","","","","","","847.6000000238419","images/flower3.png","","","memory_trial","4","definitely_new","","","","","","",""
"html-keyboard-response","252","606887","0.0-15.0-0.104","1651","2","""event"",""trial"",""time""
""fullscreenenter"",""1"",""1785""
","
","
","""event"",""trial"",""time""
""fullscreenenter"",""1"",""1785""
","
","","","","","","null","<div style=""font-size:60px;"">+</div>","null","","fixation","","","","","","","","",""
"memory-trial","253","608716","0.0-15.0-1.104","1651","2","""event"",""trial"",""time""
""fullscreenenter"",""1"",""1785""
","
","
","""event"",""trial"",""time""
""fullscreenenter"",""1"",""1785""
","
","","","","","","817.5","images/truck2.png","","","memory_trial","1","definitely_old","","","","","","",""
"html-keyboard-response","254","609225","0.0-15.0-0.105","1651","2","""event"",""trial"",""time""
""fullscreenenter"",""1"",""1785""
","
","
","""event"",""trial"",""time""
""fullscreenenter"",""1"",""1785""
","
","","","","","","null","<div style=""font-size:60px;"">+</div>","null","","fixation","","","","","","","","",""
"memory-trial","255","611871","0.0-15.0-1.105","1651","2","""event"",""trial"",""time""
""fullscreenenter"",""1"",""1785""
","
","
","""event"",""trial"",""time""
""fullscreenenter"",""1"",""1785""
","
","","","","","","1632.5999999642372","images/plane3.png","","","memory_trial","1","definitely_old","","","","","","",""
"html-keyboard-response","256","612376","0.0-15.0-0.106","1651","2","""event"",""trial"",""time""
""fullscreenenter"",""1"",""1785""
","
","
","""event"",""trial"",""time""
""fullscreenenter"",""1"",""1785""
","
","","","","","","null","<div style=""font-size:60px;"">+</div>","null","","fixation","","","","","","","","",""
"memory-trial","257","614885","0.0-15.0-1.106","1651","2","""event"",""trial"",""time""
""fullscreenenter"",""1"",""1785""
","
","
","""event"",""trial"",""time""
""fullscreenenter"",""1"",""1785""
","
","","","","","","1491.300000011921","images/rodent4.png","","","memory_trial","1","definitely_old","","","","","","",""
"html-keyboard-response","258","615400","0.0-15.0-0.107","1651","2","""event"",""trial"",""time""
""fullscreenenter"",""1"",""1785""
","
","
","""event"",""trial"",""time""
""fullscreenenter"",""1"",""1785""
","
","","","","","","null","<div style=""font-size:60px;"">+</div>","null","","fixation","","","","","","","","",""
"memory-trial","259","617347","0.0-15.0-1.107","1651","2","""event"",""trial"",""time""
""fullscreenenter"",""1"",""1785""
","
","
","""event"",""trial"",""time""
""fullscreenenter"",""1"",""1785""
","
","","","","","","931.8999999761581","images/train1.png","","","memory_trial","4","definitely_new","","","","","","",""
"html-keyboard-response","260","617859","0.0-15.0-0.108","1651","2","""event"",""trial"",""time""
""fullscreenenter"",""1"",""1785""
","
","
","""event"",""trial"",""time""
""fullscreenenter"",""1"",""1785""
","
","","","","","","null","<div style=""font-size:60px;"">+</div>","null","","fixation","","","","","","","","",""
"memory-trial","261","619678","0.0-15.0-1.108","1651","2","""event"",""trial"",""time""
""fullscreenenter"",""1"",""1785""
","
","
","""event"",""trial"",""time""
""fullscreenenter"",""1"",""1785""
","
","","","","","","813.8000000119209","images/chair5.png","","","memory_trial","1","definitely_old","","","","","","",""
"html-keyboard-response","262","620187","0.0-15.0-0.109","1651","2","""event"",""trial"",""time""
""fullscreenenter"",""1"",""1785""
","
","
","""event"",""trial"",""time""
""fullscreenenter"",""1"",""1785""
","
","","","","","","null","<div style=""font-size:60px;"">+</div>","null","","fixation","","","","","","","","",""
"memory-trial","263","622165","0.0-15.0-1.109","1651","2","""event"",""trial"",""time""
""fullscreenenter"",""1"",""1785""
","
","
","""event"",""trial"",""time""
""fullscreenenter"",""1"",""1785""
","
","","","","","","970.8000000119209","images/boat1.png","","","memory_trial","1","definitely_old","","","","","","",""
"html-keyboard-response","264","622678","0.0-15.0-0.110","1651","2","""event"",""trial"",""time""
""fullscreenenter"",""1"",""1785""
","
","
","""event"",""trial"",""time""
""fullscreenenter"",""1"",""1785""
","
","","","","","","null","<div style=""font-size:60px;"">+</div>","null","","fixation","","","","","","","","",""
"memory-trial","265","625712","0.0-15.0-1.110","1651","2","""event"",""trial"",""time""
""fullscreenenter"",""1"",""1785""
","
","
","""event"",""trial"",""time""
""fullscreenenter"",""1"",""1785""
","
","","","","","","1997.699999988079","images/feline4.png","","","memory_trial","3","maybe_new","","","","","","",""
"html-keyboard-response","266","626224","0.0-15.0-0.111","1651","2","""event"",""trial"",""time""
""fullscreenenter"",""1"",""1785""
","
","
","""event"",""trial"",""time""
""fullscreenenter"",""1"",""1785""
","
","","","","","","null","<div style=""font-size:60px;"">+</div>","null","","fixation","","","","","","","","",""
"memory-trial","267","629880","0.0-15.0-1.111","1651","2","""event"",""trial"",""time""
""fullscreenenter"",""1"",""1785""
","
","
","""event"",""trial"",""time""
""fullscreenenter"",""1"",""1785""
","
","","","","","","2646.5","images/bed1.png","","","memory_trial","3","maybe_new","","","","","","",""
"html-keyboard-response","268","630389","0.0-15.0-0.112","1651","2","""event"",""trial"",""time""
""fullscreenenter"",""1"",""1785""
","
","
","""event"",""trial"",""time""
""fullscreenenter"",""1"",""1785""
","
","","","","","","null","<div style=""font-size:60px;"">+</div>","null","","fixation","","","","","","","","",""
"memory-trial","269","632474","0.0-15.0-1.112","1651","2","""event"",""trial"",""time""
""fullscreenenter"",""1"",""1785""
","
","
","""event"",""trial"",""time""
""fullscreenenter"",""1"",""1785""
","
","","","","","","1081.7000000476837","images/apple2.png","","","memory_trial","1","definitely_old","","","","","","",""
"html-keyboard-response","270","632982","0.0-15.0-0.113","1651","2","""event"",""trial"",""time""
""fullscreenenter"",""1"",""1785""
","
","
","""event"",""trial"",""time""
""fullscreenenter"",""1"",""1785""
","
","","","","","","null","<div style=""font-size:60px;"">+</div>","null","","fixation","","","","","","","","",""
"memory-trial","271","634997","0.0-15.0-1.113","1651","2","""event"",""trial"",""time""
""fullscreenenter"",""1"",""1785""
","
","
","""event"",""trial"",""time""
""fullscreenenter"",""1"",""1785""
","
","","","","","","995.9000000357628","images/chair3.png","","","memory_trial","4","definitely_new","","","","","","",""
"html-keyboard-response","272","635506","0.0-15.0-0.114","1651","2","""event"",""trial"",""time""
""fullscreenenter"",""1"",""1785""
","
","
","""event"",""trial"",""time""
""fullscreenenter"",""1"",""1785""
","
","","","","","","null","<div style=""font-size:60px;"">+</div>","null","","fixation","","","","","","","","",""
"memory-trial","273","637597","0.0-15.0-1.114","1651","2","""event"",""trial"",""time""
""fullscreenenter"",""1"",""1785""
","
","
","""event"",""trial"",""time""
""fullscreenenter"",""1"",""1785""
","
","","","","","","1072.5","images/sofa5.png","","","memory_trial","4","definitely_new","","","","","","",""
"html-keyboard-response","274","638106","0.0-15.0-0.115","1651","2","""event"",""trial"",""time""
""fullscreenenter"",""1"",""1785""
","
","
","""event"",""trial"",""time""
""fullscreenenter"",""1"",""1785""
","
","","","","","","null","<div style=""font-size:60px;"">+</div>","null","","fixation","","","","","","","","",""
"memory-trial","275","639935","0.0-15.0-1.115","1651","2","""event"",""trial"",""time""
""fullscreenenter"",""1"",""1785""
","
","
","""event"",""trial"",""time""
""fullscreenenter"",""1"",""1785""
","
","","","","","","812.6999999880791","images/dog5.png","","","memory_trial","4","definitely_new","","","","","","",""
"html-keyboard-response","276","640437","0.0-15.0-0.116","1651","2","""event"",""trial"",""time""
""fullscreenenter"",""1"",""1785""
","
","
","""event"",""trial"",""time""
""fullscreenenter"",""1"",""1785""
","
","","","","","","null","<div style=""font-size:60px;"">+</div>","null","","fixation","","","","","","","","",""
"memory-trial","277","642353","0.0-15.0-1.116","1651","2","""event"",""trial"",""time""
""fullscreenenter"",""1"",""1785""
","
","
","""event"",""trial"",""time""
""fullscreenenter"",""1"",""1785""
","
","","","","","","909.1000000238419","images/tree2.png","","","memory_trial","1","definitely_old","","","","","","",""
"html-keyboard-response","278","642858","0.0-15.0-0.117","1651","2","""event"",""trial"",""time""
""fullscreenenter"",""1"",""1785""
","
","
","""event"",""trial"",""time""
""fullscreenenter"",""1"",""1785""
","
","","","","","","null","<div style=""font-size:60px;"">+</div>","null","","fixation","","","","","","","","",""
"memory-trial","279","645222","0.0-15.0-1.117","1651","2","""event"",""trial"",""time""
""fullscreenenter"",""1"",""1785""
","
","
","""event"",""trial"",""time""
""fullscreenenter"",""1"",""1785""
","
","","","","","","1352.800000011921","images/cow5.png","","","memory_trial","3","maybe_new","","","","","","",""
"html-keyboard-response","280","645731","0.0-15.0-0.118","1651","2","""event"",""trial"",""time""
""fullscreenenter"",""1"",""1785""
","
","
","""event"",""trial"",""time""
""fullscreenenter"",""1"",""1785""
","
","","","","","","null","<div style=""font-size:60px;"">+</div>","null","","fixation","","","","","","","","",""
"memory-trial","281","647888","0.0-15.0-1.118","1651","2","""event"",""trial"",""time""
""fullscreenenter"",""1"",""1785""
","
","
","""event"",""trial"",""time""
""fullscreenenter"",""1"",""1785""
","
","","","","","","1149.5","images/rodent2.png","","","memory_trial","1","definitely_old","","","","","","",""
"html-keyboard-response","282","648395","0.0-15.0-0.119","1651","2","""event"",""trial"",""time""
""fullscreenenter"",""1"",""1785""
","
","
","""event"",""trial"",""time""
""fullscreenenter"",""1"",""1785""
","
","","","","","","null","<div style=""font-size:60px;"">+</div>","null","","fixation","","","","","","","","",""
"memory-trial","283","650601","0.0-15.0-1.119","1651","2","""event"",""trial"",""time""
""fullscreenenter"",""1"",""1785""
","
","
","""event"",""trial"",""time""
""fullscreenenter"",""1"",""1785""
","
","","","","","","1197","images/truck4.png","","","memory_trial","4","definitely_new","","","","","","",""
"preload","284","656710","0.0-16.0","1651","2","""event"",""trial"",""time""
""fullscreenenter"",""1"",""1785""
","
","
","""event"",""trial"",""time""
""fullscreenenter"",""1"",""1785""
","
","true","false","[]","[]","[]","","","","","","","","","","","","","",""
"learning-instructions","285","663814","0.0-17.0-0.0-0.0-0.0","1651","2","""event"",""trial"",""time""
""fullscreenenter"",""1"",""1785""
","
","
","""event"",""trial"",""time""
""fullscreenenter"",""1"",""1785""
","
","","","","","","1814.6000000238419","<p> We're now going to ask you to return your farm animals to barns again. </p>","","0","instructions","","","","","","","","",""
"learning-instructions","286","670131","0.0-17.0-0.0-0.0-0.1","1651","2","""event"",""trial"",""time""
""fullscreenenter"",""1"",""1785""
","
","
","""event"",""trial"",""time""
""fullscreenenter"",""1"",""1785""
","
","","","","","","891.6999999880791","<p> On each trial, you will see a farm animal. Select the barn where you think the animal belongs. </p>","","0","instructions","","","","","","","","",""
"learning-instructions","287","678491","0.0-17.0-0.0-0.0-0.2","1651","2","""event"",""trial"",""time""
""fullscreenenter"",""1"",""1785""
","
","
","""event"",""trial"",""time""
""fullscreenenter"",""1"",""1785""
","
","","","","","","1291.699999988079","<p> To make your selection, think about what you learned last week. You will NOT receive any feedback about your choice. </p>","","0","instructions","","","","","","","","",""
"learning-instructions","288","698200","0.0-17.0-0.0-0.0-0.3","1651","2","""event"",""trial"",""time""
""fullscreenenter"",""1"",""1785""
","
","
","""event"",""trial"",""time""
""fullscreenenter"",""1"",""1785""
","
","","","","","","11600.899999976158","<p> You should use the 1 key to select the barn on the left, the 2 key to select the barn in the middle, and the 3 key to select the barn on the right. </p><br><div class=""choice-mem-instructions-grid""> <div class=""choice-mem-option""><img src=""images/animals_choice1.png"" class=""choice-mem-option-img"" stage=""instructions"" position=""0"" ><div class=""choice-mem-option-text""> Press ""1."" </div></div><div class=""choice-mem-option""><img src=""images/animals_choice2.png"" class=""choice-mem-option-img"" stage=""instructions"" position=""1"" ><div class=""choice-mem-option-text""> Press ""2."" </div></div><div class=""choice-mem-option""><img src=""images/animals_choice3.png"" class=""choice-mem-option-img"" stage=""instructions"" position=""2"" ><div class=""choice-mem-option-text""> Press ""3."" </div></div></div>","","0","instructions","","","","","","","","",""
"learning-instructions","289","705587","0.0-17.0-0.0-0.0-0.4","1651","2","""event"",""trial"",""time""
""fullscreenenter"",""1"",""1785""
","
","
","""event"",""trial"",""time""
""fullscreenenter"",""1"",""1785""
","
","","","","","","1108.8999999761581","<p> You will have 10 seconds to make each selection. Try to respond before time runs out! </p>","","0","instructions","","","","","","","","",""
"learning-instructions","290","708614","0.0-17.0-0.0-1.0","1651","2","""event"",""trial"",""time""
""fullscreenenter"",""1"",""1785""
","
","
","""event"",""trial"",""time""
""fullscreenenter"",""1"",""1785""
","
","","","","","","944.3000000119209","<p> You are now ready to begin the game. </p>","","0","instructions","","","","","","","","",""
"html-keyboard-response","291","709247","0.0-17.0-0.0-2.0-0.0","1651","2","""event"",""trial"",""time""
""fullscreenenter"",""1"",""1785""
","
","
","""event"",""trial"",""time""
""fullscreenenter"",""1"",""1785""
","
","","","","","","null","<div style=""font-size:60px;"">+</div>","null","","fixation","","","","","","","","",""
"choice-memory-trial","292","712746","0.0-17.0-0.0-2.0-1.0","1651","2","""event"",""trial"",""time""
