"trial_type","trial_index","time_elapsed","internal_node_id","subject_id","task_version","interactions","blur_events","focus_events","fullscreenenter_events","fullscreenexit_events","success","timeout","failed_images","failed_audio","failed_video","rt","stimulus","response","button_pressed","task_part","key_press","answer","correct","left_choice","middle_choice","right_choice","choice_positions","option_selected","block"
"pavlovia","0","7","0.0-0.0","1955","2","""event"",""trial"",""time""
""fullscreenenter"",""1"",""2413""
","
","
","""event"",""trial"",""time""
""fullscreenenter"",""1"",""2413""
","
","","","","","","","","","","","","","","","","","","",""
"fullscreen","1","3387","0.0-1.0","1955","2","""event"",""trial"",""time""
""fullscreenenter"",""1"",""2413""
","
","
","""event"",""trial"",""time""
""fullscreenenter"",""1"",""2413""
","
","true","","","","","","","","","","","","","","","","","",""
"preload","2","4226","0.0-2.0","1955","2","""event"",""trial"",""time""
""fullscreenenter"",""1"",""2413""
","
","
","""event"",""trial"",""time""
""fullscreenenter"",""1"",""2413""
","
","true","false","[]","[]","[]","","","","","","","","","","","","","",""
"audio-keyboard-response","3","6875","0.0-3.0","1955","2","""event"",""trial"",""time""
""fullscreenenter"",""1"",""2413""
","
","
","""event"",""trial"",""time""
""fullscreenenter"",""1"",""2413""
","
","","","","","","2647.074829931973","audio/beep_loop.wav"," ","","","","","","","","","","",""
"audio-button-response","4","8391","0.0-4.0","1955","2","""event"",""trial"",""time""
""fullscreenenter"",""1"",""2413""
","
","
","""event"",""trial"",""time""
""fullscreenenter"",""1"",""2413""
","
","","","","","","1509","audio/turtle.wav","3","","","","","","","","","","",""
"audio-button-response","5","10776","0.0-5.0","1955","2","""event"",""trial"",""time""
""fullscreenenter"",""1"",""2413""
","
","
","""event"",""trial"",""time""
""fullscreenenter"",""1"",""2413""
","
","","","","","","1382","audio/shark.wav","2","","","","","","","","","","",""
"preload","6","15131","0.0-6.0","1955","2","""event"",""trial"",""time""
""fullscreenenter"",""1"",""2413""
","
","
","""event"",""trial"",""time""
""fullscreenenter"",""1"",""2413""
","
","true","false","[]","[]","[]","","","","","","","","","","","","","",""
"learning-instructions","7","22859","0.0-7.0-0.0","1955","2","""event"",""trial"",""time""
""fullscreenenter"",""1"",""2413""
","
","
","""event"",""trial"",""time""
""fullscreenenter"",""1"",""2413""
","
","","","","","","2921.199999988079","<p> Welcome back! </p><p> Last week, you had to make choices about lots of different items.  </p>","","0","instructions","","","","","","","","",""
"learning-instructions","8","28574","0.0-7.0-0.1","1955","2","""event"",""trial"",""time""
""fullscreenenter"",""1"",""2413""
","
","
","""event"",""trial"",""time""
""fullscreenenter"",""1"",""2413""
","
","","","","","","1420.5","<p> Today, we are going to ask you to try to remember all the items. </p>","","0","instructions","","","","","","","","",""
"learning-instructions","9","41118","0.0-7.0-0.2","1955","2","""event"",""trial"",""time""
""fullscreenenter"",""1"",""2413""
","
","
","""event"",""trial"",""time""
""fullscreenenter"",""1"",""2413""
","
","","","","","","2413.199999988079","<p> On every trial, you will see an image. </p><p> The image may be an OLD image you saw during the games last week or it may be a NEW image that was not presented. </p>","","0","instructions","","","","","","","","",""
"learning-instructions","10","54089","0.0-7.0-0.3","1955","2","""event"",""trial"",""time""
""fullscreenenter"",""1"",""2413""
","
","
","""event"",""trial"",""time""
""fullscreenenter"",""1"",""2413""
","
","","","","","","4477.5","<p> You need to select whether the image is:  </p><p>  'Definitely old', 'Maybe old', 'Maybe new', or 'Definitely new.'  </p><div class=""mem-choice-instructions-grid""><div class=""choice-option"" id=""choice-option-1"" ><img src=""images/definitely_old_1.png"" id=""choice-option-img-1"" class=""choice-option-img"" stage=""1""></div><div class=""choice-option"" id=""choice-option-2"" ><img src=""images/maybe_old_1.png"" id=""choice-option-img-2"" class=""choice-option-img"" stage=""1""></div><div class=""choice-option"" id=""choice-option-3"" ><img src=""images/maybe_new_1.png"" id=""choice-option-img-3"" class=""choice-option-img"" stage=""1""></div><div class=""choice-option"" id=""choice-option-4"" > <img src=""images/definitely_new_1.png"" id=""choice-option-img-4"" class=""choice-option-img"" stage=""1""></div></div>","","0","instructions","","","","","","","","",""
"learning-instructions","11","62178","0.0-7.0-0.4","1955","2","""event"",""trial"",""time""
""fullscreenenter"",""1"",""2413""
","
","
","""event"",""trial"",""time""
""fullscreenenter"",""1"",""2413""
","
","","","","","","1397.800000011921","<p> You should use the 1, 2, 3, and 4 keys to make your responses.  </p><div class=""mem-choice-instructions-grid""><div class=""choice-option"" id=""choice-option-1"" ><img src=""images/definitely_old.png"" id=""choice-option-img-1"" class=""choice-option-img"" stage=""1""></div><div class=""choice-option"" id=""choice-option-2"" ><img src=""images/maybe_old.png"" id=""choice-option-img-2"" class=""choice-option-img"" stage=""1""></div><div class=""choice-option"" id=""choice-option-3"" ><img src=""images/maybe_new.png"" id=""choice-option-img-3"" class=""choice-option-img"" stage=""1""></div><div class=""choice-option"" id=""choice-option-4"" > <img src=""images/definitely_new.png"" id=""choice-option-img-4"" class=""choice-option-img"" stage=""1""></div></div>","","0","instructions","","","","","","","","",""
"learning-instructions","12","70031","0.0-7.0-0.5","1955","2","""event"",""trial"",""time""
""fullscreenenter"",""1"",""2413""
","
","
","""event"",""trial"",""time""
""fullscreenenter"",""1"",""2413""
","
","","","","","","1089.699999988079","<p> You will have 10 seconds to make each response.  </p><p>  Make sure to respond before time runs out! </p>","","0","instructions","","","","","","","","",""
"learning-instructions","13","78446","0.0-7.0-0.6","1955","2","""event"",""trial"",""time""
""fullscreenenter"",""1"",""2413""
","
","
","""event"",""trial"",""time""
""fullscreenenter"",""1"",""2413""
","
","","","","","","833","<p> Today, you will see each image ONCE only.  </p><p>  That means none of the images will repeat. </p>","","0","instructions","","","","","","","","",""
"learning-instructions","14","92767","0.0-7.0-0.7","1955","2","""event"",""trial"",""time""
""fullscreenenter"",""1"",""2413""
","
","
","""event"",""trial"",""time""
""fullscreenenter"",""1"",""2413""
","
","","","","","","1658.5","<p> Before you play the real game, it is time to practice. </p><p>  Just like in the real game, some of the images in the practice will be ones you have seen before. </p><p>  Others will be entirely new. </p>","","0","instructions","","","","","","","","",""
"html-button-response","15","95423","0.0-8.0","1955","2","""event"",""trial"",""time""
""fullscreenenter"",""1"",""2413""
","
","
","""event"",""trial"",""time""
""fullscreenenter"",""1"",""2413""
","
","","","","","","2551","<p> Ready to practice? </p><p> Remember, use the 1, 2, 3, and 4 keys to make your responses. </p>","0","","instructions","","","","","","","","",""
"html-keyboard-response","16","96031","0.0-9.0-0.0","1955","2","""event"",""trial"",""time""
""fullscreenenter"",""1"",""2413""
","
","
","""event"",""trial"",""time""
""fullscreenenter"",""1"",""2413""
","
","","","","","","null","<div style=""font-size:60px;"">+</div>","null","","fixation","","","","","","","","",""
"memory-trial","17","100129","0.0-9.0-1.0","1955","2","""event"",""trial"",""time""
""fullscreenenter"",""1"",""2413""
","
","
","""event"",""trial"",""time""
""fullscreenenter"",""1"",""2413""
","
","","","","","","3092.300000011921","images/ball4.png","","","practice","1","definitely_old","","","","","","",""
"html-keyboard-response","18","100634","0.0-9.0-0.1","1955","2","""event"",""trial"",""time""
""fullscreenenter"",""1"",""2413""
","
","
","""event"",""trial"",""time""
""fullscreenenter"",""1"",""2413""
","
","","","","","","null","<div style=""font-size:60px;"">+</div>","null","","fixation","","","","","","","","",""
"memory-trial","19","102739","0.0-9.0-1.1","1955","2","""event"",""trial"",""time""
""fullscreenenter"",""1"",""2413""
","
","
","""event"",""trial"",""time""
""fullscreenenter"",""1"",""2413""
","
","","","","","","1099.300000011921","images/ball3.png","","","practice","1","definitely_old","","","","","","",""
"html-keyboard-response","20","103240","0.0-9.0-0.2","1955","2","""event"",""trial"",""time""
""fullscreenenter"",""1"",""2413""
","
","
","""event"",""trial"",""time""
""fullscreenenter"",""1"",""2413""
","
","","","","","","null","<div style=""font-size:60px;"">+</div>","null","","fixation","","","","","","","","",""
"memory-trial","21","105301","0.0-9.0-1.2","1955","2","""event"",""trial"",""time""
""fullscreenenter"",""1"",""2413""
","
","
","""event"",""trial"",""time""
""fullscreenenter"",""1"",""2413""
","
","","","","","","1058.199999988079","images/racket1.png","","","practice","4","definitely_new","","","","","","",""
"html-keyboard-response","22","105803","0.0-9.0-0.3","1955","2","""event"",""trial"",""time""
""fullscreenenter"",""1"",""2413""
","
","
","""event"",""trial"",""time""
""fullscreenenter"",""1"",""2413""
","
","","","","","","null","<div style=""font-size:60px;"">+</div>","null","","fixation","","","","","","","","",""
"memory-trial","23","107800","0.0-9.0-1.3","1955","2","""event"",""trial"",""time""
""fullscreenenter"",""1"",""2413""
","
","
","""event"",""trial"",""time""
""fullscreenenter"",""1"",""2413""
","
","","","","","","994.3000000119209","images/racket2.png","","","practice","1","definitely_old","","","","","","",""
"html-keyboard-response","24","108302","0.0-9.0-0.4","1955","2","""event"",""trial"",""time""
""fullscreenenter"",""1"",""2413""
","
","
","""event"",""trial"",""time""
""fullscreenenter"",""1"",""2413""
","
","","","","","","null","<div style=""font-size:60px;"">+</div>","null","","fixation","","","","","","","","",""
"memory-trial","25","110217","0.0-9.0-1.4","1955","2","""event"",""trial"",""time""
""fullscreenenter"",""1"",""2413""
","
","
","""event"",""trial"",""time""
""fullscreenenter"",""1"",""2413""
","
","","","","","","912.5","images/racket4.png","","","practice","1","definitely_old","","","","","","",""
"html-keyboard-response","26","110723","0.0-9.0-0.5","1955","2","""event"",""trial"",""time""
""fullscreenenter"",""1"",""2413""
","
","
","""event"",""trial"",""time""
""fullscreenenter"",""1"",""2413""
","
","","","","","","null","<div style=""font-size:60px;"">+</div>","null","","fixation","","","","","","","","",""
"memory-trial","27","112853","0.0-9.0-1.5","1955","2","""event"",""trial"",""time""
""fullscreenenter"",""1"",""2413""
","
","
","""event"",""trial"",""time""
""fullscreenenter"",""1"",""2413""
","
","","","","","","1125.8999999761581","images/ball2.png","","","practice","4","definitely_new","","","","","","",""
"html-keyboard-response","28","113354","0.0-9.0-0.6","1955","2","""event"",""trial"",""time""
""fullscreenenter"",""1"",""2413""
","
","
","""event"",""trial"",""time""
""fullscreenenter"",""1"",""2413""
","
","","","","","","null","<div style=""font-size:60px;"">+</div>","null","","fixation","","","","","","","","",""
"memory-trial","29","115627","0.0-9.0-1.6","1955","2","""event"",""trial"",""time""
""fullscreenenter"",""1"",""2413""
","
","
","""event"",""trial"",""time""
""fullscreenenter"",""1"",""2413""
","
","","","","","","1271.9000000357628","images/ball1.png","","","practice","4","definitely_new","","","","","","",""
"html-keyboard-response","30","116128","0.0-9.0-0.7","1955","2","""event"",""trial"",""time""
""fullscreenenter"",""1"",""2413""
","
","
","""event"",""trial"",""time""
""fullscreenenter"",""1"",""2413""
","
","","","","","","null","<div style=""font-size:60px;"">+</div>","null","","fixation","","","","","","","","",""
"memory-trial","31","118083","0.0-9.0-1.7","1955","2","""event"",""trial"",""time""
""fullscreenenter"",""1"",""2413""
","
","
","""event"",""trial"",""time""
""fullscreenenter"",""1"",""2413""
","
","","","","","","950.1999999880791","images/racket3.png","","","practice","4","definitely_new","","","","","","",""
"learning-instructions","32","127486","0.0-10.0-0.0","1955","2","""event"",""trial"",""time""
""fullscreenenter"",""1"",""2413""
","
","
","""event"",""trial"",""time""
""fullscreenenter"",""1"",""2413""
","
","","","","","","1449.9000000357628","<p> Great! You have completed the practice. </p><p> Before you start, we're going to ask you a few questions about how the game works.  </p>","","0","instructions","","","","","","","","",""
"preload","33","131275","0.0-11.0","1955","2","""event"",""trial"",""time""
""fullscreenenter"",""1"",""2413""
","
","
","""event"",""trial"",""time""
""fullscreenenter"",""1"",""2413""
","
","true","false","[]","[]","[]","","","","","","","","","","","","","",""
"comp-q","34","138207","0.0-12.0-0.0","1955","2","""event"",""trial"",""time""
""fullscreenenter"",""1"",""2413""
","
","
","""event"",""trial"",""time""
""fullscreenenter"",""1"",""2413""
","
","","","","","","1102.0999999642372","<p> <b> True or False? </b> </p><p> In this game, you will only see each image once. </p>","","0","comp_question","","","true","","","","","",""
"comp-q","35","146307","0.0-12.0-1.0","1955","2","""event"",""trial"",""time""
""fullscreenenter"",""1"",""2413""
","
","
","""event"",""trial"",""time""
""fullscreenenter"",""1"",""2413""
","
","","","","","","1760.1000000238419","<p> <b> That's right! </b> You will see many different images <i> one time each </i> in this game. </p>","","0","comp_answer","","","","","","","","",""
"comp-q","36","153305","0.0-12.0-0.1","1955","2","""event"",""trial"",""time""
""fullscreenenter"",""1"",""2413""
","
","
","""event"",""trial"",""time""
""fullscreenenter"",""1"",""2413""
","
","","","","","","1200.5","<p> <b> True or False? </b> </p><p> You should use the mouse and click to make your response. </p>","","1","comp_question","","","true","","","","","",""
"comp-q","37","162136","0.0-12.0-1.1","1955","2","""event"",""trial"",""time""
""fullscreenenter"",""1"",""2413""
","
","
","""event"",""trial"",""time""
""fullscreenenter"",""1"",""2413""
","
","","","","","","1487.6000000238419","<p><b> That's right! </b> You should use the '1', '2', '3', and '4' keys to make your response. </p>","","0","comp_answer","","","","","","","","",""
"comp-q","38","169887","0.0-12.0-0.2","1955","2","""event"",""trial"",""time""
""fullscreenenter"",""1"",""2413""
","
","
","""event"",""trial"",""time""
""fullscreenenter"",""1"",""2413""
","
","","","","","","1756.0999999642372","<p> <b> True or False? </b> </p><p> You will have as much time as you want to make each choice. </p>","","1","comp_question","","","true","","","","","",""
"comp-q","39","177572","0.0-12.0-1.2","1955","2","""event"",""trial"",""time""
""fullscreenenter"",""1"",""2413""
","
","
","""event"",""trial"",""time""
""fullscreenenter"",""1"",""2413""
","
","","","","","","2295.300000011921","<p> <b> That's right! </b> You will only have 10 seconds to make each choice. </p>","","0","comp_answer","","","","","","","","",""
"learning-instructions","40","187550","0.0-13.0","1955","2","""event"",""trial"",""time""
""fullscreenenter"",""1"",""2413""
","
","
","""event"",""trial"",""time""
""fullscreenenter"",""1"",""2413""
","
","","","","","","1308.7000000476837","<p> Great! You are now ready to begin the game. </p><p> Remember, use the 1, 2, 3, and 4 keys to make your responses. </p>","","0","instructions","","","","","","","","",""
"preload","41","192835","0.0-14.0","1955","2","""event"",""trial"",""time""
""fullscreenenter"",""1"",""2413""
","
","
","""event"",""trial"",""time""
""fullscreenenter"",""1"",""2413""
","
","true","false","[]","[]","[]","","","","","","","","","","","","","",""
"html-keyboard-response","42","193337","0.0-15.0-0.0","1955","2","""event"",""trial"",""time""
""fullscreenenter"",""1"",""2413""
","
","
","""event"",""trial"",""time""
""fullscreenenter"",""1"",""2413""
","
","","","","","","null","<div style=""font-size:60px;"">+</div>","null","","fixation","","","","","","","","",""
"memory-trial","43","196001","0.0-15.0-1.0","1955","2","""event"",""trial"",""time""
""fullscreenenter"",""1"",""2413""
","
","
","""event"",""trial"",""time""
""fullscreenenter"",""1"",""2413""
","
","","","","","","1659","images/tree3.png","","","memory_trial","1","definitely_old","","","","","","",""
"html-keyboard-response","44","196504","0.0-15.0-0.1","1955","2","""event"",""trial"",""time""
""fullscreenenter"",""1"",""2413""
","
","
","""event"",""trial"",""time""
""fullscreenenter"",""1"",""2413""
","
","","","","","","null","<div style=""font-size:60px;"">+</div>","null","","fixation","","","","","","","","",""
"memory-trial","45","198431","0.0-15.0-1.1","1955","2","""event"",""trial"",""time""
""fullscreenenter"",""1"",""2413""
","
","
","""event"",""trial"",""time""
""fullscreenenter"",""1"",""2413""
","
","","","","","","923.8999999761581","images/flower3.png","","","memory_trial","1","definitely_old","","","","","","",""
"html-keyboard-response","46","198934","0.0-15.0-0.2","1955","2","""event"",""trial"",""time""
""fullscreenenter"",""1"",""2413""
","
","
","""event"",""trial"",""time""
""fullscreenenter"",""1"",""2413""
","
","","","","","","null","<div style=""font-size:60px;"">+</div>","null","","fixation","","","","","","","","",""
"memory-trial","47","200985","0.0-15.0-1.2","1955","2","""event"",""trial"",""time""
""fullscreenenter"",""1"",""2413""
","
","
","""event"",""trial"",""time""
""fullscreenenter"",""1"",""2413""
","
","","","","","","1047.300000011921","images/horse2.png","","","memory_trial","1","definitely_old","","","","","","",""
"html-keyboard-response","48","201490","0.0-15.0-0.3","1955","2","""event"",""trial"",""time""
""fullscreenenter"",""1"",""2413""
","
","
","""event"",""trial"",""time""
""fullscreenenter"",""1"",""2413""
","
","","","","","","null","<div style=""font-size:60px;"">+</div>","null","","fixation","","","","","","","","",""
"memory-trial","49","203585","0.0-15.0-1.3","1955","2","""event"",""trial"",""time""
""fullscreenenter"",""1"",""2413""
","
","
","""event"",""trial"",""time""
""fullscreenenter"",""1"",""2413""
","
","","","","","","1089.800000011921","images/sofa2.png","","","memory_trial","1","definitely_old","","","","","","",""
"html-keyboard-response","50","204087","0.0-15.0-0.4","1955","2","""event"",""trial"",""time""
""fullscreenenter"",""1"",""2413""
","
","
","""event"",""trial"",""time""
""fullscreenenter"",""1"",""2413""
","
","","","","","","null","<div style=""font-size:60px;"">+</div>","null","","fixation","","","","","","","","",""
"memory-trial","51","206058","0.0-15.0-1.4","1955","2","""event"",""trial"",""time""
""fullscreenenter"",""1"",""2413""
","
","
","""event"",""trial"",""time""
""fullscreenenter"",""1"",""2413""
","
","","","","","","968.3999999761581","images/train1.png","","","memory_trial","1","definitely_old","","","","","","",""
"html-keyboard-response","52","206563","0.0-15.0-0.5","1955","2","""event"",""trial"",""time""
""fullscreenenter"",""1"",""2413""
","
","
","""event"",""trial"",""time""
""fullscreenenter"",""1"",""2413""
","
","","","","","","null","<div style=""font-size:60px;"">+</div>","null","","fixation","","","","","","","","",""
"memory-trial","53","208659","0.0-15.0-1.5","1955","2","""event"",""trial"",""time""
""fullscreenenter"",""1"",""2413""
","
","
","""event"",""trial"",""time""
""fullscreenenter"",""1"",""2413""
","
","","","","","","1090.8999999761581","images/train5.png","","","memory_trial","1","definitely_old","","","","","","",""
"html-keyboard-response","54","209164","0.0-15.0-0.6","1955","2","""event"",""trial"",""time""
""fullscreenenter"",""1"",""2413""
","
","
","""event"",""trial"",""time""
""fullscreenenter"",""1"",""2413""
","
","","","","","","null","<div style=""font-size:60px;"">+</div>","null","","fixation","","","","","","","","",""
"memory-trial","55","210975","0.0-15.0-1.6","1955","2","""event"",""trial"",""time""
""fullscreenenter"",""1"",""2413""
","
","
","""event"",""trial"",""time""
""fullscreenenter"",""1"",""2413""
","
","","","","","","807.6000000238419","images/bed3.png","","","memory_trial","1","definitely_old","","","","","","",""
"html-keyboard-response","56","211480","0.0-15.0-0.7","1955","2","""event"",""trial"",""time""
""fullscreenenter"",""1"",""2413""
","
","
","""event"",""trial"",""time""
""fullscreenenter"",""1"",""2413""
","
","","","","","","null","<div style=""font-size:60px;"">+</div>","null","","fixation","","","","","","","","",""
"memory-trial","57","213471","0.0-15.0-1.7","1955","2","""event"",""trial"",""time""
""fullscreenenter"",""1"",""2413""
","
","
","""event"",""trial"",""time""
""fullscreenenter"",""1"",""2413""
","
","","","","","","989.1000000238419","images/plane5.png","","","memory_trial","1","definitely_old","","","","","","",""
"html-keyboard-response","58","213976","0.0-15.0-0.8","1955","2","""event"",""trial"",""time""
""fullscreenenter"",""1"",""2413""
","
","
","""event"",""trial"",""time""
""fullscreenenter"",""1"",""2413""
","
","","","","","","null","<div style=""font-size:60px;"">+</div>","null","","fixation","","","","","","","","",""
"memory-trial","59","215676","0.0-15.0-1.8","1955","2","""event"",""trial"",""time""
""fullscreenenter"",""1"",""2413""
","
","
","""event"",""trial"",""time""
""fullscreenenter"",""1"",""2413""
","
","","","","","","698.6999999880791","images/plane2.png","","","memory_trial","1","definitely_old","","","","","","",""
"html-keyboard-response","60","216181","0.0-15.0-0.9","1955","2","""event"",""trial"",""time""
""fullscreenenter"",""1"",""2413""
","
","
","""event"",""trial"",""time""
""fullscreenenter"",""1"",""2413""
","
","","","","","","null","<div style=""font-size:60px;"">+</div>","null","","fixation","","","","","","","","",""
"memory-trial","61","218074","0.0-15.0-1.9","1955","2","""event"",""trial"",""time""
""fullscreenenter"",""1"",""2413""
","
","
","""event"",""trial"",""time""
""fullscreenenter"",""1"",""2413""
","
","","","","","","888.8999999761581","images/rabbit5.png","","","memory_trial","1","definitely_old","","","","","","",""
"html-keyboard-response","62","218580","0.0-15.0-0.10","1955","2","""event"",""trial"",""time""
""fullscreenenter"",""1"",""2413""
","
","
","""event"",""trial"",""time""
""fullscreenenter"",""1"",""2413""
","
","","","","","","null","<div style=""font-size:60px;"">+</div>","null","","fixation","","","","","","","","",""
"memory-trial","63","220686","0.0-15.0-1.10","1955","2","""event"",""trial"",""time""
""fullscreenenter"",""1"",""2413""
","
","
","""event"",""trial"",""time""
""fullscreenenter"",""1"",""2413""
","
","","","","","","1100.3999999761581","images/flower5.png","","","memory_trial","1","definitely_old","","","","","","",""
"html-keyboard-response","64","221187","0.0-15.0-0.11","1955","2","""event"",""trial"",""time""
""fullscreenenter"",""1"",""2413""
","
","
","""event"",""trial"",""time""
""fullscreenenter"",""1"",""2413""
","
","","","","","","null","<div style=""font-size:60px;"">+</div>","null","","fixation","","","","","","","","",""
"memory-trial","65","223113","0.0-15.0-1.11","1955","2","""event"",""trial"",""time""
""fullscreenenter"",""1"",""2413""
","
","
","""event"",""trial"",""time""
""fullscreenenter"",""1"",""2413""
","
","","","","","","923.1999999880791","images/table5.png","","","memory_trial","1","definitely_old","","","","","","",""
"html-keyboard-response","66","223618","0.0-15.0-0.12","1955","2","""event"",""trial"",""time""
""fullscreenenter"",""1"",""2413""
","
","
","""event"",""trial"",""time""
""fullscreenenter"",""1"",""2413""
","
","","","","","","null","<div style=""font-size:60px;"">+</div>","null","","fixation","","","","","","","","",""
"memory-trial","67","225736","0.0-15.0-1.12","1955","2","""event"",""trial"",""time""
""fullscreenenter"",""1"",""2413""
","
","
","""event"",""trial"",""time""
""fullscreenenter"",""1"",""2413""
","
","","","","","","1113.0999999642372","images/sofa3.png","","","memory_trial","1","definitely_old","","","","","","",""
"html-keyboard-response","68","226241","0.0-15.0-0.13","1955","2","""event"",""trial"",""time""
""fullscreenenter"",""1"",""2413""
","
","
","""event"",""trial"",""time""
""fullscreenenter"",""1"",""2413""
","
","","","","","","null","<div style=""font-size:60px;"">+</div>","null","","fixation","","","","","","","","",""
"memory-trial","69","228007","0.0-15.0-1.13","1955","2","""event"",""trial"",""time""
""fullscreenenter"",""1"",""2413""
","
","
","""event"",""trial"",""time""
""fullscreenenter"",""1"",""2413""
","
","","","","","","762.8000000119209","images/chair5.png","","","memory_trial","1","definitely_old","","","","","","",""
"html-keyboard-response","70","228512","0.0-15.0-0.14","1955","2","""event"",""trial"",""time""
""fullscreenenter"",""1"",""2413""
","
","
","""event"",""trial"",""time""
""fullscreenenter"",""1"",""2413""
","
","","","","","","null","<div style=""font-size:60px;"">+</div>","null","","fixation","","","","","","","","",""
"memory-trial","71","230538","0.0-15.0-1.14","1955","2","""event"",""trial"",""time""
""fullscreenenter"",""1"",""2413""
","
","
","""event"",""trial"",""time""
""fullscreenenter"",""1"",""2413""
","
","","","","","","1024","images/bed2.png","","","memory_trial","4","definitely_new","","","","","","",""
"html-keyboard-response","72","231043","0.0-15.0-0.15","1955","2","""event"",""trial"",""time""
""fullscreenenter"",""1"",""2413""
","
","
","""event"",""trial"",""time""
""fullscreenenter"",""1"",""2413""
","
","","","","","","null","<div style=""font-size:60px;"">+</div>","null","","fixation","","","","","","","","",""
"memory-trial","73","233208","0.0-15.0-1.15","1955","2","""event"",""trial"",""time""
""fullscreenenter"",""1"",""2413""
","
","
","""event"",""trial"",""time""
""fullscreenenter"",""1"",""2413""
","
","","","","","","1159.3999999761581","images/chair1.png","","","memory_trial","1","definitely_old","","","","","","",""
"html-keyboard-response","74","233713","0.0-15.0-0.16","1955","2","""event"",""trial"",""time""
""fullscreenenter"",""1"",""2413""
","
","
","""event"",""trial"",""time""
""fullscreenenter"",""1"",""2413""
","
","","","","","","null","<div style=""font-size:60px;"">+</div>","null","","fixation","","","","","","","","",""
"memory-trial","75","235547","0.0-15.0-1.16","1955","2","""event"",""trial"",""time""
""fullscreenenter"",""1"",""2413""
","
","
","""event"",""trial"",""time""
""fullscreenenter"",""1"",""2413""
","
","","","","","","828.9000000357628","images/apple2.png","","","memory_trial","1","definitely_old","","","","","","",""
"html-keyboard-response","76","236052","0.0-15.0-0.17","1955","2","""event"",""trial"",""time""
""fullscreenenter"",""1"",""2413""
","
","
","""event"",""trial"",""time""
""fullscreenenter"",""1"",""2413""
","
","","","","","","null","<div style=""font-size:60px;"">+</div>","null","","fixation","","","","","","","","",""
"memory-trial","77","238368","0.0-15.0-1.17","1955","2","""event"",""trial"",""time""
""fullscreenenter"",""1"",""2413""
","
","
","""event"",""trial"",""time""
""fullscreenenter"",""1"",""2413""
","
","","","","","","1313.9000000357628","images/tree1.png","","","memory_trial","1","definitely_old","","","","","","",""
"html-keyboard-response","78","238873","0.0-15.0-0.18","1955","2","""event"",""trial"",""time""
""fullscreenenter"",""1"",""2413""
","
","
","""event"",""trial"",""time""
""fullscreenenter"",""1"",""2413""
","
","","","","","","null","<div style=""font-size:60px;"">+</div>","null","","fixation","","","","","","","","",""
"memory-trial","79","242092","0.0-15.0-1.18","1955","2","""event"",""trial"",""time""
""fullscreenenter"",""1"",""2413""
","
","
","""event"",""trial"",""time""
""fullscreenenter"",""1"",""2413""
","
","","","","","","2216.300000011921","images/straw5.png","","","memory_trial","3","maybe_new","","","","","","",""
"html-keyboard-response","80","242593","0.0-15.0-0.19","1955","2","""event"",""trial"",""time""
""fullscreenenter"",""1"",""2413""
","
","
","""event"",""trial"",""time""
""fullscreenenter"",""1"",""2413""
","
","","","","","","null","<div style=""font-size:60px;"">+</div>","null","","fixation","","","","","","","","",""
"memory-trial","81","244649","0.0-15.0-1.19","1955","2","""event"",""trial"",""time""
""fullscreenenter"",""1"",""2413""
","
","
","""event"",""trial"",""time""
""fullscreenenter"",""1"",""2413""
","
","","","","","","1049.699999988079","images/bush4.png","","","memory_trial","1","definitely_old","","","","","","",""
"html-keyboard-response","82","245154","0.0-15.0-0.20","1955","2","""event"",""trial"",""time""
""fullscreenenter"",""1"",""2413""
","
","
","""event"",""trial"",""time""
""fullscreenenter"",""1"",""2413""
","
","","","","","","null","<div style=""font-size:60px;"">+</div>","null","","fixation","","","","","","","","",""
"memory-trial","83","247214","0.0-15.0-1.20","1955","2","""event"",""trial"",""time""
""fullscreenenter"",""1"",""2413""
","
","
","""event"",""trial"",""time""
""fullscreenenter"",""1"",""2413""
","
","","","","","","1054.699999988079","images/plane4.png","","","memory_trial","4","definitely_new","","","","","","",""
"html-keyboard-response","84","247719","0.0-15.0-0.21","1955","2","""event"",""trial"",""time""
""fullscreenenter"",""1"",""2413""
","
","
","""event"",""trial"",""time""
""fullscreenenter"",""1"",""2413""
","
","","","","","","null","<div style=""font-size:60px;"">+</div>","null","","fixation","","","","","","","","",""
"memory-trial","85","249757","0.0-15.0-1.21","1955","2","""event"",""trial"",""time""
""fullscreenenter"",""1"",""2413""
","
","
","""event"",""trial"",""time""
""fullscreenenter"",""1"",""2413""
","
","","","","","","1032.699999988079","images/straw2.png","","","memory_trial","1","definitely_old","","","","","","",""
"html-keyboard-response","86","250262","0.0-15.0-0.22","1955","2","""event"",""trial"",""time""
""fullscreenenter"",""1"",""2413""
","
","
","""event"",""trial"",""time""
""fullscreenenter"",""1"",""2413""
","
","","","","","","null","<div style=""font-size:60px;"">+</div>","null","","fixation","","","","","","","","",""
"memory-trial","87","252050","0.0-15.0-1.22","1955","2","""event"",""trial"",""time""
""fullscreenenter"",""1"",""2413""
","
","
","""event"",""trial"",""time""
""fullscreenenter"",""1"",""2413""
","
","","","","","","784.6000000238419","images/bush2.png","","","memory_trial","1","definitely_old","","","","","","",""
"html-keyboard-response","88","252555","0.0-15.0-0.23","1955","2","""event"",""trial"",""time""
""fullscreenenter"",""1"",""2413""
","
","
","""event"",""trial"",""time""
""fullscreenenter"",""1"",""2413""
","
","","","","","","null","<div style=""font-size:60px;"">+</div>","null","","fixation","","","","","","","","",""
"memory-trial","89","254897","0.0-15.0-1.23","1955","2","""event"",""trial"",""time""
""fullscreenenter"",""1"",""2413""
","
","
","""event"",""trial"",""time""
""fullscreenenter"",""1"",""2413""
","
","","","","","","1338.300000011921","images/cactus2.png","","","memory_trial","1","definitely_old","","","","","","",""
"html-keyboard-response","90","255399","0.0-15.0-0.24","1955","2","""event"",""trial"",""time""
""fullscreenenter"",""1"",""2413""
","
","
","""event"",""trial"",""time""
""fullscreenenter"",""1"",""2413""
","
","","","","","","null","<div style=""font-size:60px;"">+</div>","null","","fixation","","","","","","","","",""
"memory-trial","91","257303","0.0-15.0-1.24","1955","2","""event"",""trial"",""time""
""fullscreenenter"",""1"",""2413""
","
","
","""event"",""trial"",""time""
""fullscreenenter"",""1"",""2413""
","
","","","","","","900.6000000238419","images/cow4.png","","","memory_trial","1","definitely_old","","","","","","",""
"html-keyboard-response","92","257808","0.0-15.0-0.25","1955","2","""event"",""trial"",""time""
""fullscreenenter"",""1"",""2413""
","
","
","""event"",""trial"",""time""
""fullscreenenter"",""1"",""2413""
","
","","","","","","null","<div style=""font-size:60px;"">+</div>","null","","fixation","","","","","","","","",""
"memory-trial","93","260688","0.0-15.0-1.25","1955","2","""event"",""trial"",""time""
""fullscreenenter"",""1"",""2413""
","
","
","""event"",""trial"",""time""
""fullscreenenter"",""1"",""2413""
","
","","","","","","1877.8999999761581","images/dog3.png","","","memory_trial","1","definitely_old","","","","","","",""
"html-keyboard-response","94","261190","0.0-15.0-0.26","1955","2","""event"",""trial"",""time""
""fullscreenenter"",""1"",""2413""
","
","
","""event"",""trial"",""time""
""fullscreenenter"",""1"",""2413""
","
","","","","","","null","<div style=""font-size:60px;"">+</div>","null","","fixation","","","","","","","","",""
"memory-trial","95","263455","0.0-15.0-1.26","1955","2","""event"",""trial"",""time""
""fullscreenenter"",""1"",""2413""
","
","
","""event"",""trial"",""time""
""fullscreenenter"",""1"",""2413""
","
","","","","","","1264.1000000238419","images/banana5.png","","","memory_trial","1","definitely_old","","","","","","",""
"html-keyboard-response","96","263961","0.0-15.0-0.27","1955","2","""event"",""trial"",""time""
""fullscreenenter"",""1"",""2413""
","
","
","""event"",""trial"",""time""
""fullscreenenter"",""1"",""2413""
","
","","","","","","null","<div style=""font-size:60px;"">+</div>","null","","fixation","","","","","","","","",""
"memory-trial","97","265685","0.0-15.0-1.27","1955","2","""event"",""trial"",""time""
""fullscreenenter"",""1"",""2413""
","
","
","""event"",""trial"",""time""
""fullscreenenter"",""1"",""2413""
","
","","","","","","720.2999999523163","images/banana3.png","","","memory_trial","1","definitely_old","","","","","","",""
"html-keyboard-response","98","266186","0.0-15.0-0.28","1955","2","""event"",""trial"",""time""
""fullscreenenter"",""1"",""2413""
","
","
","""event"",""trial"",""time""
""fullscreenenter"",""1"",""2413""
","
","","","","","","null","<div style=""font-size:60px;"">+</div>","null","","fixation","","","","","","","","",""
"memory-trial","99","268036","0.0-15.0-1.28","1955","2","""event"",""trial"",""time""
""fullscreenenter"",""1"",""2413""
","
","
","""event"",""trial"",""time""
""fullscreenenter"",""1"",""2413""
","
","","","","","","846.8000000119209","images/horse4.png","","","memory_trial","1","definitely_old","","","","","","",""
"html-keyboard-response","100","268541","0.0-15.0-0.29","1955","2","""event"",""trial"",""time""
""fullscreenenter"",""1"",""2413""
","
","
","""event"",""trial"",""time""
""fullscreenenter"",""1"",""2413""
","
","","","","","","null","<div style=""font-size:60px;"">+</div>","null","","fixation","","","","","","","","",""
"memory-trial","101","270949","0.0-15.0-1.29","1955","2","""event"",""trial"",""time""
""fullscreenenter"",""1"",""2413""
","
","
","""event"",""trial"",""time""
""fullscreenenter"",""1"",""2413""
","
","","","","","","1405.800000011921","images/feline3.png","","","memory_trial","1","definitely_old","","","","","","",""
"html-keyboard-response","102","271455","0.0-15.0-0.30","1955","2","""event"",""trial"",""time""
""fullscreenenter"",""1"",""2413""
","
","
","""event"",""trial"",""time""
""fullscreenenter"",""1"",""2413""
","
","","","","","","null","<div style=""font-size:60px;"">+</div>","null","","fixation","","","","","","","","",""
"memory-trial","103","273480","0.0-15.0-1.30","1955","2","""event"",""trial"",""time""
""fullscreenenter"",""1"",""2413""
","
","
","""event"",""trial"",""time""
""fullscreenenter"",""1"",""2413""
","
","","","","","","1022.6999999880791","images/orange3.png","","","memory_trial","4","definitely_new","","","","","","",""
"html-keyboard-response","104","273985","0.0-15.0-0.31","1955","2","""event"",""trial"",""time""
""fullscreenenter"",""1"",""2413""
","
","
","""event"",""trial"",""time""
""fullscreenenter"",""1"",""2413""
","
","","","","","","null","<div style=""font-size:60px;"">+</div>","null","","fixation","","","","","","","","",""
"memory-trial","105","276058","0.0-15.0-1.31","1955","2","""event"",""trial"",""time""
""fullscreenenter"",""1"",""2413""
","
","
","""event"",""trial"",""time""
""fullscreenenter"",""1"",""2413""
","
","","","","","","1068.6000000238419","images/feline2.png","","","memory_trial","1","definitely_old","","","","","","",""
"html-keyboard-response","106","276563","0.0-15.0-0.32","1955","2","""event"",""trial"",""time""
""fullscreenenter"",""1"",""2413""
","
","
","""event"",""trial"",""time""
""fullscreenenter"",""1"",""2413""
","
","","","","","","null","<div style=""font-size:60px;"">+</div>","null","","fixation","","","","","","","","",""
"memory-trial","107","278565","0.0-15.0-1.32","1955","2","""event"",""trial"",""time""
""fullscreenenter"",""1"",""2413""
","
","
","""event"",""trial"",""time""
""fullscreenenter"",""1"",""2413""
","
","","","","","","999.5","images/train3.png","","","memory_trial","4","definitely_new","","","","","","",""
"html-keyboard-response","108","279070","0.0-15.0-0.33","1955","2","""event"",""trial"",""time""
""fullscreenenter"",""1"",""2413""
","
","
","""event"",""trial"",""time""
""fullscreenenter"",""1"",""2413""
","
","","","","","","null","<div style=""font-size:60px;"">+</div>","null","","fixation","","","","","","","","",""
"memory-trial","109","281064","0.0-15.0-1.33","1955","2","""event"",""trial"",""time""
""fullscreenenter"",""1"",""2413""
","
","
","""event"",""trial"",""time""
""fullscreenenter"",""1"",""2413""
","
","","","","","","989.8999999761581","images/apple1.png","","","memory_trial","1","definitely_old","","","","","","",""
"html-keyboard-response","110","281566","0.0-15.0-0.34","1955","2","""event"",""trial"",""time""
""fullscreenenter"",""1"",""2413""
","
","
","""event"",""trial"",""time""
""fullscreenenter"",""1"",""2413""
","
","","","","","","null","<div style=""font-size:60px;"">+</div>","null","","fixation","","","","","","","","",""
"memory-trial","111","284178","0.0-15.0-1.34","1955","2","""event"",""trial"",""time""
""fullscreenenter"",""1"",""2413""
","
","
","""event"",""trial"",""time""
""fullscreenenter"",""1"",""2413""
","
","","","","","","1610","images/bed1.png","","","memory_trial","4","definitely_new","","","","","","",""
"html-keyboard-response","112","284683","0.0-15.0-0.35","1955","2","""event"",""trial"",""time""
""fullscreenenter"",""1"",""2413""
","
","
","""event"",""trial"",""time""
""fullscreenenter"",""1"",""2413""
","
","","","","","","null","<div style=""font-size:60px;"">+</div>","null","","fixation","","","","","","","","",""
"memory-trial","113","286709","0.0-15.0-1.35","1955","2","""event"",""trial"",""time""
""fullscreenenter"",""1"",""2413""
","
","
","""event"",""trial"",""time""
""fullscreenenter"",""1"",""2413""
","
","","","","","","1024.300000011921","images/orange4.png","","","memory_trial","4","definitely_new","","","","","","",""
"html-keyboard-response","114","287214","0.0-15.0-0.36","1955","2","""event"",""trial"",""time""
""fullscreenenter"",""1"",""2413""
","
","
","""event"",""trial"",""time""
""fullscreenenter"",""1"",""2413""
","
","","","","","","null","<div style=""font-size:60px;"">+</div>","null","","fixation","","","","","","","","",""
"memory-trial","115","290346","0.0-15.0-1.36","1955","2","""event"",""trial"",""time""
""fullscreenenter"",""1"",""2413""
","
","
","""event"",""trial"",""time""
""fullscreenenter"",""1"",""2413""
","
","","","","","","2127.399999976158","images/orange5.png","","","memory_trial","1","definitely_old","","","","","","",""
"html-keyboard-response","116","290848","0.0-15.0-0.37","1955","2","""event"",""trial"",""time""
""fullscreenenter"",""1"",""2413""
","
","
","""event"",""trial"",""time""
""fullscreenenter"",""1"",""2413""
","
","","","","","","null","<div style=""font-size:60px;"">+</div>","null","","fixation","","","","","","","","",""
"memory-trial","117","293181","0.0-15.0-1.37","1955","2","""event"",""trial"",""time""
""fullscreenenter"",""1"",""2413""
","
","
","""event"",""trial"",""time""
""fullscreenenter"",""1"",""2413""
","
","","","","","","1328.3999999761581","images/truck1.png","","","memory_trial","1","definitely_old","","","","","","",""
"html-keyboard-response","118","293682","0.0-15.0-0.38","1955","2","""event"",""trial"",""time""
""fullscreenenter"",""1"",""2413""
","
","
","""event"",""trial"",""time""
""fullscreenenter"",""1"",""2413""
","
","","","","","","null","<div style=""font-size:60px;"">+</div>","null","","fixation","","","","","","","","",""
"memory-trial","119","295869","0.0-15.0-1.38","1955","2","""event"",""trial"",""time""
""fullscreenenter"",""1"",""2413""
","
","
","""event"",""trial"",""time""
""fullscreenenter"",""1"",""2413""
","
","","","","","","1183.300000011921","images/cactus3.png","","","memory_trial","1","definitely_old","","","","","","",""
"html-keyboard-response","120","296370","0.0-15.0-0.39","1955","2","""event"",""trial"",""time""
""fullscreenenter"",""1"",""2413""
","
","
","""event"",""trial"",""time""
""fullscreenenter"",""1"",""2413""
","
","","","","","","null","<div style=""font-size:60px;"">+</div>","null","","fixation","","","","","","","","",""
"memory-trial","121","298377","0.0-15.0-1.39","1955","2","""event"",""trial"",""time""
""fullscreenenter"",""1"",""2413""
","
","
","""event"",""trial"",""time""
""fullscreenenter"",""1"",""2413""
","
","","","","","","1004.6999999880791","images/train2.png","","","memory_trial","1","definitely_old","","","","","","",""
"html-keyboard-response","122","298882","0.0-15.0-0.40","1955","2","""event"",""trial"",""time""
""fullscreenenter"",""1"",""2413""
","
","
","""event"",""trial"",""time""
""fullscreenenter"",""1"",""2413""
","
","","","","","","null","<div style=""font-size:60px;"">+</div>","null","","fixation","","","","","","","","",""
"memory-trial","123","300820","0.0-15.0-1.40","1955","2","""event"",""trial"",""time""
""fullscreenenter"",""1"",""2413""
","
","
","""event"",""trial"",""time""
""fullscreenenter"",""1"",""2413""
","
","","","","","","933.7999999523163","images/flower4.png","","","memory_trial","1","definitely_old","","","","","","",""
"html-keyboard-response","124","301325","0.0-15.0-0.41","1955","2","""event"",""trial"",""time""
""fullscreenenter"",""1"",""2413""
","
","
","""event"",""trial"",""time""
""fullscreenenter"",""1"",""2413""
","
","","","","","","null","<div style=""font-size:60px;"">+</div>","null","","fixation","","","","","","","","",""
"memory-trial","125","303519","0.0-15.0-1.41","1955","2","""event"",""trial"",""time""
""fullscreenenter"",""1"",""2413""
","
","
","""event"",""trial"",""time""
""fullscreenenter"",""1"",""2413""
","
","","","","","","1190.4000000357628","images/rabbit2.png","","","memory_trial","4","definitely_new","","","","","","",""
"html-keyboard-response","126","304024","0.0-15.0-0.42","1955","2","""event"",""trial"",""time""
""fullscreenenter"",""1"",""2413""
","
","
","""event"",""trial"",""time""
""fullscreenenter"",""1"",""2413""
","
","","","","","","null","<div style=""font-size:60px;"">+</div>","null","","fixation","","","","","","","","",""
"memory-trial","127","307008","0.0-15.0-1.42","1955","2","""event"",""trial"",""time""
""fullscreenenter"",""1"",""2413""
","
","
","""event"",""trial"",""time""
""fullscreenenter"",""1"",""2413""
","
","","","","","","1978.7000000476837","images/rodent3.png","","","memory_trial","1","definitely_old","","","","","","",""
"html-keyboard-response","128","307513","0.0-15.0-0.43","1955","2","""event"",""trial"",""time""
""fullscreenenter"",""1"",""2413""
","
","
","""event"",""trial"",""time""
""fullscreenenter"",""1"",""2413""
","
","","","","","","null","<div style=""font-size:60px;"">+</div>","null","","fixation","","","","","","","","",""
"memory-trial","129","310089","0.0-15.0-1.43","1955","2","""event"",""trial"",""time""
""fullscreenenter"",""1"",""2413""
","
","
","""event"",""trial"",""time""
""fullscreenenter"",""1"",""2413""
","
","","","","","","1572.3999999761581","images/feline1.png","","","memory_trial","4","definitely_new","","","","","","",""
"html-keyboard-response","130","310591","0.0-15.0-0.44","1955","2","""event"",""trial"",""time""
""fullscreenenter"",""1"",""2413""
","
","
","""event"",""trial"",""time""
""fullscreenenter"",""1"",""2413""
","
","","","","","","null","<div style=""font-size:60px;"">+</div>","null","","fixation","","","","","","","","",""
"memory-trial","131","313039","0.0-15.0-1.44","1955","2","""event"",""trial"",""time""
""fullscreenenter"",""1"",""2413""
","
","
","""event"",""trial"",""time""
""fullscreenenter"",""1"",""2413""
","
","","","","","","1441.7999999523163","images/table1.png","","","memory_trial","4","definitely_new","","","","","","",""
"html-keyboard-response","132","313544","0.0-15.0-0.45","1955","2","""event"",""trial"",""time""
""fullscreenenter"",""1"",""2413""
","
","
","""event"",""trial"",""time""
""fullscreenenter"",""1"",""2413""
","
","","","","","","null","<div style=""font-size:60px;"">+</div>","null","","fixation","","","","","","","","",""
"memory-trial","133","315907","0.0-15.0-1.45","1955","2","""event"",""trial"",""time""
""fullscreenenter"",""1"",""2413""
","
","
","""event"",""trial"",""time""
""fullscreenenter"",""1"",""2413""
","
","","","","","","1357.6000000238419","images/boat4.png","","","memory_trial","1","definitely_old","","","","","","",""
"html-keyboard-response","134","316412","0.0-15.0-0.46","1955","2","""event"",""trial"",""time""
""fullscreenenter"",""1"",""2413""
","
","
","""event"",""trial"",""time""
""fullscreenenter"",""1"",""2413""
","
","","","","","","null","<div style=""font-size:60px;"">+</div>","null","","fixation","","","","","","","","",""
"memory-trial","135","318751","0.0-15.0-1.46","1955","2","""event"",""trial"",""time""
""fullscreenenter"",""1"",""2413""
","
","
","""event"",""trial"",""time""
""fullscreenenter"",""1"",""2413""
","
","","","","","","1336.0999999642372","images/sheep3.png","","","memory_trial","1","definitely_old","","","","","","",""
"html-button-response","136","321034","0.0-15.0-2.46-0.46","1955","2","""event"",""trial"",""time""
""fullscreenenter"",""1"",""2413""
","
","
","""event"",""trial"",""time""
""fullscreenenter"",""1"",""2413""
","
","","","","","","2282.699999988079","<p> Take a break! </p><p> Click the button to continue. </p>","0","","break","","","","","","","","",""
"html-keyboard-response","137","321537","0.0-15.0-0.47","1955","2","""event"",""trial"",""time""
""fullscreenenter"",""1"",""2413""
","
","
","""event"",""trial"",""time""
""fullscreenenter"",""1"",""2413""
","
","","","","","","null","<div style=""font-size:60px;"">+</div>","null","","fixation","","","","","","","","",""
"memory-trial","138","323905","0.0-15.0-1.47","1955","2","""event"",""trial"",""time""
""fullscreenenter"",""1"",""2413""
","
","
","""event"",""trial"",""time""
""fullscreenenter"",""1"",""2413""
","
","","","","","","1363.6000000238419","images/table2.png","","","memory_trial","1","definitely_old","","","","","","",""
"html-keyboard-response","139","324410","0.0-15.0-0.48","1955","2","""event"",""trial"",""time""
""fullscreenenter"",""1"",""2413""
","
","
","""event"",""trial"",""time""
""fullscreenenter"",""1"",""2413""
","
","","","","","","null","<div style=""font-size:60px;"">+</div>","null","","fixation","","","","","","","","",""
"memory-trial","140","326796","0.0-15.0-1.48","1955","2","""event"",""trial"",""time""
""fullscreenenter"",""1"",""2413""
","
","
","""event"",""trial"",""time""
""fullscreenenter"",""1"",""2413""
","
","","","","","","1382.2000000476837","images/goat2.png","","","memory_trial","4","definitely_new","","","","","","",""
"html-keyboard-response","141","327301","0.0-15.0-0.49","1955","2","""event"",""trial"",""time""
""fullscreenenter"",""1"",""2413""
","
","
","""event"",""trial"",""time""
""fullscreenenter"",""1"",""2413""
","
","","","","","","null","<div style=""font-size:60px;"">+</div>","null","","fixation","","","","","","","","",""
"memory-trial","142","330320","0.0-15.0-1.49","1955","2","""event"",""trial"",""time""
""fullscreenenter"",""1"",""2413""
","
","
","""event"",""trial"",""time""
""fullscreenenter"",""1"",""2413""
","
","","","","","","2012.5","images/boat3.png","","","memory_trial","4","definitely_new","","","","","","",""
"html-keyboard-response","143","330825","0.0-15.0-0.50","1955","2","""event"",""trial"",""time""
""fullscreenenter"",""1"",""2413""
","
","
","""event"",""trial"",""time""
""fullscreenenter"",""1"",""2413""
","
","","","","","","null","<div style=""font-size:60px;"">+</div>","null","","fixation","","","","","","","","",""
"memory-trial","144","333570","0.0-15.0-1.50","1955","2","""event"",""trial"",""time""
""fullscreenenter"",""1"",""2413""
","
","
","""event"",""trial"",""time""
""fullscreenenter"",""1"",""2413""
","
","","","","","","1740.4000000357628","images/rodent2.png","","","memory_trial","4","definitely_new","","","","","","",""
"html-keyboard-response","145","334075","0.0-15.0-0.51","1955","2","""event"",""trial"",""time""
""fullscreenenter"",""1"",""2413""
","
","
","""event"",""trial"",""time""
""fullscreenenter"",""1"",""2413""
","
","","","","","","null","<div style=""font-size:60px;"">+</div>","null","","fixation","","","","","","","","",""
"memory-trial","146","337947","0.0-15.0-1.51","1955","2","""event"",""trial"",""time""
""fullscreenenter"",""1"",""2413""
","
","
","""event"",""trial"",""time""
""fullscreenenter"",""1"",""2413""
","
","","","","","","2865.899999976158","images/goat1.png","","","memory_trial","1","definitely_old","","","","","","",""
"html-keyboard-response","147","338452","0.0-15.0-0.52","1955","2","""event"",""trial"",""time""
""fullscreenenter"",""1"",""2413""
","
","
","""event"",""trial"",""time""
""fullscreenenter"",""1"",""2413""
","
","","","","","","null","<div style=""font-size:60px;"">+</div>","null","","fixation","","","","","","","","",""
"memory-trial","148","340657","0.0-15.0-1.52","1955","2","""event"",""trial"",""time""
""fullscreenenter"",""1"",""2413""
","
","
","""event"",""trial"",""time""
""fullscreenenter"",""1"",""2413""
","
","","","","","","1200.8999999761581","images/cactus5.png","","","memory_trial","4","definitely_new","","","","","","",""
"html-keyboard-response","149","341163","0.0-15.0-0.53","1955","2","""event"",""trial"",""time""
""fullscreenenter"",""1"",""2413""
","
","
","""event"",""trial"",""time""
""fullscreenenter"",""1"",""2413""
","
","","","","","","null","<div style=""font-size:60px;"">+</div>","null","","fixation","","","","","","","","",""
"memory-trial","150","343357","0.0-15.0-1.53","1955","2","""event"",""trial"",""time""
""fullscreenenter"",""1"",""2413""
","
","
","""event"",""trial"",""time""
""fullscreenenter"",""1"",""2413""
","
","","","","","","1189.8999999761581","images/cow1.png","","","memory_trial","1","definitely_old","","","","","","",""
"html-keyboard-response","151","343862","0.0-15.0-0.54","1955","2","""event"",""trial"",""time""
""fullscreenenter"",""1"",""2413""
","
","
","""event"",""trial"",""time""
""fullscreenenter"",""1"",""2413""
","
","","","","","","null","<div style=""font-size:60px;"">+</div>","null","","fixation","","","","","","","","",""
"memory-trial","152","346654","0.0-15.0-1.54","1955","2","""event"",""trial"",""time""
""fullscreenenter"",""1"",""2413""
","
","
","""event"",""trial"",""time""
""fullscreenenter"",""1"",""2413""
","
","","","","","","1787","images/table3.png","","","memory_trial","1","definitely_old","","","","","","",""
"html-keyboard-response","153","347159","0.0-15.0-0.55","1955","2","""event"",""trial"",""time""
""fullscreenenter"",""1"",""2413""
","
","
","""event"",""trial"",""time""
""fullscreenenter"",""1"",""2413""
","
","","","","","","null","<div style=""font-size:60px;"">+</div>","null","","fixation","","","","","","","","",""
"memory-trial","154","349411","0.0-15.0-1.55","1955","2","""event"",""trial"",""time""
""fullscreenenter"",""1"",""2413""
","
","
","""event"",""trial"",""time""
""fullscreenenter"",""1"",""2413""
","
","","","","","","1246.199999988079","images/boat1.png","","","memory_trial","4","definitely_new","","","","","","",""
"html-keyboard-response","155","349916","0.0-15.0-0.56","1955","2","""event"",""trial"",""time""
""fullscreenenter"",""1"",""2413""
","
","
","""event"",""trial"",""time""
""fullscreenenter"",""1"",""2413""
","
","","","","","","null","<div style=""font-size:60px;"">+</div>","null","","fixation","","","","","","","","",""
"memory-trial","156","352166","0.0-15.0-1.56","1955","2","""event"",""trial"",""time""
""fullscreenenter"",""1"",""2413""
","
","
","""event"",""trial"",""time""
""fullscreenenter"",""1"",""2413""
","
","","","","","","1245.1000000238419","images/tree4.png","","","memory_trial","1","definitely_old","","","","","","",""
"html-keyboard-response","157","352668","0.0-15.0-0.57","1955","2","""event"",""trial"",""time""
""fullscreenenter"",""1"",""2413""
","
","
","""event"",""trial"",""time""
""fullscreenenter"",""1"",""2413""
","
","","","","","","null","<div style=""font-size:60px;"">+</div>","null","","fixation","","","","","","","","",""
"memory-trial","158","354908","0.0-15.0-1.57","1955","2","""event"",""trial"",""time""
""fullscreenenter"",""1"",""2413""
","
","
","""event"",""trial"",""time""
""fullscreenenter"",""1"",""2413""
","
","","","","","","1238.9000000357628","images/banana1.png","","","memory_trial","1","definitely_old","","","","","","",""
"html-keyboard-response","159","355413","0.0-15.0-0.58","1955","2","""event"",""trial"",""time""
""fullscreenenter"",""1"",""2413""
","
","
","""event"",""trial"",""time""
""fullscreenenter"",""1"",""2413""
","
","","","","","","null","<div style=""font-size:60px;"">+</div>","null","","fixation","","","","","","","","",""
"memory-trial","160","358356","0.0-15.0-1.58","1955","2","""event"",""trial"",""time""
""fullscreenenter"",""1"",""2413""
","
","
","""event"",""trial"",""time""
""fullscreenenter"",""1"",""2413""
","
","","","","","","1937.699999988079","images/flower1.png","","","memory_trial","1","definitely_old","","","","","","",""
"html-keyboard-response","161","358861","0.0-15.0-0.59","1955","2","""event"",""trial"",""time""
""fullscreenenter"",""1"",""2413""
","
","
","""event"",""trial"",""time""
""fullscreenenter"",""1"",""2413""
","
","","","","","","null","<div style=""font-size:60px;"">+</div>","null","","fixation","","","","","","","","",""
"memory-trial","162","360917","0.0-15.0-1.59","1955","2","""event"",""trial"",""time""
""fullscreenenter"",""1"",""2413""
","
","
","""event"",""trial"",""time""
""fullscreenenter"",""1"",""2413""
","
","","","","","","1052.8999999761581","images/straw1.png","","","memory_trial","1","definitely_old","","","","","","",""
"html-keyboard-response","163","361421","0.0-15.0-0.60","1955","2","""event"",""trial"",""time""
""fullscreenenter"",""1"",""2413""
","
","
","""event"",""trial"",""time""
""fullscreenenter"",""1"",""2413""
","
","","","","","","null","<div style=""font-size:60px;"">+</div>","null","","fixation","","","","","","","","",""
"memory-trial","164","363439","0.0-15.0-1.60","1955","2","""event"",""trial"",""time""
""fullscreenenter"",""1"",""2413""
","
","
","""event"",""trial"",""time""
""fullscreenenter"",""1"",""2413""
","
","","","","","","1013.3999999761581","images/straw3.png","","","memory_trial","1","definitely_old","","","","","","",""
"html-keyboard-response","165","363940","0.0-15.0-0.61","1955","2","""event"",""trial"",""time""
""fullscreenenter"",""1"",""2413""
","
","
","""event"",""trial"",""time""
""fullscreenenter"",""1"",""2413""
","
","","","","","","null","<div style=""font-size:60px;"">+</div>","null","","fixation","","","","","","","","",""
"memory-trial","166","366372","0.0-15.0-1.61","1955","2","""event"",""trial"",""time""
""fullscreenenter"",""1"",""2413""
","
","
","""event"",""trial"",""time""
""fullscreenenter"",""1"",""2413""
","
","","","","","","1430","images/dog1.png","","","memory_trial","1","definitely_old","","","","","","",""
"html-keyboard-response","167","366877","0.0-15.0-0.62","1955","2","""event"",""trial"",""time""
""fullscreenenter"",""1"",""2413""
","
","
","""event"",""trial"",""time""
""fullscreenenter"",""1"",""2413""
","
","","","","","","null","<div style=""font-size:60px;"">+</div>","null","","fixation","","","","","","","","",""
"memory-trial","168","369321","0.0-15.0-1.62","1955","2","""event"",""trial"",""time""
""fullscreenenter"",""1"",""2413""
","
","
","""event"",""trial"",""time""
""fullscreenenter"",""1"",""2413""
","
","","","","","","1441","images/cow5.png","","","memory_trial","1","definitely_old","","","","","","",""
"html-keyboard-response","169","369826","0.0-15.0-0.63","1955","2","""event"",""trial"",""time""
""fullscreenenter"",""1"",""2413""
","
","
","""event"",""trial"",""time""
""fullscreenenter"",""1"",""2413""
","
","","","","","","null","<div style=""font-size:60px;"">+</div>","null","","fixation","","","","","","","","",""
"memory-trial","170","372136","0.0-15.0-1.63","1955","2","""event"",""trial"",""time""
""fullscreenenter"",""1"",""2413""
","
","
","""event"",""trial"",""time""
""fullscreenenter"",""1"",""2413""
","
","","","","","","1304.199999988079","images/boat2.png","","","memory_trial","4","definitely_new","","","","","","",""
"html-keyboard-response","171","372641","0.0-15.0-0.64","1955","2","""event"",""trial"",""time""
""fullscreenenter"",""1"",""2413""
","
","
","""event"",""trial"",""time""
""fullscreenenter"",""1"",""2413""
","
","","","","","","null","<div style=""font-size:60px;"">+</div>","null","","fixation","","","","","","","","",""
"memory-trial","172","374678","0.0-15.0-1.64","1955","2","""event"",""trial"",""time""
""fullscreenenter"",""1"",""2413""
","
","
","""event"",""trial"",""time""
""fullscreenenter"",""1"",""2413""
","
","","","","","","1032","images/feline5.png","","","memory_trial","4","definitely_new","","","","","","",""
"html-keyboard-response","173","375179","0.0-15.0-0.65","1955","2","""event"",""trial"",""time""
""fullscreenenter"",""1"",""2413""
","
","
","""event"",""trial"",""time""
""fullscreenenter"",""1"",""2413""
","
","","","","","","null","<div style=""font-size:60px;"">+</div>","null","","fixation","","","","","","","","",""
"memory-trial","174","377163","0.0-15.0-1.65","1955","2","""event"",""trial"",""time""
""fullscreenenter"",""1"",""2413""
","
","
","""event"",""trial"",""time""
""fullscreenenter"",""1"",""2413""
","
","","","","","","980.4000000357628","images/truck5.png","","","memory_trial","4","definitely_new","","","","","","",""
"html-keyboard-response","175","377668","0.0-15.0-0.66","1955","2","""event"",""trial"",""time""
""fullscreenenter"",""1"",""2413""
","
","
","""event"",""trial"",""time""
""fullscreenenter"",""1"",""2413""
","
","","","","","","null","<div style=""font-size:60px;"">+</div>","null","","fixation","","","","","","","","",""
"memory-trial","176","380066","0.0-15.0-1.66","1955","2","""event"",""trial"",""time""
""fullscreenenter"",""1"",""2413""
","
","
","""event"",""trial"",""time""
""fullscreenenter"",""1"",""2413""
","
","","","","","","1393.699999988079","images/apple3.png","","","memory_trial","1","definitely_old","","","","","","",""
"html-keyboard-response","177","380571","0.0-15.0-0.67","1955","2","""event"",""trial"",""time""
""fullscreenenter"",""1"",""2413""
","
","
","""event"",""trial"",""time""
""fullscreenenter"",""1"",""2413""
","
","","","","","","null","<div style=""font-size:60px;"">+</div>","null","","fixation","","","","","","","","",""
"memory-trial","178","382585","0.0-15.0-1.67","1955","2","""event"",""trial"",""time""
""fullscreenenter"",""1"",""2413""
","
","
","""event"",""trial"",""time""
""fullscreenenter"",""1"",""2413""
","
","","","","","","1011.5999999642372","images/banana4.png","","","memory_trial","1","definitely_old","","","","","","",""
"html-keyboard-response","179","383087","0.0-15.0-0.68","1955","2","""event"",""trial"",""time""
""fullscreenenter"",""1"",""2413""
","
","
","""event"",""trial"",""time""
""fullscreenenter"",""1"",""2413""
","
","","","","","","null","<div style=""font-size:60px;"">+</div>","null","","fixation","","","","","","","","",""
"memory-trial","180","385017","0.0-15.0-1.68","1955","2","""event"",""trial"",""time""
""fullscreenenter"",""1"",""2413""
","
","
","""event"",""trial"",""time""
""fullscreenenter"",""1"",""2413""
","
","","","","","","924.7999999523163","images/horse1.png","","","memory_trial","1","definitely_old","","","","","","",""
"html-keyboard-response","181","385522","0.0-15.0-0.69","1955","2","""event"",""trial"",""time""
""fullscreenenter"",""1"",""2413""
","
","
","""event"",""trial"",""time""
""fullscreenenter"",""1"",""2413""
","
","","","","","","null","<div style=""font-size:60px;"">+</div>","null","","fixation","","","","","","","","",""
"memory-trial","182","388674","0.0-15.0-1.69","1955","2","""event"",""trial"",""time""
""fullscreenenter"",""1"",""2413""
","
","
","""event"",""trial"",""time""
""fullscreenenter"",""1"",""2413""
","
","","","","","","2146.599999964237","images/straw4.png","","","memory_trial","1","definitely_old","","","","","","",""
"html-keyboard-response","183","389179","0.0-15.0-0.70","1955","2","""event"",""trial"",""time""
""fullscreenenter"",""1"",""2413""
","
","
","""event"",""trial"",""time""
""fullscreenenter"",""1"",""2413""
","
","","","","","","null","<div style=""font-size:60px;"">+</div>","null","","fixation","","","","","","","","",""
"memory-trial","184","391823","0.0-15.0-1.70","1955","2","""event"",""trial"",""time""
""fullscreenenter"",""1"",""2413""
","
","
","""event"",""trial"",""time""
""fullscreenenter"",""1"",""2413""
","
","","","","","","1639.6000000238419","images/rodent4.png","","","memory_trial","1","definitely_old","","","","","","",""
"html-keyboard-response","185","392325","0.0-15.0-0.71","1955","2","""event"",""trial"",""time""
""fullscreenenter"",""1"",""2413""
","
","
","""event"",""trial"",""time""
""fullscreenenter"",""1"",""2413""
","
","","","","","","null","<div style=""font-size:60px;"">+</div>","null","","fixation","","","","","","","","",""
"memory-trial","186","394670","0.0-15.0-1.71","1955","2","""event"",""trial"",""time""
""fullscreenenter"",""1"",""2413""
","
","
","""event"",""trial"",""time""
""fullscreenenter"",""1"",""2413""
","
","","","","","","1339.3999999761581","images/rabbit3.png","","","memory_trial","4","definitely_new","","","","","","",""
"html-keyboard-response","187","395175","0.0-15.0-0.72","1955","2","""event"",""trial"",""time""
""fullscreenenter"",""1"",""2413""
","
","
","""event"",""trial"",""time""
""fullscreenenter"",""1"",""2413""
","
","","","","","","null","<div style=""font-size:60px;"">+</div>","null","","fixation","","","","","","","","",""
"memory-trial","188","398147","0.0-15.0-1.72","1955","2","""event"",""trial"",""time""
""fullscreenenter"",""1"",""2413""
","
","
","""event"",""trial"",""time""
""fullscreenenter"",""1"",""2413""
","
","","","","","","1966.0999999642372","images/rodent1.png","","","memory_trial","1","definitely_old","","","","","","",""
"html-keyboard-response","189","398652","0.0-15.0-0.73","1955","2","""event"",""trial"",""time""
""fullscreenenter"",""1"",""2413""
","
","
","""event"",""trial"",""time""
""fullscreenenter"",""1"",""2413""
","
","","","","","","null","<div style=""font-size:60px;"">+</div>","null","","fixation","","","","","","","","",""
"memory-trial","190","401147","0.0-15.0-1.73","1955","2","""event"",""trial"",""time""
""fullscreenenter"",""1"",""2413""
","
","
","""event"",""trial"",""time""
""fullscreenenter"",""1"",""2413""
","
","","","","","","1492.7999999523163","images/feline4.png","","","memory_trial","1","definitely_old","","","","","","",""
"html-keyboard-response","191","401653","0.0-15.0-0.74","1955","2","""event"",""trial"",""time""
""fullscreenenter"",""1"",""2413""
","
","
","""event"",""trial"",""time""
""fullscreenenter"",""1"",""2413""
","
","","","","","","null","<div style=""font-size:60px;"">+</div>","null","","fixation","","","","","","","","",""
"memory-trial","192","403678","0.0-15.0-1.74","1955","2","""event"",""trial"",""time""
""fullscreenenter"",""1"",""2413""
","
","
","""event"",""trial"",""time""
""fullscreenenter"",""1"",""2413""
","
","","","","","","1023.8000000119209","images/chair2.png","","","memory_trial","1","definitely_old","","","","","","",""
"html-keyboard-response","193","404180","0.0-15.0-0.75","1955","2","""event"",""trial"",""time""
""fullscreenenter"",""1"",""2413""
","
","
","""event"",""trial"",""time""
""fullscreenenter"",""1"",""2413""
","
","","","","","","null","<div style=""font-size:60px;"">+</div>","null","","fixation","","","","","","","","",""
"memory-trial","194","406720","0.0-15.0-1.75","1955","2","""event"",""trial"",""time""
""fullscreenenter"",""1"",""2413""
","
","
","""event"",""trial"",""time""
""fullscreenenter"",""1"",""2413""
","
","","","","","","1534.3999999761581","images/bush3.png","","","memory_trial","1","definitely_old","","","","","","",""
"html-keyboard-response","195","407225","0.0-15.0-0.76","1955","2","""event"",""trial"",""time""
""fullscreenenter"",""1"",""2413""
","
","
","""event"",""trial"",""time""
""fullscreenenter"",""1"",""2413""
","
","","","","","","null","<div style=""font-size:60px;"">+</div>","null","","fixation","","","","","","","","",""
"memory-trial","196","409112","0.0-15.0-1.76","1955","2","""event"",""trial"",""time""
""fullscreenenter"",""1"",""2413""
","
","
","""event"",""trial"",""time""
""fullscreenenter"",""1"",""2413""
","
","","","","","","885.3000000119209","images/cactus1.png","","","memory_trial","1","definitely_old","","","","","","",""
"html-keyboard-response","197","409617","0.0-15.0-0.77","1955","2","""event"",""trial"",""time""
""fullscreenenter"",""1"",""2413""
","
","
","""event"",""trial"",""time""
""fullscreenenter"",""1"",""2413""
","
","","","","","","null","<div style=""font-size:60px;"">+</div>","null","","fixation","","","","","","","","",""
"memory-trial","198","411689","0.0-15.0-1.77","1955","2","""event"",""trial"",""time""
""fullscreenenter"",""1"",""2413""
","
","
","""event"",""trial"",""time""
""fullscreenenter"",""1"",""2413""
","
","","","","","","1069.300000011921","images/horse3.png","","","memory_trial","1","definitely_old","","","","","","",""
"html-keyboard-response","199","412192","0.0-15.0-0.78","1955","2","""event"",""trial"",""time""
""fullscreenenter"",""1"",""2413""
","
","
","""event"",""trial"",""time""
""fullscreenenter"",""1"",""2413""
","
","","","","","","null","<div style=""font-size:60px;"">+</div>","null","","fixation","","","","","","","","",""
"memory-trial","200","414156","0.0-15.0-1.78","1955","2","""event"",""trial"",""time""
""fullscreenenter"",""1"",""2413""
","
","
","""event"",""trial"",""time""
""fullscreenenter"",""1"",""2413""
","
","","","","","","958.4000000357628","images/rabbit4.png","","","memory_trial","1","definitely_old","","","","","","",""
"html-keyboard-response","201","414661","0.0-15.0-0.79","1955","2","""event"",""trial"",""time""
""fullscreenenter"",""1"",""2413""
","
","
","""event"",""trial"",""time""
""fullscreenenter"",""1"",""2413""
","
","","","","","","null","<div style=""font-size:60px;"">+</div>","null","","fixation","","","","","","","","",""
"memory-trial","202","417238","0.0-15.0-1.79","1955","2","""event"",""trial"",""time""
""fullscreenenter"",""1"",""2413""
","
","
","""event"",""trial"",""time""
""fullscreenenter"",""1"",""2413""
","
","","","","","","1571.6000000238419","images/truck4.png","","","memory_trial","1","definitely_old","","","","","","",""
"html-keyboard-response","203","417743","0.0-15.0-0.80","1955","2","""event"",""trial"",""time""
""fullscreenenter"",""1"",""2413""
","
","
","""event"",""trial"",""time""
""fullscreenenter"",""1"",""2413""
","
","","","","","","null","<div style=""font-size:60px;"">+</div>","null","","fixation","","","","","","","","",""
"memory-trial","204","419814","0.0-15.0-1.80","1955","2","""event"",""trial"",""time""
""fullscreenenter"",""1"",""2413""
","
","
","""event"",""trial"",""time""
""fullscreenenter"",""1"",""2413""
","
","","","","","","1065.2999999523163","images/goat5.png","","","memory_trial","1","definitely_old","","","","","","",""
"html-keyboard-response","205","420315","0.0-15.0-0.81","1955","2","""event"",""trial"",""time""
""fullscreenenter"",""1"",""2413""
","
","
","""event"",""trial"",""time""
""fullscreenenter"",""1"",""2413""
","
","","","","","","null","<div style=""font-size:60px;"">+</div>","null","","fixation","","","","","","","","",""
"memory-trial","206","422387","0.0-15.0-1.81","1955","2","""event"",""trial"",""time""
""fullscreenenter"",""1"",""2413""
","
","
","""event"",""trial"",""time""
""fullscreenenter"",""1"",""2413""
","
","","","","","","1070.699999988079","images/dog4.png","","","memory_trial","1","definitely_old","","","","","","",""
"html-keyboard-response","207","422891","0.0-15.0-0.82","1955","2","""event"",""trial"",""time""
""fullscreenenter"",""1"",""2413""
","
","
","""event"",""trial"",""time""
""fullscreenenter"",""1"",""2413""
","
","","","","","","null","<div style=""font-size:60px;"">+</div>","null","","fixation","","","","","","","","",""
"memory-trial","208","424964","0.0-15.0-1.82","1955","2","""event"",""trial"",""time""
""fullscreenenter"",""1"",""2413""
","
","
","""event"",""trial"",""time""
""fullscreenenter"",""1"",""2413""
","
","","","","","","1070.3999999761581","images/sofa4.png","","","memory_trial","4","definitely_new","","","","","","",""
"html-keyboard-response","209","425470","0.0-15.0-0.83","1955","2","""event"",""trial"",""time""
""fullscreenenter"",""1"",""2413""
","
","
","""event"",""trial"",""time""
""fullscreenenter"",""1"",""2413""
","
","","","","","","null","<div style=""font-size:60px;"">+</div>","null","","fixation","","","","","","","","",""
"memory-trial","210","427362","0.0-15.0-1.83","1955","2","""event"",""trial"",""time""
""fullscreenenter"",""1"",""2413""
","
","
","""event"",""trial"",""time""
""fullscreenenter"",""1"",""2413""
","
","","","","","","888.3000000119209","images/bed4.png","","","memory_trial","4","definitely_new","","","","","","",""
"html-keyboard-response","211","427867","0.0-15.0-0.84","1955","2","""event"",""trial"",""time""
""fullscreenenter"",""1"",""2413""
","
","
","""event"",""trial"",""time""
""fullscreenenter"",""1"",""2413""
","
","","","","","","null","<div style=""font-size:60px;"">+</div>","null","","fixation","","","","","","","","",""
"memory-trial","212","431570","0.0-15.0-1.84","1955","2","""event"",""trial"",""time""
""fullscreenenter"",""1"",""2413""
","
","
","""event"",""trial"",""time""
""fullscreenenter"",""1"",""2413""
","
","","","","","","2698.300000011921","images/sheep1.png","","","memory_trial","4","definitely_new","","","","","","",""
"html-keyboard-response","213","432075","0.0-15.0-0.85","1955","2","""event"",""trial"",""time""
""fullscreenenter"",""1"",""2413""
","
","
","""event"",""trial"",""time""
""fullscreenenter"",""1"",""2413""
","
","","","","","","null","<div style=""font-size:60px;"">+</div>","null","","fixation","","","","","","","","",""
"memory-trial","214","434020","0.0-15.0-1.85","1955","2","""event"",""trial"",""time""
""fullscreenenter"",""1"",""2413""
","
","
","""event"",""trial"",""time""
""fullscreenenter"",""1"",""2413""
","
","","","","","","942.5","images/dog2.png","","","memory_trial","4","definitely_new","","","","","","",""
"html-keyboard-response","215","434525","0.0-15.0-0.86","1955","2","""event"",""trial"",""time""
""fullscreenenter"",""1"",""2413""
","
","
","""event"",""trial"",""time""
""fullscreenenter"",""1"",""2413""
","
","","","","","","null","<div style=""font-size:60px;"">+</div>","null","","fixation","","","","","","","","",""
"memory-trial","216","436600","0.0-15.0-1.86","1955","2","""event"",""trial"",""time""
""fullscreenenter"",""1"",""2413""
","
","
","""event"",""trial"",""time""
""fullscreenenter"",""1"",""2413""
","
","","","","","","1069.8999999761581","images/plane3.png","","","memory_trial","4","definitely_new","","","","","","",""
"html-keyboard-response","217","437102","0.0-15.0-0.87","1955","2","""event"",""trial"",""time""
""fullscreenenter"",""1"",""2413""
","
","
","""event"",""trial"",""time""
""fullscreenenter"",""1"",""2413""
","
","","","","","","null","<div style=""font-size:60px;"">+</div>","null","","fixation","","","","","","","","",""
"memory-trial","218","439128","0.0-15.0-1.87","1955","2","""event"",""trial"",""time""
""fullscreenenter"",""1"",""2413""
","
","
","""event"",""trial"",""time""
""fullscreenenter"",""1"",""2413""
","
","","","","","","1023.5","images/sheep5.png","","","memory_trial","4","definitely_new","","","","","","",""
"html-keyboard-response","219","439633","0.0-15.0-0.88","1955","2","""event"",""trial"",""time""
""fullscreenenter"",""1"",""2413""
","
","
","""event"",""trial"",""time""
""fullscreenenter"",""1"",""2413""
","
","","","","","","null","<div style=""font-size:60px;"">+</div>","null","","fixation","","","","","","","","",""
"memory-trial","220","442278","0.0-15.0-1.88","1955","2","""event"",""trial"",""time""
""fullscreenenter"",""1"",""2413""
","
","
","""event"",""trial"",""time""
""fullscreenenter"",""1"",""2413""
","
","","","","","","1642.6000000238419","images/truck2.png","","","memory_trial","3","maybe_new","","","","","","",""
"html-keyboard-response","221","442779","0.0-15.0-0.89","1955","2","""event"",""trial"",""time""
""fullscreenenter"",""1"",""2413""
","
","
","""event"",""trial"",""time""
""fullscreenenter"",""1"",""2413""
","
","","","","","","null","<div style=""font-size:60px;"">+</div>","null","","fixation","","","","","","","","",""
"memory-trial","222","445037","0.0-15.0-1.89","1955","2","""event"",""trial"",""time""
""fullscreenenter"",""1"",""2413""
","
","
","""event"",""trial"",""time""
""fullscreenenter"",""1"",""2413""
","
","","","","","","1253.300000011921","images/cow2.png","","","memory_trial","1","definitely_old","","","","","","",""
"html-keyboard-response","223","445542","0.0-15.0-0.90","1955","2","""event"",""trial"",""time""
""fullscreenenter"",""1"",""2413""
","
","
","""event"",""trial"",""time""
""fullscreenenter"",""1"",""2413""
","
","","","","","","null","<div style=""font-size:60px;"">+</div>","null","","fixation","","","","","","","","",""
"memory-trial","224","447951","0.0-15.0-1.90","1955","2","""event"",""trial"",""time""
""fullscreenenter"",""1"",""2413""
","
","
","""event"",""trial"",""time""
""fullscreenenter"",""1"",""2413""
","
","","","","","","1404.199999988079","images/flower2.png","","","memory_trial","4","definitely_new","","","","","","",""
"html-keyboard-response","225","448456","0.0-15.0-0.91","1955","2","""event"",""trial"",""time""
""fullscreenenter"",""1"",""2413""
","
","
","""event"",""trial"",""time""
""fullscreenenter"",""1"",""2413""
","
","","","","","","null","<div style=""font-size:60px;"">+</div>","null","","fixation","","","","","","","","",""
"memory-trial","226","450450","0.0-15.0-1.91","1955","2","""event"",""trial"",""time""
""fullscreenenter"",""1"",""2413""
","
","
","""event"",""trial"",""time""
""fullscreenenter"",""1"",""2413""
","
","","","","","","987","images/banana2.png","","","memory_trial","1","definitely_old","","","","","","",""
"html-keyboard-response","227","450954","0.0-15.0-0.92","1955","2","""event"",""trial"",""time""
""fullscreenenter"",""1"",""2413""
","
","
","""event"",""trial"",""time""
""fullscreenenter"",""1"",""2413""
","
","","","","","","null","<div style=""font-size:60px;"">+</div>","null","","fixation","","","","","","","","",""
"memory-trial","228","453072","0.0-15.0-1.92","1955","2","""event"",""trial"",""time""
""fullscreenenter"",""1"",""2413""
","
","
","""event"",""trial"",""time""
""fullscreenenter"",""1"",""2413""
","
","","","","","","1116","images/tree2.png","","","memory_trial","1","definitely_old","","","","","","",""
"html-keyboard-response","229","453576","0.0-15.0-0.93","1955","2","""event"",""trial"",""time""
""fullscreenenter"",""1"",""2413""
","
","
","""event"",""trial"",""time""
""fullscreenenter"",""1"",""2413""
","
","","","","","","null","<div style=""font-size:60px;"">+</div>","null","","fixation","","","","","","","","",""
"memory-trial","230","455317","0.0-15.0-1.93","1955","2","""event"",""trial"",""time""
""fullscreenenter"",""1"",""2413""
","
","
","""event"",""trial"",""time""
""fullscreenenter"",""1"",""2413""
","
","","","","","","739.0999999642372","images/sheep2.png","","","memory_trial","4","definitely_new","","","","","","",""
"html-keyboard-response","231","455822","0.0-15.0-0.94","1955","2","""event"",""trial"",""time""
""fullscreenenter"",""1"",""2413""
","
","
","""event"",""trial"",""time""
""fullscreenenter"",""1"",""2413""
","
","","","","","","null","<div style=""font-size:60px;"">+</div>","null","","fixation","","","","","","","","",""
"memory-trial","232","457882","0.0-15.0-1.94","1955","2","""event"",""trial"",""time""
""fullscreenenter"",""1"",""2413""
","
","
","""event"",""trial"",""time""
""fullscreenenter"",""1"",""2413""
","
","","","","","","1057.4000000357628","images/rodent5.png","","","memory_trial","1","definitely_old","","","","","","",""
"html-keyboard-response","233","458386","0.0-15.0-0.95","1955","2","""event"",""trial"",""time""
""fullscreenenter"",""1"",""2413""
","
","
","""event"",""trial"",""time""
""fullscreenenter"",""1"",""2413""
","
","","","","","","null","<div style=""font-size:60px;"">+</div>","null","","fixation","","","","","","","","",""
"memory-trial","234","460370","0.0-15.0-1.95","1955","2","""event"",""trial"",""time""
""fullscreenenter"",""1"",""2413""
","
","
","""event"",""trial"",""time""
""fullscreenenter"",""1"",""2413""
","
","","","","","","979.8000000119209","images/goat3.png","","","memory_trial","4","definitely_new","","","","","","",""
"html-keyboard-response","235","460872","0.0-15.0-0.96","1955","2","""event"",""trial"",""time""
""fullscreenenter"",""1"",""2413""
","
","
","""event"",""trial"",""time""
""fullscreenenter"",""1"",""2413""
","
","","","","","","null","<div style=""font-size:60px;"">+</div>","null","","fixation","","","","","","","","",""
"memory-trial","236","462869","0.0-15.0-1.96","1955","2","""event"",""trial"",""time""
""fullscreenenter"",""1"",""2413""
","
","
","""event"",""trial"",""time""
""fullscreenenter"",""1"",""2413""
","
","","","","","","991.6000000238419","images/chair4.png","","","memory_trial","1","definitely_old","","","","","","",""
"html-keyboard-response","237","463374","0.0-15.0-0.97","1955","2","""event"",""trial"",""time""
""fullscreenenter"",""1"",""2413""
","
","
","""event"",""trial"",""time""
""fullscreenenter"",""1"",""2413""
","
","","","","","","null","<div style=""font-size:60px;"">+</div>","null","","fixation","","","","","","","","",""
"memory-trial","238","465603","0.0-15.0-1.97","1955","2","""event"",""trial"",""time""
""fullscreenenter"",""1"",""2413""
","
","
","""event"",""trial"",""time""
""fullscreenenter"",""1"",""2413""
","
","","","","","","1223.6000000238419","images/sofa5.png","","","memory_trial","4","definitely_new","","","","","","",""
"html-keyboard-response","239","466108","0.0-15.0-0.98","1955","2","""event"",""trial"",""time""
""fullscreenenter"",""1"",""2413""
","
","
","""event"",""trial"",""time""
""fullscreenenter"",""1"",""2413""
","
","","","","","","null","<div style=""font-size:60px;"">+</div>","null","","fixation","","","","","","","","",""
"memory-trial","240","468435","0.0-15.0-1.98","1955","2","""event"",""trial"",""time""
""fullscreenenter"",""1"",""2413""
","
","
","""event"",""trial"",""time""
""fullscreenenter"",""1"",""2413""
","
","","","","","","1324.300000011921","images/orange1.png","","","memory_trial","1","definitely_old","","","","","","",""
"html-keyboard-response","241","468941","0.0-15.0-0.99","1955","2","""event"",""trial"",""time""
""fullscreenenter"",""1"",""2413""
","
","
","""event"",""trial"",""time""
""fullscreenenter"",""1"",""2413""
","
","","","","","","null","<div style=""font-size:60px;"">+</div>","null","","fixation","","","","","","","","",""
"memory-trial","242","470967","0.0-15.0-1.99","1955","2","""event"",""trial"",""time""
""fullscreenenter"",""1"",""2413""
","
","
","""event"",""trial"",""time""
""fullscreenenter"",""1"",""2413""
","
","","","","","","1023.3999999761581","images/apple5.png","","","memory_trial","1","definitely_old","","","","","","",""
"html-keyboard-response","243","471471","0.0-15.0-0.100","1955","2","""event"",""trial"",""time""
""fullscreenenter"",""1"",""2413""
","
","
","""event"",""trial"",""time""
""fullscreenenter"",""1"",""2413""
","
","","","","","","null","<div style=""font-size:60px;"">+</div>","null","","fixation","","","","","","","","",""
"memory-trial","244","473735","0.0-15.0-1.100","1955","2","""event"",""trial"",""time""
""fullscreenenter"",""1"",""2413""
","
","
","""event"",""trial"",""time""
""fullscreenenter"",""1"",""2413""
","
","","","","","","1260","images/tree5.png","","","memory_trial","1","definitely_old","","","","","","",""
"html-keyboard-response","245","474240","0.0-15.0-0.101","1955","2","""event"",""trial"",""time""
""fullscreenenter"",""1"",""2413""
","
","
","""event"",""trial"",""time""
""fullscreenenter"",""1"",""2413""
","
","","","","","","null","<div style=""font-size:60px;"">+</div>","null","","fixation","","","","","","","","",""
"memory-trial","246","476783","0.0-15.0-1.101","1955","2","""event"",""trial"",""time""
""fullscreenenter"",""1"",""2413""
","
","
","""event"",""trial"",""time""
""fullscreenenter"",""1"",""2413""
","
","","","","","","1539.800000011921","images/cow3.png","","","memory_trial","1","definitely_old","","","","","","",""
"html-button-response","247","478560","0.0-15.0-2.101-0.101","1955","2","""event"",""trial"",""time""
""fullscreenenter"",""1"",""2413""
","
","
","""event"",""trial"",""time""
""fullscreenenter"",""1"",""2413""
","
","","","","","","1776.3999999761581","<p> Take a break! </p><p> Click the button to continue. </p>","0","","break","","","","","","","","",""
"html-keyboard-response","248","479063","0.0-15.0-0.102","1955","2","""event"",""trial"",""time""
""fullscreenenter"",""1"",""2413""
","
","
","""event"",""trial"",""time""
""fullscreenenter"",""1"",""2413""
","
","","","","","","null","<div style=""font-size:60px;"">+</div>","null","","fixation","","","","","","","","",""
"memory-trial","249","480734","0.0-15.0-1.102","1955","2","""event"",""trial"",""time""
""fullscreenenter"",""1"",""2413""
","
","
","""event"",""trial"",""time""
""fullscreenenter"",""1"",""2413""
","
","","","","","","665.8999999761581","images/goat4.png","","","memory_trial","3","maybe_new","","","","","","",""
"html-keyboard-response","250","481240","0.0-15.0-0.103","1955","2","""event"",""trial"",""time""
""fullscreenenter"",""1"",""2413""
","
","
","""event"",""trial"",""time""
""fullscreenenter"",""1"",""2413""
","
","","","","","","null","<div style=""font-size:60px;"">+</div>","null","","fixation","","","","","","","","",""
"memory-trial","251","483174","0.0-15.0-1.103","1955","2","""event"",""trial"",""time""
""fullscreenenter"",""1"",""2413""
","
","
","""event"",""trial"",""time""
""fullscreenenter"",""1"",""2413""
","
","","","","","","930.1999999880791","images/sheep4.png","","","memory_trial","4","definitely_new","","","","","","",""
"html-keyboard-response","252","483676","0.0-15.0-0.104","1955","2","""event"",""trial"",""time""
""fullscreenenter"",""1"",""2413""
","
","
","""event"",""trial"",""time""
""fullscreenenter"",""1"",""2413""
","
","","","","","","null","<div style=""font-size:60px;"">+</div>","null","","fixation","","","","","","","","",""
"memory-trial","253","485368","0.0-15.0-1.104","1955","2","""event"",""trial"",""time""
""fullscreenenter"",""1"",""2413""
","
","
","""event"",""trial"",""time""
""fullscreenenter"",""1"",""2413""
","
","","","","","","688.0999999642372","images/orange2.png","","","memory_trial","4","definitely_new","","","","","","",""
"html-keyboard-response","254","485873","0.0-15.0-0.105","1955","2","""event"",""trial"",""time""
""fullscreenenter"",""1"",""2413""
","
","
","""event"",""trial"",""time""
""fullscreenenter"",""1"",""2413""
","
","","","","","","null","<div style=""font-size:60px;"">+</div>","null","","fixation","","","","","","","","",""
"memory-trial","255","488055","0.0-15.0-1.105","1955","2","""event"",""trial"",""time""
""fullscreenenter"",""1"",""2413""
","
","
","""event"",""trial"",""time""
""fullscreenenter"",""1"",""2413""
","
","","","","","","1179.8999999761581","images/bush1.png","","","memory_trial","1","definitely_old","","","","","","",""
"html-keyboard-response","256","488560","0.0-15.0-0.106","1955","2","""event"",""trial"",""time""
""fullscreenenter"",""1"",""2413""
","
","
","""event"",""trial"",""time""
""fullscreenenter"",""1"",""2413""
","
","","","","","","null","<div style=""font-size:60px;"">+</div>","null","","fixation","","","","","","","","",""
"memory-trial","257","490747","0.0-15.0-1.106","1955","2","""event"",""trial"",""time""
""fullscreenenter"",""1"",""2413""
","
","
","""event"",""trial"",""time""
""fullscreenenter"",""1"",""2413""
","
","","","","","","1181.300000011921","images/train4.png","","","memory_trial","1","definitely_old","","","","","","",""
"html-keyboard-response","258","491252","0.0-15.0-0.107","1955","2","""event"",""trial"",""time""
""fullscreenenter"",""1"",""2413""
","
","
","""event"",""trial"",""time""
""fullscreenenter"",""1"",""2413""
","
","","","","","","null","<div style=""font-size:60px;"">+</div>","null","","fixation","","","","","","","","",""
"memory-trial","259","493558","0.0-15.0-1.107","1955","2","""event"",""trial"",""time""
""fullscreenenter"",""1"",""2413""
","
","
","""event"",""trial"",""time""
""fullscreenenter"",""1"",""2413""
","
","","","","","","1301.8999999761581","images/table4.png","","","memory_trial","4","definitely_new","","","","","","",""
"html-keyboard-response","260","494063","0.0-15.0-0.108","1955","2","""event"",""trial"",""time""
""fullscreenenter"",""1"",""2413""
","
","
","""event"",""trial"",""time""
""fullscreenenter"",""1"",""2413""
","
","","","","","","null","<div style=""font-size:60px;"">+</div>","null","","fixation","","","","","","","","",""
"memory-trial","261","496518","0.0-15.0-1.108","1955","2","""event"",""trial"",""time""
""fullscreenenter"",""1"",""2413""
","
","
","""event"",""trial"",""time""
""fullscreenenter"",""1"",""2413""
","
","","","","","","1449.9000000357628","images/bed5.png","","","memory_trial","1","definitely_old","","","","","","",""
"html-keyboard-response","262","497024","0.0-15.0-0.109","1955","2","""event"",""trial"",""time""
""fullscreenenter"",""1"",""2413""
","
","
","""event"",""trial"",""time""
""fullscreenenter"",""1"",""2413""
","
","","","","","","null","<div style=""font-size:60px;"">+</div>","null","","fixation","","","","","","","","",""
"memory-trial","263","499241","0.0-15.0-1.109","1955","2","""event"",""trial"",""time""
""fullscreenenter"",""1"",""2413""
","
","
","""event"",""trial"",""time""
""fullscreenenter"",""1"",""2413""
","
","","","","","","1212.0999999642372","images/horse5.png","","","memory_trial","1","definitely_old","","","","","","",""
"html-keyboard-response","264","499746","0.0-15.0-0.110","1955","2","""event"",""trial"",""time""
""fullscreenenter"",""1"",""2413""
","
","
","""event"",""trial"",""time""
""fullscreenenter"",""1"",""2413""
","
","","","","","","null","<div style=""font-size:60px;"">+</div>","null","","fixation","","","","","","","","",""
"memory-trial","265","502289","0.0-15.0-1.110","1955","2","""event"",""trial"",""time""
""fullscreenenter"",""1"",""2413""
","
","
","""event"",""trial"",""time""
""fullscreenenter"",""1"",""2413""
","
","","","","","","1538.4000000357628","images/rabbit1.png","","","memory_trial","3","maybe_new","","","","","","",""
"html-keyboard-response","266","502793","0.0-15.0-0.111","1955","2","""event"",""trial"",""time""
""fullscreenenter"",""1"",""2413""
","
","
","""event"",""trial"",""time""
""fullscreenenter"",""1"",""2413""
","
","","","","","","null","<div style=""font-size:60px;"">+</div>","null","","fixation","","","","","","","","",""
"memory-trial","267","505800","0.0-15.0-1.111","1955","2","""event"",""trial"",""time""
""fullscreenenter"",""1"",""2413""
","
","
","""event"",""trial"",""time""
""fullscreenenter"",""1"",""2413""
","
","","","","","","2001.199999988079","images/truck3.png","","","memory_trial","1","definitely_old","","","","","","",""
"html-keyboard-response","268","506305","0.0-15.0-0.112","1955","2","""event"",""trial"",""time""
""fullscreenenter"",""1"",""2413""
","
","
","""event"",""trial"",""time""
""fullscreenenter"",""1"",""2413""
","
","","","","","","null","<div style=""font-size:60px;"">+</div>","null","","fixation","","","","","","","","",""
"memory-trial","269","509591","0.0-15.0-1.112","1955","2","""event"",""trial"",""time""
""fullscreenenter"",""1"",""2413""
","
","
","""event"",""trial"",""time""
""fullscreenenter"",""1"",""2413""
","
","","","","","","2280.5","images/dog5.png","","","memory_trial","1","definitely_old","","","","","","",""
"html-keyboard-response","270","510096","0.0-15.0-0.113","1955","2","""event"",""trial"",""time""
""fullscreenenter"",""1"",""2413""
","
","
","""event"",""trial"",""time""
""fullscreenenter"",""1"",""2413""
","
","","","","","","null","<div style=""font-size:60px;"">+</div>","null","","fixation","","","","","","","","",""
"memory-trial","271","512400","0.0-15.0-1.113","1955","2","""event"",""trial"",""time""
""fullscreenenter"",""1"",""2413""
","
","
","""event"",""trial"",""time""
""fullscreenenter"",""1"",""2413""
","
","","","","","","1302.3999999761581","images/cactus4.png","","","memory_trial","4","definitely_new","","","","","","",""
"html-keyboard-response","272","512905","0.0-15.0-0.114","1955","2","""event"",""trial"",""time""
""fullscreenenter"",""1"",""2413""
","
","
","""event"",""trial"",""time""
""fullscreenenter"",""1"",""2413""
","
","","","","","","null","<div style=""font-size:60px;"">+</div>","null","","fixation","","","","","","","","",""
"memory-trial","273","515079","0.0-15.0-1.114","1955","2","""event"",""trial"",""time""
""fullscreenenter"",""1"",""2413""
","
","
","""event"",""trial"",""time""
""fullscreenenter"",""1"",""2413""
","
","","","","","","1171","images/apple4.png","","","memory_trial","4","definitely_new","","","","","","",""
"html-keyboard-response","274","515581","0.0-15.0-0.115","1955","2","""event"",""trial"",""time""
""fullscreenenter"",""1"",""2413""
","
","
","""event"",""trial"",""time""
""fullscreenenter"",""1"",""2413""
","
","","","","","","null","<div style=""font-size:60px;"">+</div>","null","","fixation","","","","","","","","",""
"memory-trial","275","517600","0.0-15.0-1.115","1955","2","""event"",""trial"",""time""
""fullscreenenter"",""1"",""2413""
","
","
","""event"",""trial"",""time""
""fullscreenenter"",""1"",""2413""
","
","","","","","","1015.1000000238419","images/bush5.png","","","memory_trial","4","definitely_new","","","","","","",""
"html-keyboard-response","276","518106","0.0-15.0-0.116","1955","2","""event"",""trial"",""time""
""fullscreenenter"",""1"",""2413""
","
","
","""event"",""trial"",""time""
""fullscreenenter"",""1"",""2413""
","
","","","","","","null","<div style=""font-size:60px;"">+</div>","null","","fixation","","","","","","","","",""
"memory-trial","277","520276","0.0-15.0-1.116","1955","2","""event"",""trial"",""time""
""fullscreenenter"",""1"",""2413""
","
","
","""event"",""trial"",""time""
""fullscreenenter"",""1"",""2413""
","
","","","","","","1167.2000000476837","images/boat5.png","","","memory_trial","4","definitely_new","","","","","","",""
"html-keyboard-response","278","520778","0.0-15.0-0.117","1955","2","""event"",""trial"",""time""
""fullscreenenter"",""1"",""2413""
","
","
","""event"",""trial"",""time""
""fullscreenenter"",""1"",""2413""
","
","","","","","","null","<div style=""font-size:60px;"">+</div>","null","","fixation","","","","","","","","",""
"memory-trial","279","522888","0.0-15.0-1.117","1955","2","""event"",""trial"",""time""
""fullscreenenter"",""1"",""2413""
","
","
","""event"",""trial"",""time""
""fullscreenenter"",""1"",""2413""
","
","","","","","","1105","images/chair3.png","","","memory_trial","4","definitely_new","","","","","","",""
"html-keyboard-response","280","523390","0.0-15.0-0.118","1955","2","""event"",""trial"",""time""
""fullscreenenter"",""1"",""2413""
","
","
","""event"",""trial"",""time""
""fullscreenenter"",""1"",""2413""
","
","","","","","","null","<div style=""font-size:60px;"">+</div>","null","","fixation","","","","","","","","",""
"memory-trial","281","525745","0.0-15.0-1.118","1955","2","""event"",""trial"",""time""
""fullscreenenter"",""1"",""2413""
","
","
","""event"",""trial"",""time""
""fullscreenenter"",""1"",""2413""
","
","","","","","","1351","images/sofa1.png","","","memory_trial","1","definitely_old","","","","","","",""
"html-keyboard-response","282","526250","0.0-15.0-0.119","1955","2","""event"",""trial"",""time""
""fullscreenenter"",""1"",""2413""
","
","
","""event"",""trial"",""time""
""fullscreenenter"",""1"",""2413""
","
","","","","","","null","<div style=""font-size:60px;"">+</div>","null","","fixation","","","","","","","","",""
"memory-trial","283","528357","0.0-15.0-1.119","1955","2","""event"",""trial"",""time""
""fullscreenenter"",""1"",""2413""
","
","
","""event"",""trial"",""time""
""fullscreenenter"",""1"",""2413""
","
","","","","","","1101","images/plane1.png","","","memory_trial","1","definitely_old","","","","","","",""
"preload","284","533025","0.0-16.0","1955","2","""event"",""trial"",""time""
""fullscreenenter"",""1"",""2413""
","
","
","""event"",""trial"",""time""
""fullscreenenter"",""1"",""2413""
","
","true","false","[]","[]","[]","","","","","","","","","","","","","",""
"learning-instructions","285","543867","0.0-17.0-0.0-0.0-0.0","1955","2","""event"",""trial"",""time""
""fullscreenenter"",""1"",""2413""
","
","
","""event"",""trial"",""time""
""fullscreenenter"",""1"",""2413""
","
","","","","","","7127.5","<p> We're now going to ask you to water your plants again. </p>","","0","instructions","","","","","","","","",""
"learning-instructions","286","550201","0.0-17.0-0.0-0.0-0.1","1955","2","""event"",""trial"",""time""
""fullscreenenter"",""1"",""2413""
","
","
","""event"",""trial"",""time""
""fullscreenenter"",""1"",""2413""
","
","","","","","","464.69999998807907","<p> On each trial, you will see a plant. Select the watering can that you think will make the plant grow. </p>","","0","instructions","","","","","","","","",""
"learning-instructions","287","557986","0.0-17.0-0.0-0.0-0.2","1955","2","""event"",""trial"",""time""
""fullscreenenter"",""1"",""2413""
","
","
","""event"",""trial"",""time""
""fullscreenenter"",""1"",""2413""
","
","","","","","","721","<p> To make your selection, think about what you learned last week. You will NOT receive any feedback about your choice. </p>","","0","instructions","","","","","","","","",""
"learning-instructions","288","567796","0.0-17.0-0.0-0.0-0.3","1955","2","""event"",""trial"",""time""
""fullscreenenter"",""1"",""2413""
","
","
","""event"",""trial"",""time""
""fullscreenenter"",""1"",""2413""
","
","","","","","","691.6999999880791","<p> You should use the 1 key to select the watering can on the left, the 2 key to select the watering can in the middle, and the 3 key to select the watering can on the right. </p><br><div class=""choice-mem-instructions-grid""> <div class=""choice-mem-option""><img src=""images/plants_choice1.png"" class=""choice-mem-option-img"" stage=""instructions"" position=""0"" ><div class=""choice-mem-option-text""> Press ""1."" </div></div><div class=""choice-mem-option""><img src=""images/plants_choice2.png"" class=""choice-mem-option-img"" stage=""instructions"" position=""1"" ><div class=""choice-mem-option-text""> Press ""2."" </div></div><div class=""choice-mem-option""><img src=""images/plants_choice3.png"" class=""choice-mem-option-img"" stage=""instructions"" position=""2"" ><div class=""choice-mem-option-text""> Press ""3."" </div></div></div>","","0","instructions","","","","","","","","",""
"learning-instructions","289","574571","0.0-17.0-0.0-0.0-0.4","1955","2","""event"",""trial"",""time""
""fullscreenenter"",""1"",""2413""
","
","
","""event"",""trial"",""time""
""fullscreenenter"",""1"",""2413""
","
","","","","","","506.80000001192093","<p> You will have 10 seconds to make each selection. Try to respond before time runs out! </p>","","0","instructions","","","","","","","","",""
"learning-instructions","290","577078","0.0-17.0-0.0-1.0","1955","2","""event"",""trial"",""time""
""fullscreenenter"",""1"",""2413""
","
","
","""event"",""trial"",""time""
""fullscreenenter"",""1"",""2413""
","
","","","","","","454.0999999642372","<p> You are now ready to begin the game. </p>","","0","instructions","","","","","","","","",""
"html-keyboard-response","291","577684","0.0-17.0-0.0-2.0-0.0","1955","2","""event"",""trial"",""time""
""fullscreenenter"",""1"",""2413""
","
","
","""event"",""trial"",""time""
""fullscreenenter"",""1"",""2413""
","
","","","","","","null","<div style=""font-size:60px;"">+</div>","null","","fixation","","","","","","","","",""
