"trial_type","trial_index","time_elapsed","internal_node_id","subject_id","task_version","interactions","blur_events","focus_events","fullscreenenter_events","fullscreenexit_events","success","timeout","failed_images","failed_audio","failed_video","rt","stimulus","response","button_pressed","task_part","key_press","answer","correct","left_choice","middle_choice","right_choice","choice_positions","option_selected","block"
"pavlovia","0","4","0.0-0.0","2011","2","""event"",""trial"",""time""
""fullscreenenter"",""1"",""2033""
","
","
","""event"",""trial"",""time""
""fullscreenenter"",""1"",""2033""
","
","","","","","","","","","","","","","","","","","","",""
"fullscreen","1","2919","0.0-1.0","2011","2","""event"",""trial"",""time""
""fullscreenenter"",""1"",""2033""
","
","
","""event"",""trial"",""time""
""fullscreenenter"",""1"",""2033""
","
","true","","","","","","","","","","","","","","","","","",""
"preload","2","3538","0.0-2.0","2011","2","""event"",""trial"",""time""
""fullscreenenter"",""1"",""2033""
","
","
","""event"",""trial"",""time""
""fullscreenenter"",""1"",""2033""
","
","true","false","[]","[]","[]","","","","","","","","","","","","","",""
"audio-keyboard-response","3","5519","0.0-3.0","2011","2","""event"",""trial"",""time""
""fullscreenenter"",""1"",""2033""
","
","
","""event"",""trial"",""time""
""fullscreenenter"",""1"",""2033""
","
","","","","","","1968","audio/beep_loop.wav"," ","","","","","","","","","","",""
"audio-button-response","4","7243","0.0-4.0","2011","2","""event"",""trial"",""time""
""fullscreenenter"",""1"",""2033""
","
","
","""event"",""trial"",""time""
""fullscreenenter"",""1"",""2033""
","
","","","","","","1723","audio/turtle.wav","3","","","","","","","","","","",""
"audio-button-response","5","10206","0.0-5.0","2011","2","""event"",""trial"",""time""
""fullscreenenter"",""1"",""2033""
","
","
","""event"",""trial"",""time""
""fullscreenenter"",""1"",""2033""
","
","","","","","","1952","audio/shark.wav","2","","","","","","","","","","",""
"preload","6","16030","0.0-6.0","2011","2","""event"",""trial"",""time""
""fullscreenenter"",""1"",""2033""
","
","
","""event"",""trial"",""time""
""fullscreenenter"",""1"",""2033""
","
","true","false","[]","[]","[]","","","","","","","","","","","","","",""
"learning-instructions","7","25897","0.0-7.0-0.0","2011","2","""event"",""trial"",""time""
""fullscreenenter"",""1"",""2033""
","
","
","""event"",""trial"",""time""
""fullscreenenter"",""1"",""2033""
","
","","","","","","5060.299999713898","<p> Welcome back! </p><p> Last week, you had to make choices about lots of different items.  </p>","","0","instructions","","","","","","","","",""
"learning-instructions","8","31202","0.0-7.0-0.1","2011","2","""event"",""trial"",""time""
""fullscreenenter"",""1"",""2033""
","
","
","""event"",""trial"",""time""
""fullscreenenter"",""1"",""2033""
","
","","","","","","1006","<p> Today, we are going to ask you to try to remember all the items. </p>","","0","instructions","","","","","","","","",""
"learning-instructions","9","42645","0.0-7.0-0.2","2011","2","""event"",""trial"",""time""
""fullscreenenter"",""1"",""2033""
","
","
","""event"",""trial"",""time""
""fullscreenenter"",""1"",""2033""
","
","","","","","","1307.3000001907349","<p> On every trial, you will see an image. </p><p> The image may be an OLD image you saw during the games last week or it may be a NEW image that was not presented. </p>","","0","instructions","","","","","","","","",""
"learning-instructions","10","51901","0.0-7.0-0.3","2011","2","""event"",""trial"",""time""
""fullscreenenter"",""1"",""2033""
","
","
","""event"",""trial"",""time""
""fullscreenenter"",""1"",""2033""
","
","","","","","","760.3000001907349","<p> You need to select whether the image is:  </p><p>  'Definitely old', 'Maybe old', 'Maybe new', or 'Definitely new.'  </p><div class=""mem-choice-instructions-grid""><div class=""choice-option"" id=""choice-option-1"" ><img src=""images/definitely_old_1.png"" id=""choice-option-img-1"" class=""choice-option-img"" stage=""1""></div><div class=""choice-option"" id=""choice-option-2"" ><img src=""images/maybe_old_1.png"" id=""choice-option-img-2"" class=""choice-option-img"" stage=""1""></div><div class=""choice-option"" id=""choice-option-3"" ><img src=""images/maybe_new_1.png"" id=""choice-option-img-3"" class=""choice-option-img"" stage=""1""></div><div class=""choice-option"" id=""choice-option-4"" > <img src=""images/definitely_new_1.png"" id=""choice-option-img-4"" class=""choice-option-img"" stage=""1""></div></div>","","0","instructions","","","","","","","","",""
"learning-instructions","11","59217","0.0-7.0-0.4","2011","2","""event"",""trial"",""time""
""fullscreenenter"",""1"",""2033""
","
","
","""event"",""trial"",""time""
""fullscreenenter"",""1"",""2033""
","
","","","","","","620.6999998092651","<p> You should use the 1, 2, 3, and 4 keys to make your responses.  </p><div class=""mem-choice-instructions-grid""><div class=""choice-option"" id=""choice-option-1"" ><img src=""images/definitely_old.png"" id=""choice-option-img-1"" class=""choice-option-img"" stage=""1""></div><div class=""choice-option"" id=""choice-option-2"" ><img src=""images/maybe_old.png"" id=""choice-option-img-2"" class=""choice-option-img"" stage=""1""></div><div class=""choice-option"" id=""choice-option-3"" ><img src=""images/maybe_new.png"" id=""choice-option-img-3"" class=""choice-option-img"" stage=""1""></div><div class=""choice-option"" id=""choice-option-4"" > <img src=""images/definitely_new.png"" id=""choice-option-img-4"" class=""choice-option-img"" stage=""1""></div></div>","","0","instructions","","","","","","","","",""
"learning-instructions","12","66889","0.0-7.0-0.5","2011","2","""event"",""trial"",""time""
""fullscreenenter"",""1"",""2033""
","
","
","""event"",""trial"",""time""
""fullscreenenter"",""1"",""2033""
","
","","","","","","912.5","<p> You will have 10 seconds to make each response.  </p><p>  Make sure to respond before time runs out! </p>","","0","instructions","","","","","","","","",""
"learning-instructions","13","75515","0.0-7.0-0.6","2011","2","""event"",""trial"",""time""
""fullscreenenter"",""1"",""2033""
","
","
","""event"",""trial"",""time""
""fullscreenenter"",""1"",""2033""
","
","","","","","","1047.6999998092651","<p> Today, you will see each image ONCE only.  </p><p>  That means none of the images will repeat. </p>","","0","instructions","","","","","","","","",""
"learning-instructions","14","88642","0.0-7.0-0.7","2011","2","""event"",""trial"",""time""
""fullscreenenter"",""1"",""2033""
","
","
","""event"",""trial"",""time""
""fullscreenenter"",""1"",""2033""
","
","","","","","","457.5","<p> Before you play the real game, it is time to practice. </p><p>  Just like in the real game, some of the images in the practice will be ones you have seen before. </p><p>  Others will be entirely new. </p>","","0","instructions","","","","","","","","",""
"html-button-response","15","90073","0.0-8.0","2011","2","""event"",""trial"",""time""
""fullscreenenter"",""1"",""2033""
","
","
","""event"",""trial"",""time""
""fullscreenenter"",""1"",""2033""
","
","","","","","","1326.7000002861023","<p> Ready to practice? </p><p> Remember, use the 1, 2, 3, and 4 keys to make your responses. </p>","0","","instructions","","","","","","","","",""
"html-keyboard-response","16","90682","0.0-9.0-0.0","2011","2","""event"",""trial"",""time""
""fullscreenenter"",""1"",""2033""
","
","
","""event"",""trial"",""time""
""fullscreenenter"",""1"",""2033""
","
","","","","","","null","<div style=""font-size:60px;"">+</div>","null","","fixation","","","","","","","","",""
"memory-trial","17","93409","0.0-9.0-1.0","2011","2","""event"",""trial"",""time""
""fullscreenenter"",""1"",""2033""
","
","
","""event"",""trial"",""time""
""fullscreenenter"",""1"",""2033""
","
","","","","","","1718.3000001907349","images/ball2.png","","","practice","1","definitely_old","","","","","","",""
"html-keyboard-response","18","93915","0.0-9.0-0.1","2011","2","""event"",""trial"",""time""
""fullscreenenter"",""1"",""2033""
","
","
","""event"",""trial"",""time""
""fullscreenenter"",""1"",""2033""
","
","","","","","","null","<div style=""font-size:60px;"">+</div>","null","","fixation","","","","","","","","",""
"memory-trial","19","98186","0.0-9.0-1.1","2011","2","""event"",""trial"",""time""
""fullscreenenter"",""1"",""2033""
","
","
","""event"",""trial"",""time""
""fullscreenenter"",""1"",""2033""
","
","","","","","","3264","images/ball1.png","","","practice","4","definitely_new","","","","","","",""
"html-keyboard-response","20","98690","0.0-9.0-0.2","2011","2","""event"",""trial"",""time""
""fullscreenenter"",""1"",""2033""
","
","
","""event"",""trial"",""time""
""fullscreenenter"",""1"",""2033""
","
","","","","","","null","<div style=""font-size:60px;"">+</div>","null","","fixation","","","","","","","","",""
"memory-trial","21","101602","0.0-9.0-1.2","2011","2","""event"",""trial"",""time""
""fullscreenenter"",""1"",""2033""
","
","
","""event"",""trial"",""time""
""fullscreenenter"",""1"",""2033""
","
","","","","","","1904","images/ball3.png","","","practice","4","definitely_new","","","","","","",""
"html-keyboard-response","22","102103","0.0-9.0-0.3","2011","2","""event"",""trial"",""time""
""fullscreenenter"",""1"",""2033""
","
","
","""event"",""trial"",""time""
""fullscreenenter"",""1"",""2033""
","
","","","","","","null","<div style=""font-size:60px;"">+</div>","null","","fixation","","","","","","","","",""
"memory-trial","23","104631","0.0-9.0-1.3","2011","2","""event"",""trial"",""time""
""fullscreenenter"",""1"",""2033""
","
","
","""event"",""trial"",""time""
""fullscreenenter"",""1"",""2033""
","
","","","","","","1523.3999996185303","images/ball4.png","","","practice","4","definitely_new","","","","","","",""
"html-keyboard-response","24","105136","0.0-9.0-0.4","2011","2","""event"",""trial"",""time""
""fullscreenenter"",""1"",""2033""
","
","
","""event"",""trial"",""time""
""fullscreenenter"",""1"",""2033""
","
","","","","","","null","<div style=""font-size:60px;"">+</div>","null","","fixation","","","","","","","","",""
"memory-trial","25","107422","0.0-9.0-1.4","2011","2","""event"",""trial"",""time""
""fullscreenenter"",""1"",""2033""
","
","
","""event"",""trial"",""time""
""fullscreenenter"",""1"",""2033""
","
","","","","","","1278.6999998092651","images/racket4.png","","","practice","1","definitely_old","","","","","","",""
"html-keyboard-response","26","107925","0.0-9.0-0.5","2011","2","""event"",""trial"",""time""
""fullscreenenter"",""1"",""2033""
","
","
","""event"",""trial"",""time""
""fullscreenenter"",""1"",""2033""
","
","","","","","","null","<div style=""font-size:60px;"">+</div>","null","","fixation","","","","","","","","",""
"memory-trial","27","110136","0.0-9.0-1.5","2011","2","""event"",""trial"",""time""
""fullscreenenter"",""1"",""2033""
","
","
","""event"",""trial"",""time""
""fullscreenenter"",""1"",""2033""
","
","","","","","","1204.9000000953674","images/racket3.png","","","practice","1","definitely_old","","","","","","",""
"html-keyboard-response","28","110641","0.0-9.0-0.6","2011","2","""event"",""trial"",""time""
""fullscreenenter"",""1"",""2033""
","
","
","""event"",""trial"",""time""
""fullscreenenter"",""1"",""2033""
","
","","","","","","null","<div style=""font-size:60px;"">+</div>","null","","fixation","","","","","","","","",""
"memory-trial","29","112689","0.0-9.0-1.6","2011","2","""event"",""trial"",""time""
""fullscreenenter"",""1"",""2033""
","
","
","""event"",""trial"",""time""
""fullscreenenter"",""1"",""2033""
","
","","","","","","1040.6999998092651","images/racket1.png","","","practice","1","definitely_old","","","","","","",""
"html-keyboard-response","30","113195","0.0-9.0-0.7","2011","2","""event"",""trial"",""time""
""fullscreenenter"",""1"",""2033""
","
","
","""event"",""trial"",""time""
""fullscreenenter"",""1"",""2033""
","
","","","","","","null","<div style=""font-size:60px;"">+</div>","null","","fixation","","","","","","","","",""
"memory-trial","31","115363","0.0-9.0-1.7","2011","2","""event"",""trial"",""time""
""fullscreenenter"",""1"",""2033""
","
","
","""event"",""trial"",""time""
""fullscreenenter"",""1"",""2033""
","
","","","","","","1161.0999999046326","images/racket2.png","","","practice","1","definitely_old","","","","","","",""
"learning-instructions","32","124035","0.0-10.0-0.0","2011","2","""event"",""trial"",""time""
""fullscreenenter"",""1"",""2033""
","
","
","""event"",""trial"",""time""
""fullscreenenter"",""1"",""2033""
","
","","","","","","720.5","<p> Great! You have completed the practice. </p><p> Before you start, we're going to ask you a few questions about how the game works.  </p>","","0","instructions","","","","","","","","",""
"preload","33","126016","0.0-11.0","2011","2","""event"",""trial"",""time""
""fullscreenenter"",""1"",""2033""
","
","
","""event"",""trial"",""time""
""fullscreenenter"",""1"",""2033""
","
","true","false","[]","[]","[]","","","","","","","","","","","","","",""
"comp-q","34","133875","0.0-12.0-0.0","2011","2","""event"",""trial"",""time""
""fullscreenenter"",""1"",""2033""
","
","
","""event"",""trial"",""time""
""fullscreenenter"",""1"",""2033""
","
","","","","","","2027.2999997138977","<p> <b> True or False? </b> </p><p> In this game, you will only see each image once. </p>","","0","comp_question","","","true","","","","","",""
"comp-q","35","142709","0.0-12.0-1.0","2011","2","""event"",""trial"",""time""
""fullscreenenter"",""1"",""2033""
","
","
","""event"",""trial"",""time""
""fullscreenenter"",""1"",""2033""
","
","","","","","","2493.699999809265","<p> <b> That's right! </b> You will see many different images <i> one time each </i> in this game. </p>","","0","comp_answer","","","","","","","","",""
"comp-q","36","149223","0.0-12.0-0.1","2011","2","""event"",""trial"",""time""
""fullscreenenter"",""1"",""2033""
","
","
","""event"",""trial"",""time""
""fullscreenenter"",""1"",""2033""
","
","","","","","","712.8000001907349","<p> <b> True or False? </b> </p><p> You should use the mouse and click to make your response. </p>","","1","comp_question","","","true","","","","","",""
"comp-q","37","170843","0.0-12.0-1.1","2011","2","""event"",""trial"",""time""
""fullscreenenter"",""1"",""2033""
","
","
","""event"",""trial"",""time""
""fullscreenenter"",""1"",""2033""
","
","","","","","","14275.799999713898","<p><b> That's right! </b> You should use the '1', '2', '3', and '4' keys to make your response. </p>","","0","comp_answer","","","","","","","","",""
"comp-q","38","178468","0.0-12.0-0.2","2011","2","""event"",""trial"",""time""
""fullscreenenter"",""1"",""2033""
","
","
","""event"",""trial"",""time""
""fullscreenenter"",""1"",""2033""
","
","","","","","","1629.5999999046326","<p> <b> True or False? </b> </p><p> You will have as much time as you want to make each choice. </p>","","0","comp_question","","","false","","","","","",""
"comp-q","39","185740","0.0-12.0-1.2","2011","2","""event"",""trial"",""time""
""fullscreenenter"",""1"",""2033""
","
","
","""event"",""trial"",""time""
""fullscreenenter"",""1"",""2033""
","
","","","","","","1957.6999998092651","<p> <b>Incorrect.</b> You will only have 10 seconds to make each choice.</p>","","0","comp_answer","","","","","","","","",""
"learning-instructions","40","195689","0.0-13.0","2011","2","""event"",""trial"",""time""
""fullscreenenter"",""1"",""2033""
","
","
","""event"",""trial"",""time""
""fullscreenenter"",""1"",""2033""
","
","","","","","","1284","<p> Great! You are now ready to begin the game. </p><p> Remember, use the 1, 2, 3, and 4 keys to make your responses. </p>","","0","instructions","","","","","","","","",""
"preload","41","199419","0.0-14.0","2011","2","""event"",""trial"",""time""
""fullscreenenter"",""1"",""2033""
","
","
","""event"",""trial"",""time""
""fullscreenenter"",""1"",""2033""
","
","true","false","[]","[]","[]","","","","","","","","","","","","","",""
"html-keyboard-response","42","199920","0.0-15.0-0.0","2011","2","""event"",""trial"",""time""
""fullscreenenter"",""1"",""2033""
","
","
","""event"",""trial"",""time""
""fullscreenenter"",""1"",""2033""
","
","","","","","","null","<div style=""font-size:60px;"">+</div>","null","","fixation","","","","","","","","",""
"memory-trial","43","202791","0.0-15.0-1.0","2011","2","""event"",""trial"",""time""
""fullscreenenter"",""1"",""2033""
","
","
","""event"",""trial"",""time""
""fullscreenenter"",""1"",""2033""
","
","","","","","","1864.8000001907349","images/horse5.png","","","memory_trial","4","definitely_new","","","","","","",""
"html-keyboard-response","44","203296","0.0-15.0-0.1","2011","2","""event"",""trial"",""time""
""fullscreenenter"",""1"",""2033""
","
","
","""event"",""trial"",""time""
""fullscreenenter"",""1"",""2033""
","
","","","","","","null","<div style=""font-size:60px;"">+</div>","null","","fixation","","","","","","","","",""
"memory-trial","45","205659","0.0-15.0-1.1","2011","2","""event"",""trial"",""time""
""fullscreenenter"",""1"",""2033""
","
","
","""event"",""trial"",""time""
""fullscreenenter"",""1"",""2033""
","
","","","","","","1357.0999999046326","images/table1.png","","","memory_trial","1","definitely_old","","","","","","",""
"html-keyboard-response","46","206160","0.0-15.0-0.2","2011","2","""event"",""trial"",""time""
""fullscreenenter"",""1"",""2033""
","
","
","""event"",""trial"",""time""
""fullscreenenter"",""1"",""2033""
","
","","","","","","null","<div style=""font-size:60px;"">+</div>","null","","fixation","","","","","","","","",""
"memory-trial","47","208607","0.0-15.0-1.2","2011","2","""event"",""trial"",""time""
""fullscreenenter"",""1"",""2033""
","
","
","""event"",""trial"",""time""
""fullscreenenter"",""1"",""2033""
","
","","","","","","1439.0999999046326","images/bush3.png","","","memory_trial","4","definitely_new","","","","","","",""
"html-keyboard-response","48","209113","0.0-15.0-0.3","2011","2","""event"",""trial"",""time""
""fullscreenenter"",""1"",""2033""
","
","
","""event"",""trial"",""time""
""fullscreenenter"",""1"",""2033""
","
","","","","","","null","<div style=""font-size:60px;"">+</div>","null","","fixation","","","","","","","","",""
"memory-trial","49","212244","0.0-15.0-1.3","2011","2","""event"",""trial"",""time""
""fullscreenenter"",""1"",""2033""
","
","
","""event"",""trial"",""time""
""fullscreenenter"",""1"",""2033""
","
","","","","","","2124.1000003814697","images/cactus5.png","","","memory_trial","2","maybe_old","","","","","","",""
"html-keyboard-response","50","212751","0.0-15.0-0.4","2011","2","""event"",""trial"",""time""
""fullscreenenter"",""1"",""2033""
","
","
","""event"",""trial"",""time""
""fullscreenenter"",""1"",""2033""
","
","","","","","","null","<div style=""font-size:60px;"">+</div>","null","","fixation","","","","","","","","",""
"memory-trial","51","214762","0.0-15.0-1.4","2011","2","""event"",""trial"",""time""
""fullscreenenter"",""1"",""2033""
","
","
","""event"",""trial"",""time""
""fullscreenenter"",""1"",""2033""
","
","","","","","","1006.8000001907349","images/tree5.png","","","memory_trial","4","definitely_new","","","","","","",""
"html-keyboard-response","52","215263","0.0-15.0-0.5","2011","2","""event"",""trial"",""time""
""fullscreenenter"",""1"",""2033""
","
","
","""event"",""trial"",""time""
""fullscreenenter"",""1"",""2033""
","
","","","","","","null","<div style=""font-size:60px;"">+</div>","null","","fixation","","","","","","","","",""
"memory-trial","53","217647","0.0-15.0-1.5","2011","2","""event"",""trial"",""time""
""fullscreenenter"",""1"",""2033""
","
","
","""event"",""trial"",""time""
""fullscreenenter"",""1"",""2033""
","
","","","","","","1381.6999998092651","images/straw2.png","","","memory_trial","4","definitely_new","","","","","","",""
"html-keyboard-response","54","218152","0.0-15.0-0.6","2011","2","""event"",""trial"",""time""
""fullscreenenter"",""1"",""2033""
","
","
","""event"",""trial"",""time""
""fullscreenenter"",""1"",""2033""
","
","","","","","","null","<div style=""font-size:60px;"">+</div>","null","","fixation","","","","","","","","",""
"memory-trial","55","220598","0.0-15.0-1.6","2011","2","""event"",""trial"",""time""
""fullscreenenter"",""1"",""2033""
","
","
","""event"",""trial"",""time""
""fullscreenenter"",""1"",""2033""
","
","","","","","","1441","images/plane3.png","","","memory_trial","4","definitely_new","","","","","","",""
"html-keyboard-response","56","221104","0.0-15.0-0.7","2011","2","""event"",""trial"",""time""
""fullscreenenter"",""1"",""2033""
","
","
","""event"",""trial"",""time""
""fullscreenenter"",""1"",""2033""
","
","","","","","","null","<div style=""font-size:60px;"">+</div>","null","","fixation","","","","","","","","",""
"memory-trial","57","223019","0.0-15.0-1.7","2011","2","""event"",""trial"",""time""
""fullscreenenter"",""1"",""2033""
","
","
","""event"",""trial"",""time""
""fullscreenenter"",""1"",""2033""
","
","","","","","","909.7999997138977","images/horse1.png","","","memory_trial","4","definitely_new","","","","","","",""
"html-keyboard-response","58","223522","0.0-15.0-0.8","2011","2","""event"",""trial"",""time""
""fullscreenenter"",""1"",""2033""
","
","
","""event"",""trial"",""time""
""fullscreenenter"",""1"",""2033""
","
","","","","","","null","<div style=""font-size:60px;"">+</div>","null","","fixation","","","","","","","","",""
"memory-trial","59","225717","0.0-15.0-1.8","2011","2","""event"",""trial"",""time""
""fullscreenenter"",""1"",""2033""
","
","
","""event"",""trial"",""time""
""fullscreenenter"",""1"",""2033""
","
","","","","","","1191.1999998092651","images/dog3.png","","","memory_trial","4","definitely_new","","","","","","",""
"html-keyboard-response","60","226222","0.0-15.0-0.9","2011","2","""event"",""trial"",""time""
""fullscreenenter"",""1"",""2033""
","
","
","""event"",""trial"",""time""
""fullscreenenter"",""1"",""2033""
","
","","","","","","null","<div style=""font-size:60px;"">+</div>","null","","fixation","","","","","","","","",""
"memory-trial","61","229189","0.0-15.0-1.9","2011","2","""event"",""trial"",""time""
""fullscreenenter"",""1"",""2033""
","
","
","""event"",""trial"",""time""
""fullscreenenter"",""1"",""2033""
","
","","","","","","1962.5","images/orange4.png","","","memory_trial","3","maybe_new","","","","","","",""
"html-keyboard-response","62","229690","0.0-15.0-0.10","2011","2","""event"",""trial"",""time""
""fullscreenenter"",""1"",""2033""
","
","
","""event"",""trial"",""time""
""fullscreenenter"",""1"",""2033""
","
","","","","","","null","<div style=""font-size:60px;"">+</div>","null","","fixation","","","","","","","","",""
"memory-trial","63","232111","0.0-15.0-1.10","2011","2","""event"",""trial"",""time""
""fullscreenenter"",""1"",""2033""
","
","
","""event"",""trial"",""time""
""fullscreenenter"",""1"",""2033""
","
","","","","","","1414.8000001907349","images/rabbit2.png","","","memory_trial","1","definitely_old","","","","","","",""
"html-keyboard-response","64","232618","0.0-15.0-0.11","2011","2","""event"",""trial"",""time""
""fullscreenenter"",""1"",""2033""
","
","
","""event"",""trial"",""time""
""fullscreenenter"",""1"",""2033""
","
","","","","","","null","<div style=""font-size:60px;"">+</div>","null","","fixation","","","","","","","","",""
"memory-trial","65","234485","0.0-15.0-1.11","2011","2","""event"",""trial"",""time""
""fullscreenenter"",""1"",""2033""
","
","
","""event"",""trial"",""time""
""fullscreenenter"",""1"",""2033""
","
","","","","","","859.3000001907349","images/tree1.png","","","memory_trial","1","definitely_old","","","","","","",""
"html-keyboard-response","66","234988","0.0-15.0-0.12","2011","2","""event"",""trial"",""time""
""fullscreenenter"",""1"",""2033""
","
","
","""event"",""trial"",""time""
""fullscreenenter"",""1"",""2033""
","
","","","","","","null","<div style=""font-size:60px;"">+</div>","null","","fixation","","","","","","","","",""
"memory-trial","67","238960","0.0-15.0-1.12","2011","2","""event"",""trial"",""time""
""fullscreenenter"",""1"",""2033""
","
","
","""event"",""trial"",""time""
""fullscreenenter"",""1"",""2033""
","
","","","","","","2964.300000190735","images/goat2.png","","","memory_trial","2","maybe_old","","","","","","",""
"html-keyboard-response","68","239461","0.0-15.0-0.13","2011","2","""event"",""trial"",""time""
""fullscreenenter"",""1"",""2033""
","
","
","""event"",""trial"",""time""
""fullscreenenter"",""1"",""2033""
","
","","","","","","null","<div style=""font-size:60px;"">+</div>","null","","fixation","","","","","","","","",""
"memory-trial","69","241489","0.0-15.0-1.13","2011","2","""event"",""trial"",""time""
""fullscreenenter"",""1"",""2033""
","
","
","""event"",""trial"",""time""
""fullscreenenter"",""1"",""2033""
","
","","","","","","1021.4000000953674","images/tree4.png","","","memory_trial","4","definitely_new","","","","","","",""
"html-keyboard-response","70","241994","0.0-15.0-0.14","2011","2","""event"",""trial"",""time""
""fullscreenenter"",""1"",""2033""
","
","
","""event"",""trial"",""time""
""fullscreenenter"",""1"",""2033""
","
","","","","","","null","<div style=""font-size:60px;"">+</div>","null","","fixation","","","","","","","","",""
"memory-trial","71","243898","0.0-15.0-1.14","2011","2","""event"",""trial"",""time""
""fullscreenenter"",""1"",""2033""
","
","
","""event"",""trial"",""time""
""fullscreenenter"",""1"",""2033""
","
","","","","","","897.5999999046326","images/horse3.png","","","memory_trial","4","definitely_new","","","","","","",""
"html-keyboard-response","72","244400","0.0-15.0-0.15","2011","2","""event"",""trial"",""time""
""fullscreenenter"",""1"",""2033""
","
","
","""event"",""trial"",""time""
""fullscreenenter"",""1"",""2033""
","
","","","","","","null","<div style=""font-size:60px;"">+</div>","null","","fixation","","","","","","","","",""
"memory-trial","73","246272","0.0-15.0-1.15","2011","2","""event"",""trial"",""time""
""fullscreenenter"",""1"",""2033""
","
","
","""event"",""trial"",""time""
""fullscreenenter"",""1"",""2033""
","
","","","","","","865.1999998092651","images/dog4.png","","","memory_trial","4","definitely_new","","","","","","",""
"html-keyboard-response","74","246773","0.0-15.0-0.16","2011","2","""event"",""trial"",""time""
""fullscreenenter"",""1"",""2033""
","
","
","""event"",""trial"",""time""
""fullscreenenter"",""1"",""2033""
","
","","","","","","null","<div style=""font-size:60px;"">+</div>","null","","fixation","","","","","","","","",""
"memory-trial","75","248970","0.0-15.0-1.16","2011","2","""event"",""trial"",""time""
""fullscreenenter"",""1"",""2033""
","
","
","""event"",""trial"",""time""
""fullscreenenter"",""1"",""2033""
","
","","","","","","1194.8999996185303","images/plane4.png","","","memory_trial","1","definitely_old","","","","","","",""
"html-keyboard-response","76","249472","0.0-15.0-0.17","2011","2","""event"",""trial"",""time""
""fullscreenenter"",""1"",""2033""
","
","
","""event"",""trial"",""time""
""fullscreenenter"",""1"",""2033""
","
","","","","","","null","<div style=""font-size:60px;"">+</div>","null","","fixation","","","","","","","","",""
"memory-trial","77","251381","0.0-15.0-1.17","2011","2","""event"",""trial"",""time""
""fullscreenenter"",""1"",""2033""
","
","
","""event"",""trial"",""time""
""fullscreenenter"",""1"",""2033""
","
","","","","","","905.5999999046326","images/sheep3.png","","","memory_trial","1","definitely_old","","","","","","",""
"html-keyboard-response","78","251882","0.0-15.0-0.18","2011","2","""event"",""trial"",""time""
""fullscreenenter"",""1"",""2033""
","
","
","""event"",""trial"",""time""
""fullscreenenter"",""1"",""2033""
","
","","","","","","null","<div style=""font-size:60px;"">+</div>","null","","fixation","","","","","","","","",""
"memory-trial","79","254608","0.0-15.0-1.18","2011","2","""event"",""trial"",""time""
""fullscreenenter"",""1"",""2033""
","
","
","""event"",""trial"",""time""
""fullscreenenter"",""1"",""2033""
","
","","","","","","1720.4000000953674","images/sofa1.png","","","memory_trial","4","definitely_new","","","","","","",""
"html-keyboard-response","80","255111","0.0-15.0-0.19","2011","2","""event"",""trial"",""time""
""fullscreenenter"",""1"",""2033""
","
","
","""event"",""trial"",""time""
""fullscreenenter"",""1"",""2033""
","
","","","","","","null","<div style=""font-size:60px;"">+</div>","null","","fixation","","","","","","","","",""
"memory-trial","81","257834","0.0-15.0-1.19","2011","2","""event"",""trial"",""time""
""fullscreenenter"",""1"",""2033""
","
","
","""event"",""trial"",""time""
""fullscreenenter"",""1"",""2033""
","
","","","","","","1715.5999999046326","images/cow5.png","","","memory_trial","2","maybe_old","","","","","","",""
"html-keyboard-response","82","258336","0.0-15.0-0.20","2011","2","""event"",""trial"",""time""
""fullscreenenter"",""1"",""2033""
","
","
","""event"",""trial"",""time""
""fullscreenenter"",""1"",""2033""
","
","","","","","","null","<div style=""font-size:60px;"">+</div>","null","","fixation","","","","","","","","",""
"memory-trial","83","260240","0.0-15.0-1.20","2011","2","""event"",""trial"",""time""
""fullscreenenter"",""1"",""2033""
","
","
","""event"",""trial"",""time""
""fullscreenenter"",""1"",""2033""
","
","","","","","","896.5","images/chair3.png","","","memory_trial","4","definitely_new","","","","","","",""
"html-keyboard-response","84","260742","0.0-15.0-0.21","2011","2","""event"",""trial"",""time""
""fullscreenenter"",""1"",""2033""
","
","
","""event"",""trial"",""time""
""fullscreenenter"",""1"",""2033""
","
","","","","","","null","<div style=""font-size:60px;"">+</div>","null","","fixation","","","","","","","","",""
"memory-trial","85","262624","0.0-15.0-1.21","2011","2","""event"",""trial"",""time""
""fullscreenenter"",""1"",""2033""
","
","
","""event"",""trial"",""time""
""fullscreenenter"",""1"",""2033""
","
","","","","","","874.8000001907349","images/bush5.png","","","memory_trial","4","definitely_new","","","","","","",""
"html-keyboard-response","86","263125","0.0-15.0-0.22","2011","2","""event"",""trial"",""time""
""fullscreenenter"",""1"",""2033""
","
","
","""event"",""trial"",""time""
""fullscreenenter"",""1"",""2033""
","
","","","","","","null","<div style=""font-size:60px;"">+</div>","null","","fixation","","","","","","","","",""
"memory-trial","87","264944","0.0-15.0-1.22","2011","2","""event"",""trial"",""time""
""fullscreenenter"",""1"",""2033""
","
","
","""event"",""trial"",""time""
""fullscreenenter"",""1"",""2033""
","
","","","","","","816.5999999046326","images/truck4.png","","","memory_trial","1","definitely_old","","","","","","",""
"html-keyboard-response","88","265445","0.0-15.0-0.23","2011","2","""event"",""trial"",""time""
""fullscreenenter"",""1"",""2033""
","
","
","""event"",""trial"",""time""
""fullscreenenter"",""1"",""2033""
","
","","","","","","null","<div style=""font-size:60px;"">+</div>","null","","fixation","","","","","","","","",""
"memory-trial","89","268890","0.0-15.0-1.23","2011","2","""event"",""trial"",""time""
""fullscreenenter"",""1"",""2033""
","
","
","""event"",""trial"",""time""
""fullscreenenter"",""1"",""2033""
","
","","","","","","2438.8999996185303","images/sheep4.png","","","memory_trial","2","maybe_old","","","","","","",""
"html-keyboard-response","90","269392","0.0-15.0-0.24","2011","2","""event"",""trial"",""time""
""fullscreenenter"",""1"",""2033""
","
","
","""event"",""trial"",""time""
""fullscreenenter"",""1"",""2033""
","
","","","","","","null","<div style=""font-size:60px;"">+</div>","null","","fixation","","","","","","","","",""
"memory-trial","91","271328","0.0-15.0-1.24","2011","2","""event"",""trial"",""time""
""fullscreenenter"",""1"",""2033""
","
","
","""event"",""trial"",""time""
""fullscreenenter"",""1"",""2033""
","
","","","","","","932.6999998092651","images/boat5.png","","","memory_trial","4","definitely_new","","","","","","",""
"html-keyboard-response","92","271832","0.0-15.0-0.25","2011","2","""event"",""trial"",""time""
""fullscreenenter"",""1"",""2033""
","
","
","""event"",""trial"",""time""
""fullscreenenter"",""1"",""2033""
","
","","","","","","null","<div style=""font-size:60px;"">+</div>","null","","fixation","","","","","","","","",""
"memory-trial","93","274416","0.0-15.0-1.25","2011","2","""event"",""trial"",""time""
""fullscreenenter"",""1"",""2033""
","
","
","""event"",""trial"",""time""
""fullscreenenter"",""1"",""2033""
","
","","","","","","1579.4000000953674","images/rodent1.png","","","memory_trial","2","maybe_old","","","","","","",""
"html-keyboard-response","94","274917","0.0-15.0-0.26","2011","2","""event"",""trial"",""time""
""fullscreenenter"",""1"",""2033""
","
","
","""event"",""trial"",""time""
""fullscreenenter"",""1"",""2033""
","
","","","","","","null","<div style=""font-size:60px;"">+</div>","null","","fixation","","","","","","","","",""
"memory-trial","95","277831","0.0-15.0-1.26","2011","2","""event"",""trial"",""time""
""fullscreenenter"",""1"",""2033""
","
","
","""event"",""trial"",""time""
""fullscreenenter"",""1"",""2033""
","
","","","","","","1906.5999999046326","images/goat1.png","","","memory_trial","1","definitely_old","","","","","","",""
"html-keyboard-response","96","278336","0.0-15.0-0.27","2011","2","""event"",""trial"",""time""
""fullscreenenter"",""1"",""2033""
","
","
","""event"",""trial"",""time""
""fullscreenenter"",""1"",""2033""
","
","","","","","","null","<div style=""font-size:60px;"">+</div>","null","","fixation","","","","","","","","",""
"memory-trial","97","281968","0.0-15.0-1.27","2011","2","""event"",""trial"",""time""
""fullscreenenter"",""1"",""2033""
","
","
","""event"",""trial"",""time""
""fullscreenenter"",""1"",""2033""
","
","","","","","","2626.2000002861023","images/apple5.png","","","memory_trial","1","definitely_old","","","","","","",""
"html-keyboard-response","98","282469","0.0-15.0-0.28","2011","2","""event"",""trial"",""time""
""fullscreenenter"",""1"",""2033""
","
","
","""event"",""trial"",""time""
""fullscreenenter"",""1"",""2033""
","
","","","","","","null","<div style=""font-size:60px;"">+</div>","null","","fixation","","","","","","","","",""
"memory-trial","99","284618","0.0-15.0-1.28","2011","2","""event"",""trial"",""time""
""fullscreenenter"",""1"",""2033""
","
","
","""event"",""trial"",""time""
""fullscreenenter"",""1"",""2033""
","
","","","","","","1142.5","images/tree3.png","","","memory_trial","1","definitely_old","","","","","","",""
"html-keyboard-response","100","285123","0.0-15.0-0.29","2011","2","""event"",""trial"",""time""
""fullscreenenter"",""1"",""2033""
","
","
","""event"",""trial"",""time""
""fullscreenenter"",""1"",""2033""
","
","","","","","","null","<div style=""font-size:60px;"">+</div>","null","","fixation","","","","","","","","",""
"memory-trial","101","286890","0.0-15.0-1.29","2011","2","""event"",""trial"",""time""
""fullscreenenter"",""1"",""2033""
","
","
","""event"",""trial"",""time""
""fullscreenenter"",""1"",""2033""
","
","","","","","","763.9000000953674","images/rodent3.png","","","memory_trial","1","definitely_old","","","","","","",""
"html-keyboard-response","102","287392","0.0-15.0-0.30","2011","2","""event"",""trial"",""time""
""fullscreenenter"",""1"",""2033""
","
","
","""event"",""trial"",""time""
""fullscreenenter"",""1"",""2033""
","
","","","","","","null","<div style=""font-size:60px;"">+</div>","null","","fixation","","","","","","","","",""
"memory-trial","103","289147","0.0-15.0-1.30","2011","2","""event"",""trial"",""time""
""fullscreenenter"",""1"",""2033""
","
","
","""event"",""trial"",""time""
""fullscreenenter"",""1"",""2033""
","
","","","","","","748.1999998092651","images/plane1.png","","","memory_trial","1","definitely_old","","","","","","",""
"html-keyboard-response","104","289649","0.0-15.0-0.31","2011","2","""event"",""trial"",""time""
""fullscreenenter"",""1"",""2033""
","
","
","""event"",""trial"",""time""
""fullscreenenter"",""1"",""2033""
","
","","","","","","null","<div style=""font-size:60px;"">+</div>","null","","fixation","","","","","","","","",""
"memory-trial","105","291696","0.0-15.0-1.31","2011","2","""event"",""trial"",""time""
""fullscreenenter"",""1"",""2033""
","
","
","""event"",""trial"",""time""
""fullscreenenter"",""1"",""2033""
","
","","","","","","1040.2000002861023","images/sofa3.png","","","memory_trial","4","definitely_new","","","","","","",""
"html-keyboard-response","106","292197","0.0-15.0-0.32","2011","2","""event"",""trial"",""time""
""fullscreenenter"",""1"",""2033""
","
","
","""event"",""trial"",""time""
""fullscreenenter"",""1"",""2033""
","
","","","","","","null","<div style=""font-size:60px;"">+</div>","null","","fixation","","","","","","","","",""
"memory-trial","107","294138","0.0-15.0-1.32","2011","2","""event"",""trial"",""time""
""fullscreenenter"",""1"",""2033""
","
","
","""event"",""trial"",""time""
""fullscreenenter"",""1"",""2033""
","
","","","","","","936.3000001907349","images/plane2.png","","","memory_trial","1","definitely_old","","","","","","",""
"html-keyboard-response","108","294639","0.0-15.0-0.33","2011","2","""event"",""trial"",""time""
""fullscreenenter"",""1"",""2033""
","
","
","""event"",""trial"",""time""
""fullscreenenter"",""1"",""2033""
","
","","","","","","null","<div style=""font-size:60px;"">+</div>","null","","fixation","","","","","","","","",""
"memory-trial","109","296399","0.0-15.0-1.33","2011","2","""event"",""trial"",""time""
""fullscreenenter"",""1"",""2033""
","
","
","""event"",""trial"",""time""
""fullscreenenter"",""1"",""2033""
","
","","","","","","753.2000002861023","images/rabbit5.png","","","memory_trial","1","definitely_old","","","","","","",""
"html-keyboard-response","110","296901","0.0-15.0-0.34","2011","2","""event"",""trial"",""time""
""fullscreenenter"",""1"",""2033""
","
","
","""event"",""trial"",""time""
""fullscreenenter"",""1"",""2033""
","
","","","","","","null","<div style=""font-size:60px;"">+</div>","null","","fixation","","","","","","","","",""
"memory-trial","111","298875","0.0-15.0-1.34","2011","2","""event"",""trial"",""time""
""fullscreenenter"",""1"",""2033""
","
","
","""event"",""trial"",""time""
""fullscreenenter"",""1"",""2033""
","
","","","","","","967.5999999046326","images/cactus4.png","","","memory_trial","1","definitely_old","","","","","","",""
"html-keyboard-response","112","299376","0.0-15.0-0.35","2011","2","""event"",""trial"",""time""
""fullscreenenter"",""1"",""2033""
","
","
","""event"",""trial"",""time""
""fullscreenenter"",""1"",""2033""
","
","","","","","","null","<div style=""font-size:60px;"">+</div>","null","","fixation","","","","","","","","",""
"memory-trial","113","301475","0.0-15.0-1.35","2011","2","""event"",""trial"",""time""
""fullscreenenter"",""1"",""2033""
","
","
","""event"",""trial"",""time""
""fullscreenenter"",""1"",""2033""
","
","","","","","","1093.5","images/train5.png","","","memory_trial","1","definitely_old","","","","","","",""
"html-keyboard-response","114","301978","0.0-15.0-0.36","2011","2","""event"",""trial"",""time""
""fullscreenenter"",""1"",""2033""
","
","
","""event"",""trial"",""time""
""fullscreenenter"",""1"",""2033""
","
","","","","","","null","<div style=""font-size:60px;"">+</div>","null","","fixation","","","","","","","","",""
"memory-trial","115","303813","0.0-15.0-1.36","2011","2","""event"",""trial"",""time""
""fullscreenenter"",""1"",""2033""
","
","
","""event"",""trial"",""time""
""fullscreenenter"",""1"",""2033""
","
","","","","","","832.1000003814697","images/cactus2.png","","","memory_trial","1","definitely_old","","","","","","",""
"html-keyboard-response","116","304315","0.0-15.0-0.37","2011","2","""event"",""trial"",""time""
""fullscreenenter"",""1"",""2033""
","
","
","""event"",""trial"",""time""
""fullscreenenter"",""1"",""2033""
","
","","","","","","null","<div style=""font-size:60px;"">+</div>","null","","fixation","","","","","","","","",""
"memory-trial","117","306288","0.0-15.0-1.37","2011","2","""event"",""trial"",""time""
""fullscreenenter"",""1"",""2033""
","
","
","""event"",""trial"",""time""
""fullscreenenter"",""1"",""2033""
","
","","","","","","968.2000002861023","images/sofa5.png","","","memory_trial","4","definitely_new","","","","","","",""
"html-keyboard-response","118","306789","0.0-15.0-0.38","2011","2","""event"",""trial"",""time""
""fullscreenenter"",""1"",""2033""
","
","
","""event"",""trial"",""time""
""fullscreenenter"",""1"",""2033""
","
","","","","","","null","<div style=""font-size:60px;"">+</div>","null","","fixation","","","","","","","","",""
"memory-trial","119","310171","0.0-15.0-1.38","2011","2","""event"",""trial"",""time""
""fullscreenenter"",""1"",""2033""
","
","
","""event"",""trial"",""time""
""fullscreenenter"",""1"",""2033""
","
","","","","","","2377.699999809265","images/rodent2.png","","","memory_trial","2","maybe_old","","","","","","",""
"html-keyboard-response","120","310673","0.0-15.0-0.39","2011","2","""event"",""trial"",""time""
""fullscreenenter"",""1"",""2033""
","
","
","""event"",""trial"",""time""
""fullscreenenter"",""1"",""2033""
","
","","","","","","null","<div style=""font-size:60px;"">+</div>","null","","fixation","","","","","","","","",""
"memory-trial","121","313280","0.0-15.0-1.39","2011","2","""event"",""trial"",""time""
""fullscreenenter"",""1"",""2033""
","
","
","""event"",""trial"",""time""
""fullscreenenter"",""1"",""2033""
","
","","","","","","1602","images/apple2.png","","","memory_trial","4","definitely_new","","","","","","",""
"html-keyboard-response","122","313781","0.0-15.0-0.40","2011","2","""event"",""trial"",""time""
""fullscreenenter"",""1"",""2033""
","
","
","""event"",""trial"",""time""
""fullscreenenter"",""1"",""2033""
","
","","","","","","null","<div style=""font-size:60px;"">+</div>","null","","fixation","","","","","","","","",""
"memory-trial","123","315637","0.0-15.0-1.40","2011","2","""event"",""trial"",""time""
""fullscreenenter"",""1"",""2033""
","
","
","""event"",""trial"",""time""
""fullscreenenter"",""1"",""2033""
","
","","","","","","849.5","images/boat1.png","","","memory_trial","4","definitely_new","","","","","","",""
"html-keyboard-response","124","316138","0.0-15.0-0.41","2011","2","""event"",""trial"",""time""
""fullscreenenter"",""1"",""2033""
","
","
","""event"",""trial"",""time""
""fullscreenenter"",""1"",""2033""
","
","","","","","","null","<div style=""font-size:60px;"">+</div>","null","","fixation","","","","","","","","",""
"memory-trial","125","318320","0.0-15.0-1.41","2011","2","""event"",""trial"",""time""
""fullscreenenter"",""1"",""2033""
","
","
","""event"",""trial"",""time""
""fullscreenenter"",""1"",""2033""
","
","","","","","","1177.7999997138977","images/goat3.png","","","memory_trial","1","definitely_old","","","","","","",""
"html-keyboard-response","126","318826","0.0-15.0-0.42","2011","2","""event"",""trial"",""time""
""fullscreenenter"",""1"",""2033""
","
","
","""event"",""trial"",""time""
""fullscreenenter"",""1"",""2033""
","
","","","","","","null","<div style=""font-size:60px;"">+</div>","null","","fixation","","","","","","","","",""
"memory-trial","127","321625","0.0-15.0-1.42","2011","2","""event"",""trial"",""time""
""fullscreenenter"",""1"",""2033""
","
","
","""event"",""trial"",""time""
""fullscreenenter"",""1"",""2033""
","
","","","","","","1792.5","images/apple4.png","","","memory_trial","3","maybe_new","","","","","","",""
"html-keyboard-response","128","322127","0.0-15.0-0.43","2011","2","""event"",""trial"",""time""
""fullscreenenter"",""1"",""2033""
","
","
","""event"",""trial"",""time""
""fullscreenenter"",""1"",""2033""
","
","","","","","","null","<div style=""font-size:60px;"">+</div>","null","","fixation","","","","","","","","",""
"memory-trial","129","324251","0.0-15.0-1.43","2011","2","""event"",""trial"",""time""
""fullscreenenter"",""1"",""2033""
","
","
","""event"",""trial"",""time""
""fullscreenenter"",""1"",""2033""
","
","","","","","","1119.5","images/rabbit1.png","","","memory_trial","1","definitely_old","","","","","","",""
"html-keyboard-response","130","324752","0.0-15.0-0.44","2011","2","""event"",""trial"",""time""
""fullscreenenter"",""1"",""2033""
","
","
","""event"",""trial"",""time""
""fullscreenenter"",""1"",""2033""
","
","","","","","","null","<div style=""font-size:60px;"">+</div>","null","","fixation","","","","","","","","",""
"memory-trial","131","327339","0.0-15.0-1.44","2011","2","""event"",""trial"",""time""
""fullscreenenter"",""1"",""2033""
","
","
","""event"",""trial"",""time""
""fullscreenenter"",""1"",""2033""
","
","","","","","","1582.1999998092651","images/apple3.png","","","memory_trial","1","definitely_old","","","","","","",""
"html-keyboard-response","132","327840","0.0-15.0-0.45","2011","2","""event"",""trial"",""time""
""fullscreenenter"",""1"",""2033""
","
","
","""event"",""trial"",""time""
""fullscreenenter"",""1"",""2033""
","
","","","","","","null","<div style=""font-size:60px;"">+</div>","null","","fixation","","","","","","","","",""
"memory-trial","133","329727","0.0-15.0-1.45","2011","2","""event"",""trial"",""time""
""fullscreenenter"",""1"",""2033""
","
","
","""event"",""trial"",""time""
""fullscreenenter"",""1"",""2033""
","
","","","","","","880.9000000953674","images/straw1.png","","","memory_trial","4","definitely_new","","","","","","",""
"html-keyboard-response","134","330229","0.0-15.0-0.46","2011","2","""event"",""trial"",""time""
""fullscreenenter"",""1"",""2033""
","
","
","""event"",""trial"",""time""
""fullscreenenter"",""1"",""2033""
","
","","","","","","null","<div style=""font-size:60px;"">+</div>","null","","fixation","","","","","","","","",""
"memory-trial","135","334117","0.0-15.0-1.46","2011","2","""event"",""trial"",""time""
""fullscreenenter"",""1"",""2033""
","
","
","""event"",""trial"",""time""
""fullscreenenter"",""1"",""2033""
","
","","","","","","2880.9000000953674","images/bed2.png","","","memory_trial","1","definitely_old","","","","","","",""
"html-button-response","136","336132","0.0-15.0-2.46-0.46","2011","2","""event"",""trial"",""time""
""fullscreenenter"",""1"",""2033""
","
","
","""event"",""trial"",""time""
""fullscreenenter"",""1"",""2033""
","
","","","","","","2014.2999997138977","<p> Take a break! </p><p> Click the button to continue. </p>","0","","break","","","","","","","","",""
"html-keyboard-response","137","336635","0.0-15.0-0.47","2011","2","""event"",""trial"",""time""
""fullscreenenter"",""1"",""2033""
","
","
","""event"",""trial"",""time""
""fullscreenenter"",""1"",""2033""
","
","","","","","","null","<div style=""font-size:60px;"">+</div>","null","","fixation","","","","","","","","",""
"memory-trial","138","340138","0.0-15.0-1.47","2011","2","""event"",""trial"",""time""
""fullscreenenter"",""1"",""2033""
","
","
","""event"",""trial"",""time""
""fullscreenenter"",""1"",""2033""
","
","","","","","","2500.0999999046326","images/banana1.png","","","memory_trial","2","maybe_old","","","","","","",""
"html-keyboard-response","139","340640","0.0-15.0-0.48","2011","2","""event"",""trial"",""time""
""fullscreenenter"",""1"",""2033""
","
","
","""event"",""trial"",""time""
""fullscreenenter"",""1"",""2033""
","
","","","","","","null","<div style=""font-size:60px;"">+</div>","null","","fixation","","","","","","","","",""
"memory-trial","140","342672","0.0-15.0-1.48","2011","2","""event"",""trial"",""time""
""fullscreenenter"",""1"",""2033""
","
","
","""event"",""trial"",""time""
""fullscreenenter"",""1"",""2033""
","
","","","","","","1026.8000001907349","images/dog5.png","","","memory_trial","4","definitely_new","","","","","","",""
"html-keyboard-response","141","343173","0.0-15.0-0.49","2011","2","""event"",""trial"",""time""
""fullscreenenter"",""1"",""2033""
","
","
","""event"",""trial"",""time""
""fullscreenenter"",""1"",""2033""
","
","","","","","","null","<div style=""font-size:60px;"">+</div>","null","","fixation","","","","","","","","",""
"memory-trial","142","345696","0.0-15.0-1.49","2011","2","""event"",""trial"",""time""
""fullscreenenter"",""1"",""2033""
","
","
","""event"",""trial"",""time""
""fullscreenenter"",""1"",""2033""
","
","","","","","","1519.0999999046326","images/bed4.png","","","memory_trial","1","definitely_old","","","","","","",""
"html-keyboard-response","143","346197","0.0-15.0-0.50","2011","2","""event"",""trial"",""time""
""fullscreenenter"",""1"",""2033""
","
","
","""event"",""trial"",""time""
""fullscreenenter"",""1"",""2033""
","
","","","","","","null","<div style=""font-size:60px;"">+</div>","null","","fixation","","","","","","","","",""
"memory-trial","144","348933","0.0-15.0-1.50","2011","2","""event"",""trial"",""time""
""fullscreenenter"",""1"",""2033""
","
","
","""event"",""trial"",""time""
""fullscreenenter"",""1"",""2033""
","
","","","","","","1729.5","images/bed5.png","","","memory_trial","2","maybe_old","","","","","","",""
"html-keyboard-response","145","349435","0.0-15.0-0.51","2011","2","""event"",""trial"",""time""
""fullscreenenter"",""1"",""2033""
","
","
","""event"",""trial"",""time""
""fullscreenenter"",""1"",""2033""
","
","","","","","","null","<div style=""font-size:60px;"">+</div>","null","","fixation","","","","","","","","",""
"memory-trial","146","351157","0.0-15.0-1.51","2011","2","""event"",""trial"",""time""
""fullscreenenter"",""1"",""2033""
","
","
","""event"",""trial"",""time""
""fullscreenenter"",""1"",""2033""
","
","","","","","","719.4000000953674","images/feline4.png","","","memory_trial","4","definitely_new","","","","","","",""
"html-keyboard-response","147","351659","0.0-15.0-0.52","2011","2","""event"",""trial"",""time""
""fullscreenenter"",""1"",""2033""
","
","
","""event"",""trial"",""time""
""fullscreenenter"",""1"",""2033""
","
","","","","","","null","<div style=""font-size:60px;"">+</div>","null","","fixation","","","","","","","","",""
"memory-trial","148","354843","0.0-15.0-1.52","2011","2","""event"",""trial"",""time""
""fullscreenenter"",""1"",""2033""
","
","
","""event"",""trial"",""time""
""fullscreenenter"",""1"",""2033""
","
","","","","","","2180.2999997138977","images/goat5.png","","","memory_trial","3","maybe_new","","","","","","",""
"html-keyboard-response","149","355344","0.0-15.0-0.53","2011","2","""event"",""trial"",""time""
""fullscreenenter"",""1"",""2033""
","
","
","""event"",""trial"",""time""
""fullscreenenter"",""1"",""2033""
","
","","","","","","null","<div style=""font-size:60px;"">+</div>","null","","fixation","","","","","","","","",""
"memory-trial","150","357381","0.0-15.0-1.53","2011","2","""event"",""trial"",""time""
""fullscreenenter"",""1"",""2033""
","
","
","""event"",""trial"",""time""
""fullscreenenter"",""1"",""2033""
","
","","","","","","1032.9000000953674","images/truck2.png","","","memory_trial","1","definitely_old","","","","","","",""
"html-keyboard-response","151","357886","0.0-15.0-0.54","2011","2","""event"",""trial"",""time""
""fullscreenenter"",""1"",""2033""
","
","
","""event"",""trial"",""time""
""fullscreenenter"",""1"",""2033""
","
","","","","","","null","<div style=""font-size:60px;"">+</div>","null","","fixation","","","","","","","","",""
"memory-trial","152","360448","0.0-15.0-1.54","2011","2","""event"",""trial"",""time""
""fullscreenenter"",""1"",""2033""
","
","
","""event"",""trial"",""time""
""fullscreenenter"",""1"",""2033""
","
","","","","","","1556.1000003814697","images/orange1.png","","","memory_trial","1","definitely_old","","","","","","",""
"html-keyboard-response","153","360952","0.0-15.0-0.55","2011","2","""event"",""trial"",""time""
""fullscreenenter"",""1"",""2033""
","
","
","""event"",""trial"",""time""
""fullscreenenter"",""1"",""2033""
","
","","","","","","null","<div style=""font-size:60px;"">+</div>","null","","fixation","","","","","","","","",""
"memory-trial","154","364098","0.0-15.0-1.55","2011","2","""event"",""trial"",""time""
""fullscreenenter"",""1"",""2033""
","
","
","""event"",""trial"",""time""
""fullscreenenter"",""1"",""2033""
","
","","","","","","2139.8999996185303","images/truck1.png","","","memory_trial","4","definitely_new","","","","","","",""
"html-keyboard-response","155","364603","0.0-15.0-0.56","2011","2","""event"",""trial"",""time""
""fullscreenenter"",""1"",""2033""
","
","
","""event"",""trial"",""time""
""fullscreenenter"",""1"",""2033""
","
","","","","","","null","<div style=""font-size:60px;"">+</div>","null","","fixation","","","","","","","","",""
"memory-trial","156","366667","0.0-15.0-1.56","2011","2","""event"",""trial"",""time""
""fullscreenenter"",""1"",""2033""
","
","
","""event"",""trial"",""time""
""fullscreenenter"",""1"",""2033""
","
","","","","","","1061","images/straw5.png","","","memory_trial","4","definitely_new","","","","","","",""
"html-keyboard-response","157","367168","0.0-15.0-0.57","2011","2","""event"",""trial"",""time""
""fullscreenenter"",""1"",""2033""
","
","
","""event"",""trial"",""time""
""fullscreenenter"",""1"",""2033""
","
","","","","","","null","<div style=""font-size:60px;"">+</div>","null","","fixation","","","","","","","","",""
"memory-trial","158","369477","0.0-15.0-1.57","2011","2","""event"",""trial"",""time""
""fullscreenenter"",""1"",""2033""
","
","
","""event"",""trial"",""time""
""fullscreenenter"",""1"",""2033""
","
","","","","","","1305.5999999046326","images/feline2.png","","","memory_trial","1","definitely_old","","","","","","",""
"html-keyboard-response","159","369979","0.0-15.0-0.58","2011","2","""event"",""trial"",""time""
""fullscreenenter"",""1"",""2033""
","
","
","""event"",""trial"",""time""
""fullscreenenter"",""1"",""2033""
","
","","","","","","null","<div style=""font-size:60px;"">+</div>","null","","fixation","","","","","","","","",""
"memory-trial","160","371797","0.0-15.0-1.58","2011","2","""event"",""trial"",""time""
""fullscreenenter"",""1"",""2033""
","
","
","""event"",""trial"",""time""
""fullscreenenter"",""1"",""2033""
","
","","","","","","812.3000001907349","images/table3.png","","","memory_trial","4","definitely_new","","","","","","",""
"html-keyboard-response","161","372299","0.0-15.0-0.59","2011","2","""event"",""trial"",""time""
""fullscreenenter"",""1"",""2033""
","
","
","""event"",""trial"",""time""
""fullscreenenter"",""1"",""2033""
","
","","","","","","null","<div style=""font-size:60px;"">+</div>","null","","fixation","","","","","","","","",""
"memory-trial","162","375072","0.0-15.0-1.59","2011","2","""event"",""trial"",""time""
""fullscreenenter"",""1"",""2033""
","
","
","""event"",""trial"",""time""
""fullscreenenter"",""1"",""2033""
","
","","","","","","1767.2999997138977","images/boat3.png","","","memory_trial","4","definitely_new","","","","","","",""
"html-keyboard-response","163","375573","0.0-15.0-0.60","2011","2","""event"",""trial"",""time""
""fullscreenenter"",""1"",""2033""
","
","
","""event"",""trial"",""time""
""fullscreenenter"",""1"",""2033""
","
","","","","","","null","<div style=""font-size:60px;"">+</div>","null","","fixation","","","","","","","","",""
"memory-trial","164","378096","0.0-15.0-1.60","2011","2","""event"",""trial"",""time""
""fullscreenenter"",""1"",""2033""
","
","
","""event"",""trial"",""time""
""fullscreenenter"",""1"",""2033""
","
","","","","","","1517.5","images/bed3.png","","","memory_trial","4","definitely_new","","","","","","",""
"html-keyboard-response","165","378598","0.0-15.0-0.61","2011","2","""event"",""trial"",""time""
""fullscreenenter"",""1"",""2033""
","
","
","""event"",""trial"",""time""
""fullscreenenter"",""1"",""2033""
","
","","","","","","null","<div style=""font-size:60px;"">+</div>","null","","fixation","","","","","","","","",""
"memory-trial","166","381688","0.0-15.0-1.61","2011","2","""event"",""trial"",""time""
""fullscreenenter"",""1"",""2033""
","
","
","""event"",""trial"",""time""
""fullscreenenter"",""1"",""2033""
","
","","","","","","2083","images/cow1.png","","","memory_trial","3","maybe_new","","","","","","",""
"html-keyboard-response","167","382192","0.0-15.0-0.62","2011","2","""event"",""trial"",""time""
""fullscreenenter"",""1"",""2033""
","
","
","""event"",""trial"",""time""
""fullscreenenter"",""1"",""2033""
","
","","","","","","null","<div style=""font-size:60px;"">+</div>","null","","fixation","","","","","","","","",""
"memory-trial","168","385075","0.0-15.0-1.62","2011","2","""event"",""trial"",""time""
""fullscreenenter"",""1"",""2033""
","
","
","""event"",""trial"",""time""
""fullscreenenter"",""1"",""2033""
","
","","","","","","1876","images/cactus1.png","","","memory_trial","3","maybe_new","","","","","","",""
"html-keyboard-response","169","385579","0.0-15.0-0.63","2011","2","""event"",""trial"",""time""
""fullscreenenter"",""1"",""2033""
","
","
","""event"",""trial"",""time""
""fullscreenenter"",""1"",""2033""
","
","","","","","","null","<div style=""font-size:60px;"">+</div>","null","","fixation","","","","","","","","",""
"memory-trial","170","389592","0.0-15.0-1.63","2011","2","""event"",""trial"",""time""
""fullscreenenter"",""1"",""2033""
","
","
","""event"",""trial"",""time""
""fullscreenenter"",""1"",""2033""
","
","","","","","","3007.4000000953674","images/orange3.png","","","memory_trial","2","maybe_old","","","","","","",""
"html-keyboard-response","171","390096","0.0-15.0-0.64","2011","2","""event"",""trial"",""time""
""fullscreenenter"",""1"",""2033""
","
","
","""event"",""trial"",""time""
""fullscreenenter"",""1"",""2033""
","
","","","","","","null","<div style=""font-size:60px;"">+</div>","null","","fixation","","","","","","","","",""
"memory-trial","172","395122","0.0-15.0-1.64","2011","2","""event"",""trial"",""time""
""fullscreenenter"",""1"",""2033""
","
","
","""event"",""trial"",""time""
""fullscreenenter"",""1"",""2033""
","
","","","","","","4019.9000000953674","images/cow4.png","","","memory_trial","4","definitely_new","","","","","","",""
"html-keyboard-response","173","395626","0.0-15.0-0.65","2011","2","""event"",""trial"",""time""
""fullscreenenter"",""1"",""2033""
","
","
","""event"",""trial"",""time""
""fullscreenenter"",""1"",""2033""
","
","","","","","","null","<div style=""font-size:60px;"">+</div>","null","","fixation","","","","","","","","",""
"memory-trial","174","397643","0.0-15.0-1.65","2011","2","""event"",""trial"",""time""
""fullscreenenter"",""1"",""2033""
","
","
","""event"",""trial"",""time""
""fullscreenenter"",""1"",""2033""
","
","","","","","","1011.6999998092651","images/flower2.png","","","memory_trial","1","definitely_old","","","","","","",""
"html-keyboard-response","175","398144","0.0-15.0-0.66","2011","2","""event"",""trial"",""time""
""fullscreenenter"",""1"",""2033""
","
","
","""event"",""trial"",""time""
""fullscreenenter"",""1"",""2033""
","
","","","","","","null","<div style=""font-size:60px;"">+</div>","null","","fixation","","","","","","","","",""
"memory-trial","176","399867","0.0-15.0-1.66","2011","2","""event"",""trial"",""time""
""fullscreenenter"",""1"",""2033""
","
","
","""event"",""trial"",""time""
""fullscreenenter"",""1"",""2033""
","
","","","","","","718.8000001907349","images/dog2.png","","","memory_trial","4","definitely_new","","","","","","",""
"html-keyboard-response","177","400368","0.0-15.0-0.67","2011","2","""event"",""trial"",""time""
""fullscreenenter"",""1"",""2033""
","
","
","""event"",""trial"",""time""
""fullscreenenter"",""1"",""2033""
","
","","","","","","null","<div style=""font-size:60px;"">+</div>","null","","fixation","","","","","","","","",""
"memory-trial","178","403259","0.0-15.0-1.67","2011","2","""event"",""trial"",""time""
""fullscreenenter"",""1"",""2033""
","
","
","""event"",""trial"",""time""
""fullscreenenter"",""1"",""2033""
","
","","","","","","1884.0999999046326","images/apple1.png","","","memory_trial","2","maybe_old","","","","","","",""
"html-keyboard-response","179","403760","0.0-15.0-0.68","2011","2","""event"",""trial"",""time""
""fullscreenenter"",""1"",""2033""
","
","
","""event"",""trial"",""time""
""fullscreenenter"",""1"",""2033""
","
","","","","","","null","<div style=""font-size:60px;"">+</div>","null","","fixation","","","","","","","","",""
"memory-trial","180","406229","0.0-15.0-1.68","2011","2","""event"",""trial"",""time""
""fullscreenenter"",""1"",""2033""
","
","
","""event"",""trial"",""time""
""fullscreenenter"",""1"",""2033""
","
","","","","","","1465.1000003814697","images/rodent5.png","","","memory_trial","1","definitely_old","","","","","","",""
"html-keyboard-response","181","406731","0.0-15.0-0.69","2011","2","""event"",""trial"",""time""
""fullscreenenter"",""1"",""2033""
","
","
","""event"",""trial"",""time""
""fullscreenenter"",""1"",""2033""
","
","","","","","","null","<div style=""font-size:60px;"">+</div>","null","","fixation","","","","","","","","",""
"memory-trial","182","410235","0.0-15.0-1.69","2011","2","""event"",""trial"",""time""
""fullscreenenter"",""1"",""2033""
","
","
","""event"",""trial"",""time""
""fullscreenenter"",""1"",""2033""
","
","","","","","","2500.300000190735","images/goat4.png","","","memory_trial","4","definitely_new","","","","","","",""
"html-keyboard-response","183","410736","0.0-15.0-0.70","2011","2","""event"",""trial"",""time""
""fullscreenenter"",""1"",""2033""
","
","
","""event"",""trial"",""time""
""fullscreenenter"",""1"",""2033""
","
","","","","","","null","<div style=""font-size:60px;"">+</div>","null","","fixation","","","","","","","","",""
"memory-trial","184","412672","0.0-15.0-1.70","2011","2","""event"",""trial"",""time""
""fullscreenenter"",""1"",""2033""
","
","
","""event"",""trial"",""time""
""fullscreenenter"",""1"",""2033""
","
","","","","","","929.2000002861023","images/truck3.png","","","memory_trial","1","definitely_old","","","","","","",""
"html-keyboard-response","185","413173","0.0-15.0-0.71","2011","2","""event"",""trial"",""time""
""fullscreenenter"",""1"",""2033""
","
","
","""event"",""trial"",""time""
""fullscreenenter"",""1"",""2033""
","
","","","","","","null","<div style=""font-size:60px;"">+</div>","null","","fixation","","","","","","","","",""
"memory-trial","186","416917","0.0-15.0-1.71","2011","2","""event"",""trial"",""time""
""fullscreenenter"",""1"",""2033""
","
","
","""event"",""trial"",""time""
""fullscreenenter"",""1"",""2033""
","
","","","","","","2737.0999999046326","images/table4.png","","","memory_trial","2","maybe_old","","","","","","",""
"html-keyboard-response","187","417419","0.0-15.0-0.72","2011","2","""event"",""trial"",""time""
""fullscreenenter"",""1"",""2033""
","
","
","""event"",""trial"",""time""
""fullscreenenter"",""1"",""2033""
","
","","","","","","null","<div style=""font-size:60px;"">+</div>","null","","fixation","","","","","","","","",""
"memory-trial","188","419493","0.0-15.0-1.72","2011","2","""event"",""trial"",""time""
""fullscreenenter"",""1"",""2033""
","
","
","""event"",""trial"",""time""
""fullscreenenter"",""1"",""2033""
","
","","","","","","1068.0999999046326","images/train1.png","","","memory_trial","1","definitely_old","","","","","","",""
"html-keyboard-response","189","419995","0.0-15.0-0.73","2011","2","""event"",""trial"",""time""
""fullscreenenter"",""1"",""2033""
","
","
","""event"",""trial"",""time""
""fullscreenenter"",""1"",""2033""
","
","","","","","","null","<div style=""font-size:60px;"">+</div>","null","","fixation","","","","","","","","",""
"memory-trial","190","423094","0.0-15.0-1.73","2011","2","""event"",""trial"",""time""
""fullscreenenter"",""1"",""2033""
","
","
","""event"",""trial"",""time""
""fullscreenenter"",""1"",""2033""
","
","","","","","","2092.2000002861023","images/rabbit4.png","","","memory_trial","2","maybe_old","","","","","","",""
"html-keyboard-response","191","423595","0.0-15.0-0.74","2011","2","""event"",""trial"",""time""
""fullscreenenter"",""1"",""2033""
","
","
","""event"",""trial"",""time""
""fullscreenenter"",""1"",""2033""
","
","","","","","","null","<div style=""font-size:60px;"">+</div>","null","","fixation","","","","","","","","",""
"memory-trial","192","425435","0.0-15.0-1.74","2011","2","""event"",""trial"",""time""
""fullscreenenter"",""1"",""2033""
","
","
","""event"",""trial"",""time""
""fullscreenenter"",""1"",""2033""
","
","","","","","","833","images/tree2.png","","","memory_trial","1","definitely_old","","","","","","",""
"html-keyboard-response","193","425936","0.0-15.0-0.75","2011","2","""event"",""trial"",""time""
""fullscreenenter"",""1"",""2033""
","
","
","""event"",""trial"",""time""
""fullscreenenter"",""1"",""2033""
","
","","","","","","null","<div style=""font-size:60px;"">+</div>","null","","fixation","","","","","","","","",""
"memory-trial","194","429152","0.0-15.0-1.75","2011","2","""event"",""trial"",""time""
""fullscreenenter"",""1"",""2033""
","
","
","""event"",""trial"",""time""
""fullscreenenter"",""1"",""2033""
","
","","","","","","2209.5","images/banana3.png","","","memory_trial","1","definitely_old","","","","","","",""
"html-keyboard-response","195","429653","0.0-15.0-0.76","2011","2","""event"",""trial"",""time""
""fullscreenenter"",""1"",""2033""
","
","
","""event"",""trial"",""time""
""fullscreenenter"",""1"",""2033""
","
","","","","","","null","<div style=""font-size:60px;"">+</div>","null","","fixation","","","","","","","","",""
"memory-trial","196","431579","0.0-15.0-1.76","2011","2","""event"",""trial"",""time""
""fullscreenenter"",""1"",""2033""
","
","
","""event"",""trial"",""time""
""fullscreenenter"",""1"",""2033""
","
","","","","","","919.5999999046326","images/bush2.png","","","memory_trial","4","definitely_new","","","","","","",""
"html-keyboard-response","197","432080","0.0-15.0-0.77","2011","2","""event"",""trial"",""time""
""fullscreenenter"",""1"",""2033""
","
","
","""event"",""trial"",""time""
""fullscreenenter"",""1"",""2033""
","
","","","","","","null","<div style=""font-size:60px;"">+</div>","null","","fixation","","","","","","","","",""
"memory-trial","198","433872","0.0-15.0-1.77","2011","2","""event"",""trial"",""time""
""fullscreenenter"",""1"",""2033""
","
","
","""event"",""trial"",""time""
""fullscreenenter"",""1"",""2033""
","
","","","","","","786.6999998092651","images/train2.png","","","memory_trial","1","definitely_old","","","","","","",""
"html-keyboard-response","199","434374","0.0-15.0-0.78","2011","2","""event"",""trial"",""time""
""fullscreenenter"",""1"",""2033""
","
","
","""event"",""trial"",""time""
""fullscreenenter"",""1"",""2033""
","
","","","","","","null","<div style=""font-size:60px;"">+</div>","null","","fixation","","","","","","","","",""
"memory-trial","200","436855","0.0-15.0-1.78","2011","2","""event"",""trial"",""time""
""fullscreenenter"",""1"",""2033""
","
","
","""event"",""trial"",""time""
""fullscreenenter"",""1"",""2033""
","
","","","","","","1474.4000000953674","images/table2.png","","","memory_trial","1","definitely_old","","","","","","",""
"html-keyboard-response","201","437360","0.0-15.0-0.79","2011","2","""event"",""trial"",""time""
""fullscreenenter"",""1"",""2033""
","
","
","""event"",""trial"",""time""
""fullscreenenter"",""1"",""2033""
","
","","","","","","null","<div style=""font-size:60px;"">+</div>","null","","fixation","","","","","","","","",""
"memory-trial","202","440299","0.0-15.0-1.79","2011","2","""event"",""trial"",""time""
""fullscreenenter"",""1"",""2033""
","
","
","""event"",""trial"",""time""
""fullscreenenter"",""1"",""2033""
","
","","","","","","1931.5","images/orange2.png","","","memory_trial","2","maybe_old","","","","","","",""
"html-keyboard-response","203","440802","0.0-15.0-0.80","2011","2","""event"",""trial"",""time""
""fullscreenenter"",""1"",""2033""
","
","
","""event"",""trial"",""time""
""fullscreenenter"",""1"",""2033""
","
","","","","","","null","<div style=""font-size:60px;"">+</div>","null","","fixation","","","","","","","","",""
"memory-trial","204","443163","0.0-15.0-1.80","2011","2","""event"",""trial"",""time""
""fullscreenenter"",""1"",""2033""
","
","
","""event"",""trial"",""time""
""fullscreenenter"",""1"",""2033""
","
","","","","","","1354.2999997138977","images/orange5.png","","","memory_trial","4","definitely_new","","","","","","",""
"html-keyboard-response","205","443664","0.0-15.0-0.81","2011","2","""event"",""trial"",""time""
""fullscreenenter"",""1"",""2033""
","
","
","""event"",""trial"",""time""
""fullscreenenter"",""1"",""2033""
","
","","","","","","null","<div style=""font-size:60px;"">+</div>","null","","fixation","","","","","","","","",""
"memory-trial","206","445659","0.0-15.0-1.81","2011","2","""event"",""trial"",""time""
""fullscreenenter"",""1"",""2033""
","
","
","""event"",""trial"",""time""
""fullscreenenter"",""1"",""2033""
","
","","","","","","990.6999998092651","images/feline3.png","","","memory_trial","4","definitely_new","","","","","","",""
"html-keyboard-response","207","446160","0.0-15.0-0.82","2011","2","""event"",""trial"",""time""
""fullscreenenter"",""1"",""2033""
","
","
","""event"",""trial"",""time""
""fullscreenenter"",""1"",""2033""
","
","","","","","","null","<div style=""font-size:60px;"">+</div>","null","","fixation","","","","","","","","",""
"memory-trial","208","448128","0.0-15.0-1.82","2011","2","""event"",""trial"",""time""
""fullscreenenter"",""1"",""2033""
","
","
","""event"",""trial"",""time""
""fullscreenenter"",""1"",""2033""
","
","","","","","","961.6999998092651","images/bush4.png","","","memory_trial","4","definitely_new","","","","","","",""
"html-keyboard-response","209","448630","0.0-15.0-0.83","2011","2","""event"",""trial"",""time""
""fullscreenenter"",""1"",""2033""
","
","
","""event"",""trial"",""time""
""fullscreenenter"",""1"",""2033""
","
","","","","","","null","<div style=""font-size:60px;"">+</div>","null","","fixation","","","","","","","","",""
"memory-trial","210","450427","0.0-15.0-1.83","2011","2","""event"",""trial"",""time""
""fullscreenenter"",""1"",""2033""
","
","
","""event"",""trial"",""time""
""fullscreenenter"",""1"",""2033""
","
","","","","","","792.0999999046326","images/horse4.png","","","memory_trial","4","definitely_new","","","","","","",""
"html-keyboard-response","211","450930","0.0-15.0-0.84","2011","2","""event"",""trial"",""time""
""fullscreenenter"",""1"",""2033""
","
","
","""event"",""trial"",""time""
""fullscreenenter"",""1"",""2033""
","
","","","","","","null","<div style=""font-size:60px;"">+</div>","null","","fixation","","","","","","","","",""
"memory-trial","212","452896","0.0-15.0-1.84","2011","2","""event"",""trial"",""time""
""fullscreenenter"",""1"",""2033""
","
","
","""event"",""trial"",""time""
""fullscreenenter"",""1"",""2033""
","
","","","","","","962.6999998092651","images/flower3.png","","","memory_trial","1","definitely_old","","","","","","",""
"html-keyboard-response","213","453399","0.0-15.0-0.85","2011","2","""event"",""trial"",""time""
""fullscreenenter"",""1"",""2033""
","
","
","""event"",""trial"",""time""
""fullscreenenter"",""1"",""2033""
","
","","","","","","null","<div style=""font-size:60px;"">+</div>","null","","fixation","","","","","","","","",""
"memory-trial","214","455178","0.0-15.0-1.85","2011","2","""event"",""trial"",""time""
""fullscreenenter"",""1"",""2033""
","
","
","""event"",""trial"",""time""
""fullscreenenter"",""1"",""2033""
","
","","","","","","772.4000000953674","images/straw4.png","","","memory_trial","4","definitely_new","","","","","","",""
"html-keyboard-response","215","455680","0.0-15.0-0.86","2011","2","""event"",""trial"",""time""
""fullscreenenter"",""1"",""2033""
","
","
","""event"",""trial"",""time""
""fullscreenenter"",""1"",""2033""
","
","","","","","","null","<div style=""font-size:60px;"">+</div>","null","","fixation","","","","","","","","",""
"memory-trial","216","457876","0.0-15.0-1.86","2011","2","""event"",""trial"",""time""
""fullscreenenter"",""1"",""2033""
","
","
","""event"",""trial"",""time""
""fullscreenenter"",""1"",""2033""
","
","","","","","","1189.8000001907349","images/bed1.png","","","memory_trial","1","definitely_old","","","","","","",""
"html-keyboard-response","217","458379","0.0-15.0-0.87","2011","2","""event"",""trial"",""time""
""fullscreenenter"",""1"",""2033""
","
","
","""event"",""trial"",""time""
""fullscreenenter"",""1"",""2033""
","
","","","","","","null","<div style=""font-size:60px;"">+</div>","null","","fixation","","","","","","","","",""
"memory-trial","218","460598","0.0-15.0-1.87","2011","2","""event"",""trial"",""time""
""fullscreenenter"",""1"",""2033""
","
","
","""event"",""trial"",""time""
""fullscreenenter"",""1"",""2033""
","
","","","","","","1211.2999997138977","images/train4.png","","","memory_trial","4","definitely_new","","","","","","",""
"html-keyboard-response","219","461099","0.0-15.0-0.88","2011","2","""event"",""trial"",""time""
""fullscreenenter"",""1"",""2033""
","
","
","""event"",""trial"",""time""
""fullscreenenter"",""1"",""2033""
","
","","","","","","null","<div style=""font-size:60px;"">+</div>","null","","fixation","","","","","","","","",""
"memory-trial","220","463318","0.0-15.0-1.88","2011","2","""event"",""trial"",""time""
""fullscreenenter"",""1"",""2033""
","
","
","""event"",""trial"",""time""
""fullscreenenter"",""1"",""2033""
","
","","","","","","1214.8000001907349","images/rodent4.png","","","memory_trial","4","definitely_new","","","","","","",""
"html-keyboard-response","221","463819","0.0-15.0-0.89","2011","2","""event"",""trial"",""time""
""fullscreenenter"",""1"",""2033""
","
","
","""event"",""trial"",""time""
""fullscreenenter"",""1"",""2033""
","
","","","","","","null","<div style=""font-size:60px;"">+</div>","null","","fixation","","","","","","","","",""
"memory-trial","222","465755","0.0-15.0-1.89","2011","2","""event"",""trial"",""time""
""fullscreenenter"",""1"",""2033""
","
","
","""event"",""trial"",""time""
""fullscreenenter"",""1"",""2033""
","
","","","","","","929.3000001907349","images/chair2.png","","","memory_trial","1","definitely_old","","","","","","",""
"html-keyboard-response","223","466258","0.0-15.0-0.90","2011","2","""event"",""trial"",""time""
""fullscreenenter"",""1"",""2033""
","
","
","""event"",""trial"",""time""
""fullscreenenter"",""1"",""2033""
","
","","","","","","null","<div style=""font-size:60px;"">+</div>","null","","fixation","","","","","","","","",""
"memory-trial","224","468357","0.0-15.0-1.90","2011","2","""event"",""trial"",""time""
""fullscreenenter"",""1"",""2033""
","
","
","""event"",""trial"",""time""
""fullscreenenter"",""1"",""2033""
","
","","","","","","1095.3000001907349","images/rabbit3.png","","","memory_trial","4","definitely_new","","","","","","",""
"html-keyboard-response","225","468858","0.0-15.0-0.91","2011","2","""event"",""trial"",""time""
""fullscreenenter"",""1"",""2033""
","
","
","""event"",""trial"",""time""
""fullscreenenter"",""1"",""2033""
","
","","","","","","null","<div style=""font-size:60px;"">+</div>","null","","fixation","","","","","","","","",""
"memory-trial","226","470558","0.0-15.0-1.91","2011","2","""event"",""trial"",""time""
""fullscreenenter"",""1"",""2033""
","
","
","""event"",""trial"",""time""
""fullscreenenter"",""1"",""2033""
","
","","","","","","694","images/dog1.png","","","memory_trial","4","definitely_new","","","","","","",""
"html-keyboard-response","227","471063","0.0-15.0-0.92","2011","2","""event"",""trial"",""time""
""fullscreenenter"",""1"",""2033""
","
","
","""event"",""trial"",""time""
""fullscreenenter"",""1"",""2033""
","
","","","","","","null","<div style=""font-size:60px;"">+</div>","null","","fixation","","","","","","","","",""
"memory-trial","228","474326","0.0-15.0-1.92","2011","2","""event"",""trial"",""time""
""fullscreenenter"",""1"",""2033""
","
","
","""event"",""trial"",""time""
""fullscreenenter"",""1"",""2033""
","
","","","","","","2257.699999809265","images/flower1.png","","","memory_trial","1","definitely_old","","","","","","",""
"html-keyboard-response","229","474827","0.0-15.0-0.93","2011","2","""event"",""trial"",""time""
""fullscreenenter"",""1"",""2033""
","
","
","""event"",""trial"",""time""
""fullscreenenter"",""1"",""2033""
","
","","","","","","null","<div style=""font-size:60px;"">+</div>","null","","fixation","","","","","","","","",""
"memory-trial","230","479867","0.0-15.0-1.93","2011","2","""event"",""trial"",""time""
""fullscreenenter"",""1"",""2033""
","
","
","""event"",""trial"",""time""
""fullscreenenter"",""1"",""2033""
","
","","","","","","4033.0999999046326","images/feline1.png","","","memory_trial","3","maybe_new","","","","","","",""
"html-keyboard-response","231","480368","0.0-15.0-0.94","2011","2","""event"",""trial"",""time""
""fullscreenenter"",""1"",""2033""
","
","
","""event"",""trial"",""time""
""fullscreenenter"",""1"",""2033""
","
","","","","","","null","<div style=""font-size:60px;"">+</div>","null","","fixation","","","","","","","","",""
"memory-trial","232","482692","0.0-15.0-1.94","2011","2","""event"",""trial"",""time""
""fullscreenenter"",""1"",""2033""
","
","
","""event"",""trial"",""time""
""fullscreenenter"",""1"",""2033""
","
","","","","","","1315.1999998092651","images/flower5.png","","","memory_trial","4","definitely_new","","","","","","",""
"html-keyboard-response","233","483195","0.0-15.0-0.95","2011","2","""event"",""trial"",""time""
""fullscreenenter"",""1"",""2033""
","
","
","""event"",""trial"",""time""
""fullscreenenter"",""1"",""2033""
","
","","","","","","null","<div style=""font-size:60px;"">+</div>","null","","fixation","","","","","","","","",""
"memory-trial","234","486559","0.0-15.0-1.95","2011","2","""event"",""trial"",""time""
""fullscreenenter"",""1"",""2033""
","
","
","""event"",""trial"",""time""
""fullscreenenter"",""1"",""2033""
","
","","","","","","2357.7999997138977","images/cactus3.png","","","memory_trial","1","definitely_old","","","","","","",""
"html-keyboard-response","235","487061","0.0-15.0-0.96","2011","2","""event"",""trial"",""time""
""fullscreenenter"",""1"",""2033""
","
","
","""event"",""trial"",""time""
""fullscreenenter"",""1"",""2033""
","
","","","","","","null","<div style=""font-size:60px;"">+</div>","null","","fixation","","","","","","","","",""
"memory-trial","236","491355","0.0-15.0-1.96","2011","2","""event"",""trial"",""time""
""fullscreenenter"",""1"",""2033""
","
","
","""event"",""trial"",""time""
""fullscreenenter"",""1"",""2033""
","
","","","","","","3287.699999809265","images/chair4.png","","","memory_trial","2","maybe_old","","","","","","",""
"html-keyboard-response","237","491856","0.0-15.0-0.97","2011","2","""event"",""trial"",""time""
""fullscreenenter"",""1"",""2033""
","
","
","""event"",""trial"",""time""
""fullscreenenter"",""1"",""2033""
","
","","","","","","null","<div style=""font-size:60px;"">+</div>","null","","fixation","","","","","","","","",""
"memory-trial","238","493803","0.0-15.0-1.97","2011","2","""event"",""trial"",""time""
""fullscreenenter"",""1"",""2033""
","
","
","""event"",""trial"",""time""
""fullscreenenter"",""1"",""2033""
","
","","","","","","939.3000001907349","images/truck5.png","","","memory_trial","4","definitely_new","","","","","","",""
"html-keyboard-response","239","494308","0.0-15.0-0.98","2011","2","""event"",""trial"",""time""
""fullscreenenter"",""1"",""2033""
","
","
","""event"",""trial"",""time""
""fullscreenenter"",""1"",""2033""
","
","","","","","","null","<div style=""font-size:60px;"">+</div>","null","","fixation","","","","","","","","",""
"memory-trial","240","497974","0.0-15.0-1.98","2011","2","""event"",""trial"",""time""
""fullscreenenter"",""1"",""2033""
","
","
","""event"",""trial"",""time""
""fullscreenenter"",""1"",""2033""
","
","","","","","","2658.2000002861023","images/flower4.png","","","memory_trial","4","definitely_new","","","","","","",""
"html-keyboard-response","241","498475","0.0-15.0-0.99","2011","2","""event"",""trial"",""time""
""fullscreenenter"",""1"",""2033""
","
","
","""event"",""trial"",""time""
""fullscreenenter"",""1"",""2033""
","
","","","","","","null","<div style=""font-size:60px;"">+</div>","null","","fixation","","","","","","","","",""
"memory-trial","242","500517","0.0-15.0-1.99","2011","2","""event"",""trial"",""time""
""fullscreenenter"",""1"",""2033""
","
","
","""event"",""trial"",""time""
""fullscreenenter"",""1"",""2033""
","
","","","","","","1038.4000000953674","images/straw3.png","","","memory_trial","4","definitely_new","","","","","","",""
"html-keyboard-response","243","501019","0.0-15.0-0.100","2011","2","""event"",""trial"",""time""
""fullscreenenter"",""1"",""2033""
","
","
","""event"",""trial"",""time""
""fullscreenenter"",""1"",""2033""
","
","","","","","","null","<div style=""font-size:60px;"">+</div>","null","","fixation","","","","","","","","",""
"memory-trial","244","504320","0.0-15.0-1.100","2011","2","""event"",""trial"",""time""
""fullscreenenter"",""1"",""2033""
","
","
","""event"",""trial"",""time""
""fullscreenenter"",""1"",""2033""
","
","","","","","","2298.7999997138977","images/banana5.png","","","memory_trial","1","definitely_old","","","","","","",""
"html-keyboard-response","245","504825","0.0-15.0-0.101","2011","2","""event"",""trial"",""time""
""fullscreenenter"",""1"",""2033""
","
","
","""event"",""trial"",""time""
""fullscreenenter"",""1"",""2033""
","
","","","","","","null","<div style=""font-size:60px;"">+</div>","null","","fixation","","","","","","","","",""
"memory-trial","246","507525","0.0-15.0-1.101","2011","2","""event"",""trial"",""time""
""fullscreenenter"",""1"",""2033""
","
","
","""event"",""trial"",""time""
""fullscreenenter"",""1"",""2033""
","
","","","","","","1696.5","images/feline5.png","","","memory_trial","1","definitely_old","","","","","","",""
"html-button-response","247","508781","0.0-15.0-2.101-0.101","2011","2","""event"",""trial"",""time""
""fullscreenenter"",""1"",""2033""
","
","
","""event"",""trial"",""time""
""fullscreenenter"",""1"",""2033""
","
","","","","","","1254.7000002861023","<p> Take a break! </p><p> Click the button to continue. </p>","0","","break","","","","","","","","",""
"html-keyboard-response","248","509285","0.0-15.0-0.102","2011","2","""event"",""trial"",""time""
""fullscreenenter"",""1"",""2033""
","
","
","""event"",""trial"",""time""
""fullscreenenter"",""1"",""2033""
","
","","","","","","null","<div style=""font-size:60px;"">+</div>","null","","fixation","","","","","","","","",""
"memory-trial","249","512859","0.0-15.0-1.102","2011","2","""event"",""trial"",""time""
""fullscreenenter"",""1"",""2033""
","
","
","""event"",""trial"",""time""
""fullscreenenter"",""1"",""2033""
","
","","","","","","2570.9000000953674","images/banana2.png","","","memory_trial","1","definitely_old","","","","","","",""
"html-keyboard-response","250","513360","0.0-15.0-0.103","2011","2","""event"",""trial"",""time""
""fullscreenenter"",""1"",""2033""
","
","
","""event"",""trial"",""time""
""fullscreenenter"",""1"",""2033""
","
","","","","","","null","<div style=""font-size:60px;"">+</div>","null","","fixation","","","","","","","","",""
"memory-trial","251","517461","0.0-15.0-1.103","2011","2","""event"",""trial"",""time""
""fullscreenenter"",""1"",""2033""
","
","
","""event"",""trial"",""time""
""fullscreenenter"",""1"",""2033""
","
","","","","","","3097.4000000953674","images/sheep2.png","","","memory_trial","2","maybe_old","","","","","","",""
"html-keyboard-response","252","517963","0.0-15.0-0.104","2011","2","""event"",""trial"",""time""
""fullscreenenter"",""1"",""2033""
","
","
","""event"",""trial"",""time""
""fullscreenenter"",""1"",""2033""
","
","","","","","","null","<div style=""font-size:60px;"">+</div>","null","","fixation","","","","","","","","",""
"memory-trial","253","520224","0.0-15.0-1.104","2011","2","""event"",""trial"",""time""
""fullscreenenter"",""1"",""2033""
","
","
","""event"",""trial"",""time""
""fullscreenenter"",""1"",""2033""
","
","","","","","","1255.2000002861023","images/sofa4.png","","","memory_trial","4","definitely_new","","","","","","",""
"html-keyboard-response","254","520725","0.0-15.0-0.105","2011","2","""event"",""trial"",""time""
""fullscreenenter"",""1"",""2033""
","
","
","""event"",""trial"",""time""
""fullscreenenter"",""1"",""2033""
","
","","","","","","null","<div style=""font-size:60px;"">+</div>","null","","fixation","","","","","","","","",""
"memory-trial","255","522681","0.0-15.0-1.105","2011","2","""event"",""trial"",""time""
""fullscreenenter"",""1"",""2033""
","
","
","""event"",""trial"",""time""
""fullscreenenter"",""1"",""2033""
","
","","","","","","950","images/banana4.png","","","memory_trial","4","definitely_new","","","","","","",""
"html-keyboard-response","256","523184","0.0-15.0-0.106","2011","2","""event"",""trial"",""time""
""fullscreenenter"",""1"",""2033""
","
","
","""event"",""trial"",""time""
""fullscreenenter"",""1"",""2033""
","
","","","","","","null","<div style=""font-size:60px;"">+</div>","null","","fixation","","","","","","","","",""
"memory-trial","257","527296","0.0-15.0-1.106","2011","2","""event"",""trial"",""time""
""fullscreenenter"",""1"",""2033""
","
","
","""event"",""trial"",""time""
""fullscreenenter"",""1"",""2033""
","
","","","","","","3106","images/boat2.png","","","memory_trial","4","definitely_new","","","","","","",""
"html-keyboard-response","258","527798","0.0-15.0-0.107","2011","2","""event"",""trial"",""time""
""fullscreenenter"",""1"",""2033""
","
","
","""event"",""trial"",""time""
""fullscreenenter"",""1"",""2033""
","
","","","","","","null","<div style=""font-size:60px;"">+</div>","null","","fixation","","","","","","","","",""
"memory-trial","259","531414","0.0-15.0-1.107","2011","2","""event"",""trial"",""time""
""fullscreenenter"",""1"",""2033""
","
","
","""event"",""trial"",""time""
""fullscreenenter"",""1"",""2033""
","
","","","","","","2613.5","images/horse2.png","","","memory_trial","4","definitely_new","","","","","","",""
"html-keyboard-response","260","531915","0.0-15.0-0.108","2011","2","""event"",""trial"",""time""
""fullscreenenter"",""1"",""2033""
","
","
","""event"",""trial"",""time""
""fullscreenenter"",""1"",""2033""
","
","","","","","","null","<div style=""font-size:60px;"">+</div>","null","","fixation","","","","","","","","",""
"memory-trial","261","535819","0.0-15.0-1.108","2011","2","""event"",""trial"",""time""
""fullscreenenter"",""1"",""2033""
","
","
","""event"",""trial"",""time""
""fullscreenenter"",""1"",""2033""
","
","","","","","","2898.800000190735","images/chair1.png","","","memory_trial","1","definitely_old","","","","","","",""
"html-keyboard-response","262","536320","0.0-15.0-0.109","2011","2","""event"",""trial"",""time""
""fullscreenenter"",""1"",""2033""
","
","
","""event"",""trial"",""time""
""fullscreenenter"",""1"",""2033""
","
","","","","","","null","<div style=""font-size:60px;"">+</div>","null","","fixation","","","","","","","","",""
"memory-trial","263","538438","0.0-15.0-1.109","2011","2","""event"",""trial"",""time""
""fullscreenenter"",""1"",""2033""
","
","
","""event"",""trial"",""time""
""fullscreenenter"",""1"",""2033""
","
","","","","","","1113","images/plane5.png","","","memory_trial","4","definitely_new","","","","","","",""
"html-keyboard-response","264","538939","0.0-15.0-0.110","2011","2","""event"",""trial"",""time""
""fullscreenenter"",""1"",""2033""
","
","
","""event"",""trial"",""time""
""fullscreenenter"",""1"",""2033""
","
","","","","","","null","<div style=""font-size:60px;"">+</div>","null","","fixation","","","","","","","","",""
"memory-trial","265","540582","0.0-15.0-1.110","2011","2","""event"",""trial"",""time""
""fullscreenenter"",""1"",""2033""
","
","
","""event"",""trial"",""time""
""fullscreenenter"",""1"",""2033""
","
","","","","","","638.2999997138977","images/bush1.png","","","memory_trial","4","definitely_new","","","","","","",""
"html-keyboard-response","266","541083","0.0-15.0-0.111","2011","2","""event"",""trial"",""time""
""fullscreenenter"",""1"",""2033""
","
","
","""event"",""trial"",""time""
""fullscreenenter"",""1"",""2033""
","
","","","","","","null","<div style=""font-size:60px;"">+</div>","null","","fixation","","","","","","","","",""
"memory-trial","267","542736","0.0-15.0-1.111","2011","2","""event"",""trial"",""time""
""fullscreenenter"",""1"",""2033""
","
","
","""event"",""trial"",""time""
""fullscreenenter"",""1"",""2033""
","
","","","","","","647.5","images/chair5.png","","","memory_trial","4","definitely_new","","","","","","",""
"html-keyboard-response","268","543238","0.0-15.0-0.112","2011","2","""event"",""trial"",""time""
""fullscreenenter"",""1"",""2033""
","
","
","""event"",""trial"",""time""
""fullscreenenter"",""1"",""2033""
","
","","","","","","null","<div style=""font-size:60px;"">+</div>","null","","fixation","","","","","","","","",""
"memory-trial","269","545168","0.0-15.0-1.112","2011","2","""event"",""trial"",""time""
""fullscreenenter"",""1"",""2033""
","
","
","""event"",""trial"",""time""
""fullscreenenter"",""1"",""2033""
","
","","","","","","925","images/sheep1.png","","","memory_trial","4","definitely_new","","","","","","",""
"html-keyboard-response","270","545672","0.0-15.0-0.113","2011","2","""event"",""trial"",""time""
""fullscreenenter"",""1"",""2033""
","
","
","""event"",""trial"",""time""
""fullscreenenter"",""1"",""2033""
","
","","","","","","null","<div style=""font-size:60px;"">+</div>","null","","fixation","","","","","","","","",""
"memory-trial","271","548625","0.0-15.0-1.113","2011","2","""event"",""trial"",""time""
""fullscreenenter"",""1"",""2033""
","
","
","""event"",""trial"",""time""
""fullscreenenter"",""1"",""2033""
","
","","","","","","1949.4000000953674","images/cow2.png","","","memory_trial","2","maybe_old","","","","","","",""
"html-keyboard-response","272","549131","0.0-15.0-0.114","2011","2","""event"",""trial"",""time""
""fullscreenenter"",""1"",""2033""
","
","
","""event"",""trial"",""time""
""fullscreenenter"",""1"",""2033""
","
","","","","","","null","<div style=""font-size:60px;"">+</div>","null","","fixation","","","","","","","","",""
"memory-trial","273","550936","0.0-15.0-1.114","2011","2","""event"",""trial"",""time""
""fullscreenenter"",""1"",""2033""
","
","
","""event"",""trial"",""time""
""fullscreenenter"",""1"",""2033""
","
","","","","","","799.7999997138977","images/train3.png","","","memory_trial","4","definitely_new","","","","","","",""
"html-keyboard-response","274","551440","0.0-15.0-0.115","2011","2","""event"",""trial"",""time""
""fullscreenenter"",""1"",""2033""
","
","
","""event"",""trial"",""time""
""fullscreenenter"",""1"",""2033""
","
","","","","","","null","<div style=""font-size:60px;"">+</div>","null","","fixation","","","","","","","","",""
"memory-trial","275","553152","0.0-15.0-1.115","2011","2","""event"",""trial"",""time""
""fullscreenenter"",""1"",""2033""
","
","
","""event"",""trial"",""time""
""fullscreenenter"",""1"",""2033""
","
","","","","","","708.7999997138977","images/boat4.png","","","memory_trial","4","definitely_new","","","","","","",""
"html-keyboard-response","276","553654","0.0-15.0-0.116","2011","2","""event"",""trial"",""time""
""fullscreenenter"",""1"",""2033""
","
","
","""event"",""trial"",""time""
""fullscreenenter"",""1"",""2033""
","
","","","","","","null","<div style=""font-size:60px;"">+</div>","null","","fixation","","","","","","","","",""
"memory-trial","277","555424","0.0-15.0-1.116","2011","2","""event"",""trial"",""time""
""fullscreenenter"",""1"",""2033""
","
","
","""event"",""trial"",""time""
""fullscreenenter"",""1"",""2033""
","
","","","","","","767.0999999046326","images/table5.png","","","memory_trial","4","definitely_new","","","","","","",""
"html-keyboard-response","278","555926","0.0-15.0-0.117","2011","2","""event"",""trial"",""time""
""fullscreenenter"",""1"",""2033""
","
","
","""event"",""trial"",""time""
""fullscreenenter"",""1"",""2033""
","
","","","","","","null","<div style=""font-size:60px;"">+</div>","null","","fixation","","","","","","","","",""
"memory-trial","279","557654","0.0-15.0-1.117","2011","2","""event"",""trial"",""time""
""fullscreenenter"",""1"",""2033""
","
","
","""event"",""trial"",""time""
""fullscreenenter"",""1"",""2033""
","
","","","","","","724.5999999046326","images/sheep5.png","","","memory_trial","4","definitely_new","","","","","","",""
"html-keyboard-response","280","558155","0.0-15.0-0.118","2011","2","""event"",""trial"",""time""
""fullscreenenter"",""1"",""2033""
","
","
","""event"",""trial"",""time""
""fullscreenenter"",""1"",""2033""
","
","","","","","","null","<div style=""font-size:60px;"">+</div>","null","","fixation","","","","","","","","",""
"memory-trial","281","561099","0.0-15.0-1.118","2011","2","""event"",""trial"",""time""
""fullscreenenter"",""1"",""2033""
","
","
","""event"",""trial"",""time""
""fullscreenenter"",""1"",""2033""
","
","","","","","","1939.0999999046326","images/cow3.png","","","memory_trial","2","maybe_old","","","","","","",""
"html-keyboard-response","282","561604","0.0-15.0-0.119","2011","2","""event"",""trial"",""time""
""fullscreenenter"",""1"",""2033""
","
","
","""event"",""trial"",""time""
""fullscreenenter"",""1"",""2033""
","
","","","","","","null","<div style=""font-size:60px;"">+</div>","null","","fixation","","","","","","","","",""
"memory-trial","283","563515","0.0-15.0-1.119","2011","2","""event"",""trial"",""time""
""fullscreenenter"",""1"",""2033""
","
","
","""event"",""trial"",""time""
""fullscreenenter"",""1"",""2033""
","
","","","","","","904","images/sofa2.png","","","memory_trial","4","definitely_new","","","","","","",""
"preload","284","566613","0.0-16.0","2011","2","""event"",""trial"",""time""
""fullscreenenter"",""1"",""2033""
","
","
","""event"",""trial"",""time""
""fullscreenenter"",""1"",""2033""
","
","true","false","[]","[]","[]","","","","","","","","","","","","","",""
"learning-instructions","285","571935","0.0-17.0-0.0-0.0-0.0","2011","2","""event"",""trial"",""time""
""fullscreenenter"",""1"",""2033""
","
","
","""event"",""trial"",""time""
""fullscreenenter"",""1"",""2033""
","
","","","","","","1466.8000001907349","<p> We're now going to ask you to put fuel in your vehicles again. </p>","","0","instructions","","","","","","","","",""
"learning-instructions","286","578565","0.0-17.0-0.0-0.0-0.1","2011","2","""event"",""trial"",""time""
""fullscreenenter"",""1"",""2033""
","
","
","""event"",""trial"",""time""
""fullscreenenter"",""1"",""2033""
","
","","","","","","582.1000003814697","<p> On each trial, you will see a vehicle. Select the fuel that you think will make the vehicle start. </p>","","0","instructions","","","","","","","","",""
"learning-instructions","287","590662","0.0-17.0-0.0-0.0-0.2","2011","2","""event"",""trial"",""time""
""fullscreenenter"",""1"",""2033""
","
","
","""event"",""trial"",""time""
""fullscreenenter"",""1"",""2033""
","
","","","","","","5031.800000190735","<p> To make your selection, think about what you learned last week. You will NOT receive any feedback about your choice. </p>","","0","instructions","","","","","","","","",""
"learning-instructions","288","598697","0.0-17.0-0.0-0.0-0.3","2011","2","""event"",""trial"",""time""
""fullscreenenter"",""1"",""2033""
","
","
","""event"",""trial"",""time""
""fullscreenenter"",""1"",""2033""
","
","","","","","","591.2000002861023","<p> You should use the 1 key to select the fuel on the left, the 2 key to select the fuel in the middle, and the 3 key to select the fuel on the right. </p><br><div class=""choice-mem-instructions-grid""> <div class=""choice-mem-option""><img src=""images/vehicles_choice1.png"" class=""choice-mem-option-img"" stage=""instructions"" position=""0"" ><div class=""choice-mem-option-text""> Press ""1."" </div></div><div class=""choice-mem-option""><img src=""images/vehicles_choice2.png"" class=""choice-mem-option-img"" stage=""instructions"" position=""1"" ><div class=""choice-mem-option-text""> Press ""2."" </div></div><div class=""choice-mem-option""><img src=""images/vehicles_choice3.png"" class=""choice-mem-option-img"" stage=""instructions"" position=""2"" ><div class=""choice-mem-option-text""> Press ""3."" </div></div></div>","","0","instructions","","","","","","","","",""
"learning-instructions","289","605673","0.0-17.0-0.0-0.0-0.4","2011","2","""event"",""trial"",""time""
""fullscreenenter"",""1"",""2033""
","
","
","""event"",""trial"",""time""
""fullscreenenter"",""1"",""2033""
","
","","","","","","710.3000001907349","<p> You will have 10 seconds to make each selection. Try to respond before time runs out! </p>","","0","instructions","","","","","","","","",""
"learning-instructions","290","608519","0.0-17.0-0.0-1.0","2011","2","""event"",""trial"",""time""
""fullscreenenter"",""1"",""2033""
","
","
","""event"",""trial"",""time""
""fullscreenenter"",""1"",""2033""
","
","","","","","","788","<p> You are now ready to begin the game. </p>","","0","instructions","","","","","","","","",""
"html-keyboard-response","291","609123","0.0-17.0-0.0-2.0-0.0","2011","2","""event"",""trial"",""time""
""fullscreenenter"",""1"",""2033""
","
","
","""event"",""trial"",""time""
""fullscreenenter"",""1"",""2033""
","
","","","","","","null","<div style=""font-size:60px;"">+</div>","null","","fixation","","","","","","","","",""
"choice-memory-trial","292","612109","0.0-17.0-0.0-2.0-1.0","2011","2","""event"",""trial"",""time""
""fullscreenenter"",""1"",""2033""
","
","
","""event"",""trial"",""time""
""fullscreenenter"",""1"",""2033""
","
