"trial_type","trial_index","time_elapsed","internal_node_id","subject_id","task_version","interactions","blur_events","focus_events","fullscreenenter_events","fullscreenexit_events","success","timeout","failed_images","failed_audio","failed_video","rt","stimulus","response","button_pressed","task_part","key_press","answer","correct","left_choice","middle_choice","right_choice","choice_positions","option_selected","block"
"pavlovia","0","8","0.0-0.0","1867","2","""event"",""trial"",""time""
""fullscreenenter"",""1"",""3318""
","
","
","""event"",""trial"",""time""
""fullscreenenter"",""1"",""3318""
","
","","","","","","","","","","","","","","","","","","",""
"fullscreen","1","4285","0.0-1.0","1867","2","""event"",""trial"",""time""
""fullscreenenter"",""1"",""3318""
","
","
","""event"",""trial"",""time""
""fullscreenenter"",""1"",""3318""
","
","true","","","","","","","","","","","","","","","","","",""
"preload","2","4856","0.0-2.0","1867","2","""event"",""trial"",""time""
""fullscreenenter"",""1"",""3318""
","
","
","""event"",""trial"",""time""
""fullscreenenter"",""1"",""3318""
","
","true","false","[]","[]","[]","","","","","","","","","","","","","",""
"audio-keyboard-response","3","8966","0.0-3.0","1867","2","""event"",""trial"",""time""
""fullscreenenter"",""1"",""3318""
","
","
","""event"",""trial"",""time""
""fullscreenenter"",""1"",""3318""
","
","","","","","","3520","audio/beep_loop.wav"," ","","","","","","","","","","",""
"audio-button-response","4","10395","0.0-4.0","1867","2","""event"",""trial"",""time""
""fullscreenenter"",""1"",""3318""
","
","
","""event"",""trial"",""time""
""fullscreenenter"",""1"",""3318""
","
","","","","","","1429","audio/turtle.wav","3","","","","","","","","","","",""
"audio-button-response","5","12209","0.0-5.0","1867","2","""event"",""trial"",""time""
""fullscreenenter"",""1"",""3318""
","
","
","""event"",""trial"",""time""
""fullscreenenter"",""1"",""3318""
","
","","","","","","811","audio/shark.wav","2","","","","","","","","","","",""
"preload","6","15348","0.0-6.0","1867","2","""event"",""trial"",""time""
""fullscreenenter"",""1"",""3318""
","
","
","""event"",""trial"",""time""
""fullscreenenter"",""1"",""3318""
","
","true","false","[]","[]","[]","","","","","","","","","","","","","",""
"learning-instructions","7","22412","0.0-7.0-0.0","1867","2","""event"",""trial"",""time""
""fullscreenenter"",""1"",""3318""
","
","
","""event"",""trial"",""time""
""fullscreenenter"",""1"",""3318""
","
","","","","","","2256.2999999523163","<p> Welcome back! </p><p> Last week, you had to make choices about lots of different items.  </p>","","0","instructions","","","","","","","","",""
"learning-instructions","8","27612","0.0-7.0-0.1","1867","2","""event"",""trial"",""time""
""fullscreenenter"",""1"",""3318""
","
","
","""event"",""trial"",""time""
""fullscreenenter"",""1"",""3318""
","
","","","","","","898.8000000119209","<p> Today, we are going to ask you to try to remember all the items. </p>","","0","instructions","","","","","","","","",""
"learning-instructions","9","38102","0.0-7.0-0.2","1867","2","""event"",""trial"",""time""
""fullscreenenter"",""1"",""3318""
","
","
","""event"",""trial"",""time""
""fullscreenenter"",""1"",""3318""
","
","","","","","","358.7999999523163","<p> On every trial, you will see an image. </p><p> The image may be an OLD image you saw during the games last week or it may be a NEW image that was not presented. </p>","","0","instructions","","","","","","","","",""
"learning-instructions","10","47434","0.0-7.0-0.3","1867","2","""event"",""trial"",""time""
""fullscreenenter"",""1"",""3318""
","
","
","""event"",""trial"",""time""
""fullscreenenter"",""1"",""3318""
","
","","","","","","830.5","<p> You need to select whether the image is:  </p><p>  'Definitely old', 'Maybe old', 'Maybe new', or 'Definitely new.'  </p><div class=""mem-choice-instructions-grid""><div class=""choice-option"" id=""choice-option-1"" ><img src=""images/definitely_old_1.png"" id=""choice-option-img-1"" class=""choice-option-img"" stage=""1""></div><div class=""choice-option"" id=""choice-option-2"" ><img src=""images/maybe_old_1.png"" id=""choice-option-img-2"" class=""choice-option-img"" stage=""1""></div><div class=""choice-option"" id=""choice-option-3"" ><img src=""images/maybe_new_1.png"" id=""choice-option-img-3"" class=""choice-option-img"" stage=""1""></div><div class=""choice-option"" id=""choice-option-4"" > <img src=""images/definitely_new_1.png"" id=""choice-option-img-4"" class=""choice-option-img"" stage=""1""></div></div>","","0","instructions","","","","","","","","",""
"learning-instructions","11","55353","0.0-7.0-0.4","1867","2","""event"",""trial"",""time""
""fullscreenenter"",""1"",""3318""
","
","
","""event"",""trial"",""time""
""fullscreenenter"",""1"",""3318""
","
","","","","","","1227","<p> You should use the 1, 2, 3, and 4 keys to make your responses.  </p><div class=""mem-choice-instructions-grid""><div class=""choice-option"" id=""choice-option-1"" ><img src=""images/definitely_old.png"" id=""choice-option-img-1"" class=""choice-option-img"" stage=""1""></div><div class=""choice-option"" id=""choice-option-2"" ><img src=""images/maybe_old.png"" id=""choice-option-img-2"" class=""choice-option-img"" stage=""1""></div><div class=""choice-option"" id=""choice-option-3"" ><img src=""images/maybe_new.png"" id=""choice-option-img-3"" class=""choice-option-img"" stage=""1""></div><div class=""choice-option"" id=""choice-option-4"" > <img src=""images/definitely_new.png"" id=""choice-option-img-4"" class=""choice-option-img"" stage=""1""></div></div>","","0","instructions","","","","","","","","",""
"learning-instructions","12","62724","0.0-7.0-0.5","1867","2","""event"",""trial"",""time""
""fullscreenenter"",""1"",""3318""
","
","
","""event"",""trial"",""time""
""fullscreenenter"",""1"",""3318""
","
","","","","","","598.5","<p> You will have 10 seconds to make each response.  </p><p>  Make sure to respond before time runs out! </p>","","0","instructions","","","","","","","","",""
"learning-instructions","13","70855","0.0-7.0-0.6","1867","2","""event"",""trial"",""time""
""fullscreenenter"",""1"",""3318""
","
","
","""event"",""trial"",""time""
""fullscreenenter"",""1"",""3318""
","
","","","","","","540","<p> Today, you will see each image ONCE only.  </p><p>  That means none of the images will repeat. </p>","","0","instructions","","","","","","","","",""
"learning-instructions","14","84138","0.0-7.0-0.7","1867","2","""event"",""trial"",""time""
""fullscreenenter"",""1"",""3318""
","
","
","""event"",""trial"",""time""
""fullscreenenter"",""1"",""3318""
","
","","","","","","602.1000000238419","<p> Before you play the real game, it is time to practice. </p><p>  Just like in the real game, some of the images in the practice will be ones you have seen before. </p><p>  Others will be entirely new. </p>","","0","instructions","","","","","","","","",""
"html-button-response","15","86776","0.0-8.0","1867","2","""event"",""trial"",""time""
""fullscreenenter"",""1"",""3318""
","
","
","""event"",""trial"",""time""
""fullscreenenter"",""1"",""3318""
","
","","","","","","2521","<p> Ready to practice? </p><p> Remember, use the 1, 2, 3, and 4 keys to make your responses. </p>","0","","instructions","","","","","","","","",""
"html-keyboard-response","16","87396","0.0-9.0-0.0","1867","2","""event"",""trial"",""time""
""fullscreenenter"",""1"",""3318""
","
","
","""event"",""trial"",""time""
""fullscreenenter"",""1"",""3318""
","
","","","","","","null","<div style=""font-size:60px;"">+</div>","null","","fixation","","","","","","","","",""
"memory-trial","17","93428","0.0-9.0-1.0","1867","2","""event"",""trial"",""time""
""fullscreenenter"",""1"",""3318""
","
","
","""event"",""trial"",""time""
""fullscreenenter"",""1"",""3318""
","
","","","","","","5026.100000023842","images/racket4.png","","","practice","4","definitely_new","","","","","","",""
"html-keyboard-response","18","93935","0.0-9.0-0.1","1867","2","""event"",""trial"",""time""
""fullscreenenter"",""1"",""3318""
","
","
","""event"",""trial"",""time""
""fullscreenenter"",""1"",""3318""
","
","","","","","","null","<div style=""font-size:60px;"">+</div>","null","","fixation","","","","","","","","",""
"memory-trial","19","97050","0.0-9.0-1.1","1867","2","""event"",""trial"",""time""
""fullscreenenter"",""1"",""3318""
","
","
","""event"",""trial"",""time""
""fullscreenenter"",""1"",""3318""
","
","","","","","","2110.100000023842","images/ball1.png","","","practice","1","definitely_old","","","","","","",""
"html-keyboard-response","20","97565","0.0-9.0-0.2","1867","2","""event"",""trial"",""time""
""fullscreenenter"",""1"",""3318""
","
","
","""event"",""trial"",""time""
""fullscreenenter"",""1"",""3318""
","
","","","","","","null","<div style=""font-size:60px;"">+</div>","null","","fixation","","","","","","","","",""
"memory-trial","21","101213","0.0-9.0-1.2","1867","2","""event"",""trial"",""time""
""fullscreenenter"",""1"",""3318""
","
","
","""event"",""trial"",""time""
""fullscreenenter"",""1"",""3318""
","
","","","","","","2638.900000035763","images/racket1.png","","","practice","3","maybe_new","","","","","","",""
"html-keyboard-response","22","101727","0.0-9.0-0.3","1867","2","""event"",""trial"",""time""
""fullscreenenter"",""1"",""3318""
","
","
","""event"",""trial"",""time""
""fullscreenenter"",""1"",""3318""
","
","","","","","","null","<div style=""font-size:60px;"">+</div>","null","","fixation","","","","","","","","",""
"memory-trial","23","103713","0.0-9.0-1.3","1867","2","""event"",""trial"",""time""
""fullscreenenter"",""1"",""3318""
","
","
","""event"",""trial"",""time""
""fullscreenenter"",""1"",""3318""
","
","","","","","","974.3999999761581","images/racket3.png","","","practice","1","definitely_old","","","","","","",""
"html-keyboard-response","24","104224","0.0-9.0-0.4","1867","2","""event"",""trial"",""time""
""fullscreenenter"",""1"",""3318""
","
","
","""event"",""trial"",""time""
""fullscreenenter"",""1"",""3318""
","
","","","","","","null","<div style=""font-size:60px;"">+</div>","null","","fixation","","","","","","","","",""
"memory-trial","25","106441","0.0-9.0-1.4","1867","2","""event"",""trial"",""time""
""fullscreenenter"",""1"",""3318""
","
","
","""event"",""trial"",""time""
""fullscreenenter"",""1"",""3318""
","
","","","","","","1208","images/racket2.png","","","practice","4","definitely_new","","","","","","",""
"html-keyboard-response","26","106955","0.0-9.0-0.5","1867","2","""event"",""trial"",""time""
""fullscreenenter"",""1"",""3318""
","
","
","""event"",""trial"",""time""
""fullscreenenter"",""1"",""3318""
","
","","","","","","null","<div style=""font-size:60px;"">+</div>","null","","fixation","","","","","","","","",""
"memory-trial","27","111266","0.0-9.0-1.5","1867","2","""event"",""trial"",""time""
""fullscreenenter"",""1"",""3318""
","
","
","""event"",""trial"",""time""
""fullscreenenter"",""1"",""3318""
","
","","","","","","3297.7000000476837","images/ball3.png","","","practice","4","definitely_new","","","","","","",""
"html-keyboard-response","28","111778","0.0-9.0-0.6","1867","2","""event"",""trial"",""time""
""fullscreenenter"",""1"",""3318""
","
","
","""event"",""trial"",""time""
""fullscreenenter"",""1"",""3318""
","
","","","","","","null","<div style=""font-size:60px;"">+</div>","null","","fixation","","","","","","","","",""
"memory-trial","29","114657","0.0-9.0-1.6","1867","2","""event"",""trial"",""time""
""fullscreenenter"",""1"",""3318""
","
","
","""event"",""trial"",""time""
""fullscreenenter"",""1"",""3318""
","
","","","","","","1872.8999999761581","images/ball4.png","","","practice","1","definitely_old","","","","","","",""
"html-keyboard-response","30","115159","0.0-9.0-0.7","1867","2","""event"",""trial"",""time""
""fullscreenenter"",""1"",""3318""
","
","
","""event"",""trial"",""time""
""fullscreenenter"",""1"",""3318""
","
","","","","","","null","<div style=""font-size:60px;"">+</div>","null","","fixation","","","","","","","","",""
"memory-trial","31","119767","0.0-9.0-1.7","1867","2","""event"",""trial"",""time""
""fullscreenenter"",""1"",""3318""
","
","
","""event"",""trial"",""time""
""fullscreenenter"",""1"",""3318""
","
","","","","","","3602.100000023842","images/ball2.png","","","practice","2","maybe_old","","","","","","",""
"learning-instructions","32","128855","0.0-10.0-0.0","1867","2","""event"",""trial"",""time""
""fullscreenenter"",""1"",""3318""
","
","
","""event"",""trial"",""time""
""fullscreenenter"",""1"",""3318""
","
","","","","","","873.7999999523163","<p> Great! You have completed the practice. </p><p> Before you start, we're going to ask you a few questions about how the game works.  </p>","","0","instructions","","","","","","","","",""
"preload","33","131616","0.0-11.0","1867","2","""event"",""trial"",""time""
""fullscreenenter"",""1"",""3318""
","
","
","""event"",""trial"",""time""
""fullscreenenter"",""1"",""3318""
","
","true","false","[]","[]","[]","","","","","","","","","","","","","",""
"comp-q","34","138269","0.0-12.0-0.0","1867","2","""event"",""trial"",""time""
""fullscreenenter"",""1"",""3318""
","
","
","""event"",""trial"",""time""
""fullscreenenter"",""1"",""3318""
","
","","","","","","828.8000000119209","<p> <b> True or False? </b> </p><p> In this game, you will only see each image once. </p>","","0","comp_question","","","true","","","","","",""
"comp-q","35","146320","0.0-12.0-1.0","1867","2","""event"",""trial"",""time""
""fullscreenenter"",""1"",""3318""
","
","
","""event"",""trial"",""time""
""fullscreenenter"",""1"",""3318""
","
","","","","","","1700.1000000238419","<p> <b> That's right! </b> You will see many different images <i> one time each </i> in this game. </p>","","0","comp_answer","","","","","","","","",""
"comp-q","36","152723","0.0-12.0-0.1","1867","2","""event"",""trial"",""time""
""fullscreenenter"",""1"",""3318""
","
","
","""event"",""trial"",""time""
""fullscreenenter"",""1"",""3318""
","
","","","","","","601.9000000357628","<p> <b> True or False? </b> </p><p> You should use the mouse and click to make your response. </p>","","1","comp_question","","","true","","","","","",""
"comp-q","37","162134","0.0-12.0-1.1","1867","2","""event"",""trial"",""time""
""fullscreenenter"",""1"",""3318""
","
","
","""event"",""trial"",""time""
""fullscreenenter"",""1"",""3318""
","
","","","","","","2062.2999999523163","<p><b> That's right! </b> You should use the '1', '2', '3', and '4' keys to make your response. </p>","","0","comp_answer","","","","","","","","",""
"comp-q","38","169205","0.0-12.0-0.2","1867","2","""event"",""trial"",""time""
""fullscreenenter"",""1"",""3318""
","
","
","""event"",""trial"",""time""
""fullscreenenter"",""1"",""3318""
","
","","","","","","1083.699999988079","<p> <b> True or False? </b> </p><p> You will have as much time as you want to make each choice. </p>","","1","comp_question","","","true","","","","","",""
"comp-q","39","175931","0.0-12.0-1.2","1867","2","""event"",""trial"",""time""
""fullscreenenter"",""1"",""3318""
","
","
","""event"",""trial"",""time""
""fullscreenenter"",""1"",""3318""
","
","","","","","","1319.7000000476837","<p> <b> That's right! </b> You will only have 10 seconds to make each choice. </p>","","0","comp_answer","","","","","","","","",""
"learning-instructions","40","187855","0.0-13.0","1867","2","""event"",""trial"",""time""
""fullscreenenter"",""1"",""3318""
","
","
","""event"",""trial"",""time""
""fullscreenenter"",""1"",""3318""
","
","","","","","","3244.2999999523163","<p> Great! You are now ready to begin the game. </p><p> Remember, use the 1, 2, 3, and 4 keys to make your responses. </p>","","0","instructions","","","","","","","","",""
"preload","41","196012","0.0-14.0","1867","2","""event"",""trial"",""time""
""fullscreenenter"",""1"",""3318""
","
","
","""event"",""trial"",""time""
""fullscreenenter"",""1"",""3318""
","
","true","false","[]","[]","[]","","","","","","","","","","","","","",""
"html-keyboard-response","42","196530","0.0-15.0-0.0","1867","2","""event"",""trial"",""time""
""fullscreenenter"",""1"",""3318""
","
","
","""event"",""trial"",""time""
""fullscreenenter"",""1"",""3318""
","
","","","","","","null","<div style=""font-size:60px;"">+</div>","null","","fixation","","","","","","","","",""
"memory-trial","43","199610","0.0-15.0-1.0","1867","2","""event"",""trial"",""time""
""fullscreenenter"",""1"",""3318""
","
","
","""event"",""trial"",""time""
""fullscreenenter"",""1"",""3318""
","
","","","","","","2059.699999988079","images/straw3.png","","","memory_trial","3","maybe_new","","","","","","",""
"html-keyboard-response","44","200124","0.0-15.0-0.1","1867","2","""event"",""trial"",""time""
""fullscreenenter"",""1"",""3318""
","
","
","""event"",""trial"",""time""
""fullscreenenter"",""1"",""3318""
","
","","","","","","null","<div style=""font-size:60px;"">+</div>","null","","fixation","","","","","","","","",""
"memory-trial","45","203800","0.0-15.0-1.1","1867","2","""event"",""trial"",""time""
""fullscreenenter"",""1"",""3318""
","
","
","""event"",""trial"",""time""
""fullscreenenter"",""1"",""3318""
","
","","","","","","2666.5","images/bush1.png","","","memory_trial","1","definitely_old","","","","","","",""
"html-keyboard-response","46","204313","0.0-15.0-0.2","1867","2","""event"",""trial"",""time""
""fullscreenenter"",""1"",""3318""
","
","
","""event"",""trial"",""time""
""fullscreenenter"",""1"",""3318""
","
","","","","","","null","<div style=""font-size:60px;"">+</div>","null","","fixation","","","","","","","","",""
"memory-trial","47","206953","0.0-15.0-1.2","1867","2","""event"",""trial"",""time""
""fullscreenenter"",""1"",""3318""
","
","
","""event"",""trial"",""time""
""fullscreenenter"",""1"",""3318""
","
","","","","","","1628","images/plane2.png","","","memory_trial","4","definitely_new","","","","","","",""
"html-keyboard-response","48","207468","0.0-15.0-0.3","1867","2","""event"",""trial"",""time""
""fullscreenenter"",""1"",""3318""
","
","
","""event"",""trial"",""time""
""fullscreenenter"",""1"",""3318""
","
","","","","","","null","<div style=""font-size:60px;"">+</div>","null","","fixation","","","","","","","","",""
"memory-trial","49","209755","0.0-15.0-1.3","1867","2","""event"",""trial"",""time""
""fullscreenenter"",""1"",""3318""
","
","
","""event"",""trial"",""time""
""fullscreenenter"",""1"",""3318""
","
","","","","","","1271.300000011921","images/train1.png","","","memory_trial","4","definitely_new","","","","","","",""
"html-keyboard-response","50","210269","0.0-15.0-0.4","1867","2","""event"",""trial"",""time""
""fullscreenenter"",""1"",""3318""
","
","
","""event"",""trial"",""time""
""fullscreenenter"",""1"",""3318""
","
","","","","","","null","<div style=""font-size:60px;"">+</div>","null","","fixation","","","","","","","","",""
"memory-trial","51","212764","0.0-15.0-1.4","1867","2","""event"",""trial"",""time""
""fullscreenenter"",""1"",""3318""
","
","
","""event"",""trial"",""time""
""fullscreenenter"",""1"",""3318""
","
","","","","","","1487.0999999642372","images/train4.png","","","memory_trial","4","definitely_new","","","","","","",""
"html-keyboard-response","52","213280","0.0-15.0-0.5","1867","2","""event"",""trial"",""time""
""fullscreenenter"",""1"",""3318""
","
","
","""event"",""trial"",""time""
""fullscreenenter"",""1"",""3318""
","
","","","","","","null","<div style=""font-size:60px;"">+</div>","null","","fixation","","","","","","","","",""
"memory-trial","53","216105","0.0-15.0-1.5","1867","2","""event"",""trial"",""time""
""fullscreenenter"",""1"",""3318""
","
","
","""event"",""trial"",""time""
""fullscreenenter"",""1"",""3318""
","
","","","","","","1821.0999999642372","images/rodent5.png","","","memory_trial","2","maybe_old","","","","","","",""
"html-keyboard-response","54","216608","0.0-15.0-0.6","1867","2","""event"",""trial"",""time""
""fullscreenenter"",""1"",""3318""
","
","
","""event"",""trial"",""time""
""fullscreenenter"",""1"",""3318""
","
","","","","","","null","<div style=""font-size:60px;"">+</div>","null","","fixation","","","","","","","","",""
"memory-trial","55","218643","0.0-15.0-1.6","1867","2","""event"",""trial"",""time""
""fullscreenenter"",""1"",""3318""
","
","
","""event"",""trial"",""time""
""fullscreenenter"",""1"",""3318""
","
","","","","","","1029.800000011921","images/sheep3.png","","","memory_trial","1","definitely_old","","","","","","",""
"html-keyboard-response","56","219146","0.0-15.0-0.7","1867","2","""event"",""trial"",""time""
""fullscreenenter"",""1"",""3318""
","
","
","""event"",""trial"",""time""
""fullscreenenter"",""1"",""3318""
","
","","","","","","null","<div style=""font-size:60px;"">+</div>","null","","fixation","","","","","","","","",""
"memory-trial","57","222850","0.0-15.0-1.7","1867","2","""event"",""trial"",""time""
""fullscreenenter"",""1"",""3318""
","
","
","""event"",""trial"",""time""
""fullscreenenter"",""1"",""3318""
","
","","","","","","2699.699999988079","images/sofa4.png","","","memory_trial","2","maybe_old","","","","","","",""
"html-keyboard-response","58","223353","0.0-15.0-0.8","1867","2","""event"",""trial"",""time""
""fullscreenenter"",""1"",""3318""
","
","
","""event"",""trial"",""time""
""fullscreenenter"",""1"",""3318""
","
","","","","","","null","<div style=""font-size:60px;"">+</div>","null","","fixation","","","","","","","","",""
"memory-trial","59","225749","0.0-15.0-1.8","1867","2","""event"",""trial"",""time""
""fullscreenenter"",""1"",""3318""
","
","
","""event"",""trial"",""time""
""fullscreenenter"",""1"",""3318""
","
","","","","","","1390","images/flower4.png","","","memory_trial","4","definitely_new","","","","","","",""
"html-keyboard-response","60","226251","0.0-15.0-0.9","1867","2","""event"",""trial"",""time""
""fullscreenenter"",""1"",""3318""
","
","
","""event"",""trial"",""time""
""fullscreenenter"",""1"",""3318""
","
","","","","","","null","<div style=""font-size:60px;"">+</div>","null","","fixation","","","","","","","","",""
"memory-trial","61","228431","0.0-15.0-1.9","1867","2","""event"",""trial"",""time""
""fullscreenenter"",""1"",""3318""
","
","
","""event"",""trial"",""time""
""fullscreenenter"",""1"",""3318""
","
","","","","","","1175.4000000357628","images/feline3.png","","","memory_trial","1","definitely_old","","","","","","",""
"html-keyboard-response","62","228933","0.0-15.0-0.10","1867","2","""event"",""trial"",""time""
""fullscreenenter"",""1"",""3318""
","
","
","""event"",""trial"",""time""
""fullscreenenter"",""1"",""3318""
","
","","","","","","null","<div style=""font-size:60px;"">+</div>","null","","fixation","","","","","","","","",""
"memory-trial","63","231257","0.0-15.0-1.10","1867","2","""event"",""trial"",""time""
""fullscreenenter"",""1"",""3318""
","
","
","""event"",""trial"",""time""
""fullscreenenter"",""1"",""3318""
","
","","","","","","1319.199999988079","images/flower1.png","","","memory_trial","2","maybe_old","","","","","","",""
"html-keyboard-response","64","231759","0.0-15.0-0.11","1867","2","""event"",""trial"",""time""
""fullscreenenter"",""1"",""3318""
","
","
","""event"",""trial"",""time""
""fullscreenenter"",""1"",""3318""
","
","","","","","","null","<div style=""font-size:60px;"">+</div>","null","","fixation","","","","","","","","",""
"memory-trial","65","233787","0.0-15.0-1.11","1867","2","""event"",""trial"",""time""
""fullscreenenter"",""1"",""3318""
","
","
","""event"",""trial"",""time""
""fullscreenenter"",""1"",""3318""
","
","","","","","","1023.8999999761581","images/banana1.png","","","memory_trial","2","maybe_old","","","","","","",""
"html-keyboard-response","66","234289","0.0-15.0-0.12","1867","2","""event"",""trial"",""time""
""fullscreenenter"",""1"",""3318""
","
","
","""event"",""trial"",""time""
""fullscreenenter"",""1"",""3318""
","
","","","","","","null","<div style=""font-size:60px;"">+</div>","null","","fixation","","","","","","","","",""
"memory-trial","67","236873","0.0-15.0-1.12","1867","2","""event"",""trial"",""time""
""fullscreenenter"",""1"",""3318""
","
","
","""event"",""trial"",""time""
""fullscreenenter"",""1"",""3318""
","
","","","","","","1579.199999988079","images/orange4.png","","","memory_trial","4","definitely_new","","","","","","",""
"html-keyboard-response","68","237375","0.0-15.0-0.13","1867","2","""event"",""trial"",""time""
""fullscreenenter"",""1"",""3318""
","
","
","""event"",""trial"",""time""
""fullscreenenter"",""1"",""3318""
","
","","","","","","null","<div style=""font-size:60px;"">+</div>","null","","fixation","","","","","","","","",""
"memory-trial","69","240142","0.0-15.0-1.13","1867","2","""event"",""trial"",""time""
""fullscreenenter"",""1"",""3318""
","
","
","""event"",""trial"",""time""
""fullscreenenter"",""1"",""3318""
","
","","","","","","1763.800000011921","images/feline2.png","","","memory_trial","1","definitely_old","","","","","","",""
"html-keyboard-response","70","240645","0.0-15.0-0.14","1867","2","""event"",""trial"",""time""
""fullscreenenter"",""1"",""3318""
","
","
","""event"",""trial"",""time""
""fullscreenenter"",""1"",""3318""
","
","","","","","","null","<div style=""font-size:60px;"">+</div>","null","","fixation","","","","","","","","",""
"memory-trial","71","243012","0.0-15.0-1.14","1867","2","""event"",""trial"",""time""
""fullscreenenter"",""1"",""3318""
","
","
","""event"",""trial"",""time""
""fullscreenenter"",""1"",""3318""
","
","","","","","","1361.6000000238419","images/sheep5.png","","","memory_trial","2","maybe_old","","","","","","",""
"html-keyboard-response","72","243515","0.0-15.0-0.15","1867","2","""event"",""trial"",""time""
""fullscreenenter"",""1"",""3318""
","
","
","""event"",""trial"",""time""
""fullscreenenter"",""1"",""3318""
","
","","","","","","null","<div style=""font-size:60px;"">+</div>","null","","fixation","","","","","","","","",""
"memory-trial","73","246290","0.0-15.0-1.15","1867","2","""event"",""trial"",""time""
""fullscreenenter"",""1"",""3318""
","
","
","""event"",""trial"",""time""
""fullscreenenter"",""1"",""3318""
","
","","","","","","1769.3999999761581","images/goat3.png","","","memory_trial","2","maybe_old","","","","","","",""
"html-keyboard-response","74","246792","0.0-15.0-0.16","1867","2","""event"",""trial"",""time""
""fullscreenenter"",""1"",""3318""
","
","
","""event"",""trial"",""time""
""fullscreenenter"",""1"",""3318""
","
","","","","","","null","<div style=""font-size:60px;"">+</div>","null","","fixation","","","","","","","","",""
"memory-trial","75","249137","0.0-15.0-1.16","1867","2","""event"",""trial"",""time""
""fullscreenenter"",""1"",""3318""
","
","
","""event"",""trial"",""time""
""fullscreenenter"",""1"",""3318""
","
","","","","","","1341.8999999761581","images/table4.png","","","memory_trial","4","definitely_new","","","","","","",""
"html-keyboard-response","76","249639","0.0-15.0-0.17","1867","2","""event"",""trial"",""time""
""fullscreenenter"",""1"",""3318""
","
","
","""event"",""trial"",""time""
""fullscreenenter"",""1"",""3318""
","
","","","","","","null","<div style=""font-size:60px;"">+</div>","null","","fixation","","","","","","","","",""
"memory-trial","77","251824","0.0-15.0-1.17","1867","2","""event"",""trial"",""time""
""fullscreenenter"",""1"",""3318""
","
","
","""event"",""trial"",""time""
""fullscreenenter"",""1"",""3318""
","
","","","","","","1181.9000000357628","images/feline1.png","","","memory_trial","4","definitely_new","","","","","","",""
"html-keyboard-response","78","252326","0.0-15.0-0.18","1867","2","""event"",""trial"",""time""
""fullscreenenter"",""1"",""3318""
","
","
","""event"",""trial"",""time""
""fullscreenenter"",""1"",""3318""
","
","","","","","","null","<div style=""font-size:60px;"">+</div>","null","","fixation","","","","","","","","",""
"memory-trial","79","254954","0.0-15.0-1.18","1867","2","""event"",""trial"",""time""
""fullscreenenter"",""1"",""3318""
","
","
","""event"",""trial"",""time""
""fullscreenenter"",""1"",""3318""
","
","","","","","","1621.699999988079","images/bush3.png","","","memory_trial","3","maybe_new","","","","","","",""
"html-keyboard-response","80","255456","0.0-15.0-0.19","1867","2","""event"",""trial"",""time""
""fullscreenenter"",""1"",""3318""
","
","
","""event"",""trial"",""time""
""fullscreenenter"",""1"",""3318""
","
","","","","","","null","<div style=""font-size:60px;"">+</div>","null","","fixation","","","","","","","","",""
"memory-trial","81","257532","0.0-15.0-1.19","1867","2","""event"",""trial"",""time""
""fullscreenenter"",""1"",""3318""
","
","
","""event"",""trial"",""time""
""fullscreenenter"",""1"",""3318""
","
","","","","","","1073.699999988079","images/horse1.png","","","memory_trial","4","definitely_new","","","","","","",""
"html-keyboard-response","82","258034","0.0-15.0-0.20","1867","2","""event"",""trial"",""time""
""fullscreenenter"",""1"",""3318""
","
","
","""event"",""trial"",""time""
""fullscreenenter"",""1"",""3318""
","
","","","","","","null","<div style=""font-size:60px;"">+</div>","null","","fixation","","","","","","","","",""
"memory-trial","83","260109","0.0-15.0-1.20","1867","2","""event"",""trial"",""time""
""fullscreenenter"",""1"",""3318""
","
","
","""event"",""trial"",""time""
""fullscreenenter"",""1"",""3318""
","
","","","","","","1070.5","images/horse5.png","","","memory_trial","4","definitely_new","","","","","","",""
"html-keyboard-response","84","260613","0.0-15.0-0.21","1867","2","""event"",""trial"",""time""
""fullscreenenter"",""1"",""3318""
","
","
","""event"",""trial"",""time""
""fullscreenenter"",""1"",""3318""
","
","","","","","","null","<div style=""font-size:60px;"">+</div>","null","","fixation","","","","","","","","",""
"memory-trial","85","262562","0.0-15.0-1.21","1867","2","""event"",""trial"",""time""
""fullscreenenter"",""1"",""3318""
","
","
","""event"",""trial"",""time""
""fullscreenenter"",""1"",""3318""
","
","","","","","","943.8000000119209","images/tree4.png","","","memory_trial","4","definitely_new","","","","","","",""
"html-keyboard-response","86","263063","0.0-15.0-0.22","1867","2","""event"",""trial"",""time""
""fullscreenenter"",""1"",""3318""
","
","
","""event"",""trial"",""time""
""fullscreenenter"",""1"",""3318""
","
","","","","","","null","<div style=""font-size:60px;"">+</div>","null","","fixation","","","","","","","","",""
"memory-trial","87","266238","0.0-15.0-1.22","1867","2","""event"",""trial"",""time""
""fullscreenenter"",""1"",""3318""
","
","
","""event"",""trial"",""time""
""fullscreenenter"",""1"",""3318""
","
","","","","","","2170","images/orange1.png","","","memory_trial","3","maybe_new","","","","","","",""
"html-keyboard-response","88","266740","0.0-15.0-0.23","1867","2","""event"",""trial"",""time""
""fullscreenenter"",""1"",""3318""
","
","
","""event"",""trial"",""time""
""fullscreenenter"",""1"",""3318""
","
","","","","","","null","<div style=""font-size:60px;"">+</div>","null","","fixation","","","","","","","","",""
"memory-trial","89","268567","0.0-15.0-1.23","1867","2","""event"",""trial"",""time""
""fullscreenenter"",""1"",""3318""
","
","
","""event"",""trial"",""time""
""fullscreenenter"",""1"",""3318""
","
","","","","","","820.5999999642372","images/truck3.png","","","memory_trial","4","definitely_new","","","","","","",""
"html-keyboard-response","90","269069","0.0-15.0-0.24","1867","2","""event"",""trial"",""time""
""fullscreenenter"",""1"",""3318""
","
","
","""event"",""trial"",""time""
""fullscreenenter"",""1"",""3318""
","
","","","","","","null","<div style=""font-size:60px;"">+</div>","null","","fixation","","","","","","","","",""
"memory-trial","91","271952","0.0-15.0-1.24","1867","2","""event"",""trial"",""time""
""fullscreenenter"",""1"",""3318""
","
","
","""event"",""trial"",""time""
""fullscreenenter"",""1"",""3318""
","
","","","","","","1878.800000011921","images/feline4.png","","","memory_trial","3","maybe_new","","","","","","",""
"html-keyboard-response","92","272455","0.0-15.0-0.25","1867","2","""event"",""trial"",""time""
""fullscreenenter"",""1"",""3318""
","
","
","""event"",""trial"",""time""
""fullscreenenter"",""1"",""3318""
","
","","","","","","null","<div style=""font-size:60px;"">+</div>","null","","fixation","","","","","","","","",""
"memory-trial","93","274915","0.0-15.0-1.25","1867","2","""event"",""trial"",""time""
""fullscreenenter"",""1"",""3318""
","
","
","""event"",""trial"",""time""
""fullscreenenter"",""1"",""3318""
","
","","","","","","1456.800000011921","images/rodent2.png","","","memory_trial","1","definitely_old","","","","","","",""
"html-keyboard-response","94","275417","0.0-15.0-0.26","1867","2","""event"",""trial"",""time""
""fullscreenenter"",""1"",""3318""
","
","
","""event"",""trial"",""time""
""fullscreenenter"",""1"",""3318""
","
","","","","","","null","<div style=""font-size:60px;"">+</div>","null","","fixation","","","","","","","","",""
"memory-trial","95","278795","0.0-15.0-1.26","1867","2","""event"",""trial"",""time""
""fullscreenenter"",""1"",""3318""
","
","
","""event"",""trial"",""time""
""fullscreenenter"",""1"",""3318""
","
","","","","","","2373.699999988079","images/sheep2.png","","","memory_trial","3","maybe_new","","","","","","",""
"html-keyboard-response","96","279297","0.0-15.0-0.27","1867","2","""event"",""trial"",""time""
""fullscreenenter"",""1"",""3318""
","
","
","""event"",""trial"",""time""
""fullscreenenter"",""1"",""3318""
","
","","","","","","null","<div style=""font-size:60px;"">+</div>","null","","fixation","","","","","","","","",""
"memory-trial","97","281666","0.0-15.0-1.27","1867","2","""event"",""trial"",""time""
""fullscreenenter"",""1"",""3318""
","
","
","""event"",""trial"",""time""
""fullscreenenter"",""1"",""3318""
","
","","","","","","1363.5","images/apple4.png","","","memory_trial","2","maybe_old","","","","","","",""
"html-keyboard-response","98","282169","0.0-15.0-0.28","1867","2","""event"",""trial"",""time""
""fullscreenenter"",""1"",""3318""
","
","
","""event"",""trial"",""time""
""fullscreenenter"",""1"",""3318""
","
","","","","","","null","<div style=""font-size:60px;"">+</div>","null","","fixation","","","","","","","","",""
"memory-trial","99","285773","0.0-15.0-1.28","1867","2","""event"",""trial"",""time""
""fullscreenenter"",""1"",""3318""
","
","
","""event"",""trial"",""time""
""fullscreenenter"",""1"",""3318""
","
","","","","","","2598.300000011921","images/goat2.png","","","memory_trial","1","definitely_old","","","","","","",""
"html-keyboard-response","100","286276","0.0-15.0-0.29","1867","2","""event"",""trial"",""time""
""fullscreenenter"",""1"",""3318""
","
","
","""event"",""trial"",""time""
""fullscreenenter"",""1"",""3318""
","
","","","","","","null","<div style=""font-size:60px;"">+</div>","null","","fixation","","","","","","","","",""
"memory-trial","101","288543","0.0-15.0-1.29","1867","2","""event"",""trial"",""time""
""fullscreenenter"",""1"",""3318""
","
","
","""event"",""trial"",""time""
""fullscreenenter"",""1"",""3318""
","
","","","","","","1262.1000000238419","images/cactus2.png","","","memory_trial","4","definitely_new","","","","","","",""
"html-keyboard-response","102","289046","0.0-15.0-0.30","1867","2","""event"",""trial"",""time""
""fullscreenenter"",""1"",""3318""
","
","
","""event"",""trial"",""time""
""fullscreenenter"",""1"",""3318""
","
","","","","","","null","<div style=""font-size:60px;"">+</div>","null","","fixation","","","","","","","","",""
"memory-trial","103","291167","0.0-15.0-1.30","1867","2","""event"",""trial"",""time""
""fullscreenenter"",""1"",""3318""
","
","
","""event"",""trial"",""time""
""fullscreenenter"",""1"",""3318""
","
","","","","","","1117.699999988079","images/banana4.png","","","memory_trial","2","maybe_old","","","","","","",""
"html-keyboard-response","104","291669","0.0-15.0-0.31","1867","2","""event"",""trial"",""time""
""fullscreenenter"",""1"",""3318""
","
","
","""event"",""trial"",""time""
""fullscreenenter"",""1"",""3318""
","
","","","","","","null","<div style=""font-size:60px;"">+</div>","null","","fixation","","","","","","","","",""
"memory-trial","105","293899","0.0-15.0-1.31","1867","2","""event"",""trial"",""time""
""fullscreenenter"",""1"",""3318""
","
","
","""event"",""trial"",""time""
""fullscreenenter"",""1"",""3318""
","
","","","","","","1224.8999999761581","images/flower2.png","","","memory_trial","4","definitely_new","","","","","","",""
"html-keyboard-response","106","294402","0.0-15.0-0.32","1867","2","""event"",""trial"",""time""
""fullscreenenter"",""1"",""3318""
","
","
","""event"",""trial"",""time""
""fullscreenenter"",""1"",""3318""
","
","","","","","","null","<div style=""font-size:60px;"">+</div>","null","","fixation","","","","","","","","",""
"memory-trial","107","297077","0.0-15.0-1.32","1867","2","""event"",""trial"",""time""
""fullscreenenter"",""1"",""3318""
","
","
","""event"",""trial"",""time""
""fullscreenenter"",""1"",""3318""
","
","","","","","","1672.9000000357628","images/cactus3.png","","","memory_trial","4","definitely_new","","","","","","",""
"html-keyboard-response","108","297579","0.0-15.0-0.33","1867","2","""event"",""trial"",""time""
""fullscreenenter"",""1"",""3318""
","
","
","""event"",""trial"",""time""
""fullscreenenter"",""1"",""3318""
","
","","","","","","null","<div style=""font-size:60px;"">+</div>","null","","fixation","","","","","","","","",""
"memory-trial","109","300730","0.0-15.0-1.33","1867","2","""event"",""trial"",""time""
""fullscreenenter"",""1"",""3318""
","
","
","""event"",""trial"",""time""
""fullscreenenter"",""1"",""3318""
","
","","","","","","2146.400000035763","images/rabbit1.png","","","memory_trial","2","maybe_old","","","","","","",""
"html-keyboard-response","110","301231","0.0-15.0-0.34","1867","2","""event"",""trial"",""time""
""fullscreenenter"",""1"",""3318""
","
","
","""event"",""trial"",""time""
""fullscreenenter"",""1"",""3318""
","
","","","","","","null","<div style=""font-size:60px;"">+</div>","null","","fixation","","","","","","","","",""
"memory-trial","111","303371","0.0-15.0-1.34","1867","2","""event"",""trial"",""time""
""fullscreenenter"",""1"",""3318""
","
","
","""event"",""trial"",""time""
""fullscreenenter"",""1"",""3318""
","
","","","","","","1133.800000011921","images/straw5.png","","","memory_trial","2","maybe_old","","","","","","",""
"html-keyboard-response","112","303873","0.0-15.0-0.35","1867","2","""event"",""trial"",""time""
""fullscreenenter"",""1"",""3318""
","
","
","""event"",""trial"",""time""
""fullscreenenter"",""1"",""3318""
","
","","","","","","null","<div style=""font-size:60px;"">+</div>","null","","fixation","","","","","","","","",""
"memory-trial","113","305933","0.0-15.0-1.35","1867","2","""event"",""trial"",""time""
""fullscreenenter"",""1"",""3318""
","
","
","""event"",""trial"",""time""
""fullscreenenter"",""1"",""3318""
","
","","","","","","1056.2999999523163","images/feline5.png","","","memory_trial","1","definitely_old","","","","","","",""
"html-keyboard-response","114","306443","0.0-15.0-0.36","1867","2","""event"",""trial"",""time""
""fullscreenenter"",""1"",""3318""
","
","
","""event"",""trial"",""time""
""fullscreenenter"",""1"",""3318""
","
","","","","","","null","<div style=""font-size:60px;"">+</div>","null","","fixation","","","","","","","","",""
"memory-trial","115","308606","0.0-15.0-1.36","1867","2","""event"",""trial"",""time""
""fullscreenenter"",""1"",""3318""
","
","
","""event"",""trial"",""time""
""fullscreenenter"",""1"",""3318""
","
","","","","","","1159.699999988079","images/train2.png","","","memory_trial","4","definitely_new","","","","","","",""
"html-keyboard-response","116","309109","0.0-15.0-0.37","1867","2","""event"",""trial"",""time""
""fullscreenenter"",""1"",""3318""
","
","
","""event"",""trial"",""time""
""fullscreenenter"",""1"",""3318""
","
","","","","","","null","<div style=""font-size:60px;"">+</div>","null","","fixation","","","","","","","","",""
"memory-trial","117","311304","0.0-15.0-1.37","1867","2","""event"",""trial"",""time""
""fullscreenenter"",""1"",""3318""
","
","
","""event"",""trial"",""time""
""fullscreenenter"",""1"",""3318""
","
","","","","","","1191","images/goat5.png","","","memory_trial","2","maybe_old","","","","","","",""
"html-keyboard-response","118","311806","0.0-15.0-0.38","1867","2","""event"",""trial"",""time""
""fullscreenenter"",""1"",""3318""
","
","
","""event"",""trial"",""time""
""fullscreenenter"",""1"",""3318""
","
","","","","","","null","<div style=""font-size:60px;"">+</div>","null","","fixation","","","","","","","","",""
"memory-trial","119","313671","0.0-15.0-1.38","1867","2","""event"",""trial"",""time""
""fullscreenenter"",""1"",""3318""
","
","
","""event"",""trial"",""time""
""fullscreenenter"",""1"",""3318""
","
","","","","","","860.8999999761581","images/horse2.png","","","memory_trial","4","definitely_new","","","","","","",""
"html-keyboard-response","120","314174","0.0-15.0-0.39","1867","2","""event"",""trial"",""time""
""fullscreenenter"",""1"",""3318""
","
","
","""event"",""trial"",""time""
""fullscreenenter"",""1"",""3318""
","
","","","","","","null","<div style=""font-size:60px;"">+</div>","null","","fixation","","","","","","","","",""
"memory-trial","121","316454","0.0-15.0-1.39","1867","2","""event"",""trial"",""time""
""fullscreenenter"",""1"",""3318""
","
","
","""event"",""trial"",""time""
""fullscreenenter"",""1"",""3318""
","
","","","","","","1276.0999999642372","images/chair1.png","","","memory_trial","4","definitely_new","","","","","","",""
"html-keyboard-response","122","316957","0.0-15.0-0.40","1867","2","""event"",""trial"",""time""
""fullscreenenter"",""1"",""3318""
","
","
","""event"",""trial"",""time""
""fullscreenenter"",""1"",""3318""
","
","","","","","","null","<div style=""font-size:60px;"">+</div>","null","","fixation","","","","","","","","",""
"memory-trial","123","320188","0.0-15.0-1.40","1867","2","""event"",""trial"",""time""
""fullscreenenter"",""1"",""3318""
","
","
","""event"",""trial"",""time""
""fullscreenenter"",""1"",""3318""
","
","","","","","","2225.899999976158","images/dog3.png","","","memory_trial","3","maybe_new","","","","","","",""
"html-keyboard-response","124","320691","0.0-15.0-0.41","1867","2","""event"",""trial"",""time""
""fullscreenenter"",""1"",""3318""
","
","
","""event"",""trial"",""time""
""fullscreenenter"",""1"",""3318""
","
","","","","","","null","<div style=""font-size:60px;"">+</div>","null","","fixation","","","","","","","","",""
"memory-trial","125","322866","0.0-15.0-1.41","1867","2","""event"",""trial"",""time""
""fullscreenenter"",""1"",""3318""
","
","
","""event"",""trial"",""time""
""fullscreenenter"",""1"",""3318""
","
","","","","","","1170.5","images/rodent4.png","","","memory_trial","1","definitely_old","","","","","","",""
"html-keyboard-response","126","323368","0.0-15.0-0.42","1867","2","""event"",""trial"",""time""
""fullscreenenter"",""1"",""3318""
","
","
","""event"",""trial"",""time""
""fullscreenenter"",""1"",""3318""
","
","","","","","","null","<div style=""font-size:60px;"">+</div>","null","","fixation","","","","","","","","",""
"memory-trial","127","325260","0.0-15.0-1.42","1867","2","""event"",""trial"",""time""
""fullscreenenter"",""1"",""3318""
","
","
","""event"",""trial"",""time""
""fullscreenenter"",""1"",""3318""
","
","","","","","","886.8999999761581","images/train3.png","","","memory_trial","4","definitely_new","","","","","","",""
"html-keyboard-response","128","325762","0.0-15.0-0.43","1867","2","""event"",""trial"",""time""
""fullscreenenter"",""1"",""3318""
","
","
","""event"",""trial"",""time""
""fullscreenenter"",""1"",""3318""
","
","","","","","","null","<div style=""font-size:60px;"">+</div>","null","","fixation","","","","","","","","",""
"memory-trial","129","328335","0.0-15.0-1.43","1867","2","""event"",""trial"",""time""
""fullscreenenter"",""1"",""3318""
","
","
","""event"",""trial"",""time""
""fullscreenenter"",""1"",""3318""
","
","","","","","","1568.9000000357628","images/cow4.png","","","memory_trial","2","maybe_old","","","","","","",""
"html-keyboard-response","130","328837","0.0-15.0-0.44","1867","2","""event"",""trial"",""time""
""fullscreenenter"",""1"",""3318""
","
","
","""event"",""trial"",""time""
""fullscreenenter"",""1"",""3318""
","
","","","","","","null","<div style=""font-size:60px;"">+</div>","null","","fixation","","","","","","","","",""
"memory-trial","131","331453","0.0-15.0-1.44","1867","2","""event"",""trial"",""time""
""fullscreenenter"",""1"",""3318""
","
","
","""event"",""trial"",""time""
""fullscreenenter"",""1"",""3318""
","
","","","","","","1599.699999988079","images/dog5.png","","","memory_trial","4","definitely_new","","","","","","",""
"html-keyboard-response","132","331956","0.0-15.0-0.45","1867","2","""event"",""trial"",""time""
""fullscreenenter"",""1"",""3318""
","
","
","""event"",""trial"",""time""
""fullscreenenter"",""1"",""3318""
","
","","","","","","null","<div style=""font-size:60px;"">+</div>","null","","fixation","","","","","","","","",""
"memory-trial","133","335552","0.0-15.0-1.45","1867","2","""event"",""trial"",""time""
""fullscreenenter"",""1"",""3318""
","
","
","""event"",""trial"",""time""
""fullscreenenter"",""1"",""3318""
","
","","","","","","2592","images/orange3.png","","","memory_trial","3","maybe_new","","","","","","",""
"html-keyboard-response","134","336055","0.0-15.0-0.46","1867","2","""event"",""trial"",""time""
""fullscreenenter"",""1"",""3318""
","
","
","""event"",""trial"",""time""
""fullscreenenter"",""1"",""3318""
","
","","","","","","null","<div style=""font-size:60px;"">+</div>","null","","fixation","","","","","","","","",""
"memory-trial","135","337923","0.0-15.0-1.46","1867","2","""event"",""trial"",""time""
""fullscreenenter"",""1"",""3318""
","
","
","""event"",""trial"",""time""
""fullscreenenter"",""1"",""3318""
","
","","","","","","862.3000000119209","images/tree5.png","","","memory_trial","4","definitely_new","","","","","","",""
"html-button-response","136","340048","0.0-15.0-2.46-0.46","1867","2","""event"",""trial"",""time""
""fullscreenenter"",""1"",""3318""
","
","
","""event"",""trial"",""time""
""fullscreenenter"",""1"",""3318""
","
","","","","","","2122.2999999523163","<p> Take a break! </p><p> Click the button to continue. </p>","0","","break","","","","","","","","",""
"html-keyboard-response","137","340550","0.0-15.0-0.47","1867","2","""event"",""trial"",""time""
""fullscreenenter"",""1"",""3318""
","
","
","""event"",""trial"",""time""
""fullscreenenter"",""1"",""3318""
","
","","","","","","null","<div style=""font-size:60px;"">+</div>","null","","fixation","","","","","","","","",""
"memory-trial","138","343749","0.0-15.0-1.47","1867","2","""event"",""trial"",""time""
""fullscreenenter"",""1"",""3318""
","
","
","""event"",""trial"",""time""
""fullscreenenter"",""1"",""3318""
","
","","","","","","2193.100000023842","images/sheep1.png","","","memory_trial","3","maybe_new","","","","","","",""
"html-keyboard-response","139","344251","0.0-15.0-0.48","1867","2","""event"",""trial"",""time""
""fullscreenenter"",""1"",""3318""
","
","
","""event"",""trial"",""time""
""fullscreenenter"",""1"",""3318""
","
","","","","","","null","<div style=""font-size:60px;"">+</div>","null","","fixation","","","","","","","","",""
"memory-trial","140","346260","0.0-15.0-1.48","1867","2","""event"",""trial"",""time""
""fullscreenenter"",""1"",""3318""
","
","
","""event"",""trial"",""time""
""fullscreenenter"",""1"",""3318""
","
","","","","","","1003.4000000357628","images/cow2.png","","","memory_trial","1","definitely_old","","","","","","",""
"html-keyboard-response","141","346762","0.0-15.0-0.49","1867","2","""event"",""trial"",""time""
""fullscreenenter"",""1"",""3318""
","
","
","""event"",""trial"",""time""
""fullscreenenter"",""1"",""3318""
","
","","","","","","null","<div style=""font-size:60px;"">+</div>","null","","fixation","","","","","","","","",""
"memory-trial","142","349183","0.0-15.0-1.49","1867","2","""event"",""trial"",""time""
""fullscreenenter"",""1"",""3318""
","
","
","""event"",""trial"",""time""
""fullscreenenter"",""1"",""3318""
","
","","","","","","1417","images/apple3.png","","","memory_trial","2","maybe_old","","","","","","",""
"html-keyboard-response","143","349686","0.0-15.0-0.50","1867","2","""event"",""trial"",""time""
""fullscreenenter"",""1"",""3318""
","
","
","""event"",""trial"",""time""
""fullscreenenter"",""1"",""3318""
","
","","","","","","null","<div style=""font-size:60px;"">+</div>","null","","fixation","","","","","","","","",""
"memory-trial","144","351809","0.0-15.0-1.50","1867","2","""event"",""trial"",""time""
""fullscreenenter"",""1"",""3318""
","
","
","""event"",""trial"",""time""
""fullscreenenter"",""1"",""3318""
","
","","","","","","1118.300000011921","images/cactus5.png","","","memory_trial","4","definitely_new","","","","","","",""
"html-keyboard-response","145","352317","0.0-15.0-0.51","1867","2","""event"",""trial"",""time""
""fullscreenenter"",""1"",""3318""
","
","
","""event"",""trial"",""time""
""fullscreenenter"",""1"",""3318""
","
","","","","","","null","<div style=""font-size:60px;"">+</div>","null","","fixation","","","","","","","","",""
"memory-trial","146","354251","0.0-15.0-1.51","1867","2","""event"",""trial"",""time""
""fullscreenenter"",""1"",""3318""
","
","
","""event"",""trial"",""time""
""fullscreenenter"",""1"",""3318""
","
","","","","","","928.6000000238419","images/apple5.png","","","memory_trial","1","definitely_old","","","","","","",""
"html-keyboard-response","147","354753","0.0-15.0-0.52","1867","2","""event"",""trial"",""time""
""fullscreenenter"",""1"",""3318""
","
","
","""event"",""trial"",""time""
""fullscreenenter"",""1"",""3318""
","
","","","","","","null","<div style=""font-size:60px;"">+</div>","null","","fixation","","","","","","","","",""
"memory-trial","148","358207","0.0-15.0-1.52","1867","2","""event"",""trial"",""time""
""fullscreenenter"",""1"",""3318""
","
","
","""event"",""trial"",""time""
""fullscreenenter"",""1"",""3318""
","
","","","","","","2449.699999988079","images/truck4.png","","","memory_trial","1","definitely_old","","","","","","",""
"html-keyboard-response","149","358709","0.0-15.0-0.53","1867","2","""event"",""trial"",""time""
""fullscreenenter"",""1"",""3318""
","
","
","""event"",""trial"",""time""
""fullscreenenter"",""1"",""3318""
","
","","","","","","null","<div style=""font-size:60px;"">+</div>","null","","fixation","","","","","","","","",""
"memory-trial","150","361058","0.0-15.0-1.53","1867","2","""event"",""trial"",""time""
""fullscreenenter"",""1"",""3318""
","
","
","""event"",""trial"",""time""
""fullscreenenter"",""1"",""3318""
","
","","","","","","1344.1000000238419","images/dog2.png","","","memory_trial","4","definitely_new","","","","","","",""
"html-keyboard-response","151","361560","0.0-15.0-0.54","1867","2","""event"",""trial"",""time""
""fullscreenenter"",""1"",""3318""
","
","
","""event"",""trial"",""time""
""fullscreenenter"",""1"",""3318""
","
","","","","","","null","<div style=""font-size:60px;"">+</div>","null","","fixation","","","","","","","","",""
"memory-trial","152","365452","0.0-15.0-1.54","1867","2","""event"",""trial"",""time""
""fullscreenenter"",""1"",""3318""
","
","
","""event"",""trial"",""time""
""fullscreenenter"",""1"",""3318""
","
","","","","","","2887.5","images/flower5.png","","","memory_trial","3","maybe_new","","","","","","",""
"html-keyboard-response","153","365954","0.0-15.0-0.55","1867","2","""event"",""trial"",""time""
""fullscreenenter"",""1"",""3318""
","
","
","""event"",""trial"",""time""
""fullscreenenter"",""1"",""3318""
","
","","","","","","null","<div style=""font-size:60px;"">+</div>","null","","fixation","","","","","","","","",""
"memory-trial","154","367995","0.0-15.0-1.55","1867","2","""event"",""trial"",""time""
""fullscreenenter"",""1"",""3318""
","
","
","""event"",""trial"",""time""
""fullscreenenter"",""1"",""3318""
","
","","","","","","1035.300000011921","images/table1.png","","","memory_trial","4","definitely_new","","","","","","",""
"html-keyboard-response","155","368498","0.0-15.0-0.56","1867","2","""event"",""trial"",""time""
""fullscreenenter"",""1"",""3318""
","
","
","""event"",""trial"",""time""
""fullscreenenter"",""1"",""3318""
","
","","","","","","null","<div style=""font-size:60px;"">+</div>","null","","fixation","","","","","","","","",""
"memory-trial","156","370920","0.0-15.0-1.56","1867","2","""event"",""trial"",""time""
""fullscreenenter"",""1"",""3318""
","
","
","""event"",""trial"",""time""
""fullscreenenter"",""1"",""3318""
","
","","","","","","1419.2999999523163","images/bed2.png","","","memory_trial","2","maybe_old","","","","","","",""
"html-keyboard-response","157","371423","0.0-15.0-0.57","1867","2","""event"",""trial"",""time""
""fullscreenenter"",""1"",""3318""
","
","
","""event"",""trial"",""time""
""fullscreenenter"",""1"",""3318""
","
","","","","","","null","<div style=""font-size:60px;"">+</div>","null","","fixation","","","","","","","","",""
"memory-trial","158","374680","0.0-15.0-1.57","1867","2","""event"",""trial"",""time""
""fullscreenenter"",""1"",""3318""
","
","
","""event"",""trial"",""time""
""fullscreenenter"",""1"",""3318""
","
","","","","","","2253.199999988079","images/bed1.png","","","memory_trial","2","maybe_old","","","","","","",""
"html-keyboard-response","159","375183","0.0-15.0-0.58","1867","2","""event"",""trial"",""time""
""fullscreenenter"",""1"",""3318""
","
","
","""event"",""trial"",""time""
""fullscreenenter"",""1"",""3318""
","
","","","","","","null","<div style=""font-size:60px;"">+</div>","null","","fixation","","","","","","","","",""
"memory-trial","160","377781","0.0-15.0-1.58","1867","2","""event"",""trial"",""time""
""fullscreenenter"",""1"",""3318""
","
","
","""event"",""trial"",""time""
""fullscreenenter"",""1"",""3318""
","
","","","","","","1592.8999999761581","images/sofa1.png","","","memory_trial","2","maybe_old","","","","","","",""
"html-keyboard-response","161","378284","0.0-15.0-0.59","1867","2","""event"",""trial"",""time""
""fullscreenenter"",""1"",""3318""
","
","
","""event"",""trial"",""time""
""fullscreenenter"",""1"",""3318""
","
","","","","","","null","<div style=""font-size:60px;"">+</div>","null","","fixation","","","","","","","","",""
"memory-trial","162","380237","0.0-15.0-1.59","1867","2","""event"",""trial"",""time""
""fullscreenenter"",""1"",""3318""
","
","
","""event"",""trial"",""time""
""fullscreenenter"",""1"",""3318""
","
","","","","","","947.1999999880791","images/straw1.png","","","memory_trial","2","maybe_old","","","","","","",""
"html-keyboard-response","163","380739","0.0-15.0-0.60","1867","2","""event"",""trial"",""time""
""fullscreenenter"",""1"",""3318""
","
","
","""event"",""trial"",""time""
""fullscreenenter"",""1"",""3318""
","
","","","","","","null","<div style=""font-size:60px;"">+</div>","null","","fixation","","","","","","","","",""
"memory-trial","164","382848","0.0-15.0-1.60","1867","2","""event"",""trial"",""time""
""fullscreenenter"",""1"",""3318""
","
","
","""event"",""trial"",""time""
""fullscreenenter"",""1"",""3318""
","
","","","","","","1103.8999999761581","images/tree3.png","","","memory_trial","4","definitely_new","","","","","","",""
"html-keyboard-response","165","383350","0.0-15.0-0.61","1867","2","""event"",""trial"",""time""
""fullscreenenter"",""1"",""3318""
","
","
","""event"",""trial"",""time""
""fullscreenenter"",""1"",""3318""
","
","","","","","","null","<div style=""font-size:60px;"">+</div>","null","","fixation","","","","","","","","",""
"memory-trial","166","385159","0.0-15.0-1.61","1867","2","""event"",""trial"",""time""
""fullscreenenter"",""1"",""3318""
","
","
","""event"",""trial"",""time""
""fullscreenenter"",""1"",""3318""
","
","","","","","","804","images/horse3.png","","","memory_trial","4","definitely_new","","","","","","",""
"html-keyboard-response","167","385661","0.0-15.0-0.62","1867","2","""event"",""trial"",""time""
""fullscreenenter"",""1"",""3318""
","
","
","""event"",""trial"",""time""
""fullscreenenter"",""1"",""3318""
","
","","","","","","null","<div style=""font-size:60px;"">+</div>","null","","fixation","","","","","","","","",""
"memory-trial","168","388842","0.0-15.0-1.62","1867","2","""event"",""trial"",""time""
""fullscreenenter"",""1"",""3318""
","
","
","""event"",""trial"",""time""
""fullscreenenter"",""1"",""3318""
","
","","","","","","2176.699999988079","images/rabbit5.png","","","memory_trial","2","maybe_old","","","","","","",""
"html-keyboard-response","169","389345","0.0-15.0-0.63","1867","2","""event"",""trial"",""time""
""fullscreenenter"",""1"",""3318""
","
","
","""event"",""trial"",""time""
""fullscreenenter"",""1"",""3318""
","
","","","","","","null","<div style=""font-size:60px;"">+</div>","null","","fixation","","","","","","","","",""
"memory-trial","170","391562","0.0-15.0-1.63","1867","2","""event"",""trial"",""time""
""fullscreenenter"",""1"",""3318""
","
","
","""event"",""trial"",""time""
""fullscreenenter"",""1"",""3318""
","
","","","","","","1211.8999999761581","images/boat3.png","","","memory_trial","1","definitely_old","","","","","","",""
"html-keyboard-response","171","392065","0.0-15.0-0.64","1867","2","""event"",""trial"",""time""
""fullscreenenter"",""1"",""3318""
","
","
","""event"",""trial"",""time""
""fullscreenenter"",""1"",""3318""
","
","","","","","","null","<div style=""font-size:60px;"">+</div>","null","","fixation","","","","","","","","",""
"memory-trial","172","394315","0.0-15.0-1.64","1867","2","""event"",""trial"",""time""
""fullscreenenter"",""1"",""3318""
","
","
","""event"",""trial"",""time""
""fullscreenenter"",""1"",""3318""
","
","","","","","","1246.199999988079","images/horse4.png","","","memory_trial","4","definitely_new","","","","","","",""
"html-keyboard-response","173","394818","0.0-15.0-0.65","1867","2","""event"",""trial"",""time""
""fullscreenenter"",""1"",""3318""
","
","
","""event"",""trial"",""time""
""fullscreenenter"",""1"",""3318""
","
","","","","","","null","<div style=""font-size:60px;"">+</div>","null","","fixation","","","","","","","","",""
"memory-trial","174","397665","0.0-15.0-1.65","1867","2","""event"",""trial"",""time""
""fullscreenenter"",""1"",""3318""
","
","
","""event"",""trial"",""time""
""fullscreenenter"",""1"",""3318""
","
","","","","","","1841.300000011921","images/boat1.png","","","memory_trial","1","definitely_old","","","","","","",""
"html-keyboard-response","175","398168","0.0-15.0-0.66","1867","2","""event"",""trial"",""time""
""fullscreenenter"",""1"",""3318""
","
","
","""event"",""trial"",""time""
""fullscreenenter"",""1"",""3318""
","
","","","","","","null","<div style=""font-size:60px;"">+</div>","null","","fixation","","","","","","","","",""
"memory-trial","176","400375","0.0-15.0-1.66","1867","2","""event"",""trial"",""time""
""fullscreenenter"",""1"",""3318""
","
","
","""event"",""trial"",""time""
""fullscreenenter"",""1"",""3318""
","
","","","","","","1202.6000000238419","images/plane4.png","","","memory_trial","1","definitely_old","","","","","","",""
"html-keyboard-response","177","400879","0.0-15.0-0.67","1867","2","""event"",""trial"",""time""
""fullscreenenter"",""1"",""3318""
","
","
","""event"",""trial"",""time""
""fullscreenenter"",""1"",""3318""
","
","","","","","","null","<div style=""font-size:60px;"">+</div>","null","","fixation","","","","","","","","",""
"memory-trial","178","402701","0.0-15.0-1.67","1867","2","""event"",""trial"",""time""
""fullscreenenter"",""1"",""3318""
","
","
","""event"",""trial"",""time""
""fullscreenenter"",""1"",""3318""
","
","","","","","","817","images/tree2.png","","","memory_trial","4","definitely_new","","","","","","",""
"html-keyboard-response","179","403203","0.0-15.0-0.68","1867","2","""event"",""trial"",""time""
""fullscreenenter"",""1"",""3318""
","
","
","""event"",""trial"",""time""
""fullscreenenter"",""1"",""3318""
","
","","","","","","null","<div style=""font-size:60px;"">+</div>","null","","fixation","","","","","","","","",""
"memory-trial","180","405626","0.0-15.0-1.68","1867","2","""event"",""trial"",""time""
""fullscreenenter"",""1"",""3318""
","
","
","""event"",""trial"",""time""
""fullscreenenter"",""1"",""3318""
","
","","","","","","1410","images/bed5.png","","","memory_trial","2","maybe_old","","","","","","",""
"html-keyboard-response","181","406128","0.0-15.0-0.69","1867","2","""event"",""trial"",""time""
""fullscreenenter"",""1"",""3318""
","
","
","""event"",""trial"",""time""
""fullscreenenter"",""1"",""3318""
","
","","","","","","null","<div style=""font-size:60px;"">+</div>","null","","fixation","","","","","","","","",""
"memory-trial","182","408635","0.0-15.0-1.69","1867","2","""event"",""trial"",""time""
""fullscreenenter"",""1"",""3318""
","
","
","""event"",""trial"",""time""
""fullscreenenter"",""1"",""3318""
","
","","","","","","1502.6000000238419","images/straw2.png","","","memory_trial","2","maybe_old","","","","","","",""
"html-keyboard-response","183","409138","0.0-15.0-0.70","1867","2","""event"",""trial"",""time""
""fullscreenenter"",""1"",""3318""
","
","
","""event"",""trial"",""time""
""fullscreenenter"",""1"",""3318""
","
","","","","","","null","<div style=""font-size:60px;"">+</div>","null","","fixation","","","","","","","","",""
"memory-trial","184","410918","0.0-15.0-1.70","1867","2","""event"",""trial"",""time""
""fullscreenenter"",""1"",""3318""
","
","
","""event"",""trial"",""time""
""fullscreenenter"",""1"",""3318""
","
","","","","","","774.3000000119209","images/straw4.png","","","memory_trial","2","maybe_old","","","","","","",""
"html-keyboard-response","185","411420","0.0-15.0-0.71","1867","2","""event"",""trial"",""time""
""fullscreenenter"",""1"",""3318""
","
","
","""event"",""trial"",""time""
""fullscreenenter"",""1"",""3318""
","
","","","","","","null","<div style=""font-size:60px;"">+</div>","null","","fixation","","","","","","","","",""
"memory-trial","186","413788","0.0-15.0-1.71","1867","2","""event"",""trial"",""time""
""fullscreenenter"",""1"",""3318""
","
","
","""event"",""trial"",""time""
""fullscreenenter"",""1"",""3318""
","
","","","","","","1364.7000000476837","images/chair3.png","","","memory_trial","4","definitely_new","","","","","","",""
"html-keyboard-response","187","414291","0.0-15.0-0.72","1867","2","""event"",""trial"",""time""
""fullscreenenter"",""1"",""3318""
","
","
","""event"",""trial"",""time""
""fullscreenenter"",""1"",""3318""
","
","","","","","","null","<div style=""font-size:60px;"">+</div>","null","","fixation","","","","","","","","",""
"memory-trial","188","416931","0.0-15.0-1.72","1867","2","""event"",""trial"",""time""
""fullscreenenter"",""1"",""3318""
","
","
","""event"",""trial"",""time""
""fullscreenenter"",""1"",""3318""
","
","","","","","","1635","images/bed4.png","","","memory_trial","3","maybe_new","","","","","","",""
"html-keyboard-response","189","417434","0.0-15.0-0.73","1867","2","""event"",""trial"",""time""
""fullscreenenter"",""1"",""3318""
","
","
","""event"",""trial"",""time""
""fullscreenenter"",""1"",""3318""
","
","","","","","","null","<div style=""font-size:60px;"">+</div>","null","","fixation","","","","","","","","",""
"memory-trial","190","419729","0.0-15.0-1.73","1867","2","""event"",""trial"",""time""
""fullscreenenter"",""1"",""3318""
","
","
","""event"",""trial"",""time""
""fullscreenenter"",""1"",""3318""
","
","","","","","","1292","images/rodent1.png","","","memory_trial","2","maybe_old","","","","","","",""
"html-keyboard-response","191","420232","0.0-15.0-0.74","1867","2","""event"",""trial"",""time""
""fullscreenenter"",""1"",""3318""
","
","
","""event"",""trial"",""time""
""fullscreenenter"",""1"",""3318""
","
","","","","","","null","<div style=""font-size:60px;"">+</div>","null","","fixation","","","","","","","","",""
"memory-trial","192","423505","0.0-15.0-1.74","1867","2","""event"",""trial"",""time""
""fullscreenenter"",""1"",""3318""
","
","
","""event"",""trial"",""time""
""fullscreenenter"",""1"",""3318""
","
","","","","","","2266.800000011921","images/banana2.png","","","memory_trial","3","maybe_new","","","","","","",""
"html-keyboard-response","193","424006","0.0-15.0-0.75","1867","2","""event"",""trial"",""time""
""fullscreenenter"",""1"",""3318""
","
","
","""event"",""trial"",""time""
""fullscreenenter"",""1"",""3318""
","
","","","","","","null","<div style=""font-size:60px;"">+</div>","null","","fixation","","","","","","","","",""
"memory-trial","194","427868","0.0-15.0-1.75","1867","2","""event"",""trial"",""time""
""fullscreenenter"",""1"",""3318""
","
","
","""event"",""trial"",""time""
""fullscreenenter"",""1"",""3318""
","
","","","","","","2857.399999976158","images/plane5.png","","","memory_trial","3","maybe_new","","","","","","",""
"html-keyboard-response","195","428372","0.0-15.0-0.76","1867","2","""event"",""trial"",""time""
""fullscreenenter"",""1"",""3318""
","
","
","""event"",""trial"",""time""
""fullscreenenter"",""1"",""3318""
","
","","","","","","null","<div style=""font-size:60px;"">+</div>","null","","fixation","","","","","","","","",""
"memory-trial","196","430354","0.0-15.0-1.76","1867","2","""event"",""trial"",""time""
""fullscreenenter"",""1"",""3318""
","
","
","""event"",""trial"",""time""
""fullscreenenter"",""1"",""3318""
","
","","","","","","977.1000000238419","images/cow3.png","","","memory_trial","1","definitely_old","","","","","","",""
"html-keyboard-response","197","430856","0.0-15.0-0.77","1867","2","""event"",""trial"",""time""
""fullscreenenter"",""1"",""3318""
","
","
","""event"",""trial"",""time""
""fullscreenenter"",""1"",""3318""
","
","","","","","","null","<div style=""font-size:60px;"">+</div>","null","","fixation","","","","","","","","",""
"memory-trial","198","434078","0.0-15.0-1.77","1867","2","""event"",""trial"",""time""
""fullscreenenter"",""1"",""3318""
","
","
","""event"",""trial"",""time""
""fullscreenenter"",""1"",""3318""
","
","","","","","","2218.100000023842","images/orange2.png","","","memory_trial","2","maybe_old","","","","","","",""
"html-keyboard-response","199","434580","0.0-15.0-0.78","1867","2","""event"",""trial"",""time""
""fullscreenenter"",""1"",""3318""
","
","
","""event"",""trial"",""time""
""fullscreenenter"",""1"",""3318""
","
","","","","","","null","<div style=""font-size:60px;"">+</div>","null","","fixation","","","","","","","","",""
"memory-trial","200","436670","0.0-15.0-1.78","1867","2","""event"",""trial"",""time""
""fullscreenenter"",""1"",""3318""
","
","
","""event"",""trial"",""time""
""fullscreenenter"",""1"",""3318""
","
","","","","","","1087.9000000357628","images/table3.png","","","memory_trial","4","definitely_new","","","","","","",""
"html-keyboard-response","201","437173","0.0-15.0-0.79","1867","2","""event"",""trial"",""time""
""fullscreenenter"",""1"",""3318""
","
","
","""event"",""trial"",""time""
""fullscreenenter"",""1"",""3318""
","
","","","","","","null","<div style=""font-size:60px;"">+</div>","null","","fixation","","","","","","","","",""
"memory-trial","202","439283","0.0-15.0-1.79","1867","2","""event"",""trial"",""time""
""fullscreenenter"",""1"",""3318""
","
","
","""event"",""trial"",""time""
""fullscreenenter"",""1"",""3318""
","
","","","","","","1105","images/sofa5.png","","","memory_trial","2","maybe_old","","","","","","",""
"html-keyboard-response","203","439786","0.0-15.0-0.80","1867","2","""event"",""trial"",""time""
""fullscreenenter"",""1"",""3318""
","
","
","""event"",""trial"",""time""
""fullscreenenter"",""1"",""3318""
","
","","","","","","null","<div style=""font-size:60px;"">+</div>","null","","fixation","","","","","","","","",""
"memory-trial","204","442812","0.0-15.0-1.80","1867","2","""event"",""trial"",""time""
""fullscreenenter"",""1"",""3318""
","
","
","""event"",""trial"",""time""
""fullscreenenter"",""1"",""3318""
","
","","","","","","2022.1000000238419","images/flower3.png","","","memory_trial","2","maybe_old","","","","","","",""
"html-keyboard-response","205","443314","0.0-15.0-0.81","1867","2","""event"",""trial"",""time""
""fullscreenenter"",""1"",""3318""
","
","
","""event"",""trial"",""time""
""fullscreenenter"",""1"",""3318""
","
","","","","","","null","<div style=""font-size:60px;"">+</div>","null","","fixation","","","","","","","","",""
"memory-trial","206","447047","0.0-15.0-1.81","1867","2","""event"",""trial"",""time""
""fullscreenenter"",""1"",""3318""
","
","
","""event"",""trial"",""time""
""fullscreenenter"",""1"",""3318""
","
","","","","","","2727.399999976158","images/rodent3.png","","","memory_trial","3","maybe_new","","","","","","",""
"html-keyboard-response","207","447550","0.0-15.0-0.82","1867","2","""event"",""trial"",""time""
""fullscreenenter"",""1"",""3318""
","
","
","""event"",""trial"",""time""
""fullscreenenter"",""1"",""3318""
","
","","","","","","null","<div style=""font-size:60px;"">+</div>","null","","fixation","","","","","","","","",""
"memory-trial","208","450773","0.0-15.0-1.82","1867","2","""event"",""trial"",""time""
""fullscreenenter"",""1"",""3318""
","
","
","""event"",""trial"",""time""
""fullscreenenter"",""1"",""3318""
","
","","","","","","2220.2999999523163","images/truck1.png","","","memory_trial","2","maybe_old","","","","","","",""
"html-keyboard-response","209","451276","0.0-15.0-0.83","1867","2","""event"",""trial"",""time""
""fullscreenenter"",""1"",""3318""
","
","
","""event"",""trial"",""time""
""fullscreenenter"",""1"",""3318""
","
","","","","","","null","<div style=""font-size:60px;"">+</div>","null","","fixation","","","","","","","","",""
"memory-trial","210","453320","0.0-15.0-1.83","1867","2","""event"",""trial"",""time""
""fullscreenenter"",""1"",""3318""
","
","
","""event"",""trial"",""time""
""fullscreenenter"",""1"",""3318""
","
","","","","","","1038.199999988079","images/apple2.png","","","memory_trial","2","maybe_old","","","","","","",""
"html-keyboard-response","211","453822","0.0-15.0-0.84","1867","2","""event"",""trial"",""time""
""fullscreenenter"",""1"",""3318""
","
","
","""event"",""trial"",""time""
""fullscreenenter"",""1"",""3318""
","
","","","","","","null","<div style=""font-size:60px;"">+</div>","null","","fixation","","","","","","","","",""
"memory-trial","212","456715","0.0-15.0-1.84","1867","2","""event"",""trial"",""time""
""fullscreenenter"",""1"",""3318""
","
","
","""event"",""trial"",""time""
""fullscreenenter"",""1"",""3318""
","
","","","","","","1889.4000000357628","images/banana5.png","","","memory_trial","2","maybe_old","","","","","","",""
"html-keyboard-response","213","457218","0.0-15.0-0.85","1867","2","""event"",""trial"",""time""
""fullscreenenter"",""1"",""3318""
","
","
","""event"",""trial"",""time""
""fullscreenenter"",""1"",""3318""
","
","","","","","","null","<div style=""font-size:60px;"">+</div>","null","","fixation","","","","","","","","",""
"memory-trial","214","459276","0.0-15.0-1.85","1867","2","""event"",""trial"",""time""
""fullscreenenter"",""1"",""3318""
","
","
","""event"",""trial"",""time""
""fullscreenenter"",""1"",""3318""
","
","","","","","","1051.2000000476837","images/table2.png","","","memory_trial","4","definitely_new","","","","","","",""
"html-keyboard-response","215","459778","0.0-15.0-0.86","1867","2","""event"",""trial"",""time""
""fullscreenenter"",""1"",""3318""
","
","
","""event"",""trial"",""time""
""fullscreenenter"",""1"",""3318""
","
","","","","","","null","<div style=""font-size:60px;"">+</div>","null","","fixation","","","","","","","","",""
"memory-trial","216","461991","0.0-15.0-1.86","1867","2","""event"",""trial"",""time""
""fullscreenenter"",""1"",""3318""
","
","
","""event"",""trial"",""time""
""fullscreenenter"",""1"",""3318""
","
","","","","","","1207.9000000357628","images/apple1.png","","","memory_trial","1","definitely_old","","","","","","",""
"html-keyboard-response","217","462493","0.0-15.0-0.87","1867","2","""event"",""trial"",""time""
""fullscreenenter"",""1"",""3318""
","
","
","""event"",""trial"",""time""
""fullscreenenter"",""1"",""3318""
","
","","","","","","null","<div style=""font-size:60px;"">+</div>","null","","fixation","","","","","","","","",""
"memory-trial","218","464699","0.0-15.0-1.87","1867","2","""event"",""trial"",""time""
""fullscreenenter"",""1"",""3318""
","
","
","""event"",""trial"",""time""
""fullscreenenter"",""1"",""3318""
","
","","","","","","1200.199999988079","images/dog4.png","","","memory_trial","4","definitely_new","","","","","","",""
"html-keyboard-response","219","465202","0.0-15.0-0.88","1867","2","""event"",""trial"",""time""
""fullscreenenter"",""1"",""3318""
","
","
","""event"",""trial"",""time""
""fullscreenenter"",""1"",""3318""
","
","","","","","","null","<div style=""font-size:60px;"">+</div>","null","","fixation","","","","","","","","",""
"memory-trial","220","468036","0.0-15.0-1.88","1867","2","""event"",""trial"",""time""
""fullscreenenter"",""1"",""3318""
","
","
","""event"",""trial"",""time""
""fullscreenenter"",""1"",""3318""
","
","","","","","","1829.1000000238419","images/boat4.png","","","memory_trial","3","maybe_new","","","","","","",""
"html-keyboard-response","221","468538","0.0-15.0-0.89","1867","2","""event"",""trial"",""time""
""fullscreenenter"",""1"",""3318""
","
","
","""event"",""trial"",""time""
""fullscreenenter"",""1"",""3318""
","
","","","","","","null","<div style=""font-size:60px;"">+</div>","null","","fixation","","","","","","","","",""
"memory-trial","222","470620","0.0-15.0-1.89","1867","2","""event"",""trial"",""time""
""fullscreenenter"",""1"",""3318""
","
","
","""event"",""trial"",""time""
""fullscreenenter"",""1"",""3318""
","
","","","","","","1078.800000011921","images/rabbit2.png","","","memory_trial","2","maybe_old","","","","","","",""
"html-keyboard-response","223","471123","0.0-15.0-0.90","1867","2","""event"",""trial"",""time""
""fullscreenenter"",""1"",""3318""
","
","
","""event"",""trial"",""time""
""fullscreenenter"",""1"",""3318""
","
","","","","","","null","<div style=""font-size:60px;"">+</div>","null","","fixation","","","","","","","","",""
"memory-trial","224","473143","0.0-15.0-1.90","1867","2","""event"",""trial"",""time""
""fullscreenenter"",""1"",""3318""
","
","
","""event"",""trial"",""time""
""fullscreenenter"",""1"",""3318""
","
","","","","","","1005.8999999761581","images/goat4.png","","","memory_trial","1","definitely_old","","","","","","",""
"html-keyboard-response","225","473646","0.0-15.0-0.91","1867","2","""event"",""trial"",""time""
""fullscreenenter"",""1"",""3318""
","
","
","""event"",""trial"",""time""
""fullscreenenter"",""1"",""3318""
","
","","","","","","null","<div style=""font-size:60px;"">+</div>","null","","fixation","","","","","","","","",""
"memory-trial","226","475622","0.0-15.0-1.91","1867","2","""event"",""trial"",""time""
""fullscreenenter"",""1"",""3318""
","
","
","""event"",""trial"",""time""
""fullscreenenter"",""1"",""3318""
","
","","","","","","970.3000000119209","images/dog1.png","","","memory_trial","4","definitely_new","","","","","","",""
"html-keyboard-response","227","476125","0.0-15.0-0.92","1867","2","""event"",""trial"",""time""
""fullscreenenter"",""1"",""3318""
","
","
","""event"",""trial"",""time""
""fullscreenenter"",""1"",""3318""
","
","","","","","","null","<div style=""font-size:60px;"">+</div>","null","","fixation","","","","","","","","",""
"memory-trial","228","478808","0.0-15.0-1.92","1867","2","""event"",""trial"",""time""
""fullscreenenter"",""1"",""3318""
","
","
","""event"",""trial"",""time""
""fullscreenenter"",""1"",""3318""
","
","","","","","","1678.9000000357628","images/chair4.png","","","memory_trial","4","definitely_new","","","","","","",""
"html-keyboard-response","229","479312","0.0-15.0-0.93","1867","2","""event"",""trial"",""time""
""fullscreenenter"",""1"",""3318""
","
","
","""event"",""trial"",""time""
""fullscreenenter"",""1"",""3318""
","
","","","","","","null","<div style=""font-size:60px;"">+</div>","null","","fixation","","","","","","","","",""
"memory-trial","230","481941","0.0-15.0-1.93","1867","2","""event"",""trial"",""time""
""fullscreenenter"",""1"",""3318""
","
","
","""event"",""trial"",""time""
""fullscreenenter"",""1"",""3318""
","
","","","","","","1624.699999988079","images/bush4.png","","","memory_trial","3","maybe_new","","","","","","",""
"html-keyboard-response","231","482444","0.0-15.0-0.94","1867","2","""event"",""trial"",""time""
""fullscreenenter"",""1"",""3318""
","
","
","""event"",""trial"",""time""
""fullscreenenter"",""1"",""3318""
","
","","","","","","null","<div style=""font-size:60px;"">+</div>","null","","fixation","","","","","","","","",""
"memory-trial","232","485797","0.0-15.0-1.94","1867","2","""event"",""trial"",""time""
""fullscreenenter"",""1"",""3318""
","
","
","""event"",""trial"",""time""
""fullscreenenter"",""1"",""3318""
","
","","","","","","2347.5","images/chair2.png","","","memory_trial","1","definitely_old","","","","","","",""
"html-keyboard-response","233","486299","0.0-15.0-0.95","1867","2","""event"",""trial"",""time""
""fullscreenenter"",""1"",""3318""
","
","
","""event"",""trial"",""time""
""fullscreenenter"",""1"",""3318""
","
","","","","","","null","<div style=""font-size:60px;"">+</div>","null","","fixation","","","","","","","","",""
"memory-trial","234","488223","0.0-15.0-1.95","1867","2","""event"",""trial"",""time""
""fullscreenenter"",""1"",""3318""
","
","
","""event"",""trial"",""time""
""fullscreenenter"",""1"",""3318""
","
","","","","","","918.7999999523163","images/cactus4.png","","","memory_trial","4","definitely_new","","","","","","",""
"html-keyboard-response","235","488726","0.0-15.0-0.96","1867","2","""event"",""trial"",""time""
""fullscreenenter"",""1"",""3318""
","
","
","""event"",""trial"",""time""
""fullscreenenter"",""1"",""3318""
","
","","","","","","null","<div style=""font-size:60px;"">+</div>","null","","fixation","","","","","","","","",""
"memory-trial","236","490448","0.0-15.0-1.96","1867","2","""event"",""trial"",""time""
""fullscreenenter"",""1"",""3318""
","
","
","""event"",""trial"",""time""
""fullscreenenter"",""1"",""3318""
","
","","","","","","719.3000000119209","images/tree1.png","","","memory_trial","4","definitely_new","","","","","","",""
"html-keyboard-response","237","490950","0.0-15.0-0.97","1867","2","""event"",""trial"",""time""
""fullscreenenter"",""1"",""3318""
","
","
","""event"",""trial"",""time""
""fullscreenenter"",""1"",""3318""
","
","","","","","","null","<div style=""font-size:60px;"">+</div>","null","","fixation","","","","","","","","",""
"memory-trial","238","492590","0.0-15.0-1.97","1867","2","""event"",""trial"",""time""
""fullscreenenter"",""1"",""3318""
","
","
","""event"",""trial"",""time""
""fullscreenenter"",""1"",""3318""
","
","","","","","","636","images/cactus1.png","","","memory_trial","4","definitely_new","","","","","","",""
"html-keyboard-response","239","493091","0.0-15.0-0.98","1867","2","""event"",""trial"",""time""
""fullscreenenter"",""1"",""3318""
","
","
","""event"",""trial"",""time""
""fullscreenenter"",""1"",""3318""
","
","","","","","","null","<div style=""font-size:60px;"">+</div>","null","","fixation","","","","","","","","",""
"memory-trial","240","495454","0.0-15.0-1.98","1867","2","""event"",""trial"",""time""
""fullscreenenter"",""1"",""3318""
","
","
","""event"",""trial"",""time""
""fullscreenenter"",""1"",""3318""
","
","","","","","","1358.300000011921","images/chair5.png","","","memory_trial","1","definitely_old","","","","","","",""
"html-keyboard-response","241","495957","0.0-15.0-0.99","1867","2","""event"",""trial"",""time""
""fullscreenenter"",""1"",""3318""
","
","
","""event"",""trial"",""time""
""fullscreenenter"",""1"",""3318""
","
","","","","","","null","<div style=""font-size:60px;"">+</div>","null","","fixation","","","","","","","","",""
"memory-trial","242","498338","0.0-15.0-1.99","1867","2","""event"",""trial"",""time""
""fullscreenenter"",""1"",""3318""
","
","
","""event"",""trial"",""time""
""fullscreenenter"",""1"",""3318""
","
","","","","","","1377.5","images/rabbit4.png","","","memory_trial","4","definitely_new","","","","","","",""
"html-keyboard-response","243","498841","0.0-15.0-0.100","1867","2","""event"",""trial"",""time""
""fullscreenenter"",""1"",""3318""
","
","
","""event"",""trial"",""time""
""fullscreenenter"",""1"",""3318""
","
","","","","","","null","<div style=""font-size:60px;"">+</div>","null","","fixation","","","","","","","","",""
"memory-trial","244","501630","0.0-15.0-1.100","1867","2","""event"",""trial"",""time""
""fullscreenenter"",""1"",""3318""
","
","
","""event"",""trial"",""time""
""fullscreenenter"",""1"",""3318""
","
","","","","","","1784.2999999523163","images/truck5.png","","","memory_trial","3","maybe_new","","","","","","",""
"html-keyboard-response","245","502133","0.0-15.0-0.101","1867","2","""event"",""trial"",""time""
""fullscreenenter"",""1"",""3318""
","
","
","""event"",""trial"",""time""
""fullscreenenter"",""1"",""3318""
","
","","","","","","null","<div style=""font-size:60px;"">+</div>","null","","fixation","","","","","","","","",""
"memory-trial","246","504184","0.0-15.0-1.101","1867","2","""event"",""trial"",""time""
""fullscreenenter"",""1"",""3318""
","
","
","""event"",""trial"",""time""
""fullscreenenter"",""1"",""3318""
","
","","","","","","1048","images/cow5.png","","","memory_trial","1","definitely_old","","","","","","",""
"html-button-response","247","506318","0.0-15.0-2.101-0.101","1867","2","""event"",""trial"",""time""
""fullscreenenter"",""1"",""3318""
","
","
","""event"",""trial"",""time""
""fullscreenenter"",""1"",""3318""
","
","","","","","","2132.199999988079","<p> Take a break! </p><p> Click the button to continue. </p>","0","","break","","","","","","","","",""
"html-keyboard-response","248","506821","0.0-15.0-0.102","1867","2","""event"",""trial"",""time""
""fullscreenenter"",""1"",""3318""
","
","
","""event"",""trial"",""time""
""fullscreenenter"",""1"",""3318""
","
","","","","","","null","<div style=""font-size:60px;"">+</div>","null","","fixation","","","","","","","","",""
"memory-trial","249","509311","0.0-15.0-1.102","1867","2","""event"",""trial"",""time""
""fullscreenenter"",""1"",""3318""
","
","
","""event"",""trial"",""time""
""fullscreenenter"",""1"",""3318""
","
","","","","","","1485.0999999642372","images/sofa3.png","","","memory_trial","4","definitely_new","","","","","","",""
"html-keyboard-response","250","509814","0.0-15.0-0.103","1867","2","""event"",""trial"",""time""
""fullscreenenter"",""1"",""3318""
","
","
","""event"",""trial"",""time""
""fullscreenenter"",""1"",""3318""
","
","","","","","","null","<div style=""font-size:60px;"">+</div>","null","","fixation","","","","","","","","",""
"memory-trial","251","512131","0.0-15.0-1.103","1867","2","""event"",""trial"",""time""
""fullscreenenter"",""1"",""3318""
","
","
","""event"",""trial"",""time""
""fullscreenenter"",""1"",""3318""
","
","","","","","","1311.7000000476837","images/boat5.png","","","memory_trial","3","maybe_new","","","","","","",""
"html-keyboard-response","252","512633","0.0-15.0-0.104","1867","2","""event"",""trial"",""time""
""fullscreenenter"",""1"",""3318""
","
","
","""event"",""trial"",""time""
""fullscreenenter"",""1"",""3318""
","
","","","","","","null","<div style=""font-size:60px;"">+</div>","null","","fixation","","","","","","","","",""
"memory-trial","253","514859","0.0-15.0-1.104","1867","2","""event"",""trial"",""time""
""fullscreenenter"",""1"",""3318""
","
","
","""event"",""trial"",""time""
""fullscreenenter"",""1"",""3318""
","
","","","","","","1223.199999988079","images/bush2.png","","","memory_trial","3","maybe_new","","","","","","",""
"html-keyboard-response","254","515362","0.0-15.0-0.105","1867","2","""event"",""trial"",""time""
""fullscreenenter"",""1"",""3318""
","
","
","""event"",""trial"",""time""
""fullscreenenter"",""1"",""3318""
","
","","","","","","null","<div style=""font-size:60px;"">+</div>","null","","fixation","","","","","","","","",""
"memory-trial","255","517859","0.0-15.0-1.105","1867","2","""event"",""trial"",""time""
""fullscreenenter"",""1"",""3318""
","
","
","""event"",""trial"",""time""
""fullscreenenter"",""1"",""3318""
","
","","","","","","1493.5","images/plane1.png","","","memory_trial","1","definitely_old","","","","","","",""
"html-keyboard-response","256","518362","0.0-15.0-0.106","1867","2","""event"",""trial"",""time""
""fullscreenenter"",""1"",""3318""
","
","
","""event"",""trial"",""time""
""fullscreenenter"",""1"",""3318""
","
","","","","","","null","<div style=""font-size:60px;"">+</div>","null","","fixation","","","","","","","","",""
"memory-trial","257","521393","0.0-15.0-1.106","1867","2","""event"",""trial"",""time""
""fullscreenenter"",""1"",""3318""
","
","
","""event"",""trial"",""time""
""fullscreenenter"",""1"",""3318""
","
","","","","","","2026.3999999761581","images/sofa2.png","","","memory_trial","2","maybe_old","","","","","","",""
"html-keyboard-response","258","521896","0.0-15.0-0.107","1867","2","""event"",""trial"",""time""
""fullscreenenter"",""1"",""3318""
","
","
","""event"",""trial"",""time""
""fullscreenenter"",""1"",""3318""
","
","","","","","","null","<div style=""font-size:60px;"">+</div>","null","","fixation","","","","","","","","",""
"memory-trial","259","524227","0.0-15.0-1.107","1867","2","""event"",""trial"",""time""
""fullscreenenter"",""1"",""3318""
","
","
","""event"",""trial"",""time""
""fullscreenenter"",""1"",""3318""
","
","","","","","","1325","images/sheep4.png","","","memory_trial","2","maybe_old","","","","","","",""
"html-keyboard-response","260","524743","0.0-15.0-0.108","1867","2","""event"",""trial"",""time""
""fullscreenenter"",""1"",""3318""
","
","
","""event"",""trial"",""time""
""fullscreenenter"",""1"",""3318""
","
","","","","","","null","<div style=""font-size:60px;"">+</div>","null","","fixation","","","","","","","","",""
"memory-trial","261","527907","0.0-15.0-1.108","1867","2","""event"",""trial"",""time""
""fullscreenenter"",""1"",""3318""
","
","
","""event"",""trial"",""time""
""fullscreenenter"",""1"",""3318""
","
","","","","","","2157.599999964237","images/cow1.png","","","memory_trial","2","maybe_old","","","","","","",""
"html-keyboard-response","262","528409","0.0-15.0-0.109","1867","2","""event"",""trial"",""time""
""fullscreenenter"",""1"",""3318""
","
","
","""event"",""trial"",""time""
""fullscreenenter"",""1"",""3318""
","
","","","","","","null","<div style=""font-size:60px;"">+</div>","null","","fixation","","","","","","","","",""
"memory-trial","263","530999","0.0-15.0-1.109","1867","2","""event"",""trial"",""time""
""fullscreenenter"",""1"",""3318""
","
","
","""event"",""trial"",""time""
""fullscreenenter"",""1"",""3318""
","
","","","","","","1584.300000011921","images/bed3.png","","","memory_trial","2","maybe_old","","","","","","",""
"html-keyboard-response","264","531515","0.0-15.0-0.110","1867","2","""event"",""trial"",""time""
""fullscreenenter"",""1"",""3318""
","
","
","""event"",""trial"",""time""
""fullscreenenter"",""1"",""3318""
","
","","","","","","null","<div style=""font-size:60px;"">+</div>","null","","fixation","","","","","","","","",""
"memory-trial","265","534022","0.0-15.0-1.110","1867","2","""event"",""trial"",""time""
""fullscreenenter"",""1"",""3318""
","
","
","""event"",""trial"",""time""
""fullscreenenter"",""1"",""3318""
","
","","","","","","1504","images/train5.png","","","memory_trial","4","definitely_new","","","","","","",""
"html-keyboard-response","266","534532","0.0-15.0-0.111","1867","2","""event"",""trial"",""time""
""fullscreenenter"",""1"",""3318""
","
","
","""event"",""trial"",""time""
""fullscreenenter"",""1"",""3318""
","
","","","","","","null","<div style=""font-size:60px;"">+</div>","null","","fixation","","","","","","","","",""
"memory-trial","267","537820","0.0-15.0-1.111","1867","2","""event"",""trial"",""time""
""fullscreenenter"",""1"",""3318""
","
","
","""event"",""trial"",""time""
""fullscreenenter"",""1"",""3318""
","
","","","","","","2284","images/banana3.png","","","memory_trial","3","maybe_new","","","","","","",""
"html-keyboard-response","268","538322","0.0-15.0-0.112","1867","2","""event"",""trial"",""time""
""fullscreenenter"",""1"",""3318""
","
","
","""event"",""trial"",""time""
""fullscreenenter"",""1"",""3318""
","
","","","","","","null","<div style=""font-size:60px;"">+</div>","null","","fixation","","","","","","","","",""
"memory-trial","269","541875","0.0-15.0-1.112","1867","2","""event"",""trial"",""time""
""fullscreenenter"",""1"",""3318""
","
","
","""event"",""trial"",""time""
""fullscreenenter"",""1"",""3318""
","
","","","","","","2547.899999976158","images/boat2.png","","","memory_trial","3","maybe_new","","","","","","",""
"html-keyboard-response","270","542378","0.0-15.0-0.113","1867","2","""event"",""trial"",""time""
""fullscreenenter"",""1"",""3318""
","
","
","""event"",""trial"",""time""
""fullscreenenter"",""1"",""3318""
","
","","","","","","null","<div style=""font-size:60px;"">+</div>","null","","fixation","","","","","","","","",""
"memory-trial","271","544620","0.0-15.0-1.113","1867","2","""event"",""trial"",""time""
""fullscreenenter"",""1"",""3318""
","
","
","""event"",""trial"",""time""
""fullscreenenter"",""1"",""3318""
","
","","","","","","1237.2999999523163","images/truck2.png","","","memory_trial","3","maybe_new","","","","","","",""
"html-keyboard-response","272","545122","0.0-15.0-0.114","1867","2","""event"",""trial"",""time""
""fullscreenenter"",""1"",""3318""
","
","
","""event"",""trial"",""time""
""fullscreenenter"",""1"",""3318""
","
","","","","","","null","<div style=""font-size:60px;"">+</div>","null","","fixation","","","","","","","","",""
"memory-trial","273","550372","0.0-15.0-1.114","1867","2","""event"",""trial"",""time""
""fullscreenenter"",""1"",""3318""
","
","
","""event"",""trial"",""time""
""fullscreenenter"",""1"",""3318""
","
","","","","","","4246.600000023842","images/bush5.png","","","memory_trial","3","maybe_new","","","","","","",""
"html-keyboard-response","274","550876","0.0-15.0-0.115","1867","2","""event"",""trial"",""time""
""fullscreenenter"",""1"",""3318""
","
","
","""event"",""trial"",""time""
""fullscreenenter"",""1"",""3318""
","
","","","","","","null","<div style=""font-size:60px;"">+</div>","null","","fixation","","","","","","","","",""
"memory-trial","275","553050","0.0-15.0-1.115","1867","2","""event"",""trial"",""time""
""fullscreenenter"",""1"",""3318""
","
","
","""event"",""trial"",""time""
""fullscreenenter"",""1"",""3318""
","
","","","","","","1168.8999999761581","images/rabbit3.png","","","memory_trial","3","maybe_new","","","","","","",""
"html-keyboard-response","276","553552","0.0-15.0-0.116","1867","2","""event"",""trial"",""time""
""fullscreenenter"",""1"",""3318""
","
","
","""event"",""trial"",""time""
""fullscreenenter"",""1"",""3318""
","
","","","","","","null","<div style=""font-size:60px;"">+</div>","null","","fixation","","","","","","","","",""
"memory-trial","277","555495","0.0-15.0-1.116","1867","2","""event"",""trial"",""time""
""fullscreenenter"",""1"",""3318""
","
","
","""event"",""trial"",""time""
""fullscreenenter"",""1"",""3318""
","
","","","","","","939.3999999761581","images/orange5.png","","","memory_trial","3","maybe_new","","","","","","",""
"html-keyboard-response","278","555998","0.0-15.0-0.117","1867","2","""event"",""trial"",""time""
""fullscreenenter"",""1"",""3318""
","
","
","""event"",""trial"",""time""
""fullscreenenter"",""1"",""3318""
","
","","","","","","null","<div style=""font-size:60px;"">+</div>","null","","fixation","","","","","","","","",""
"memory-trial","279","557976","0.0-15.0-1.117","1867","2","""event"",""trial"",""time""
""fullscreenenter"",""1"",""3318""
","
","
","""event"",""trial"",""time""
""fullscreenenter"",""1"",""3318""
","
","","","","","","974.3999999761581","images/table5.png","","","memory_trial","4","definitely_new","","","","","","",""
"html-keyboard-response","280","558492","0.0-15.0-0.118","1867","2","""event"",""trial"",""time""
""fullscreenenter"",""1"",""3318""
","
","
","""event"",""trial"",""time""
""fullscreenenter"",""1"",""3318""
","
","","","","","","null","<div style=""font-size:60px;"">+</div>","null","","fixation","","","","","","","","",""
"memory-trial","281","562070","0.0-15.0-1.118","1867","2","""event"",""trial"",""time""
""fullscreenenter"",""1"",""3318""
","
","
","""event"",""trial"",""time""
""fullscreenenter"",""1"",""3318""
","
","","","","","","2572.7999999523163","images/goat1.png","","","memory_trial","2","maybe_old","","","","","","",""
"html-keyboard-response","282","562573","0.0-15.0-0.119","1867","2","""event"",""trial"",""time""
""fullscreenenter"",""1"",""3318""
","
","
","""event"",""trial"",""time""
""fullscreenenter"",""1"",""3318""
","
","","","","","","null","<div style=""font-size:60px;"">+</div>","null","","fixation","","","","","","","","",""
"memory-trial","283","565687","0.0-15.0-1.119","1867","2","""event"",""trial"",""time""
""fullscreenenter"",""1"",""3318""
","
","
","""event"",""trial"",""time""
""fullscreenenter"",""1"",""3318""
","
","","","","","","2110.300000011921","images/plane3.png","","","memory_trial","3","maybe_new","","","","","","",""
"preload","284","568922","0.0-16.0","1867","2","""event"",""trial"",""time""
""fullscreenenter"",""1"",""3318""
","
","
","""event"",""trial"",""time""
""fullscreenenter"",""1"",""3318""
","
","true","false","[]","[]","[]","","","","","","","","","","","","","",""
"learning-instructions","285","575081","0.0-17.0-0.0-0.0-0.0","1867","2","""event"",""trial"",""time""
""fullscreenenter"",""1"",""3318""
","
","
","""event"",""trial"",""time""
""fullscreenenter"",""1"",""3318""
","
","","","","","","1302.2999999523163","<p> We're now going to ask you to put fuel in your vehicles again. </p>","","0","instructions","","","","","","","","",""
"learning-instructions","286","582528","0.0-17.0-0.0-0.0-0.1","1867","2","""event"",""trial"",""time""
""fullscreenenter"",""1"",""3318""
","
","
","""event"",""trial"",""time""
""fullscreenenter"",""1"",""3318""
","
","","","","","","1380","<p> On each trial, you will see a vehicle. Select the fuel that you think will make the vehicle start. </p>","","0","instructions","","","","","","","","",""
"learning-instructions","287","590532","0.0-17.0-0.0-0.0-0.2","1867","2","""event"",""trial"",""time""
""fullscreenenter"",""1"",""3318""
","
","
","""event"",""trial"",""time""
""fullscreenenter"",""1"",""3318""
","
","","","","","","945.8000000119209","<p> To make your selection, think about what you learned last week. You will NOT receive any feedback about your choice. </p>","","0","instructions","","","","","","","","",""
"learning-instructions","288","598805","0.0-17.0-0.0-0.0-0.3","1867","2","""event"",""trial"",""time""
""fullscreenenter"",""1"",""3318""
","
","
","""event"",""trial"",""time""
""fullscreenenter"",""1"",""3318""
","
","","","","","","825.5","<p> You should use the 1 key to select the fuel on the left, the 2 key to select the fuel in the middle, and the 3 key to select the fuel on the right. </p><br><div class=""choice-mem-instructions-grid""> <div class=""choice-mem-option""><img src=""images/vehicles_choice1.png"" class=""choice-mem-option-img"" stage=""instructions"" position=""0"" ><div class=""choice-mem-option-text""> Press ""1."" </div></div><div class=""choice-mem-option""><img src=""images/vehicles_choice2.png"" class=""choice-mem-option-img"" stage=""instructions"" position=""1"" ><div class=""choice-mem-option-text""> Press ""2."" </div></div><div class=""choice-mem-option""><img src=""images/vehicles_choice3.png"" class=""choice-mem-option-img"" stage=""instructions"" position=""2"" ><div class=""choice-mem-option-text""> Press ""3."" </div></div></div>","","0","instructions","","","","","","","","",""
"learning-instructions","289","605457","0.0-17.0-0.0-0.0-0.4","1867","2","""event"",""trial"",""time""
""fullscreenenter"",""1"",""3318""
","
","
","""event"",""trial"",""time""
""fullscreenenter"",""1"",""3318""
","
","","","","","","379.2000000476837","<p> You will have 10 seconds to make each selection. Try to respond before time runs out! </p>","","0","instructions","","","","","","","","",""
"learning-instructions","290","607932","0.0-17.0-0.0-1.0","1867","2","""event"",""trial"",""time""
""fullscreenenter"",""1"",""3318""
","
","
","""event"",""trial"",""time""
""fullscreenenter"",""1"",""3318""
","
","","","","","","414.19999998807907","<p> You are now ready to begin the game. </p>","","0","instructions","","","","","","","","",""
"html-keyboard-response","291","608538","0.0-17.0-0.0-2.0-0.0","1867","2","""event"",""trial"",""time""
""fullscreenenter"",""1"",""3318""
","
","
","""event"",""trial"",""time""
""fullscreenenter"",""1"",""3318""
","
","","","","","","null","<div style=""font-size:60px;"">+</div>","null","","fixation","","","","","","","","",""
"choice-memory-trial","292","612182","0.0-17.0-0.0-2.0-1.0","1867","2","""event"",""trial"",""time""
""fullscreenenter"",""1"",""3318""
","
","
","""event"",""trial"",""time""
""fullscreenenter"",""1"",""3318""
","
