"trial_type","trial_index","time_elapsed","internal_node_id","subject_id","task_version","interactions","blur_events","focus_events","fullscreenenter_events","fullscreenexit_events","success","timeout","failed_images","failed_audio","failed_video","rt","stimulus","response","button_pressed","task_part","key_press","answer","correct","left_choice","middle_choice","right_choice","choice_positions","option_selected","block"
"pavlovia","0","8","0.0-0.0","1650","2","""event"",""trial"",""time""
""fullscreenenter"",""1"",""2308""
","
","
","""event"",""trial"",""time""
""fullscreenenter"",""1"",""2308""
","
","","","","","","","","","","","","","","","","","","",""
"fullscreen","1","3300","0.0-1.0","1650","2","""event"",""trial"",""time""
""fullscreenenter"",""1"",""2308""
","
","
","""event"",""trial"",""time""
""fullscreenenter"",""1"",""2308""
","
","true","","","","","","","","","","","","","","","","","",""
"preload","2","4452","0.0-2.0","1650","2","""event"",""trial"",""time""
""fullscreenenter"",""1"",""2308""
","
","
","""event"",""trial"",""time""
""fullscreenenter"",""1"",""2308""
","
","true","false","[]","[]","[]","","","","","","","","","","","","","",""
"audio-keyboard-response","3","6370","0.0-3.0","1650","2","""event"",""trial"",""time""
""fullscreenenter"",""1"",""2308""
","
","
","""event"",""trial"",""time""
""fullscreenenter"",""1"",""2308""
","
","","","","","","1920","audio/beep_loop.wav"," ","","","","","","","","","","",""
"audio-button-response","4","8751","0.0-4.0","1650","2","""event"",""trial"",""time""
""fullscreenenter"",""1"",""2308""
","
","
","""event"",""trial"",""time""
""fullscreenenter"",""1"",""2308""
","
","","","","","","2381","audio/turtle.wav","3","","","","","","","","","","",""
"audio-button-response","5","11645","0.0-5.0","1650","2","""event"",""trial"",""time""
""fullscreenenter"",""1"",""2308""
","
","
","""event"",""trial"",""time""
""fullscreenenter"",""1"",""2308""
","
","","","","","","1880","audio/shark.wav","2","","","","","","","","","","",""
"preload","6","17937","0.0-6.0","1650","2","""event"",""trial"",""time""
""fullscreenenter"",""1"",""2308""
","
","
","""event"",""trial"",""time""
""fullscreenenter"",""1"",""2308""
","
","true","false","[]","[]","[]","","","","","","","","","","","","","",""
"learning-instructions","7","25319","0.0-7.0-0.0","1650","2","""event"",""trial"",""time""
""fullscreenenter"",""1"",""2308""
","
","
","""event"",""trial"",""time""
""fullscreenenter"",""1"",""2308""
","
","","","","","","2570.399999976158","<p> Welcome back! </p><p> Last week, you had to make choices about lots of different items.  </p>","","0","instructions","","","","","","","","",""
"learning-instructions","8","30414","0.0-7.0-0.1","1650","2","""event"",""trial"",""time""
""fullscreenenter"",""1"",""2308""
","
","
","""event"",""trial"",""time""
""fullscreenenter"",""1"",""2308""
","
","","","","","","786.7999999523163","<p> Today, we are going to ask you to try to remember all the items. </p>","","0","instructions","","","","","","","","",""
"learning-instructions","9","47292","0.0-7.0-0.2","1650","2","""event"",""trial"",""time""
""fullscreenenter"",""1"",""2308""
","
","
","""event"",""trial"",""time""
""fullscreenenter"",""1"",""2308""
","
","","","","","","6734.799999952316","<p> On every trial, you will see an image. </p><p> The image may be an OLD image you saw during the games last week or it may be a NEW image that was not presented. </p>","","0","instructions","","","","","","","","",""
"learning-instructions","10","56433","0.0-7.0-0.3","1650","2","""event"",""trial"",""time""
""fullscreenenter"",""1"",""2308""
","
","
","""event"",""trial"",""time""
""fullscreenenter"",""1"",""2308""
","
","","","","","","645.8999999761581","<p> You need to select whether the image is:  </p><p>  'Definitely old', 'Maybe old', 'Maybe new', or 'Definitely new.'  </p><div class=""mem-choice-instructions-grid""><div class=""choice-option"" id=""choice-option-1"" ><img src=""images/definitely_old_1.png"" id=""choice-option-img-1"" class=""choice-option-img"" stage=""1""></div><div class=""choice-option"" id=""choice-option-2"" ><img src=""images/maybe_old_1.png"" id=""choice-option-img-2"" class=""choice-option-img"" stage=""1""></div><div class=""choice-option"" id=""choice-option-3"" ><img src=""images/maybe_new_1.png"" id=""choice-option-img-3"" class=""choice-option-img"" stage=""1""></div><div class=""choice-option"" id=""choice-option-4"" > <img src=""images/definitely_new_1.png"" id=""choice-option-img-4"" class=""choice-option-img"" stage=""1""></div></div>","","0","instructions","","","","","","","","",""
"learning-instructions","11","63382","0.0-7.0-0.4","1650","2","""event"",""trial"",""time""
""fullscreenenter"",""1"",""2308""
","
","
","""event"",""trial"",""time""
""fullscreenenter"",""1"",""2308""
","
","","","","","","254.39999997615814","<p> You should use the 1, 2, 3, and 4 keys to make your responses.  </p><div class=""mem-choice-instructions-grid""><div class=""choice-option"" id=""choice-option-1"" ><img src=""images/definitely_old.png"" id=""choice-option-img-1"" class=""choice-option-img"" stage=""1""></div><div class=""choice-option"" id=""choice-option-2"" ><img src=""images/maybe_old.png"" id=""choice-option-img-2"" class=""choice-option-img"" stage=""1""></div><div class=""choice-option"" id=""choice-option-3"" ><img src=""images/maybe_new.png"" id=""choice-option-img-3"" class=""choice-option-img"" stage=""1""></div><div class=""choice-option"" id=""choice-option-4"" > <img src=""images/definitely_new.png"" id=""choice-option-img-4"" class=""choice-option-img"" stage=""1""></div></div>","","0","instructions","","","","","","","","",""
"learning-instructions","12","70620","0.0-7.0-0.5","1650","2","""event"",""trial"",""time""
""fullscreenenter"",""1"",""2308""
","
","
","""event"",""trial"",""time""
""fullscreenenter"",""1"",""2308""
","
","","","","","","473.2999999523163","<p> You will have 10 seconds to make each response.  </p><p>  Make sure to respond before time runs out! </p>","","0","instructions","","","","","","","","",""
"learning-instructions","13","78556","0.0-7.0-0.6","1650","2","""event"",""trial"",""time""
""fullscreenenter"",""1"",""2308""
","
","
","""event"",""trial"",""time""
""fullscreenenter"",""1"",""2308""
","
","","","","","","339","<p> Today, you will see each image ONCE only.  </p><p>  That means none of the images will repeat. </p>","","0","instructions","","","","","","","","",""
"learning-instructions","14","91732","0.0-7.0-0.7","1650","2","""event"",""trial"",""time""
""fullscreenenter"",""1"",""2308""
","
","
","""event"",""trial"",""time""
""fullscreenenter"",""1"",""2308""
","
","","","","","","505.2999999523163","<p> Before you play the real game, it is time to practice. </p><p>  Just like in the real game, some of the images in the practice will be ones you have seen before. </p><p>  Others will be entirely new. </p>","","0","instructions","","","","","","","","",""
"html-button-response","15","93277","0.0-8.0","1650","2","""event"",""trial"",""time""
""fullscreenenter"",""1"",""2308""
","
","
","""event"",""trial"",""time""
""fullscreenenter"",""1"",""2308""
","
","","","","","","1435","<p> Ready to practice? </p><p> Remember, use the 1, 2, 3, and 4 keys to make your responses. </p>","0","","instructions","","","","","","","","",""
"html-keyboard-response","16","93897","0.0-9.0-0.0","1650","2","""event"",""trial"",""time""
""fullscreenenter"",""1"",""2308""
","
","
","""event"",""trial"",""time""
""fullscreenenter"",""1"",""2308""
","
","","","","","","null","<div style=""font-size:60px;"">+</div>","null","","fixation","","","","","","","","",""
"memory-trial","17","97482","0.0-9.0-1.0","1650","2","""event"",""trial"",""time""
""fullscreenenter"",""1"",""2308""
","
","
","""event"",""trial"",""time""
""fullscreenenter"",""1"",""2308""
","
","","","","","","2579.0999999046326","images/ball4.png","","","practice","4","definitely_new","","","","","","",""
"html-keyboard-response","18","97987","0.0-9.0-0.1","1650","2","""event"",""trial"",""time""
""fullscreenenter"",""1"",""2308""
","
","
","""event"",""trial"",""time""
""fullscreenenter"",""1"",""2308""
","
","","","","","","null","<div style=""font-size:60px;"">+</div>","null","","fixation","","","","","","","","",""
"memory-trial","19","102037","0.0-9.0-1.1","1650","2","""event"",""trial"",""time""
""fullscreenenter"",""1"",""2308""
","
","
","""event"",""trial"",""time""
""fullscreenenter"",""1"",""2308""
","
","","","","","","3042.2000000476837","images/racket3.png","","","practice","2","maybe_old","","","","","","",""
"html-keyboard-response","20","102546","0.0-9.0-0.2","1650","2","""event"",""trial"",""time""
""fullscreenenter"",""1"",""2308""
","
","
","""event"",""trial"",""time""
""fullscreenenter"",""1"",""2308""
","
","","","","","","null","<div style=""font-size:60px;"">+</div>","null","","fixation","","","","","","","","",""
"memory-trial","21","106874","0.0-9.0-1.2","1650","2","""event"",""trial"",""time""
""fullscreenenter"",""1"",""2308""
","
","
","""event"",""trial"",""time""
""fullscreenenter"",""1"",""2308""
","
","","","","","","3320.5999999046326","images/ball1.png","","","practice","1","definitely_old","","","","","","",""
"html-keyboard-response","22","107377","0.0-9.0-0.3","1650","2","""event"",""trial"",""time""
""fullscreenenter"",""1"",""2308""
","
","
","""event"",""trial"",""time""
""fullscreenenter"",""1"",""2308""
","
","","","","","","null","<div style=""font-size:60px;"">+</div>","null","","fixation","","","","","","","","",""
"memory-trial","23","110433","0.0-9.0-1.3","1650","2","""event"",""trial"",""time""
""fullscreenenter"",""1"",""2308""
","
","
","""event"",""trial"",""time""
""fullscreenenter"",""1"",""2308""
","
","","","","","","2043.7000000476837","images/ball2.png","","","practice","1","definitely_old","","","","","","",""
"html-keyboard-response","24","110935","0.0-9.0-0.4","1650","2","""event"",""trial"",""time""
""fullscreenenter"",""1"",""2308""
","
","
","""event"",""trial"",""time""
""fullscreenenter"",""1"",""2308""
","
","","","","","","null","<div style=""font-size:60px;"">+</div>","null","","fixation","","","","","","","","",""
"memory-trial","25","115565","0.0-9.0-1.4","1650","2","""event"",""trial"",""time""
""fullscreenenter"",""1"",""2308""
","
","
","""event"",""trial"",""time""
""fullscreenenter"",""1"",""2308""
","
","","","","","","3626.7000000476837","images/racket2.png","","","practice","2","maybe_old","","","","","","",""
"html-keyboard-response","26","116071","0.0-9.0-0.5","1650","2","""event"",""trial"",""time""
""fullscreenenter"",""1"",""2308""
","
","
","""event"",""trial"",""time""
""fullscreenenter"",""1"",""2308""
","
","","","","","","null","<div style=""font-size:60px;"">+</div>","null","","fixation","","","","","","","","",""
"memory-trial","27","119878","0.0-9.0-1.5","1650","2","""event"",""trial"",""time""
""fullscreenenter"",""1"",""2308""
","
","
","""event"",""trial"",""time""
""fullscreenenter"",""1"",""2308""
","
","","","","","","2795.399999976158","images/racket1.png","","","practice","2","maybe_old","","","","","","",""
"html-keyboard-response","28","120395","0.0-9.0-0.6","1650","2","""event"",""trial"",""time""
""fullscreenenter"",""1"",""2308""
","
","
","""event"",""trial"",""time""
""fullscreenenter"",""1"",""2308""
","
","","","","","","null","<div style=""font-size:60px;"">+</div>","null","","fixation","","","","","","","","",""
"memory-trial","29","124133","0.0-9.0-1.6","1650","2","""event"",""trial"",""time""
""fullscreenenter"",""1"",""2308""
","
","
","""event"",""trial"",""time""
""fullscreenenter"",""1"",""2308""
","
","","","","","","2734","images/ball3.png","","","practice","3","maybe_new","","","","","","",""
"html-keyboard-response","30","124636","0.0-9.0-0.7","1650","2","""event"",""trial"",""time""
""fullscreenenter"",""1"",""2308""
","
","
","""event"",""trial"",""time""
""fullscreenenter"",""1"",""2308""
","
","","","","","","null","<div style=""font-size:60px;"">+</div>","null","","fixation","","","","","","","","",""
"memory-trial","31","127855","0.0-9.0-1.7","1650","2","""event"",""trial"",""time""
""fullscreenenter"",""1"",""2308""
","
","
","""event"",""trial"",""time""
""fullscreenenter"",""1"",""2308""
","
","","","","","","2216.2000000476837","images/racket4.png","","","practice","3","maybe_new","","","","","","",""
"learning-instructions","32","136931","0.0-10.0-0.0","1650","2","""event"",""trial"",""time""
""fullscreenenter"",""1"",""2308""
","
","
","""event"",""trial"",""time""
""fullscreenenter"",""1"",""2308""
","
","","","","","","1106.1999999284744","<p> Great! You have completed the practice. </p><p> Before you start, we're going to ask you a few questions about how the game works.  </p>","","0","instructions","","","","","","","","",""
"preload","33","139622","0.0-11.0","1650","2","""event"",""trial"",""time""
""fullscreenenter"",""1"",""2308""
","
","
","""event"",""trial"",""time""
""fullscreenenter"",""1"",""2308""
","
","true","false","[]","[]","[]","","","","","","","","","","","","","",""
"comp-q","34","146397","0.0-12.0-0.0","1650","2","""event"",""trial"",""time""
""fullscreenenter"",""1"",""2308""
","
","
","""event"",""trial"",""time""
""fullscreenenter"",""1"",""2308""
","
","","","","","","951","<p> <b> True or False? </b> </p><p> In this game, you will only see each image once. </p>","","0","comp_question","","","true","","","","","",""
"comp-q","35","153942","0.0-12.0-1.0","1650","2","""event"",""trial"",""time""
""fullscreenenter"",""1"",""2308""
","
","
","""event"",""trial"",""time""
""fullscreenenter"",""1"",""2308""
","
","","","","","","1206.8999999761581","<p> <b> That's right! </b> You will see many different images <i> one time each </i> in this game. </p>","","0","comp_answer","","","","","","","","",""
"comp-q","36","160898","0.0-12.0-0.1","1650","2","""event"",""trial"",""time""
""fullscreenenter"",""1"",""2308""
","
","
","""event"",""trial"",""time""
""fullscreenenter"",""1"",""2308""
","
","","","","","","1152.3999999761581","<p> <b> True or False? </b> </p><p> You should use the mouse and click to make your response. </p>","","1","comp_question","","","true","","","","","",""
"comp-q","37","169790","0.0-12.0-1.1","1650","2","""event"",""trial"",""time""
""fullscreenenter"",""1"",""2308""
","
","
","""event"",""trial"",""time""
""fullscreenenter"",""1"",""2308""
","
","","","","","","1544.8999999761581","<p><b> That's right! </b> You should use the '1', '2', '3', and '4' keys to make your response. </p>","","0","comp_answer","","","","","","","","",""
"comp-q","38","177125","0.0-12.0-0.2","1650","2","""event"",""trial"",""time""
""fullscreenenter"",""1"",""2308""
","
","
","""event"",""trial"",""time""
""fullscreenenter"",""1"",""2308""
","
","","","","","","1329.3999999761581","<p> <b> True or False? </b> </p><p> You will have as much time as you want to make each choice. </p>","","1","comp_question","","","true","","","","","",""
"comp-q","39","184715","0.0-12.0-1.2","1650","2","""event"",""trial"",""time""
""fullscreenenter"",""1"",""2308""
","
","
","""event"",""trial"",""time""
""fullscreenenter"",""1"",""2308""
","
","","","","","","2189","<p> <b> That's right! </b> You will only have 10 seconds to make each choice. </p>","","0","comp_answer","","","","","","","","",""
"learning-instructions","40","197684","0.0-13.0","1650","2","""event"",""trial"",""time""
""fullscreenenter"",""1"",""2308""
","
","
","""event"",""trial"",""time""
""fullscreenenter"",""1"",""2308""
","
","","","","","","4297.199999928474","<p> Great! You are now ready to begin the game. </p><p> Remember, use the 1, 2, 3, and 4 keys to make your responses. </p>","","0","instructions","","","","","","","","",""
"preload","41","202200","0.0-14.0","1650","2","""event"",""trial"",""time""
""fullscreenenter"",""1"",""2308""
","
","
","""event"",""trial"",""time""
""fullscreenenter"",""1"",""2308""
","
","true","false","[]","[]","[]","","","","","","","","","","","","","",""
"html-keyboard-response","42","202711","0.0-15.0-0.0","1650","2","""event"",""trial"",""time""
""fullscreenenter"",""1"",""2308""
","
","
","""event"",""trial"",""time""
""fullscreenenter"",""1"",""2308""
","
","","","","","","null","<div style=""font-size:60px;"">+</div>","null","","fixation","","","","","","","","",""
"memory-trial","43","205718","0.0-15.0-1.0","1650","2","""event"",""trial"",""time""
""fullscreenenter"",""1"",""2308""
","
","
","""event"",""trial"",""time""
""fullscreenenter"",""1"",""2308""
","
","","","","","","1994.8999999761581","images/train3.png","","","memory_trial","4","definitely_new","","","","","","",""
"html-keyboard-response","44","206233","0.0-15.0-0.1","1650","2","""event"",""trial"",""time""
""fullscreenenter"",""1"",""2308""
","
","
","""event"",""trial"",""time""
""fullscreenenter"",""1"",""2308""
","
","","","","","","null","<div style=""font-size:60px;"">+</div>","null","","fixation","","","","","","","","",""
"memory-trial","45","209156","0.0-15.0-1.1","1650","2","""event"",""trial"",""time""
""fullscreenenter"",""1"",""2308""
","
","
","""event"",""trial"",""time""
""fullscreenenter"",""1"",""2308""
","
","","","","","","1911.9000000953674","images/table4.png","","","memory_trial","4","definitely_new","","","","","","",""
"html-keyboard-response","46","209667","0.0-15.0-0.2","1650","2","""event"",""trial"",""time""
""fullscreenenter"",""1"",""2308""
","
","
","""event"",""trial"",""time""
""fullscreenenter"",""1"",""2308""
","
","","","","","","null","<div style=""font-size:60px;"">+</div>","null","","fixation","","","","","","","","",""
"memory-trial","47","212684","0.0-15.0-1.2","1650","2","""event"",""trial"",""time""
""fullscreenenter"",""1"",""2308""
","
","
","""event"",""trial"",""time""
""fullscreenenter"",""1"",""2308""
","
","","","","","","2010.3000000715256","images/rabbit4.png","","","memory_trial","1","definitely_old","","","","","","",""
"html-keyboard-response","48","213196","0.0-15.0-0.3","1650","2","""event"",""trial"",""time""
""fullscreenenter"",""1"",""2308""
","
","
","""event"",""trial"",""time""
""fullscreenenter"",""1"",""2308""
","
","","","","","","null","<div style=""font-size:60px;"">+</div>","null","","fixation","","","","","","","","",""
"memory-trial","49","216765","0.0-15.0-1.3","1650","2","""event"",""trial"",""time""
""fullscreenenter"",""1"",""2308""
","
","
","""event"",""trial"",""time""
""fullscreenenter"",""1"",""2308""
","
","","","","","","2547.8000000715256","images/table5.png","","","memory_trial","3","maybe_new","","","","","","",""
"html-keyboard-response","50","217278","0.0-15.0-0.4","1650","2","""event"",""trial"",""time""
""fullscreenenter"",""1"",""2308""
","
","
","""event"",""trial"",""time""
""fullscreenenter"",""1"",""2308""
","
","","","","","","null","<div style=""font-size:60px;"">+</div>","null","","fixation","","","","","","","","",""
"memory-trial","51","220516","0.0-15.0-1.4","1650","2","""event"",""trial"",""time""
""fullscreenenter"",""1"",""2308""
","
","
","""event"",""trial"",""time""
""fullscreenenter"",""1"",""2308""
","
","","","","","","2223.600000023842","images/bed2.png","","","memory_trial","2","maybe_old","","","","","","",""
"html-keyboard-response","52","221028","0.0-15.0-0.5","1650","2","""event"",""trial"",""time""
""fullscreenenter"",""1"",""2308""
","
","
","""event"",""trial"",""time""
""fullscreenenter"",""1"",""2308""
","
","","","","","","null","<div style=""font-size:60px;"">+</div>","null","","fixation","","","","","","","","",""
"memory-trial","53","225004","0.0-15.0-1.5","1650","2","""event"",""trial"",""time""
""fullscreenenter"",""1"",""2308""
","
","
","""event"",""trial"",""time""
""fullscreenenter"",""1"",""2308""
","
","","","","","","2971.4000000953674","images/banana5.png","","","memory_trial","2","maybe_old","","","","","","",""
"html-keyboard-response","54","225515","0.0-15.0-0.6","1650","2","""event"",""trial"",""time""
""fullscreenenter"",""1"",""2308""
","
","
","""event"",""trial"",""time""
""fullscreenenter"",""1"",""2308""
","
","","","","","","null","<div style=""font-size:60px;"">+</div>","null","","fixation","","","","","","","","",""
"memory-trial","55","228631","0.0-15.0-1.6","1650","2","""event"",""trial"",""time""
""fullscreenenter"",""1"",""2308""
","
","
","""event"",""trial"",""time""
""fullscreenenter"",""1"",""2308""
","
","","","","","","2112.2000000476837","images/straw2.png","","","memory_trial","1","definitely_old","","","","","","",""
"html-keyboard-response","56","229134","0.0-15.0-0.7","1650","2","""event"",""trial"",""time""
""fullscreenenter"",""1"",""2308""
","
","
","""event"",""trial"",""time""
""fullscreenenter"",""1"",""2308""
","
","","","","","","null","<div style=""font-size:60px;"">+</div>","null","","fixation","","","","","","","","",""
"memory-trial","57","232361","0.0-15.0-1.7","1650","2","""event"",""trial"",""time""
""fullscreenenter"",""1"",""2308""
","
","
","""event"",""trial"",""time""
""fullscreenenter"",""1"",""2308""
","
","","","","","","2222.399999976158","images/rabbit1.png","","","memory_trial","3","maybe_new","","","","","","",""
"html-keyboard-response","58","232864","0.0-15.0-0.8","1650","2","""event"",""trial"",""time""
""fullscreenenter"",""1"",""2308""
","
","
","""event"",""trial"",""time""
""fullscreenenter"",""1"",""2308""
","
","","","","","","null","<div style=""font-size:60px;"">+</div>","null","","fixation","","","","","","","","",""
"memory-trial","59","236701","0.0-15.0-1.8","1650","2","""event"",""trial"",""time""
""fullscreenenter"",""1"",""2308""
","
","
","""event"",""trial"",""time""
""fullscreenenter"",""1"",""2308""
","
","","","","","","2832.899999976158","images/bush5.png","","","memory_trial","4","definitely_new","","","","","","",""
"html-keyboard-response","60","237202","0.0-15.0-0.9","1650","2","""event"",""trial"",""time""
""fullscreenenter"",""1"",""2308""
","
","
","""event"",""trial"",""time""
""fullscreenenter"",""1"",""2308""
","
","","","","","","null","<div style=""font-size:60px;"">+</div>","null","","fixation","","","","","","","","",""
"memory-trial","61","239853","0.0-15.0-1.9","1650","2","""event"",""trial"",""time""
""fullscreenenter"",""1"",""2308""
","
","
","""event"",""trial"",""time""
""fullscreenenter"",""1"",""2308""
","
","","","","","","1649.1000000238419","images/chair3.png","","","memory_trial","3","maybe_new","","","","","","",""
"html-keyboard-response","62","240368","0.0-15.0-0.10","1650","2","""event"",""trial"",""time""
""fullscreenenter"",""1"",""2308""
","
","
","""event"",""trial"",""time""
""fullscreenenter"",""1"",""2308""
","
","","","","","","null","<div style=""font-size:60px;"">+</div>","null","","fixation","","","","","","","","",""
"memory-trial","63","242671","0.0-15.0-1.10","1650","2","""event"",""trial"",""time""
""fullscreenenter"",""1"",""2308""
","
","
","""event"",""trial"",""time""
""fullscreenenter"",""1"",""2308""
","
","","","","","","1300.3999999761581","images/bed3.png","","","memory_trial","3","maybe_new","","","","","","",""
"html-keyboard-response","64","243172","0.0-15.0-0.11","1650","2","""event"",""trial"",""time""
""fullscreenenter"",""1"",""2308""
","
","
","""event"",""trial"",""time""
""fullscreenenter"",""1"",""2308""
","
","","","","","","null","<div style=""font-size:60px;"">+</div>","null","","fixation","","","","","","","","",""
"memory-trial","65","246551","0.0-15.0-1.11","1650","2","""event"",""trial"",""time""
""fullscreenenter"",""1"",""2308""
","
","
","""event"",""trial"",""time""
""fullscreenenter"",""1"",""2308""
","
","","","","","","2362.2999999523163","images/train1.png","","","memory_trial","4","definitely_new","","","","","","",""
"html-keyboard-response","66","247052","0.0-15.0-0.12","1650","2","""event"",""trial"",""time""
""fullscreenenter"",""1"",""2308""
","
","
","""event"",""trial"",""time""
""fullscreenenter"",""1"",""2308""
","
","","","","","","null","<div style=""font-size:60px;"">+</div>","null","","fixation","","","","","","","","",""
"memory-trial","67","250131","0.0-15.0-1.12","1650","2","""event"",""trial"",""time""
""fullscreenenter"",""1"",""2308""
","
","
","""event"",""trial"",""time""
""fullscreenenter"",""1"",""2308""
","
","","","","","","2075.3000000715256","images/orange1.png","","","memory_trial","4","definitely_new","","","","","","",""
"html-keyboard-response","68","250632","0.0-15.0-0.13","1650","2","""event"",""trial"",""time""
""fullscreenenter"",""1"",""2308""
","
","
","""event"",""trial"",""time""
""fullscreenenter"",""1"",""2308""
","
","","","","","","null","<div style=""font-size:60px;"">+</div>","null","","fixation","","","","","","","","",""
"memory-trial","69","252998","0.0-15.0-1.13","1650","2","""event"",""trial"",""time""
""fullscreenenter"",""1"",""2308""
","
","
","""event"",""trial"",""time""
""fullscreenenter"",""1"",""2308""
","
","","","","","","1364.5","images/cactus1.png","","","memory_trial","4","definitely_new","","","","","","",""
"html-keyboard-response","70","253500","0.0-15.0-0.14","1650","2","""event"",""trial"",""time""
""fullscreenenter"",""1"",""2308""
","
","
","""event"",""trial"",""time""
""fullscreenenter"",""1"",""2308""
","
","","","","","","null","<div style=""font-size:60px;"">+</div>","null","","fixation","","","","","","","","",""
"memory-trial","71","257663","0.0-15.0-1.14","1650","2","""event"",""trial"",""time""
""fullscreenenter"",""1"",""2308""
","
","
","""event"",""trial"",""time""
""fullscreenenter"",""1"",""2308""
","
","","","","","","3159.6999999284744","images/goat1.png","","","memory_trial","3","maybe_new","","","","","","",""
"html-keyboard-response","72","258164","0.0-15.0-0.15","1650","2","""event"",""trial"",""time""
""fullscreenenter"",""1"",""2308""
","
","
","""event"",""trial"",""time""
""fullscreenenter"",""1"",""2308""
","
","","","","","","null","<div style=""font-size:60px;"">+</div>","null","","fixation","","","","","","","","",""
"memory-trial","73","261701","0.0-15.0-1.15","1650","2","""event"",""trial"",""time""
""fullscreenenter"",""1"",""2308""
","
","
","""event"",""trial"",""time""
""fullscreenenter"",""1"",""2308""
","
","","","","","","2533.600000023842","images/plane4.png","","","memory_trial","3","maybe_new","","","","","","",""
"html-keyboard-response","74","262202","0.0-15.0-0.16","1650","2","""event"",""trial"",""time""
""fullscreenenter"",""1"",""2308""
","
","
","""event"",""trial"",""time""
""fullscreenenter"",""1"",""2308""
","
","","","","","","null","<div style=""font-size:60px;"">+</div>","null","","fixation","","","","","","","","",""
"memory-trial","75","264101","0.0-15.0-1.16","1650","2","""event"",""trial"",""time""
""fullscreenenter"",""1"",""2308""
","
","
","""event"",""trial"",""time""
""fullscreenenter"",""1"",""2308""
","
","","","","","","897.3000000715256","images/dog2.png","","","memory_trial","2","maybe_old","","","","","","",""
"html-keyboard-response","76","264615","0.0-15.0-0.17","1650","2","""event"",""trial"",""time""
""fullscreenenter"",""1"",""2308""
","
","
","""event"",""trial"",""time""
""fullscreenenter"",""1"",""2308""
","
","","","","","","null","<div style=""font-size:60px;"">+</div>","null","","fixation","","","","","","","","",""
"memory-trial","77","267394","0.0-15.0-1.17","1650","2","""event"",""trial"",""time""
""fullscreenenter"",""1"",""2308""
","
","
","""event"",""trial"",""time""
""fullscreenenter"",""1"",""2308""
","
","","","","","","1776.1000000238419","images/chair5.png","","","memory_trial","3","maybe_new","","","","","","",""
"html-keyboard-response","78","267896","0.0-15.0-0.18","1650","2","""event"",""trial"",""time""
""fullscreenenter"",""1"",""2308""
","
","
","""event"",""trial"",""time""
""fullscreenenter"",""1"",""2308""
","
","","","","","","null","<div style=""font-size:60px;"">+</div>","null","","fixation","","","","","","","","",""
"memory-trial","79","270451","0.0-15.0-1.18","1650","2","""event"",""trial"",""time""
""fullscreenenter"",""1"",""2308""
","
","
","""event"",""trial"",""time""
""fullscreenenter"",""1"",""2308""
","
","","","","","","1552.1000000238419","images/table1.png","","","memory_trial","3","maybe_new","","","","","","",""
"html-keyboard-response","80","270953","0.0-15.0-0.19","1650","2","""event"",""trial"",""time""
""fullscreenenter"",""1"",""2308""
","
","
","""event"",""trial"",""time""
""fullscreenenter"",""1"",""2308""
","
","","","","","","null","<div style=""font-size:60px;"">+</div>","null","","fixation","","","","","","","","",""
"memory-trial","81","273519","0.0-15.0-1.19","1650","2","""event"",""trial"",""time""
""fullscreenenter"",""1"",""2308""
","
","
","""event"",""trial"",""time""
""fullscreenenter"",""1"",""2308""
","
","","","","","","1560.2999999523163","images/straw3.png","","","memory_trial","3","maybe_new","","","","","","",""
"html-keyboard-response","82","274020","0.0-15.0-0.20","1650","2","""event"",""trial"",""time""
""fullscreenenter"",""1"",""2308""
","
","
","""event"",""trial"",""time""
""fullscreenenter"",""1"",""2308""
","
","","","","","","null","<div style=""font-size:60px;"">+</div>","null","","fixation","","","","","","","","",""
"memory-trial","83","276495","0.0-15.0-1.20","1650","2","""event"",""trial"",""time""
""fullscreenenter"",""1"",""2308""
","
","
","""event"",""trial"",""time""
""fullscreenenter"",""1"",""2308""
","
","","","","","","1473.8999999761581","images/straw5.png","","","memory_trial","4","definitely_new","","","","","","",""
"html-keyboard-response","84","276997","0.0-15.0-0.21","1650","2","""event"",""trial"",""time""
""fullscreenenter"",""1"",""2308""
","
","
","""event"",""trial"",""time""
""fullscreenenter"",""1"",""2308""
","
","","","","","","null","<div style=""font-size:60px;"">+</div>","null","","fixation","","","","","","","","",""
"memory-trial","85","279215","0.0-15.0-1.21","1650","2","""event"",""trial"",""time""
""fullscreenenter"",""1"",""2308""
","
","
","""event"",""trial"",""time""
""fullscreenenter"",""1"",""2308""
","
","","","","","","1215.6000000238419","images/flower5.png","","","memory_trial","4","definitely_new","","","","","","",""
"html-keyboard-response","86","279718","0.0-15.0-0.22","1650","2","""event"",""trial"",""time""
""fullscreenenter"",""1"",""2308""
","
","
","""event"",""trial"",""time""
""fullscreenenter"",""1"",""2308""
","
","","","","","","null","<div style=""font-size:60px;"">+</div>","null","","fixation","","","","","","","","",""
"memory-trial","87","282683","0.0-15.0-1.22","1650","2","""event"",""trial"",""time""
""fullscreenenter"",""1"",""2308""
","
","
","""event"",""trial"",""time""
""fullscreenenter"",""1"",""2308""
","
","","","","","","1963.7999999523163","images/boat2.png","","","memory_trial","3","maybe_new","","","","","","",""
"html-keyboard-response","88","283185","0.0-15.0-0.23","1650","2","""event"",""trial"",""time""
""fullscreenenter"",""1"",""2308""
","
","
","""event"",""trial"",""time""
""fullscreenenter"",""1"",""2308""
","
","","","","","","null","<div style=""font-size:60px;"">+</div>","null","","fixation","","","","","","","","",""
"memory-trial","89","285971","0.0-15.0-1.23","1650","2","""event"",""trial"",""time""
""fullscreenenter"",""1"",""2308""
","
","
","""event"",""trial"",""time""
""fullscreenenter"",""1"",""2308""
","
","","","","","","1783.8000000715256","images/sofa2.png","","","memory_trial","2","maybe_old","","","","","","",""
"html-keyboard-response","90","286473","0.0-15.0-0.24","1650","2","""event"",""trial"",""time""
""fullscreenenter"",""1"",""2308""
","
","
","""event"",""trial"",""time""
""fullscreenenter"",""1"",""2308""
","
","","","","","","null","<div style=""font-size:60px;"">+</div>","null","","fixation","","","","","","","","",""
"memory-trial","91","289379","0.0-15.0-1.24","1650","2","""event"",""trial"",""time""
""fullscreenenter"",""1"",""2308""
","
","
","""event"",""trial"",""time""
""fullscreenenter"",""1"",""2308""
","
","","","","","","1904","images/orange5.png","","","memory_trial","4","definitely_new","","","","","","",""
"html-keyboard-response","92","289882","0.0-15.0-0.25","1650","2","""event"",""trial"",""time""
""fullscreenenter"",""1"",""2308""
","
","
","""event"",""trial"",""time""
""fullscreenenter"",""1"",""2308""
","
","","","","","","null","<div style=""font-size:60px;"">+</div>","null","","fixation","","","","","","","","",""
"memory-trial","93","292040","0.0-15.0-1.25","1650","2","""event"",""trial"",""time""
""fullscreenenter"",""1"",""2308""
","
","
","""event"",""trial"",""time""
""fullscreenenter"",""1"",""2308""
","
","","","","","","1153","images/cactus2.png","","","memory_trial","4","definitely_new","","","","","","",""
"html-keyboard-response","94","292541","0.0-15.0-0.26","1650","2","""event"",""trial"",""time""
""fullscreenenter"",""1"",""2308""
","
","
","""event"",""trial"",""time""
""fullscreenenter"",""1"",""2308""
","
","","","","","","null","<div style=""font-size:60px;"">+</div>","null","","fixation","","","","","","","","",""
"memory-trial","95","294964","0.0-15.0-1.26","1650","2","""event"",""trial"",""time""
""fullscreenenter"",""1"",""2308""
","
","
","""event"",""trial"",""time""
""fullscreenenter"",""1"",""2308""
","
","","","","","","1420.3999999761581","images/truck4.png","","","memory_trial","1","definitely_old","","","","","","",""
"html-keyboard-response","96","295465","0.0-15.0-0.27","1650","2","""event"",""trial"",""time""
""fullscreenenter"",""1"",""2308""
","
","
","""event"",""trial"",""time""
""fullscreenenter"",""1"",""2308""
","
","","","","","","null","<div style=""font-size:60px;"">+</div>","null","","fixation","","","","","","","","",""
"memory-trial","97","298361","0.0-15.0-1.27","1650","2","""event"",""trial"",""time""
""fullscreenenter"",""1"",""2308""
","
","
","""event"",""trial"",""time""
""fullscreenenter"",""1"",""2308""
","
","","","","","","1891.8999999761581","images/bush3.png","","","memory_trial","3","maybe_new","","","","","","",""
"html-keyboard-response","98","298864","0.0-15.0-0.28","1650","2","""event"",""trial"",""time""
""fullscreenenter"",""1"",""2308""
","
","
","""event"",""trial"",""time""
""fullscreenenter"",""1"",""2308""
","
","","","","","","null","<div style=""font-size:60px;"">+</div>","null","","fixation","","","","","","","","",""
"memory-trial","99","301822","0.0-15.0-1.28","1650","2","""event"",""trial"",""time""
""fullscreenenter"",""1"",""2308""
","
","
","""event"",""trial"",""time""
""fullscreenenter"",""1"",""2308""
","
","","","","","","1951.8999999761581","images/train4.png","","","memory_trial","4","definitely_new","","","","","","",""
"html-keyboard-response","100","302323","0.0-15.0-0.29","1650","2","""event"",""trial"",""time""
""fullscreenenter"",""1"",""2308""
","
","
","""event"",""trial"",""time""
""fullscreenenter"",""1"",""2308""
","
","","","","","","null","<div style=""font-size:60px;"">+</div>","null","","fixation","","","","","","","","",""
"memory-trial","101","304743","0.0-15.0-1.29","1650","2","""event"",""trial"",""time""
""fullscreenenter"",""1"",""2308""
","
","
","""event"",""trial"",""time""
""fullscreenenter"",""1"",""2308""
","
","","","","","","1414.5","images/goat3.png","","","memory_trial","1","definitely_old","","","","","","",""
"html-keyboard-response","102","305245","0.0-15.0-0.30","1650","2","""event"",""trial"",""time""
""fullscreenenter"",""1"",""2308""
","
","
","""event"",""trial"",""time""
""fullscreenenter"",""1"",""2308""
","
","","","","","","null","<div style=""font-size:60px;"">+</div>","null","","fixation","","","","","","","","",""
"memory-trial","103","307659","0.0-15.0-1.30","1650","2","""event"",""trial"",""time""
""fullscreenenter"",""1"",""2308""
","
","
","""event"",""trial"",""time""
""fullscreenenter"",""1"",""2308""
","
","","","","","","1407.7000000476837","images/truck3.png","","","memory_trial","4","definitely_new","","","","","","",""
"html-keyboard-response","104","308162","0.0-15.0-0.31","1650","2","""event"",""trial"",""time""
""fullscreenenter"",""1"",""2308""
","
","
","""event"",""trial"",""time""
""fullscreenenter"",""1"",""2308""
","
","","","","","","null","<div style=""font-size:60px;"">+</div>","null","","fixation","","","","","","","","",""
"memory-trial","105","310998","0.0-15.0-1.31","1650","2","""event"",""trial"",""time""
""fullscreenenter"",""1"",""2308""
","
","
","""event"",""trial"",""time""
""fullscreenenter"",""1"",""2308""
","
","","","","","","1830.8999999761581","images/sofa4.png","","","memory_trial","2","maybe_old","","","","","","",""
"html-keyboard-response","106","311502","0.0-15.0-0.32","1650","2","""event"",""trial"",""time""
""fullscreenenter"",""1"",""2308""
","
","
","""event"",""trial"",""time""
""fullscreenenter"",""1"",""2308""
","
","","","","","","null","<div style=""font-size:60px;"">+</div>","null","","fixation","","","","","","","","",""
"memory-trial","107","313706","0.0-15.0-1.32","1650","2","""event"",""trial"",""time""
""fullscreenenter"",""1"",""2308""
","
","
","""event"",""trial"",""time""
""fullscreenenter"",""1"",""2308""
","
","","","","","","1199.0999999046326","images/plane3.png","","","memory_trial","4","definitely_new","","","","","","",""
"html-keyboard-response","108","314208","0.0-15.0-0.33","1650","2","""event"",""trial"",""time""
""fullscreenenter"",""1"",""2308""
","
","
","""event"",""trial"",""time""
""fullscreenenter"",""1"",""2308""
","
","","","","","","null","<div style=""font-size:60px;"">+</div>","null","","fixation","","","","","","","","",""
"memory-trial","109","316438","0.0-15.0-1.33","1650","2","""event"",""trial"",""time""
""fullscreenenter"",""1"",""2308""
","
","
","""event"",""trial"",""time""
""fullscreenenter"",""1"",""2308""
","
","","","","","","1227.1000000238419","images/plane2.png","","","memory_trial","1","definitely_old","","","","","","",""
"html-keyboard-response","110","316939","0.0-15.0-0.34","1650","2","""event"",""trial"",""time""
""fullscreenenter"",""1"",""2308""
","
","
","""event"",""trial"",""time""
""fullscreenenter"",""1"",""2308""
","
","","","","","","null","<div style=""font-size:60px;"">+</div>","null","","fixation","","","","","","","","",""
"memory-trial","111","319535","0.0-15.0-1.34","1650","2","""event"",""trial"",""time""
""fullscreenenter"",""1"",""2308""
","
","
","""event"",""trial"",""time""
""fullscreenenter"",""1"",""2308""
","
","","","","","","1594.3999999761581","images/straw1.png","","","memory_trial","3","maybe_new","","","","","","",""
"html-keyboard-response","112","320038","0.0-15.0-0.35","1650","2","""event"",""trial"",""time""
""fullscreenenter"",""1"",""2308""
","
","
","""event"",""trial"",""time""
""fullscreenenter"",""1"",""2308""
","
","","","","","","null","<div style=""font-size:60px;"">+</div>","null","","fixation","","","","","","","","",""
"memory-trial","113","322136","0.0-15.0-1.35","1650","2","""event"",""trial"",""time""
""fullscreenenter"",""1"",""2308""
","
","
","""event"",""trial"",""time""
""fullscreenenter"",""1"",""2308""
","
","","","","","","1089.7999999523163","images/cactus4.png","","","memory_trial","4","definitely_new","","","","","","",""
"html-keyboard-response","114","322638","0.0-15.0-0.36","1650","2","""event"",""trial"",""time""
""fullscreenenter"",""1"",""2308""
","
","
","""event"",""trial"",""time""
""fullscreenenter"",""1"",""2308""
","
","","","","","","null","<div style=""font-size:60px;"">+</div>","null","","fixation","","","","","","","","",""
"memory-trial","115","324863","0.0-15.0-1.36","1650","2","""event"",""trial"",""time""
""fullscreenenter"",""1"",""2308""
","
","
","""event"",""trial"",""time""
""fullscreenenter"",""1"",""2308""
","
","","","","","","1220.2000000476837","images/rabbit2.png","","","memory_trial","1","definitely_old","","","","","","",""
"html-keyboard-response","116","325369","0.0-15.0-0.37","1650","2","""event"",""trial"",""time""
""fullscreenenter"",""1"",""2308""
","
","
","""event"",""trial"",""time""
""fullscreenenter"",""1"",""2308""
","
","","","","","","null","<div style=""font-size:60px;"">+</div>","null","","fixation","","","","","","","","",""
"memory-trial","117","327603","0.0-15.0-1.37","1650","2","""event"",""trial"",""time""
""fullscreenenter"",""1"",""2308""
","
","
","""event"",""trial"",""time""
""fullscreenenter"",""1"",""2308""
","
","","","","","","1228.3999999761581","images/dog1.png","","","memory_trial","1","definitely_old","","","","","","",""
"html-keyboard-response","118","328106","0.0-15.0-0.38","1650","2","""event"",""trial"",""time""
""fullscreenenter"",""1"",""2308""
","
","
","""event"",""trial"",""time""
""fullscreenenter"",""1"",""2308""
","
","","","","","","null","<div style=""font-size:60px;"">+</div>","null","","fixation","","","","","","","","",""
"memory-trial","119","330465","0.0-15.0-1.38","1650","2","""event"",""trial"",""time""
""fullscreenenter"",""1"",""2308""
","
","
","""event"",""trial"",""time""
""fullscreenenter"",""1"",""2308""
","
","","","","","","1355.9000000953674","images/rodent5.png","","","memory_trial","4","definitely_new","","","","","","",""
"html-keyboard-response","120","330968","0.0-15.0-0.39","1650","2","""event"",""trial"",""time""
""fullscreenenter"",""1"",""2308""
","
","
","""event"",""trial"",""time""
""fullscreenenter"",""1"",""2308""
","
","","","","","","null","<div style=""font-size:60px;"">+</div>","null","","fixation","","","","","","","","",""
"memory-trial","121","333480","0.0-15.0-1.39","1650","2","""event"",""trial"",""time""
""fullscreenenter"",""1"",""2308""
","
","
","""event"",""trial"",""time""
""fullscreenenter"",""1"",""2308""
","
","","","","","","1507.2999999523163","images/table3.png","","","memory_trial","3","maybe_new","","","","","","",""
"html-keyboard-response","122","333982","0.0-15.0-0.40","1650","2","""event"",""trial"",""time""
""fullscreenenter"",""1"",""2308""
","
","
","""event"",""trial"",""time""
""fullscreenenter"",""1"",""2308""
","
","","","","","","null","<div style=""font-size:60px;"">+</div>","null","","fixation","","","","","","","","",""
"memory-trial","123","336382","0.0-15.0-1.40","1650","2","""event"",""trial"",""time""
""fullscreenenter"",""1"",""2308""
","
","
","""event"",""trial"",""time""
""fullscreenenter"",""1"",""2308""
","
","","","","","","1394.6000000238419","images/feline4.png","","","memory_trial","2","maybe_old","","","","","","",""
"html-keyboard-response","124","336888","0.0-15.0-0.41","1650","2","""event"",""trial"",""time""
""fullscreenenter"",""1"",""2308""
","
","
","""event"",""trial"",""time""
""fullscreenenter"",""1"",""2308""
","
","","","","","","null","<div style=""font-size:60px;"">+</div>","null","","fixation","","","","","","","","",""
"memory-trial","125","339805","0.0-15.0-1.41","1650","2","""event"",""trial"",""time""
""fullscreenenter"",""1"",""2308""
","
","
","""event"",""trial"",""time""
""fullscreenenter"",""1"",""2308""
","
","","","","","","1910.9000000953674","images/apple2.png","","","memory_trial","2","maybe_old","","","","","","",""
"html-keyboard-response","126","340307","0.0-15.0-0.42","1650","2","""event"",""trial"",""time""
""fullscreenenter"",""1"",""2308""
","
","
","""event"",""trial"",""time""
""fullscreenenter"",""1"",""2308""
","
","","","","","","null","<div style=""font-size:60px;"">+</div>","null","","fixation","","","","","","","","",""
"memory-trial","127","342824","0.0-15.0-1.42","1650","2","""event"",""trial"",""time""
""fullscreenenter"",""1"",""2308""
","
","
","""event"",""trial"",""time""
""fullscreenenter"",""1"",""2308""
","
","","","","","","1513.5999999046326","images/sofa3.png","","","memory_trial","3","maybe_new","","","","","","",""
"html-keyboard-response","128","343327","0.0-15.0-0.43","1650","2","""event"",""trial"",""time""
""fullscreenenter"",""1"",""2308""
","
","
","""event"",""trial"",""time""
""fullscreenenter"",""1"",""2308""
","
","","","","","","null","<div style=""font-size:60px;"">+</div>","null","","fixation","","","","","","","","",""
"memory-trial","129","345723","0.0-15.0-1.43","1650","2","""event"",""trial"",""time""
""fullscreenenter"",""1"",""2308""
","
","
","""event"",""trial"",""time""
""fullscreenenter"",""1"",""2308""
","
","","","","","","1392.1000000238419","images/horse3.png","","","memory_trial","4","definitely_new","","","","","","",""
"html-keyboard-response","130","346225","0.0-15.0-0.44","1650","2","""event"",""trial"",""time""
""fullscreenenter"",""1"",""2308""
","
","
","""event"",""trial"",""time""
""fullscreenenter"",""1"",""2308""
","
","","","","","","null","<div style=""font-size:60px;"">+</div>","null","","fixation","","","","","","","","",""
"memory-trial","131","348393","0.0-15.0-1.44","1650","2","""event"",""trial"",""time""
""fullscreenenter"",""1"",""2308""
","
","
","""event"",""trial"",""time""
""fullscreenenter"",""1"",""2308""
","
","","","","","","1164.6999999284744","images/goat4.png","","","memory_trial","1","definitely_old","","","","","","",""
"html-keyboard-response","132","348895","0.0-15.0-0.45","1650","2","""event"",""trial"",""time""
""fullscreenenter"",""1"",""2308""
","
","
","""event"",""trial"",""time""
""fullscreenenter"",""1"",""2308""
","
","","","","","","null","<div style=""font-size:60px;"">+</div>","null","","fixation","","","","","","","","",""
"memory-trial","133","352300","0.0-15.0-1.45","1650","2","""event"",""trial"",""time""
""fullscreenenter"",""1"",""2308""
","
","
","""event"",""trial"",""time""
""fullscreenenter"",""1"",""2308""
","
","","","","","","2401.2999999523163","images/feline2.png","","","memory_trial","1","definitely_old","","","","","","",""
"html-keyboard-response","134","352802","0.0-15.0-0.46","1650","2","""event"",""trial"",""time""
""fullscreenenter"",""1"",""2308""
","
","
","""event"",""trial"",""time""
""fullscreenenter"",""1"",""2308""
","
","","","","","","null","<div style=""font-size:60px;"">+</div>","null","","fixation","","","","","","","","",""
"memory-trial","135","356214","0.0-15.0-1.46","1650","2","""event"",""trial"",""time""
""fullscreenenter"",""1"",""2308""
","
","
","""event"",""trial"",""time""
""fullscreenenter"",""1"",""2308""
","
","","","","","","2409.7999999523163","images/truck5.png","","","memory_trial","3","maybe_new","","","","","","",""
"html-button-response","136","358621","0.0-15.0-2.46-0.46","1650","2","""event"",""trial"",""time""
""fullscreenenter"",""1"",""2308""
","
","
","""event"",""trial"",""time""
""fullscreenenter"",""1"",""2308""
","
","","","","","","2404.399999976158","<p> Take a break! </p><p> Click the button to continue. </p>","0","","break","","","","","","","","",""
"html-keyboard-response","137","359124","0.0-15.0-0.47","1650","2","""event"",""trial"",""time""
""fullscreenenter"",""1"",""2308""
","
","
","""event"",""trial"",""time""
""fullscreenenter"",""1"",""2308""
","
","","","","","","null","<div style=""font-size:60px;"">+</div>","null","","fixation","","","","","","","","",""
"memory-trial","138","362398","0.0-15.0-1.47","1650","2","""event"",""trial"",""time""
""fullscreenenter"",""1"",""2308""
","
","
","""event"",""trial"",""time""
""fullscreenenter"",""1"",""2308""
","
","","","","","","2268.899999976158","images/bed1.png","","","memory_trial","3","maybe_new","","","","","","",""
"html-keyboard-response","139","362900","0.0-15.0-0.48","1650","2","""event"",""trial"",""time""
""fullscreenenter"",""1"",""2308""
","
","
","""event"",""trial"",""time""
""fullscreenenter"",""1"",""2308""
","
","","","","","","null","<div style=""font-size:60px;"">+</div>","null","","fixation","","","","","","","","",""
"memory-trial","140","366007","0.0-15.0-1.48","1650","2","""event"",""trial"",""time""
""fullscreenenter"",""1"",""2308""
","
","
","""event"",""trial"",""time""
""fullscreenenter"",""1"",""2308""
","
","","","","","","2102.2000000476837","images/tree2.png","","","memory_trial","2","maybe_old","","","","","","",""
"html-keyboard-response","141","366509","0.0-15.0-0.49","1650","2","""event"",""trial"",""time""
""fullscreenenter"",""1"",""2308""
","
","
","""event"",""trial"",""time""
""fullscreenenter"",""1"",""2308""
","
","","","","","","null","<div style=""font-size:60px;"">+</div>","null","","fixation","","","","","","","","",""
"memory-trial","142","368830","0.0-15.0-1.49","1650","2","""event"",""trial"",""time""
""fullscreenenter"",""1"",""2308""
","
","
","""event"",""trial"",""time""
""fullscreenenter"",""1"",""2308""
","
","","","","","","1315.6000000238419","images/table2.png","","","memory_trial","2","maybe_old","","","","","","",""
"html-keyboard-response","143","369332","0.0-15.0-0.50","1650","2","""event"",""trial"",""time""
""fullscreenenter"",""1"",""2308""
","
","
","""event"",""trial"",""time""
""fullscreenenter"",""1"",""2308""
","
","","","","","","null","<div style=""font-size:60px;"">+</div>","null","","fixation","","","","","","","","",""
"memory-trial","144","371446","0.0-15.0-1.50","1650","2","""event"",""trial"",""time""
""fullscreenenter"",""1"",""2308""
","
","
","""event"",""trial"",""time""
""fullscreenenter"",""1"",""2308""
","
","","","","","","1110.3000000715256","images/bed5.png","","","memory_trial","2","maybe_old","","","","","","",""
"html-keyboard-response","145","371948","0.0-15.0-0.51","1650","2","""event"",""trial"",""time""
""fullscreenenter"",""1"",""2308""
","
","
","""event"",""trial"",""time""
""fullscreenenter"",""1"",""2308""
","
","","","","","","null","<div style=""font-size:60px;"">+</div>","null","","fixation","","","","","","","","",""
"memory-trial","146","374290","0.0-15.0-1.51","1650","2","""event"",""trial"",""time""
""fullscreenenter"",""1"",""2308""
","
","
","""event"",""trial"",""time""
""fullscreenenter"",""1"",""2308""
","
","","","","","","1338.7000000476837","images/chair2.png","","","memory_trial","4","definitely_new","","","","","","",""
"html-keyboard-response","147","374792","0.0-15.0-0.52","1650","2","""event"",""trial"",""time""
""fullscreenenter"",""1"",""2308""
","
","
","""event"",""trial"",""time""
""fullscreenenter"",""1"",""2308""
","
","","","","","","null","<div style=""font-size:60px;"">+</div>","null","","fixation","","","","","","","","",""
"memory-trial","148","377304","0.0-15.0-1.52","1650","2","""event"",""trial"",""time""
""fullscreenenter"",""1"",""2308""
","
","
","""event"",""trial"",""time""
""fullscreenenter"",""1"",""2308""
","
","","","","","","1508.8999999761581","images/truck2.png","","","memory_trial","2","maybe_old","","","","","","",""
"html-keyboard-response","149","377807","0.0-15.0-0.53","1650","2","""event"",""trial"",""time""
""fullscreenenter"",""1"",""2308""
","
","
","""event"",""trial"",""time""
""fullscreenenter"",""1"",""2308""
","
","","","","","","null","<div style=""font-size:60px;"">+</div>","null","","fixation","","","","","","","","",""
"memory-trial","150","379798","0.0-15.0-1.53","1650","2","""event"",""trial"",""time""
""fullscreenenter"",""1"",""2308""
","
","
","""event"",""trial"",""time""
""fullscreenenter"",""1"",""2308""
","
","","","","","","986.3999999761581","images/plane1.png","","","memory_trial","1","definitely_old","","","","","","",""
"html-keyboard-response","151","380299","0.0-15.0-0.54","1650","2","""event"",""trial"",""time""
""fullscreenenter"",""1"",""2308""
","
","
","""event"",""trial"",""time""
""fullscreenenter"",""1"",""2308""
","
","","","","","","null","<div style=""font-size:60px;"">+</div>","null","","fixation","","","","","","","","",""
"memory-trial","152","382942","0.0-15.0-1.54","1650","2","""event"",""trial"",""time""
""fullscreenenter"",""1"",""2308""
","
","
","""event"",""trial"",""time""
""fullscreenenter"",""1"",""2308""
","
","","","","","","1639.7999999523163","images/apple5.png","","","memory_trial","4","definitely_new","","","","","","",""
"html-keyboard-response","153","383444","0.0-15.0-0.55","1650","2","""event"",""trial"",""time""
""fullscreenenter"",""1"",""2308""
","
","
","""event"",""trial"",""time""
""fullscreenenter"",""1"",""2308""
","
","","","","","","null","<div style=""font-size:60px;"">+</div>","null","","fixation","","","","","","","","",""
"memory-trial","154","385554","0.0-15.0-1.55","1650","2","""event"",""trial"",""time""
""fullscreenenter"",""1"",""2308""
","
","
","""event"",""trial"",""time""
""fullscreenenter"",""1"",""2308""
","
","","","","","","1105.7999999523163","images/cow4.png","","","memory_trial","1","definitely_old","","","","","","",""
"html-keyboard-response","155","386057","0.0-15.0-0.56","1650","2","""event"",""trial"",""time""
""fullscreenenter"",""1"",""2308""
","
","
","""event"",""trial"",""time""
""fullscreenenter"",""1"",""2308""
","
","","","","","","null","<div style=""font-size:60px;"">+</div>","null","","fixation","","","","","","","","",""
"memory-trial","156","388041","0.0-15.0-1.56","1650","2","""event"",""trial"",""time""
""fullscreenenter"",""1"",""2308""
","
","
","""event"",""trial"",""time""
""fullscreenenter"",""1"",""2308""
","
","","","","","","979","images/feline3.png","","","memory_trial","1","definitely_old","","","","","","",""
"html-keyboard-response","157","388553","0.0-15.0-0.57","1650","2","""event"",""trial"",""time""
""fullscreenenter"",""1"",""2308""
","
","
","""event"",""trial"",""time""
""fullscreenenter"",""1"",""2308""
","
","","","","","","null","<div style=""font-size:60px;"">+</div>","null","","fixation","","","","","","","","",""
"memory-trial","158","391302","0.0-15.0-1.57","1650","2","""event"",""trial"",""time""
""fullscreenenter"",""1"",""2308""
","
","
","""event"",""trial"",""time""
""fullscreenenter"",""1"",""2308""
","
","","","","","","1745.1000000238419","images/dog3.png","","","memory_trial","3","maybe_new","","","","","","",""
"html-keyboard-response","159","391804","0.0-15.0-0.58","1650","2","""event"",""trial"",""time""
""fullscreenenter"",""1"",""2308""
","
","
","""event"",""trial"",""time""
""fullscreenenter"",""1"",""2308""
","
","","","","","","null","<div style=""font-size:60px;"">+</div>","null","","fixation","","","","","","","","",""
"memory-trial","160","394234","0.0-15.0-1.58","1650","2","""event"",""trial"",""time""
""fullscreenenter"",""1"",""2308""
","
","
","""event"",""trial"",""time""
""fullscreenenter"",""1"",""2308""
","
","","","","","","1425.3999999761581","images/rodent3.png","","","memory_trial","4","definitely_new","","","","","","",""
"html-keyboard-response","161","394736","0.0-15.0-0.59","1650","2","""event"",""trial"",""time""
""fullscreenenter"",""1"",""2308""
","
","
","""event"",""trial"",""time""
""fullscreenenter"",""1"",""2308""
","
","","","","","","null","<div style=""font-size:60px;"">+</div>","null","","fixation","","","","","","","","",""
"memory-trial","162","397537","0.0-15.0-1.59","1650","2","""event"",""trial"",""time""
""fullscreenenter"",""1"",""2308""
","
","
","""event"",""trial"",""time""
""fullscreenenter"",""1"",""2308""
","
","","","","","","1797.3000000715256","images/goat5.png","","","memory_trial","3","maybe_new","","","","","","",""
"html-keyboard-response","163","398039","0.0-15.0-0.60","1650","2","""event"",""trial"",""time""
""fullscreenenter"",""1"",""2308""
","
","
","""event"",""trial"",""time""
""fullscreenenter"",""1"",""2308""
","
","","","","","","null","<div style=""font-size:60px;"">+</div>","null","","fixation","","","","","","","","",""
"memory-trial","164","401156","0.0-15.0-1.60","1650","2","""event"",""trial"",""time""
""fullscreenenter"",""1"",""2308""
","
","
","""event"",""trial"",""time""
""fullscreenenter"",""1"",""2308""
","
","","","","","","2112.7999999523163","images/sheep5.png","","","memory_trial","2","maybe_old","","","","","","",""
"html-keyboard-response","165","401658","0.0-15.0-0.61","1650","2","""event"",""trial"",""time""
""fullscreenenter"",""1"",""2308""
","
","
","""event"",""trial"",""time""
""fullscreenenter"",""1"",""2308""
","
","","","","","","null","<div style=""font-size:60px;"">+</div>","null","","fixation","","","","","","","","",""
"memory-trial","166","404320","0.0-15.0-1.61","1650","2","""event"",""trial"",""time""
""fullscreenenter"",""1"",""2308""
","
","
","""event"",""trial"",""time""
""fullscreenenter"",""1"",""2308""
","
","","","","","","1657.3999999761581","images/banana3.png","","","memory_trial","3","maybe_new","","","","","","",""
"html-keyboard-response","167","404822","0.0-15.0-0.62","1650","2","""event"",""trial"",""time""
""fullscreenenter"",""1"",""2308""
","
","
","""event"",""trial"",""time""
""fullscreenenter"",""1"",""2308""
","
","","","","","","null","<div style=""font-size:60px;"">+</div>","null","","fixation","","","","","","","","",""
"memory-trial","168","408491","0.0-15.0-1.62","1650","2","""event"",""trial"",""time""
""fullscreenenter"",""1"",""2308""
","
","
","""event"",""trial"",""time""
""fullscreenenter"",""1"",""2308""
","
","","","","","","2666","images/cactus5.png","","","memory_trial","3","maybe_new","","","","","","",""
"html-keyboard-response","169","408994","0.0-15.0-0.63","1650","2","""event"",""trial"",""time""
""fullscreenenter"",""1"",""2308""
","
","
","""event"",""trial"",""time""
""fullscreenenter"",""1"",""2308""
","
","","","","","","null","<div style=""font-size:60px;"">+</div>","null","","fixation","","","","","","","","",""
"memory-trial","170","411540","0.0-15.0-1.63","1650","2","""event"",""trial"",""time""
""fullscreenenter"",""1"",""2308""
","
","
","""event"",""trial"",""time""
""fullscreenenter"",""1"",""2308""
","
","","","","","","1541.6000000238419","images/straw4.png","","","memory_trial","3","maybe_new","","","","","","",""
"html-keyboard-response","171","412043","0.0-15.0-0.64","1650","2","""event"",""trial"",""time""
""fullscreenenter"",""1"",""2308""
","
","
","""event"",""trial"",""time""
""fullscreenenter"",""1"",""2308""
","
","","","","","","null","<div style=""font-size:60px;"">+</div>","null","","fixation","","","","","","","","",""
"memory-trial","172","414026","0.0-15.0-1.64","1650","2","""event"",""trial"",""time""
""fullscreenenter"",""1"",""2308""
","
","
","""event"",""trial"",""time""
""fullscreenenter"",""1"",""2308""
","
","","","","","","979.3000000715256","images/cow3.png","","","memory_trial","1","definitely_old","","","","","","",""
"html-keyboard-response","173","414527","0.0-15.0-0.65","1650","2","""event"",""trial"",""time""
""fullscreenenter"",""1"",""2308""
","
","
","""event"",""trial"",""time""
""fullscreenenter"",""1"",""2308""
","
","","","","","","null","<div style=""font-size:60px;"">+</div>","null","","fixation","","","","","","","","",""
"memory-trial","174","416919","0.0-15.0-1.65","1650","2","""event"",""trial"",""time""
""fullscreenenter"",""1"",""2308""
","
","
","""event"",""trial"",""time""
""fullscreenenter"",""1"",""2308""
","
","","","","","","1388.3999999761581","images/horse2.png","","","memory_trial","4","definitely_new","","","","","","",""
"html-keyboard-response","175","417420","0.0-15.0-0.66","1650","2","""event"",""trial"",""time""
""fullscreenenter"",""1"",""2308""
","
","
","""event"",""trial"",""time""
""fullscreenenter"",""1"",""2308""
","
","","","","","","null","<div style=""font-size:60px;"">+</div>","null","","fixation","","","","","","","","",""
"memory-trial","176","420282","0.0-15.0-1.66","1650","2","""event"",""trial"",""time""
""fullscreenenter"",""1"",""2308""
","
","
","""event"",""trial"",""time""
""fullscreenenter"",""1"",""2308""
","
","","","","","","1858.1999999284744","images/sheep4.png","","","memory_trial","1","definitely_old","","","","","","",""
"html-keyboard-response","177","420785","0.0-15.0-0.67","1650","2","""event"",""trial"",""time""
""fullscreenenter"",""1"",""2308""
","
","
","""event"",""trial"",""time""
""fullscreenenter"",""1"",""2308""
","
","","","","","","null","<div style=""font-size:60px;"">+</div>","null","","fixation","","","","","","","","",""
"memory-trial","178","424019","0.0-15.0-1.67","1650","2","""event"",""trial"",""time""
""fullscreenenter"",""1"",""2308""
","
","
","""event"",""trial"",""time""
""fullscreenenter"",""1"",""2308""
","
","","","","","","2230.600000023842","images/cactus3.png","","","memory_trial","3","maybe_new","","","","","","",""
"html-keyboard-response","179","424521","0.0-15.0-0.68","1650","2","""event"",""trial"",""time""
""fullscreenenter"",""1"",""2308""
","
","
","""event"",""trial"",""time""
""fullscreenenter"",""1"",""2308""
","
","","","","","","null","<div style=""font-size:60px;"">+</div>","null","","fixation","","","","","","","","",""
"memory-trial","180","427931","0.0-15.0-1.68","1650","2","""event"",""trial"",""time""
""fullscreenenter"",""1"",""2308""
","
","
","""event"",""trial"",""time""
""fullscreenenter"",""1"",""2308""
","
","","","","","","2406.600000023842","images/apple1.png","","","memory_trial","3","maybe_new","","","","","","",""
"html-keyboard-response","181","428434","0.0-15.0-0.69","1650","2","""event"",""trial"",""time""
""fullscreenenter"",""1"",""2308""
","
","
","""event"",""trial"",""time""
""fullscreenenter"",""1"",""2308""
","
","","","","","","null","<div style=""font-size:60px;"">+</div>","null","","fixation","","","","","","","","",""
"memory-trial","182","430768","0.0-15.0-1.69","1650","2","""event"",""trial"",""time""
""fullscreenenter"",""1"",""2308""
","
","
","""event"",""trial"",""time""
""fullscreenenter"",""1"",""2308""
","
","","","","","","1330.3000000715256","images/bed4.png","","","memory_trial","2","maybe_old","","","","","","",""
"html-keyboard-response","183","431270","0.0-15.0-0.70","1650","2","""event"",""trial"",""time""
""fullscreenenter"",""1"",""2308""
","
","
","""event"",""trial"",""time""
""fullscreenenter"",""1"",""2308""
","
","","","","","","null","<div style=""font-size:60px;"">+</div>","null","","fixation","","","","","","","","",""
"memory-trial","184","433596","0.0-15.0-1.70","1650","2","""event"",""trial"",""time""
""fullscreenenter"",""1"",""2308""
","
","
","""event"",""trial"",""time""
""fullscreenenter"",""1"",""2308""
","
","","","","","","1315.3000000715256","images/flower3.png","","","memory_trial","4","definitely_new","","","","","","",""
"html-keyboard-response","185","434098","0.0-15.0-0.71","1650","2","""event"",""trial"",""time""
""fullscreenenter"",""1"",""2308""
","
","
","""event"",""trial"",""time""
""fullscreenenter"",""1"",""2308""
","
","","","","","","null","<div style=""font-size:60px;"">+</div>","null","","fixation","","","","","","","","",""
"memory-trial","186","436694","0.0-15.0-1.71","1650","2","""event"",""trial"",""time""
""fullscreenenter"",""1"",""2308""
","
","
","""event"",""trial"",""time""
""fullscreenenter"",""1"",""2308""
","
","","","","","","1592.1000000238419","images/sheep2.png","","","memory_trial","2","maybe_old","","","","","","",""
"html-keyboard-response","187","437197","0.0-15.0-0.72","1650","2","""event"",""trial"",""time""
""fullscreenenter"",""1"",""2308""
","
","
","""event"",""trial"",""time""
""fullscreenenter"",""1"",""2308""
","
","","","","","","null","<div style=""font-size:60px;"">+</div>","null","","fixation","","","","","","","","",""
"memory-trial","188","439092","0.0-15.0-1.72","1650","2","""event"",""trial"",""time""
""fullscreenenter"",""1"",""2308""
","
","
","""event"",""trial"",""time""
""fullscreenenter"",""1"",""2308""
","
","","","","","","891.6000000238419","images/cow1.png","","","memory_trial","1","definitely_old","","","","","","",""
"html-keyboard-response","189","439594","0.0-15.0-0.73","1650","2","""event"",""trial"",""time""
""fullscreenenter"",""1"",""2308""
","
","
","""event"",""trial"",""time""
""fullscreenenter"",""1"",""2308""
","
","","","","","","null","<div style=""font-size:60px;"">+</div>","null","","fixation","","","","","","","","",""
"memory-trial","190","441544","0.0-15.0-1.73","1650","2","""event"",""trial"",""time""
""fullscreenenter"",""1"",""2308""
","
","
","""event"",""trial"",""time""
""fullscreenenter"",""1"",""2308""
","
","","","","","","944.7999999523163","images/horse4.png","","","memory_trial","4","definitely_new","","","","","","",""
"html-keyboard-response","191","442045","0.0-15.0-0.74","1650","2","""event"",""trial"",""time""
""fullscreenenter"",""1"",""2308""
","
","
","""event"",""trial"",""time""
""fullscreenenter"",""1"",""2308""
","
","","","","","","null","<div style=""font-size:60px;"">+</div>","null","","fixation","","","","","","","","",""
"memory-trial","192","445096","0.0-15.0-1.74","1650","2","""event"",""trial"",""time""
""fullscreenenter"",""1"",""2308""
","
","
","""event"",""trial"",""time""
""fullscreenenter"",""1"",""2308""
","
","","","","","","2047.0999999046326","images/cow5.png","","","memory_trial","2","maybe_old","","","","","","",""
"html-keyboard-response","193","445598","0.0-15.0-0.75","1650","2","""event"",""trial"",""time""
""fullscreenenter"",""1"",""2308""
","
","
","""event"",""trial"",""time""
""fullscreenenter"",""1"",""2308""
","
","","","","","","null","<div style=""font-size:60px;"">+</div>","null","","fixation","","","","","","","","",""
"memory-trial","194","448245","0.0-15.0-1.75","1650","2","""event"",""trial"",""time""
""fullscreenenter"",""1"",""2308""
","
","
","""event"",""trial"",""time""
""fullscreenenter"",""1"",""2308""
","
","","","","","","1643.2000000476837","images/chair4.png","","","memory_trial","4","definitely_new","","","","","","",""
"html-keyboard-response","195","448748","0.0-15.0-0.76","1650","2","""event"",""trial"",""time""
""fullscreenenter"",""1"",""2308""
","
","
","""event"",""trial"",""time""
""fullscreenenter"",""1"",""2308""
","
","","","","","","null","<div style=""font-size:60px;"">+</div>","null","","fixation","","","","","","","","",""
"memory-trial","196","451473","0.0-15.0-1.76","1650","2","""event"",""trial"",""time""
""fullscreenenter"",""1"",""2308""
","
","
","""event"",""trial"",""time""
""fullscreenenter"",""1"",""2308""
","
","","","","","","1722","images/sofa1.png","","","memory_trial","4","definitely_new","","","","","","",""
"html-keyboard-response","197","451974","0.0-15.0-0.77","1650","2","""event"",""trial"",""time""
""fullscreenenter"",""1"",""2308""
","
","
","""event"",""trial"",""time""
""fullscreenenter"",""1"",""2308""
","
","","","","","","null","<div style=""font-size:60px;"">+</div>","null","","fixation","","","","","","","","",""
"memory-trial","198","454456","0.0-15.0-1.77","1650","2","""event"",""trial"",""time""
""fullscreenenter"",""1"",""2308""
","
","
","""event"",""trial"",""time""
""fullscreenenter"",""1"",""2308""
","
","","","","","","1477.6000000238419","images/rabbit3.png","","","memory_trial","1","definitely_old","","","","","","",""
"html-keyboard-response","199","454958","0.0-15.0-0.78","1650","2","""event"",""trial"",""time""
""fullscreenenter"",""1"",""2308""
","
","
","""event"",""trial"",""time""
""fullscreenenter"",""1"",""2308""
","
","","","","","","null","<div style=""font-size:60px;"">+</div>","null","","fixation","","","","","","","","",""
"memory-trial","200","457363","0.0-15.0-1.78","1650","2","""event"",""trial"",""time""
""fullscreenenter"",""1"",""2308""
","
","
","""event"",""trial"",""time""
""fullscreenenter"",""1"",""2308""
","
","","","","","","1402.1000000238419","images/boat1.png","","","memory_trial","2","maybe_old","","","","","","",""
"html-keyboard-response","201","457865","0.0-15.0-0.79","1650","2","""event"",""trial"",""time""
""fullscreenenter"",""1"",""2308""
","
","
","""event"",""trial"",""time""
""fullscreenenter"",""1"",""2308""
","
","","","","","","null","<div style=""font-size:60px;"">+</div>","null","","fixation","","","","","","","","",""
"memory-trial","202","459779","0.0-15.0-1.79","1650","2","""event"",""trial"",""time""
""fullscreenenter"",""1"",""2308""
","
","
","""event"",""trial"",""time""
""fullscreenenter"",""1"",""2308""
","
","","","","","","909.3000000715256","images/rodent4.png","","","memory_trial","4","definitely_new","","","","","","",""
"html-keyboard-response","203","460281","0.0-15.0-0.80","1650","2","""event"",""trial"",""time""
""fullscreenenter"",""1"",""2308""
","
","
","""event"",""trial"",""time""
""fullscreenenter"",""1"",""2308""
","
","","","","","","null","<div style=""font-size:60px;"">+</div>","null","","fixation","","","","","","","","",""
"memory-trial","204","462844","0.0-15.0-1.80","1650","2","""event"",""trial"",""time""
""fullscreenenter"",""1"",""2308""
","
","
","""event"",""trial"",""time""
""fullscreenenter"",""1"",""2308""
","
","","","","","","1558.7999999523163","images/feline5.png","","","memory_trial","3","maybe_new","","","","","","",""
"html-keyboard-response","205","463348","0.0-15.0-0.81","1650","2","""event"",""trial"",""time""
""fullscreenenter"",""1"",""2308""
","
","
","""event"",""trial"",""time""
""fullscreenenter"",""1"",""2308""
","
","","","","","","null","<div style=""font-size:60px;"">+</div>","null","","fixation","","","","","","","","",""
"memory-trial","206","465743","0.0-15.0-1.81","1650","2","""event"",""trial"",""time""
""fullscreenenter"",""1"",""2308""
","
","
","""event"",""trial"",""time""
""fullscreenenter"",""1"",""2308""
","
","","","","","","1391","images/sofa5.png","","","memory_trial","4","definitely_new","","","","","","",""
"html-keyboard-response","207","466244","0.0-15.0-0.82","1650","2","""event"",""trial"",""time""
""fullscreenenter"",""1"",""2308""
","
","
","""event"",""trial"",""time""
""fullscreenenter"",""1"",""2308""
","
","","","","","","null","<div style=""font-size:60px;"">+</div>","null","","fixation","","","","","","","","",""
"memory-trial","208","468797","0.0-15.0-1.82","1650","2","""event"",""trial"",""time""
""fullscreenenter"",""1"",""2308""
","
","
","""event"",""trial"",""time""
""fullscreenenter"",""1"",""2308""
","
","","","","","","1549.5","images/rabbit5.png","","","memory_trial","2","maybe_old","","","","","","",""
"html-keyboard-response","209","469299","0.0-15.0-0.83","1650","2","""event"",""trial"",""time""
""fullscreenenter"",""1"",""2308""
","
","
","""event"",""trial"",""time""
""fullscreenenter"",""1"",""2308""
","
","","","","","","null","<div style=""font-size:60px;"">+</div>","null","","fixation","","","","","","","","",""
"memory-trial","210","472285","0.0-15.0-1.83","1650","2","""event"",""trial"",""time""
""fullscreenenter"",""1"",""2308""
","
","
","""event"",""trial"",""time""
""fullscreenenter"",""1"",""2308""
","
","","","","","","1981.6999999284744","images/boat4.png","","","memory_trial","1","definitely_old","","","","","","",""
"html-keyboard-response","211","472788","0.0-15.0-0.84","1650","2","""event"",""trial"",""time""
""fullscreenenter"",""1"",""2308""
","
","
","""event"",""trial"",""time""
""fullscreenenter"",""1"",""2308""
","
","","","","","","null","<div style=""font-size:60px;"">+</div>","null","","fixation","","","","","","","","",""
"memory-trial","212","474827","0.0-15.0-1.84","1650","2","""event"",""trial"",""time""
""fullscreenenter"",""1"",""2308""
","
","
","""event"",""trial"",""time""
""fullscreenenter"",""1"",""2308""
","
","","","","","","1035.8999999761581","images/dog5.png","","","memory_trial","4","definitely_new","","","","","","",""
"html-keyboard-response","213","475330","0.0-15.0-0.85","1650","2","""event"",""trial"",""time""
""fullscreenenter"",""1"",""2308""
","
","
","""event"",""trial"",""time""
""fullscreenenter"",""1"",""2308""
","
","","","","","","null","<div style=""font-size:60px;"">+</div>","null","","fixation","","","","","","","","",""
"memory-trial","214","478138","0.0-15.0-1.85","1650","2","""event"",""trial"",""time""
""fullscreenenter"",""1"",""2308""
","
","
","""event"",""trial"",""time""
""fullscreenenter"",""1"",""2308""
","
","","","","","","1804","images/orange2.png","","","memory_trial","2","maybe_old","","","","","","",""
"html-keyboard-response","215","478640","0.0-15.0-0.86","1650","2","""event"",""trial"",""time""
""fullscreenenter"",""1"",""2308""
","
","
","""event"",""trial"",""time""
""fullscreenenter"",""1"",""2308""
","
","","","","","","null","<div style=""font-size:60px;"">+</div>","null","","fixation","","","","","","","","",""
"memory-trial","216","481699","0.0-15.0-1.86","1650","2","""event"",""trial"",""time""
""fullscreenenter"",""1"",""2308""
","
","
","""event"",""trial"",""time""
""fullscreenenter"",""1"",""2308""
","
","","","","","","2055.600000023842","images/orange4.png","","","memory_trial","4","definitely_new","","","","","","",""
"html-keyboard-response","217","482201","0.0-15.0-0.87","1650","2","""event"",""trial"",""time""
""fullscreenenter"",""1"",""2308""
","
","
","""event"",""trial"",""time""
""fullscreenenter"",""1"",""2308""
","
","","","","","","null","<div style=""font-size:60px;"">+</div>","null","","fixation","","","","","","","","",""
"memory-trial","218","484287","0.0-15.0-1.87","1650","2","""event"",""trial"",""time""
""fullscreenenter"",""1"",""2308""
","
","
","""event"",""trial"",""time""
""fullscreenenter"",""1"",""2308""
","
","","","","","","1082","images/cow2.png","","","memory_trial","1","definitely_old","","","","","","",""
"html-keyboard-response","219","484802","0.0-15.0-0.88","1650","2","""event"",""trial"",""time""
""fullscreenenter"",""1"",""2308""
","
","
","""event"",""trial"",""time""
""fullscreenenter"",""1"",""2308""
","
","","","","","","null","<div style=""font-size:60px;"">+</div>","null","","fixation","","","","","","","","",""
"memory-trial","220","487204","0.0-15.0-1.88","1650","2","""event"",""trial"",""time""
""fullscreenenter"",""1"",""2308""
","
","
","""event"",""trial"",""time""
""fullscreenenter"",""1"",""2308""
","
","","","","","","1399","images/boat3.png","","","memory_trial","4","definitely_new","","","","","","",""
"html-keyboard-response","221","487718","0.0-15.0-0.89","1650","2","""event"",""trial"",""time""
""fullscreenenter"",""1"",""2308""
","
","
","""event"",""trial"",""time""
""fullscreenenter"",""1"",""2308""
","
","","","","","","null","<div style=""font-size:60px;"">+</div>","null","","fixation","","","","","","","","",""
"memory-trial","222","490102","0.0-15.0-1.89","1650","2","""event"",""trial"",""time""
""fullscreenenter"",""1"",""2308""
","
","
","""event"",""trial"",""time""
""fullscreenenter"",""1"",""2308""
","
","","","","","","1379.1000000238419","images/goat2.png","","","memory_trial","2","maybe_old","","","","","","",""
"html-keyboard-response","223","490604","0.0-15.0-0.90","1650","2","""event"",""trial"",""time""
""fullscreenenter"",""1"",""2308""
","
","
","""event"",""trial"",""time""
""fullscreenenter"",""1"",""2308""
","
","","","","","","null","<div style=""font-size:60px;"">+</div>","null","","fixation","","","","","","","","",""
"memory-trial","224","495078","0.0-15.0-1.90","1650","2","""event"",""trial"",""time""
""fullscreenenter"",""1"",""2308""
","
","
","""event"",""trial"",""time""
""fullscreenenter"",""1"",""2308""
","
","","","","","","3471","images/bush4.png","","","memory_trial","3","maybe_new","","","","","","",""
"html-keyboard-response","225","495581","0.0-15.0-0.91","1650","2","""event"",""trial"",""time""
""fullscreenenter"",""1"",""2308""
","
","
","""event"",""trial"",""time""
""fullscreenenter"",""1"",""2308""
","
","","","","","","null","<div style=""font-size:60px;"">+</div>","null","","fixation","","","","","","","","",""
"memory-trial","226","498325","0.0-15.0-1.91","1650","2","""event"",""trial"",""time""
""fullscreenenter"",""1"",""2308""
","
","
","""event"",""trial"",""time""
""fullscreenenter"",""1"",""2308""
","
","","","","","","1738.5","images/banana2.png","","","memory_trial","2","maybe_old","","","","","","",""
"html-keyboard-response","227","498827","0.0-15.0-0.92","1650","2","""event"",""trial"",""time""
""fullscreenenter"",""1"",""2308""
","
","
","""event"",""trial"",""time""
""fullscreenenter"",""1"",""2308""
","
","","","","","","null","<div style=""font-size:60px;"">+</div>","null","","fixation","","","","","","","","",""
"memory-trial","228","501121","0.0-15.0-1.92","1650","2","""event"",""trial"",""time""
""fullscreenenter"",""1"",""2308""
","
","
","""event"",""trial"",""time""
""fullscreenenter"",""1"",""2308""
","
","","","","","","1279.5","images/feline1.png","","","memory_trial","1","definitely_old","","","","","","",""
"html-keyboard-response","229","501623","0.0-15.0-0.93","1650","2","""event"",""trial"",""time""
""fullscreenenter"",""1"",""2308""
","
","
","""event"",""trial"",""time""
""fullscreenenter"",""1"",""2308""
","
","","","","","","null","<div style=""font-size:60px;"">+</div>","null","","fixation","","","","","","","","",""
"memory-trial","230","504194","0.0-15.0-1.93","1650","2","""event"",""trial"",""time""
""fullscreenenter"",""1"",""2308""
","
","
","""event"",""trial"",""time""
""fullscreenenter"",""1"",""2308""
","
","","","","","","1566.5","images/flower2.png","","","memory_trial","4","definitely_new","","","","","","",""
"html-keyboard-response","231","504696","0.0-15.0-0.94","1650","2","""event"",""trial"",""time""
""fullscreenenter"",""1"",""2308""
","
","
","""event"",""trial"",""time""
""fullscreenenter"",""1"",""2308""
","
","","","","","","null","<div style=""font-size:60px;"">+</div>","null","","fixation","","","","","","","","",""
"memory-trial","232","507329","0.0-15.0-1.94","1650","2","""event"",""trial"",""time""
""fullscreenenter"",""1"",""2308""
","
","
","""event"",""trial"",""time""
""fullscreenenter"",""1"",""2308""
","
","","","","","","1628.8000000715256","images/apple3.png","","","memory_trial","4","definitely_new","","","","","","",""
"html-keyboard-response","233","507831","0.0-15.0-0.95","1650","2","""event"",""trial"",""time""
""fullscreenenter"",""1"",""2308""
","
","
","""event"",""trial"",""time""
""fullscreenenter"",""1"",""2308""
","
","","","","","","null","<div style=""font-size:60px;"">+</div>","null","","fixation","","","","","","","","",""
"memory-trial","234","510635","0.0-15.0-1.95","1650","2","""event"",""trial"",""time""
""fullscreenenter"",""1"",""2308""
","
","
","""event"",""trial"",""time""
""fullscreenenter"",""1"",""2308""
","
","","","","","","1799.7000000476837","images/tree5.png","","","memory_trial","2","maybe_old","","","","","","",""
"html-keyboard-response","235","511139","0.0-15.0-0.96","1650","2","""event"",""trial"",""time""
""fullscreenenter"",""1"",""2308""
","
","
","""event"",""trial"",""time""
""fullscreenenter"",""1"",""2308""
","
","","","","","","null","<div style=""font-size:60px;"">+</div>","null","","fixation","","","","","","","","",""
"memory-trial","236","514416","0.0-15.0-1.96","1650","2","""event"",""trial"",""time""
""fullscreenenter"",""1"",""2308""
","
","
","""event"",""trial"",""time""
""fullscreenenter"",""1"",""2308""
","
","","","","","","2262.5","images/plane5.png","","","memory_trial","2","maybe_old","","","","","","",""
"html-keyboard-response","237","514919","0.0-15.0-0.97","1650","2","""event"",""trial"",""time""
""fullscreenenter"",""1"",""2308""
","
","
","""event"",""trial"",""time""
""fullscreenenter"",""1"",""2308""
","
","","","","","","null","<div style=""font-size:60px;"">+</div>","null","","fixation","","","","","","","","",""
"memory-trial","238","517792","0.0-15.0-1.97","1650","2","""event"",""trial"",""time""
""fullscreenenter"",""1"",""2308""
","
","
","""event"",""trial"",""time""
""fullscreenenter"",""1"",""2308""
","
","","","","","","1870.3999999761581","images/truck1.png","","","memory_trial","1","definitely_old","","","","","","",""
"html-keyboard-response","239","518294","0.0-15.0-0.98","1650","2","""event"",""trial"",""time""
""fullscreenenter"",""1"",""2308""
","
","
","""event"",""trial"",""time""
""fullscreenenter"",""1"",""2308""
","
","","","","","","null","<div style=""font-size:60px;"">+</div>","null","","fixation","","","","","","","","",""
"memory-trial","240","520204","0.0-15.0-1.98","1650","2","""event"",""trial"",""time""
""fullscreenenter"",""1"",""2308""
","
","
","""event"",""trial"",""time""
""fullscreenenter"",""1"",""2308""
","
","","","","","","904.8999999761581","images/horse1.png","","","memory_trial","4","definitely_new","","","","","","",""
"html-keyboard-response","241","520716","0.0-15.0-0.99","1650","2","""event"",""trial"",""time""
""fullscreenenter"",""1"",""2308""
","
","
","""event"",""trial"",""time""
""fullscreenenter"",""1"",""2308""
","
","","","","","","null","<div style=""font-size:60px;"">+</div>","null","","fixation","","","","","","","","",""
"memory-trial","242","523550","0.0-15.0-1.99","1650","2","""event"",""trial"",""time""
""fullscreenenter"",""1"",""2308""
","
","
","""event"",""trial"",""time""
""fullscreenenter"",""1"",""2308""
","
","","","","","","1830.1000000238419","images/dog4.png","","","memory_trial","1","definitely_old","","","","","","",""
"html-keyboard-response","243","524052","0.0-15.0-0.100","1650","2","""event"",""trial"",""time""
""fullscreenenter"",""1"",""2308""
","
","
","""event"",""trial"",""time""
""fullscreenenter"",""1"",""2308""
","
","","","","","","null","<div style=""font-size:60px;"">+</div>","null","","fixation","","","","","","","","",""
"memory-trial","244","526248","0.0-15.0-1.100","1650","2","""event"",""trial"",""time""
""fullscreenenter"",""1"",""2308""
","
","
","""event"",""trial"",""time""
""fullscreenenter"",""1"",""2308""
","
","","","","","","1189.7999999523163","images/sheep3.png","","","memory_trial","2","maybe_old","","","","","","",""
"html-keyboard-response","245","526757","0.0-15.0-0.101","1650","2","""event"",""trial"",""time""
""fullscreenenter"",""1"",""2308""
","
","
","""event"",""trial"",""time""
""fullscreenenter"",""1"",""2308""
","
","","","","","","null","<div style=""font-size:60px;"">+</div>","null","","fixation","","","","","","","","",""
"memory-trial","246","528730","0.0-15.0-1.101","1650","2","""event"",""trial"",""time""
""fullscreenenter"",""1"",""2308""
""blur"",""247"",""529077""
""focus"",""247"",""531131""
","""event"",""trial"",""time""
""blur"",""247"",""529077""
","""event"",""trial"",""time""
""focus"",""247"",""531131""
","""event"",""trial"",""time""
""fullscreenenter"",""1"",""2308""
","
","","","","","","969.2000000476837","images/flower4.png","","","memory_trial","4","definitely_new","","","","","","",""
"html-button-response","247","551449","0.0-15.0-2.101-0.101","1650","2","""event"",""trial"",""time""
""fullscreenenter"",""1"",""2308""
""blur"",""247"",""529077""
""focus"",""247"",""531131""
","""event"",""trial"",""time""
""blur"",""247"",""529077""
","""event"",""trial"",""time""
""focus"",""247"",""531131""
","""event"",""trial"",""time""
""fullscreenenter"",""1"",""2308""
","
","","","","","","22717.200000047684","<p> Take a break! </p><p> Click the button to continue. </p>","0","","break","","","","","","","","",""
"html-keyboard-response","248","551951","0.0-15.0-0.102","1650","2","""event"",""trial"",""time""
""fullscreenenter"",""1"",""2308""
""blur"",""247"",""529077""
""focus"",""247"",""531131""
","""event"",""trial"",""time""
""blur"",""247"",""529077""
","""event"",""trial"",""time""
""focus"",""247"",""531131""
","""event"",""trial"",""time""
""fullscreenenter"",""1"",""2308""
","
","","","","","","null","<div style=""font-size:60px;"">+</div>","null","","fixation","","","","","","","","",""
"memory-trial","249","554512","0.0-15.0-1.102","1650","2","""event"",""trial"",""time""
""fullscreenenter"",""1"",""2308""
""blur"",""247"",""529077""
""focus"",""247"",""531131""
","""event"",""trial"",""time""
""blur"",""247"",""529077""
","""event"",""trial"",""time""
""focus"",""247"",""531131""
","""event"",""trial"",""time""
""fullscreenenter"",""1"",""2308""
","
","","","","","","1556.5","images/bush1.png","","","memory_trial","2","maybe_old","","","","","","",""
"html-keyboard-response","250","555014","0.0-15.0-0.103","1650","2","""event"",""trial"",""time""
""fullscreenenter"",""1"",""2308""
""blur"",""247"",""529077""
""focus"",""247"",""531131""
","""event"",""trial"",""time""
""blur"",""247"",""529077""
","""event"",""trial"",""time""
""focus"",""247"",""531131""
","""event"",""trial"",""time""
""fullscreenenter"",""1"",""2308""
","
","","","","","","null","<div style=""font-size:60px;"">+</div>","null","","fixation","","","","","","","","",""
"memory-trial","251","556774","0.0-15.0-1.103","1650","2","""event"",""trial"",""time""
""fullscreenenter"",""1"",""2308""
""blur"",""247"",""529077""
""focus"",""247"",""531131""
","""event"",""trial"",""time""
""blur"",""247"",""529077""
","""event"",""trial"",""time""
""focus"",""247"",""531131""
","""event"",""trial"",""time""
""fullscreenenter"",""1"",""2308""
","
","","","","","","756.3999999761581","images/flower1.png","","","memory_trial","4","definitely_new","","","","","","",""
"html-keyboard-response","252","557276","0.0-15.0-0.104","1650","2","""event"",""trial"",""time""
""fullscreenenter"",""1"",""2308""
""blur"",""247"",""529077""
""focus"",""247"",""531131""
","""event"",""trial"",""time""
""blur"",""247"",""529077""
","""event"",""trial"",""time""
""focus"",""247"",""531131""
","""event"",""trial"",""time""
""fullscreenenter"",""1"",""2308""
","
","","","","","","null","<div style=""font-size:60px;"">+</div>","null","","fixation","","","","","","","","",""
"memory-trial","253","559197","0.0-15.0-1.104","1650","2","""event"",""trial"",""time""
""fullscreenenter"",""1"",""2308""
""blur"",""247"",""529077""
""focus"",""247"",""531131""
","""event"",""trial"",""time""
""blur"",""247"",""529077""
","""event"",""trial"",""time""
""focus"",""247"",""531131""
","""event"",""trial"",""time""
""fullscreenenter"",""1"",""2308""
","
","","","","","","917.9000000953674","images/horse5.png","","","memory_trial","4","definitely_new","","","","","","",""
"html-keyboard-response","254","559699","0.0-15.0-0.105","1650","2","""event"",""trial"",""time""
""fullscreenenter"",""1"",""2308""
""blur"",""247"",""529077""
""focus"",""247"",""531131""
","""event"",""trial"",""time""
""blur"",""247"",""529077""
","""event"",""trial"",""time""
""focus"",""247"",""531131""
","""event"",""trial"",""time""
""fullscreenenter"",""1"",""2308""
","
","","","","","","null","<div style=""font-size:60px;"">+</div>","null","","fixation","","","","","","","","",""
"memory-trial","255","562548","0.0-15.0-1.105","1650","2","""event"",""trial"",""time""
""fullscreenenter"",""1"",""2308""
""blur"",""247"",""529077""
""focus"",""247"",""531131""
","""event"",""trial"",""time""
""blur"",""247"",""529077""
","""event"",""trial"",""time""
""focus"",""247"",""531131""
","""event"",""trial"",""time""
""fullscreenenter"",""1"",""2308""
","
","","","","","","1844.7999999523163","images/apple4.png","","","memory_trial","3","maybe_new","","","","","","",""
"html-keyboard-response","256","563050","0.0-15.0-0.106","1650","2","""event"",""trial"",""time""
""fullscreenenter"",""1"",""2308""
""blur"",""247"",""529077""
""focus"",""247"",""531131""
","""event"",""trial"",""time""
""blur"",""247"",""529077""
","""event"",""trial"",""time""
""focus"",""247"",""531131""
","""event"",""trial"",""time""
""fullscreenenter"",""1"",""2308""
","
","","","","","","null","<div style=""font-size:60px;"">+</div>","null","","fixation","","","","","","","","",""
"memory-trial","257","565348","0.0-15.0-1.106","1650","2","""event"",""trial"",""time""
""fullscreenenter"",""1"",""2308""
""blur"",""247"",""529077""
""focus"",""247"",""531131""
","""event"",""trial"",""time""
""blur"",""247"",""529077""
","""event"",""trial"",""time""
""focus"",""247"",""531131""
","""event"",""trial"",""time""
""fullscreenenter"",""1"",""2308""
","
","","","","","","1293.5","images/boat5.png","","","memory_trial","1","definitely_old","","","","","","",""
"html-keyboard-response","258","565850","0.0-15.0-0.107","1650","2","""event"",""trial"",""time""
""fullscreenenter"",""1"",""2308""
""blur"",""247"",""529077""
""focus"",""247"",""531131""
","""event"",""trial"",""time""
""blur"",""247"",""529077""
","""event"",""trial"",""time""
""focus"",""247"",""531131""
","""event"",""trial"",""time""
""fullscreenenter"",""1"",""2308""
","
","","","","","","null","<div style=""font-size:60px;"">+</div>","null","","fixation","","","","","","","","",""
"memory-trial","259","568070","0.0-15.0-1.107","1650","2","""event"",""trial"",""time""
""fullscreenenter"",""1"",""2308""
""blur"",""247"",""529077""
""focus"",""247"",""531131""
","""event"",""trial"",""time""
""blur"",""247"",""529077""
","""event"",""trial"",""time""
""focus"",""247"",""531131""
","""event"",""trial"",""time""
""fullscreenenter"",""1"",""2308""
","
","","","","","","1214.3999999761581","images/tree4.png","","","memory_trial","1","definitely_old","","","","","","",""
"html-keyboard-response","260","568572","0.0-15.0-0.108","1650","2","""event"",""trial"",""time""
""fullscreenenter"",""1"",""2308""
""blur"",""247"",""529077""
""focus"",""247"",""531131""
","""event"",""trial"",""time""
""blur"",""247"",""529077""
","""event"",""trial"",""time""
""focus"",""247"",""531131""
","""event"",""trial"",""time""
""fullscreenenter"",""1"",""2308""
","
","","","","","","null","<div style=""font-size:60px;"">+</div>","null","","fixation","","","","","","","","",""
"memory-trial","261","571083","0.0-15.0-1.108","1650","2","""event"",""trial"",""time""
""fullscreenenter"",""1"",""2308""
""blur"",""247"",""529077""
""focus"",""247"",""531131""
","""event"",""trial"",""time""
""blur"",""247"",""529077""
","""event"",""trial"",""time""
""focus"",""247"",""531131""
","""event"",""trial"",""time""
""fullscreenenter"",""1"",""2308""
","
","","","","","","1506.3999999761581","images/tree3.png","","","memory_trial","4","definitely_new","","","","","","",""
"html-keyboard-response","262","571585","0.0-15.0-0.109","1650","2","""event"",""trial"",""time""
""fullscreenenter"",""1"",""2308""
""blur"",""247"",""529077""
""focus"",""247"",""531131""
","""event"",""trial"",""time""
""blur"",""247"",""529077""
","""event"",""trial"",""time""
""focus"",""247"",""531131""
","""event"",""trial"",""time""
""fullscreenenter"",""1"",""2308""
","
","","","","","","null","<div style=""font-size:60px;"">+</div>","null","","fixation","","","","","","","","",""
"memory-trial","263","573929","0.0-15.0-1.109","1650","2","""event"",""trial"",""time""
""fullscreenenter"",""1"",""2308""
""blur"",""247"",""529077""
""focus"",""247"",""531131""
","""event"",""trial"",""time""
""blur"",""247"",""529077""
","""event"",""trial"",""time""
""focus"",""247"",""531131""
","""event"",""trial"",""time""
""fullscreenenter"",""1"",""2308""
","
","","","","","","1340.6000000238419","images/sheep1.png","","","memory_trial","2","maybe_old","","","","","","",""
"html-keyboard-response","264","574431","0.0-15.0-0.110","1650","2","""event"",""trial"",""time""
""fullscreenenter"",""1"",""2308""
""blur"",""247"",""529077""
""focus"",""247"",""531131""
","""event"",""trial"",""time""
""blur"",""247"",""529077""
","""event"",""trial"",""time""
""focus"",""247"",""531131""
","""event"",""trial"",""time""
""fullscreenenter"",""1"",""2308""
","
","","","","","","null","<div style=""font-size:60px;"">+</div>","null","","fixation","","","","","","","","",""
"memory-trial","265","577223","0.0-15.0-1.110","1650","2","""event"",""trial"",""time""
""fullscreenenter"",""1"",""2308""
""blur"",""247"",""529077""
""focus"",""247"",""531131""
","""event"",""trial"",""time""
""blur"",""247"",""529077""
","""event"",""trial"",""time""
""focus"",""247"",""531131""
","""event"",""trial"",""time""
""fullscreenenter"",""1"",""2308""
","
","","","","","","1788.3999999761581","images/banana1.png","","","memory_trial","3","maybe_new","","","","","","",""
"html-keyboard-response","266","577726","0.0-15.0-0.111","1650","2","""event"",""trial"",""time""
""fullscreenenter"",""1"",""2308""
""blur"",""247"",""529077""
""focus"",""247"",""531131""
","""event"",""trial"",""time""
""blur"",""247"",""529077""
","""event"",""trial"",""time""
""focus"",""247"",""531131""
","""event"",""trial"",""time""
""fullscreenenter"",""1"",""2308""
","
","","","","","","null","<div style=""font-size:60px;"">+</div>","null","","fixation","","","","","","","","",""
"memory-trial","267","580348","0.0-15.0-1.111","1650","2","""event"",""trial"",""time""
""fullscreenenter"",""1"",""2308""
""blur"",""247"",""529077""
""focus"",""247"",""531131""
","""event"",""trial"",""time""
""blur"",""247"",""529077""
","""event"",""trial"",""time""
""focus"",""247"",""531131""
","""event"",""trial"",""time""
""fullscreenenter"",""1"",""2308""
","
","","","","","","1618.5","images/chair1.png","","","memory_trial","3","maybe_new","","","","","","",""
"html-keyboard-response","268","580850","0.0-15.0-0.112","1650","2","""event"",""trial"",""time""
""fullscreenenter"",""1"",""2308""
""blur"",""247"",""529077""
""focus"",""247"",""531131""
","""event"",""trial"",""time""
""blur"",""247"",""529077""
","""event"",""trial"",""time""
""focus"",""247"",""531131""
","""event"",""trial"",""time""
""fullscreenenter"",""1"",""2308""
","
","","","","","","null","<div style=""font-size:60px;"">+</div>","null","","fixation","","","","","","","","",""
"memory-trial","269","582739","0.0-15.0-1.112","1650","2","""event"",""trial"",""time""
""fullscreenenter"",""1"",""2308""
""blur"",""247"",""529077""
""focus"",""247"",""531131""
","""event"",""trial"",""time""
""blur"",""247"",""529077""
","""event"",""trial"",""time""
""focus"",""247"",""531131""
","""event"",""trial"",""time""
""fullscreenenter"",""1"",""2308""
","
","","","","","","883.5","images/rodent2.png","","","memory_trial","4","definitely_new","","","","","","",""
"html-keyboard-response","270","583241","0.0-15.0-0.113","1650","2","""event"",""trial"",""time""
""fullscreenenter"",""1"",""2308""
""blur"",""247"",""529077""
""focus"",""247"",""531131""
","""event"",""trial"",""time""
""blur"",""247"",""529077""
","""event"",""trial"",""time""
""focus"",""247"",""531131""
","""event"",""trial"",""time""
""fullscreenenter"",""1"",""2308""
","
","","","","","","null","<div style=""font-size:60px;"">+</div>","null","","fixation","","","","","","","","",""
"memory-trial","271","585728","0.0-15.0-1.113","1650","2","""event"",""trial"",""time""
""fullscreenenter"",""1"",""2308""
""blur"",""247"",""529077""
""focus"",""247"",""531131""
","""event"",""trial"",""time""
""blur"",""247"",""529077""
","""event"",""trial"",""time""
""focus"",""247"",""531131""
","""event"",""trial"",""time""
""fullscreenenter"",""1"",""2308""
","
","","","","","","1483.3000000715256","images/train5.png","","","memory_trial","4","definitely_new","","","","","","",""
"html-keyboard-response","272","586229","0.0-15.0-0.114","1650","2","""event"",""trial"",""time""
""fullscreenenter"",""1"",""2308""
""blur"",""247"",""529077""
""focus"",""247"",""531131""
","""event"",""trial"",""time""
""blur"",""247"",""529077""
","""event"",""trial"",""time""
""focus"",""247"",""531131""
","""event"",""trial"",""time""
""fullscreenenter"",""1"",""2308""
","
","","","","","","null","<div style=""font-size:60px;"">+</div>","null","","fixation","","","","","","","","",""
"memory-trial","273","588226","0.0-15.0-1.114","1650","2","""event"",""trial"",""time""
""fullscreenenter"",""1"",""2308""
""blur"",""247"",""529077""
""focus"",""247"",""531131""
","""event"",""trial"",""time""
""blur"",""247"",""529077""
","""event"",""trial"",""time""
""focus"",""247"",""531131""
","""event"",""trial"",""time""
""fullscreenenter"",""1"",""2308""
","
","","","","","","991.7000000476837","images/train2.png","","","memory_trial","4","definitely_new","","","","","","",""
"html-keyboard-response","274","588732","0.0-15.0-0.115","1650","2","""event"",""trial"",""time""
""fullscreenenter"",""1"",""2308""
""blur"",""247"",""529077""
""focus"",""247"",""531131""
","""event"",""trial"",""time""
""blur"",""247"",""529077""
","""event"",""trial"",""time""
""focus"",""247"",""531131""
","""event"",""trial"",""time""
""fullscreenenter"",""1"",""2308""
","
","","","","","","null","<div style=""font-size:60px;"">+</div>","null","","fixation","","","","","","","","",""
"memory-trial","275","592094","0.0-15.0-1.115","1650","2","""event"",""trial"",""time""
""fullscreenenter"",""1"",""2308""
""blur"",""247"",""529077""
""focus"",""247"",""531131""
","""event"",""trial"",""time""
""blur"",""247"",""529077""
","""event"",""trial"",""time""
""focus"",""247"",""531131""
","""event"",""trial"",""time""
""fullscreenenter"",""1"",""2308""
","
","","","","","","2359.5","images/tree1.png","","","memory_trial","4","definitely_new","","","","","","",""
"html-keyboard-response","276","592597","0.0-15.0-0.116","1650","2","""event"",""trial"",""time""
""fullscreenenter"",""1"",""2308""
""blur"",""247"",""529077""
""focus"",""247"",""531131""
","""event"",""trial"",""time""
""blur"",""247"",""529077""
","""event"",""trial"",""time""
""focus"",""247"",""531131""
","""event"",""trial"",""time""
""fullscreenenter"",""1"",""2308""
","
","","","","","","null","<div style=""font-size:60px;"">+</div>","null","","fixation","","","","","","","","",""
"memory-trial","277","602602","0.0-15.0-1.116","1650","2","""event"",""trial"",""time""
""fullscreenenter"",""1"",""2308""
""blur"",""247"",""529077""
""focus"",""247"",""531131""
","""event"",""trial"",""time""
""blur"",""247"",""529077""
","""event"",""trial"",""time""
""focus"",""247"",""531131""
","""event"",""trial"",""time""
""fullscreenenter"",""1"",""2308""
","
","","","","","","null","images/orange3.png","","","memory_trial","null","null","","","","","","",""
"html-keyboard-response","278","603104","0.0-15.0-0.117","1650","2","""event"",""trial"",""time""
""fullscreenenter"",""1"",""2308""
""blur"",""247"",""529077""
""focus"",""247"",""531131""
","""event"",""trial"",""time""
""blur"",""247"",""529077""
","""event"",""trial"",""time""
""focus"",""247"",""531131""
","""event"",""trial"",""time""
""fullscreenenter"",""1"",""2308""
","
","","","","","","null","<div style=""font-size:60px;"">+</div>","null","","fixation","","","","","","","","",""
