"trial_type","trial_index","time_elapsed","internal_node_id","subject_id","task_version","interactions","blur_events","focus_events","fullscreenenter_events","fullscreenexit_events","success","timeout","failed_images","failed_audio","failed_video","rt","stimulus","response","button_pressed","task_part","key_press","answer","correct","left_choice","middle_choice","right_choice","choice_positions","option_selected","block"
"pavlovia","0","9","0.0-0.0","1699","2","""event"",""trial"",""time""
""fullscreenenter"",""1"",""1797""
","
","
","""event"",""trial"",""time""
""fullscreenenter"",""1"",""1797""
","
","","","","","","","","","","","","","","","","","","",""
"fullscreen","1","2743","0.0-1.0","1699","2","""event"",""trial"",""time""
""fullscreenenter"",""1"",""1797""
","
","
","""event"",""trial"",""time""
""fullscreenenter"",""1"",""1797""
","
","true","","","","","","","","","","","","","","","","","",""
"preload","2","3320","0.0-2.0","1699","2","""event"",""trial"",""time""
""fullscreenenter"",""1"",""1797""
","
","
","""event"",""trial"",""time""
""fullscreenenter"",""1"",""1797""
","
","true","false","[]","[]","[]","","","","","","","","","","","","","",""
"audio-keyboard-response","3","6580","0.0-3.0","1699","2","""event"",""trial"",""time""
""fullscreenenter"",""1"",""1797""
","
","
","""event"",""trial"",""time""
""fullscreenenter"",""1"",""1797""
","
","","","","","","3256.5986394557826","audio/beep_loop.wav"," ","","","","","","","","","","",""
"audio-button-response","4","8517","0.0-4.0","1699","2","""event"",""trial"",""time""
""fullscreenenter"",""1"",""1797""
","
","
","""event"",""trial"",""time""
""fullscreenenter"",""1"",""1797""
","
","","","","","","1939","audio/turtle.wav","3","","","","","","","","","","",""
"audio-button-response","5","10349","0.0-5.0","1699","2","""event"",""trial"",""time""
""fullscreenenter"",""1"",""1797""
","
","
","""event"",""trial"",""time""
""fullscreenenter"",""1"",""1797""
","
","","","","","","830","audio/shark.wav","2","","","","","","","","","","",""
"preload","6","12786","0.0-6.0","1699","2","""event"",""trial"",""time""
""fullscreenenter"",""1"",""1797""
","
","
","""event"",""trial"",""time""
""fullscreenenter"",""1"",""1797""
","
","true","false","[]","[]","[]","","","","","","","","","","","","","",""
"learning-instructions","7","21857","0.0-7.0-0.0","1699","2","""event"",""trial"",""time""
""fullscreenenter"",""1"",""1797""
","
","
","""event"",""trial"",""time""
""fullscreenenter"",""1"",""1797""
","
","","","","","","4266.29999999702","<p> Welcome back! </p><p> Last week, you had to make choices about lots of different items.  </p>","","0","instructions","","","","","","","","",""
"learning-instructions","8","27003","0.0-7.0-0.1","1699","2","""event"",""trial"",""time""
""fullscreenenter"",""1"",""1797""
","
","
","""event"",""trial"",""time""
""fullscreenenter"",""1"",""1797""
","
","","","","","","845","<p> Today, we are going to ask you to try to remember all the items. </p>","","0","instructions","","","","","","","","",""
"learning-instructions","9","37563","0.0-7.0-0.2","1699","2","""event"",""trial"",""time""
""fullscreenenter"",""1"",""1797""
","
","
","""event"",""trial"",""time""
""fullscreenenter"",""1"",""1797""
","
","","","","","","427","<p> On every trial, you will see an image. </p><p> The image may be an OLD image you saw during the games last week or it may be a NEW image that was not presented. </p>","","0","instructions","","","","","","","","",""
"learning-instructions","10","46607","0.0-7.0-0.3","1699","2","""event"",""trial"",""time""
""fullscreenenter"",""1"",""1797""
","
","
","""event"",""trial"",""time""
""fullscreenenter"",""1"",""1797""
","
","","","","","","548.0999999940395","<p> You need to select whether the image is:  </p><p>  'Definitely old', 'Maybe old', 'Maybe new', or 'Definitely new.'  </p><div class=""mem-choice-instructions-grid""><div class=""choice-option"" id=""choice-option-1"" ><img src=""images/definitely_old_1.png"" id=""choice-option-img-1"" class=""choice-option-img"" stage=""1""></div><div class=""choice-option"" id=""choice-option-2"" ><img src=""images/maybe_old_1.png"" id=""choice-option-img-2"" class=""choice-option-img"" stage=""1""></div><div class=""choice-option"" id=""choice-option-3"" ><img src=""images/maybe_new_1.png"" id=""choice-option-img-3"" class=""choice-option-img"" stage=""1""></div><div class=""choice-option"" id=""choice-option-4"" > <img src=""images/definitely_new_1.png"" id=""choice-option-img-4"" class=""choice-option-img"" stage=""1""></div></div>","","0","instructions","","","","","","","","",""
"learning-instructions","11","54155","0.0-7.0-0.4","1699","2","""event"",""trial"",""time""
""fullscreenenter"",""1"",""1797""
","
","
","""event"",""trial"",""time""
""fullscreenenter"",""1"",""1797""
","
","","","","","","857.3000000044703","<p> You should use the 1, 2, 3, and 4 keys to make your responses.  </p><div class=""mem-choice-instructions-grid""><div class=""choice-option"" id=""choice-option-1"" ><img src=""images/definitely_old.png"" id=""choice-option-img-1"" class=""choice-option-img"" stage=""1""></div><div class=""choice-option"" id=""choice-option-2"" ><img src=""images/maybe_old.png"" id=""choice-option-img-2"" class=""choice-option-img"" stage=""1""></div><div class=""choice-option"" id=""choice-option-3"" ><img src=""images/maybe_new.png"" id=""choice-option-img-3"" class=""choice-option-img"" stage=""1""></div><div class=""choice-option"" id=""choice-option-4"" > <img src=""images/definitely_new.png"" id=""choice-option-img-4"" class=""choice-option-img"" stage=""1""></div></div>","","0","instructions","","","","","","","","",""
"learning-instructions","12","61274","0.0-7.0-0.5","1699","2","""event"",""trial"",""time""
""fullscreenenter"",""1"",""1797""
","
","
","""event"",""trial"",""time""
""fullscreenenter"",""1"",""1797""
","
","","","","","","361.3999999985099","<p> You will have 10 seconds to make each response.  </p><p>  Make sure to respond before time runs out! </p>","","0","instructions","","","","","","","","",""
"learning-instructions","13","70689","0.0-7.0-0.6","1699","2","""event"",""trial"",""time""
""fullscreenenter"",""1"",""1797""
","
","
","""event"",""trial"",""time""
""fullscreenenter"",""1"",""1797""
","
","","","","","","1833.7999999970198","<p> Today, you will see each image ONCE only.  </p><p>  That means none of the images will repeat. </p>","","0","instructions","","","","","","","","",""
"learning-instructions","14","84042","0.0-7.0-0.7","1699","2","""event"",""trial"",""time""
""fullscreenenter"",""1"",""1797""
","
","
","""event"",""trial"",""time""
""fullscreenenter"",""1"",""1797""
","
","","","","","","685.7999999970198","<p> Before you play the real game, it is time to practice. </p><p>  Just like in the real game, some of the images in the practice will be ones you have seen before. </p><p>  Others will be entirely new. </p>","","0","instructions","","","","","","","","",""
"html-button-response","15","85931","0.0-8.0","1699","2","""event"",""trial"",""time""
""fullscreenenter"",""1"",""1797""
","
","
","""event"",""trial"",""time""
""fullscreenenter"",""1"",""1797""
","
","","","","","","1784.6999999955297","<p> Ready to practice? </p><p> Remember, use the 1, 2, 3, and 4 keys to make your responses. </p>","0","","instructions","","","","","","","","",""
"html-keyboard-response","16","86533","0.0-9.0-0.0","1699","2","""event"",""trial"",""time""
""fullscreenenter"",""1"",""1797""
","
","
","""event"",""trial"",""time""
""fullscreenenter"",""1"",""1797""
","
","","","","","","null","<div style=""font-size:60px;"">+</div>","null","","fixation","","","","","","","","",""
"memory-trial","17","89539","0.0-9.0-1.0","1699","2","""event"",""trial"",""time""
""fullscreenenter"",""1"",""1797""
","
","
","""event"",""trial"",""time""
""fullscreenenter"",""1"",""1797""
","
","","","","","","1997.1000000014901","images/ball2.png","","","practice","1","definitely_old","","","","","","",""
"html-keyboard-response","18","90043","0.0-9.0-0.1","1699","2","""event"",""trial"",""time""
""fullscreenenter"",""1"",""1797""
","
","
","""event"",""trial"",""time""
""fullscreenenter"",""1"",""1797""
","
","","","","","","null","<div style=""font-size:60px;"">+</div>","null","","fixation","","","","","","","","",""
"memory-trial","19","93116","0.0-9.0-1.1","1699","2","""event"",""trial"",""time""
""fullscreenenter"",""1"",""1797""
","
","
","""event"",""trial"",""time""
""fullscreenenter"",""1"",""1797""
","
","","","","","","2068.3000000044703","images/racket3.png","","","practice","1","definitely_old","","","","","","",""
"html-keyboard-response","20","93622","0.0-9.0-0.2","1699","2","""event"",""trial"",""time""
""fullscreenenter"",""1"",""1797""
","
","
","""event"",""trial"",""time""
""fullscreenenter"",""1"",""1797""
","
","","","","","","null","<div style=""font-size:60px;"">+</div>","null","","fixation","","","","","","","","",""
"memory-trial","21","96840","0.0-9.0-1.2","1699","2","""event"",""trial"",""time""
""fullscreenenter"",""1"",""1797""
","
","
","""event"",""trial"",""time""
""fullscreenenter"",""1"",""1797""
","
","","","","","","2214.5999999940395","images/racket4.png","","","practice","3","maybe_new","","","","","","",""
"html-keyboard-response","22","97346","0.0-9.0-0.3","1699","2","""event"",""trial"",""time""
""fullscreenenter"",""1"",""1797""
","
","
","""event"",""trial"",""time""
""fullscreenenter"",""1"",""1797""
","
","","","","","","null","<div style=""font-size:60px;"">+</div>","null","","fixation","","","","","","","","",""
"memory-trial","23","99784","0.0-9.0-1.3","1699","2","""event"",""trial"",""time""
""fullscreenenter"",""1"",""1797""
","
","
","""event"",""trial"",""time""
""fullscreenenter"",""1"",""1797""
","
","","","","","","1433.8999999985099","images/racket2.png","","","practice","2","maybe_old","","","","","","",""
"html-keyboard-response","24","100289","0.0-9.0-0.4","1699","2","""event"",""trial"",""time""
""fullscreenenter"",""1"",""1797""
","
","
","""event"",""trial"",""time""
""fullscreenenter"",""1"",""1797""
","
","","","","","","null","<div style=""font-size:60px;"">+</div>","null","","fixation","","","","","","","","",""
"memory-trial","25","102442","0.0-9.0-1.4","1699","2","""event"",""trial"",""time""
""fullscreenenter"",""1"",""1797""
","
","
","""event"",""trial"",""time""
""fullscreenenter"",""1"",""1797""
","
","","","","","","1147.6999999955297","images/ball1.png","","","practice","2","maybe_old","","","","","","",""
"html-keyboard-response","26","102947","0.0-9.0-0.5","1699","2","""event"",""trial"",""time""
""fullscreenenter"",""1"",""1797""
","
","
","""event"",""trial"",""time""
""fullscreenenter"",""1"",""1797""
","
","","","","","","null","<div style=""font-size:60px;"">+</div>","null","","fixation","","","","","","","","",""
"memory-trial","27","105137","0.0-9.0-1.5","1699","2","""event"",""trial"",""time""
""fullscreenenter"",""1"",""1797""
","
","
","""event"",""trial"",""time""
""fullscreenenter"",""1"",""1797""
","
","","","","","","1188.1000000014901","images/ball3.png","","","practice","2","maybe_old","","","","","","",""
"html-keyboard-response","28","105641","0.0-9.0-0.6","1699","2","""event"",""trial"",""time""
""fullscreenenter"",""1"",""1797""
","
","
","""event"",""trial"",""time""
""fullscreenenter"",""1"",""1797""
","
","","","","","","null","<div style=""font-size:60px;"">+</div>","null","","fixation","","","","","","","","",""
"memory-trial","29","108079","0.0-9.0-1.6","1699","2","""event"",""trial"",""time""
""fullscreenenter"",""1"",""1797""
","
","
","""event"",""trial"",""time""
""fullscreenenter"",""1"",""1797""
","
","","","","","","1434.8999999985099","images/ball4.png","","","practice","1","definitely_old","","","","","","",""
"html-keyboard-response","30","108583","0.0-9.0-0.7","1699","2","""event"",""trial"",""time""
""fullscreenenter"",""1"",""1797""
","
","
","""event"",""trial"",""time""
""fullscreenenter"",""1"",""1797""
","
","","","","","","null","<div style=""font-size:60px;"">+</div>","null","","fixation","","","","","","","","",""
"memory-trial","31","111138","0.0-9.0-1.7","1699","2","""event"",""trial"",""time""
""fullscreenenter"",""1"",""1797""
","
","
","""event"",""trial"",""time""
""fullscreenenter"",""1"",""1797""
","
","","","","","","1551.5","images/racket1.png","","","practice","3","maybe_new","","","","","","",""
"learning-instructions","32","119634","0.0-10.0-0.0","1699","2","""event"",""trial"",""time""
""fullscreenenter"",""1"",""1797""
","
","
","""event"",""trial"",""time""
""fullscreenenter"",""1"",""1797""
","
","","","","","","541.6999999955297","<p> Great! You have completed the practice. </p><p> Before you start, we're going to ask you a few questions about how the game works.  </p>","","0","instructions","","","","","","","","",""
"preload","33","121200","0.0-11.0","1699","2","""event"",""trial"",""time""
""fullscreenenter"",""1"",""1797""
","
","
","""event"",""trial"",""time""
""fullscreenenter"",""1"",""1797""
","
","true","false","[]","[]","[]","","","","","","","","","","","","","",""
"comp-q","34","128145","0.0-12.0-0.0","1699","2","""event"",""trial"",""time""
""fullscreenenter"",""1"",""1797""
","
","
","""event"",""trial"",""time""
""fullscreenenter"",""1"",""1797""
","
","","","","","","1117.8999999985099","<p> <b> True or False? </b> </p><p> In this game, you will only see each image once. </p>","","0","comp_question","","","true","","","","","",""
"comp-q","35","135421","0.0-12.0-1.0","1699","2","""event"",""trial"",""time""
""fullscreenenter"",""1"",""1797""
","
","
","""event"",""trial"",""time""
""fullscreenenter"",""1"",""1797""
","
","","","","","","940.1000000014901","<p> <b> That's right! </b> You will see many different images <i> one time each </i> in this game. </p>","","0","comp_answer","","","","","","","","",""
"comp-q","36","146434","0.0-12.0-0.1","1699","2","""event"",""trial"",""time""
""fullscreenenter"",""1"",""1797""
","
","
","""event"",""trial"",""time""
""fullscreenenter"",""1"",""1797""
","
","","","","","","5213.19999999553","<p> <b> True or False? </b> </p><p> You should use the mouse and click to make your response. </p>","","1","comp_question","","","true","","","","","",""
"comp-q","37","154427","0.0-12.0-1.1","1699","2","""event"",""trial"",""time""
""fullscreenenter"",""1"",""1797""
","
","
","""event"",""trial"",""time""
""fullscreenenter"",""1"",""1797""
","
","","","","","","643.8999999985099","<p><b> That's right! </b> You should use the '1', '2', '3', and '4' keys to make your response. </p>","","0","comp_answer","","","","","","","","",""
"comp-q","38","161205","0.0-12.0-0.2","1699","2","""event"",""trial"",""time""
""fullscreenenter"",""1"",""1797""
","
","
","""event"",""trial"",""time""
""fullscreenenter"",""1"",""1797""
","
","","","","","","780.8999999985099","<p> <b> True or False? </b> </p><p> You will have as much time as you want to make each choice. </p>","","1","comp_question","","","true","","","","","",""
"comp-q","39","167315","0.0-12.0-1.2","1699","2","""event"",""trial"",""time""
""fullscreenenter"",""1"",""1797""
","
","
","""event"",""trial"",""time""
""fullscreenenter"",""1"",""1797""
","
","","","","","","719.8999999985099","<p> <b> That's right! </b> You will only have 10 seconds to make each choice. </p>","","0","comp_answer","","","","","","","","",""
"learning-instructions","40","176541","0.0-13.0","1699","2","""event"",""trial"",""time""
""fullscreenenter"",""1"",""1797""
","
","
","""event"",""trial"",""time""
""fullscreenenter"",""1"",""1797""
","
","","","","","","559.5999999940395","<p> Great! You are now ready to begin the game. </p><p> Remember, use the 1, 2, 3, and 4 keys to make your responses. </p>","","0","instructions","","","","","","","","",""
"preload","41","178135","0.0-14.0","1699","2","""event"",""trial"",""time""
""fullscreenenter"",""1"",""1797""
","
","
","""event"",""trial"",""time""
""fullscreenenter"",""1"",""1797""
","
","true","false","[]","[]","[]","","","","","","","","","","","","","",""
"html-keyboard-response","42","178638","0.0-15.0-0.0","1699","2","""event"",""trial"",""time""
""fullscreenenter"",""1"",""1797""
","
","
","""event"",""trial"",""time""
""fullscreenenter"",""1"",""1797""
","
","","","","","","null","<div style=""font-size:60px;"">+</div>","null","","fixation","","","","","","","","",""
"memory-trial","43","181261","0.0-15.0-1.0","1699","2","""event"",""trial"",""time""
""fullscreenenter"",""1"",""1797""
","
","
","""event"",""trial"",""time""
""fullscreenenter"",""1"",""1797""
","
","","","","","","1612.5","images/rabbit5.png","","","memory_trial","3","maybe_new","","","","","","",""
"html-keyboard-response","44","181763","0.0-15.0-0.1","1699","2","""event"",""trial"",""time""
""fullscreenenter"",""1"",""1797""
","
","
","""event"",""trial"",""time""
""fullscreenenter"",""1"",""1797""
","
","","","","","","null","<div style=""font-size:60px;"">+</div>","null","","fixation","","","","","","","","",""
"memory-trial","45","184643","0.0-15.0-1.1","1699","2","""event"",""trial"",""time""
""fullscreenenter"",""1"",""1797""
","
","
","""event"",""trial"",""time""
""fullscreenenter"",""1"",""1797""
","
","","","","","","1877.9000000059605","images/feline2.png","","","memory_trial","3","maybe_new","","","","","","",""
"html-keyboard-response","46","185146","0.0-15.0-0.2","1699","2","""event"",""trial"",""time""
""fullscreenenter"",""1"",""1797""
","
","
","""event"",""trial"",""time""
""fullscreenenter"",""1"",""1797""
","
","","","","","","null","<div style=""font-size:60px;"">+</div>","null","","fixation","","","","","","","","",""
"memory-trial","47","187998","0.0-15.0-1.2","1699","2","""event"",""trial"",""time""
""fullscreenenter"",""1"",""1797""
","
","
","""event"",""trial"",""time""
""fullscreenenter"",""1"",""1797""
","
","","","","","","1847","images/cactus5.png","","","memory_trial","3","maybe_new","","","","","","",""
"html-keyboard-response","48","188503","0.0-15.0-0.3","1699","2","""event"",""trial"",""time""
""fullscreenenter"",""1"",""1797""
","
","
","""event"",""trial"",""time""
""fullscreenenter"",""1"",""1797""
","
","","","","","","null","<div style=""font-size:60px;"">+</div>","null","","fixation","","","","","","","","",""
"memory-trial","49","191289","0.0-15.0-1.3","1699","2","""event"",""trial"",""time""
""fullscreenenter"",""1"",""1797""
","
","
","""event"",""trial"",""time""
""fullscreenenter"",""1"",""1797""
","
","","","","","","1782.7999999970198","images/orange4.png","","","memory_trial","1","definitely_old","","","","","","",""
"html-keyboard-response","50","191795","0.0-15.0-0.4","1699","2","""event"",""trial"",""time""
""fullscreenenter"",""1"",""1797""
","
","
","""event"",""trial"",""time""
""fullscreenenter"",""1"",""1797""
","
","","","","","","null","<div style=""font-size:60px;"">+</div>","null","","fixation","","","","","","","","",""
"memory-trial","51","193896","0.0-15.0-1.4","1699","2","""event"",""trial"",""time""
""fullscreenenter"",""1"",""1797""
","
","
","""event"",""trial"",""time""
""fullscreenenter"",""1"",""1797""
","
","","","","","","1098.1000000014901","images/bush4.png","","","memory_trial","4","definitely_new","","","","","","",""
"html-keyboard-response","52","194400","0.0-15.0-0.5","1699","2","""event"",""trial"",""time""
""fullscreenenter"",""1"",""1797""
","
","
","""event"",""trial"",""time""
""fullscreenenter"",""1"",""1797""
","
","","","","","","null","<div style=""font-size:60px;"">+</div>","null","","fixation","","","","","","","","",""
"memory-trial","53","196922","0.0-15.0-1.5","1699","2","""event"",""trial"",""time""
""fullscreenenter"",""1"",""1797""
","
","
","""event"",""trial"",""time""
""fullscreenenter"",""1"",""1797""
","
","","","","","","1516.8999999985099","images/bed2.png","","","memory_trial","1","definitely_old","","","","","","",""
"html-keyboard-response","54","197425","0.0-15.0-0.6","1699","2","""event"",""trial"",""time""
""fullscreenenter"",""1"",""1797""
","
","
","""event"",""trial"",""time""
""fullscreenenter"",""1"",""1797""
","
","","","","","","null","<div style=""font-size:60px;"">+</div>","null","","fixation","","","","","","","","",""
"memory-trial","55","199498","0.0-15.0-1.6","1699","2","""event"",""trial"",""time""
""fullscreenenter"",""1"",""1797""
","
","
","""event"",""trial"",""time""
""fullscreenenter"",""1"",""1797""
","
","","","","","","1067.6000000014901","images/tree1.png","","","memory_trial","1","definitely_old","","","","","","",""
"html-keyboard-response","56","200003","0.0-15.0-0.7","1699","2","""event"",""trial"",""time""
""fullscreenenter"",""1"",""1797""
","
","
","""event"",""trial"",""time""
""fullscreenenter"",""1"",""1797""
","
","","","","","","null","<div style=""font-size:60px;"">+</div>","null","","fixation","","","","","","","","",""
"memory-trial","57","201994","0.0-15.0-1.7","1699","2","""event"",""trial"",""time""
""fullscreenenter"",""1"",""1797""
","
","
","""event"",""trial"",""time""
""fullscreenenter"",""1"",""1797""
","
","","","","","","988.8999999985099","images/boat1.png","","","memory_trial","4","definitely_new","","","","","","",""
"html-keyboard-response","58","202498","0.0-15.0-0.8","1699","2","""event"",""trial"",""time""
""fullscreenenter"",""1"",""1797""
","
","
","""event"",""trial"",""time""
""fullscreenenter"",""1"",""1797""
","
","","","","","","null","<div style=""font-size:60px;"">+</div>","null","","fixation","","","","","","","","",""
"memory-trial","59","204526","0.0-15.0-1.8","1699","2","""event"",""trial"",""time""
""fullscreenenter"",""1"",""1797""
","
","
","""event"",""trial"",""time""
""fullscreenenter"",""1"",""1797""
","
","","","","","","1026.2000000029802","images/boat4.png","","","memory_trial","4","definitely_new","","","","","","",""
"html-keyboard-response","60","205029","0.0-15.0-0.9","1699","2","""event"",""trial"",""time""
""fullscreenenter"",""1"",""1797""
","
","
","""event"",""trial"",""time""
""fullscreenenter"",""1"",""1797""
","
","","","","","","null","<div style=""font-size:60px;"">+</div>","null","","fixation","","","","","","","","",""
"memory-trial","61","207944","0.0-15.0-1.9","1699","2","""event"",""trial"",""time""
""fullscreenenter"",""1"",""1797""
","
","
","""event"",""trial"",""time""
""fullscreenenter"",""1"",""1797""
","
","","","","","","1911.2999999970198","images/sheep2.png","","","memory_trial","2","maybe_old","","","","","","",""
"html-keyboard-response","62","208450","0.0-15.0-0.10","1699","2","""event"",""trial"",""time""
""fullscreenenter"",""1"",""1797""
","
","
","""event"",""trial"",""time""
""fullscreenenter"",""1"",""1797""
","
","","","","","","null","<div style=""font-size:60px;"">+</div>","null","","fixation","","","","","","","","",""
"memory-trial","63","210359","0.0-15.0-1.10","1699","2","""event"",""trial"",""time""
""fullscreenenter"",""1"",""1797""
","
","
","""event"",""trial"",""time""
""fullscreenenter"",""1"",""1797""
","
","","","","","","905.6999999955297","images/rodent4.png","","","memory_trial","4","definitely_new","","","","","","",""
"html-keyboard-response","64","210863","0.0-15.0-0.11","1699","2","""event"",""trial"",""time""
""fullscreenenter"",""1"",""1797""
","
","
","""event"",""trial"",""time""
""fullscreenenter"",""1"",""1797""
","
","","","","","","null","<div style=""font-size:60px;"">+</div>","null","","fixation","","","","","","","","",""
"memory-trial","65","212972","0.0-15.0-1.11","1699","2","""event"",""trial"",""time""
""fullscreenenter"",""1"",""1797""
","
","
","""event"",""trial"",""time""
""fullscreenenter"",""1"",""1797""
","
","","","","","","1103.1000000014901","images/banana1.png","","","memory_trial","1","definitely_old","","","","","","",""
"html-keyboard-response","66","213477","0.0-15.0-0.12","1699","2","""event"",""trial"",""time""
""fullscreenenter"",""1"",""1797""
","
","
","""event"",""trial"",""time""
""fullscreenenter"",""1"",""1797""
","
","","","","","","null","<div style=""font-size:60px;"">+</div>","null","","fixation","","","","","","","","",""
"memory-trial","67","215759","0.0-15.0-1.12","1699","2","""event"",""trial"",""time""
""fullscreenenter"",""1"",""1797""
","
","
","""event"",""trial"",""time""
""fullscreenenter"",""1"",""1797""
","
","","","","","","1277.1999999955297","images/table3.png","","","memory_trial","3","maybe_new","","","","","","",""
"html-keyboard-response","68","216264","0.0-15.0-0.13","1699","2","""event"",""trial"",""time""
""fullscreenenter"",""1"",""1797""
","
","
","""event"",""trial"",""time""
""fullscreenenter"",""1"",""1797""
","
","","","","","","null","<div style=""font-size:60px;"">+</div>","null","","fixation","","","","","","","","",""
"memory-trial","69","218474","0.0-15.0-1.13","1699","2","""event"",""trial"",""time""
""fullscreenenter"",""1"",""1797""
","
","
","""event"",""trial"",""time""
""fullscreenenter"",""1"",""1797""
","
","","","","","","1204.5","images/goat2.png","","","memory_trial","3","maybe_new","","","","","","",""
"html-keyboard-response","70","218980","0.0-15.0-0.14","1699","2","""event"",""trial"",""time""
""fullscreenenter"",""1"",""1797""
","
","
","""event"",""trial"",""time""
""fullscreenenter"",""1"",""1797""
","
","","","","","","null","<div style=""font-size:60px;"">+</div>","null","","fixation","","","","","","","","",""
"memory-trial","71","221512","0.0-15.0-1.14","1699","2","""event"",""trial"",""time""
""fullscreenenter"",""1"",""1797""
","
","
","""event"",""trial"",""time""
""fullscreenenter"",""1"",""1797""
","
","","","","","","1527.7000000029802","images/truck1.png","","","memory_trial","4","definitely_new","","","","","","",""
"html-keyboard-response","72","222017","0.0-15.0-0.15","1699","2","""event"",""trial"",""time""
""fullscreenenter"",""1"",""1797""
","
","
","""event"",""trial"",""time""
""fullscreenenter"",""1"",""1797""
","
","","","","","","null","<div style=""font-size:60px;"">+</div>","null","","fixation","","","","","","","","",""
"memory-trial","73","223909","0.0-15.0-1.15","1699","2","""event"",""trial"",""time""
""fullscreenenter"",""1"",""1797""
","
","
","""event"",""trial"",""time""
""fullscreenenter"",""1"",""1797""
","
","","","","","","886","images/chair5.png","","","memory_trial","1","definitely_old","","","","","","",""
"html-keyboard-response","74","224414","0.0-15.0-0.16","1699","2","""event"",""trial"",""time""
""fullscreenenter"",""1"",""1797""
","
","
","""event"",""trial"",""time""
""fullscreenenter"",""1"",""1797""
","
","","","","","","null","<div style=""font-size:60px;"">+</div>","null","","fixation","","","","","","","","",""
"memory-trial","75","226149","0.0-15.0-1.16","1699","2","""event"",""trial"",""time""
""fullscreenenter"",""1"",""1797""
","
","
","""event"",""trial"",""time""
""fullscreenenter"",""1"",""1797""
","
","","","","","","728.1000000014901","images/boat2.png","","","memory_trial","4","definitely_new","","","","","","",""
"html-keyboard-response","76","226655","0.0-15.0-0.17","1699","2","""event"",""trial"",""time""
""fullscreenenter"",""1"",""1797""
","
","
","""event"",""trial"",""time""
""fullscreenenter"",""1"",""1797""
","
","","","","","","null","<div style=""font-size:60px;"">+</div>","null","","fixation","","","","","","","","",""
"memory-trial","77","229783","0.0-15.0-1.17","1699","2","""event"",""trial"",""time""
""fullscreenenter"",""1"",""1797""
","
","
","""event"",""trial"",""time""
""fullscreenenter"",""1"",""1797""
","
","","","","","","2120.9000000059605","images/rodent2.png","","","memory_trial","3","maybe_new","","","","","","",""
"html-keyboard-response","78","230289","0.0-15.0-0.18","1699","2","""event"",""trial"",""time""
""fullscreenenter"",""1"",""1797""
","
","
","""event"",""trial"",""time""
""fullscreenenter"",""1"",""1797""
","
","","","","","","null","<div style=""font-size:60px;"">+</div>","null","","fixation","","","","","","","","",""
"memory-trial","79","232425","0.0-15.0-1.18","1699","2","""event"",""trial"",""time""
""fullscreenenter"",""1"",""1797""
","
","
","""event"",""trial"",""time""
""fullscreenenter"",""1"",""1797""
","
","","","","","","1129.7999999970198","images/boat5.png","","","memory_trial","4","definitely_new","","","","","","",""
"html-keyboard-response","80","232930","0.0-15.0-0.19","1699","2","""event"",""trial"",""time""
""fullscreenenter"",""1"",""1797""
","
","
","""event"",""trial"",""time""
""fullscreenenter"",""1"",""1797""
","
","","","","","","null","<div style=""font-size:60px;"">+</div>","null","","fixation","","","","","","","","",""
"memory-trial","81","234997","0.0-15.0-1.19","1699","2","""event"",""trial"",""time""
""fullscreenenter"",""1"",""1797""
","
","
","""event"",""trial"",""time""
""fullscreenenter"",""1"",""1797""
","
","","","","","","1063.7999999970198","images/dog5.png","","","memory_trial","1","definitely_old","","","","","","",""
"html-keyboard-response","82","235502","0.0-15.0-0.20","1699","2","""event"",""trial"",""time""
""fullscreenenter"",""1"",""1797""
","
","
","""event"",""trial"",""time""
""fullscreenenter"",""1"",""1797""
","
","","","","","","null","<div style=""font-size:60px;"">+</div>","null","","fixation","","","","","","","","",""
"memory-trial","83","237539","0.0-15.0-1.20","1699","2","""event"",""trial"",""time""
""fullscreenenter"",""1"",""1797""
","
","
","""event"",""trial"",""time""
""fullscreenenter"",""1"",""1797""
","
","","","","","","1034.6999999955297","images/cactus4.png","","","memory_trial","4","definitely_new","","","","","","",""
"html-keyboard-response","84","238044","0.0-15.0-0.21","1699","2","""event"",""trial"",""time""
""fullscreenenter"",""1"",""1797""
","
","
","""event"",""trial"",""time""
""fullscreenenter"",""1"",""1797""
","
","","","","","","null","<div style=""font-size:60px;"">+</div>","null","","fixation","","","","","","","","",""
"memory-trial","85","239954","0.0-15.0-1.21","1699","2","""event"",""trial"",""time""
""fullscreenenter"",""1"",""1797""
","
","
","""event"",""trial"",""time""
""fullscreenenter"",""1"",""1797""
","
","","","","","","906.1000000014901","images/sofa4.png","","","memory_trial","4","definitely_new","","","","","","",""
"html-keyboard-response","86","240459","0.0-15.0-0.22","1699","2","""event"",""trial"",""time""
""fullscreenenter"",""1"",""1797""
","
","
","""event"",""trial"",""time""
""fullscreenenter"",""1"",""1797""
","
","","","","","","null","<div style=""font-size:60px;"">+</div>","null","","fixation","","","","","","","","",""
"memory-trial","87","242618","0.0-15.0-1.22","1699","2","""event"",""trial"",""time""
""fullscreenenter"",""1"",""1797""
","
","
","""event"",""trial"",""time""
""fullscreenenter"",""1"",""1797""
","
","","","","","","1156","images/chair2.png","","","memory_trial","3","maybe_new","","","","","","",""
"html-keyboard-response","88","243124","0.0-15.0-0.23","1699","2","""event"",""trial"",""time""
""fullscreenenter"",""1"",""1797""
","
","
","""event"",""trial"",""time""
""fullscreenenter"",""1"",""1797""
","
","","","","","","null","<div style=""font-size:60px;"">+</div>","null","","fixation","","","","","","","","",""
"memory-trial","89","245945","0.0-15.0-1.23","1699","2","""event"",""trial"",""time""
""fullscreenenter"",""1"",""1797""
","
","
","""event"",""trial"",""time""
""fullscreenenter"",""1"",""1797""
","
","","","","","","1818.2999999970198","images/feline3.png","","","memory_trial","1","definitely_old","","","","","","",""
"html-keyboard-response","90","246450","0.0-15.0-0.24","1699","2","""event"",""trial"",""time""
""fullscreenenter"",""1"",""1797""
","
","
","""event"",""trial"",""time""
""fullscreenenter"",""1"",""1797""
","
","","","","","","null","<div style=""font-size:60px;"">+</div>","null","","fixation","","","","","","","","",""
"memory-trial","91","248144","0.0-15.0-1.24","1699","2","""event"",""trial"",""time""
""fullscreenenter"",""1"",""1797""
","
","
","""event"",""trial"",""time""
""fullscreenenter"",""1"",""1797""
","
","","","","","","690.2000000029802","images/horse1.png","","","memory_trial","1","definitely_old","","","","","","",""
"html-keyboard-response","92","248650","0.0-15.0-0.25","1699","2","""event"",""trial"",""time""
""fullscreenenter"",""1"",""1797""
","
","
","""event"",""trial"",""time""
""fullscreenenter"",""1"",""1797""
","
","","","","","","null","<div style=""font-size:60px;"">+</div>","null","","fixation","","","","","","","","",""
"memory-trial","93","251628","0.0-15.0-1.25","1699","2","""event"",""trial"",""time""
""fullscreenenter"",""1"",""1797""
","
","
","""event"",""trial"",""time""
""fullscreenenter"",""1"",""1797""
","
","","","","","","1971.5","images/straw2.png","","","memory_trial","2","maybe_old","","","","","","",""
"html-keyboard-response","94","252133","0.0-15.0-0.26","1699","2","""event"",""trial"",""time""
""fullscreenenter"",""1"",""1797""
","
","
","""event"",""trial"",""time""
""fullscreenenter"",""1"",""1797""
","
","","","","","","null","<div style=""font-size:60px;"">+</div>","null","","fixation","","","","","","","","",""
"memory-trial","95","254206","0.0-15.0-1.26","1699","2","""event"",""trial"",""time""
""fullscreenenter"",""1"",""1797""
","
","
","""event"",""trial"",""time""
""fullscreenenter"",""1"",""1797""
","
","","","","","","1066.6000000014901","images/goat5.png","","","memory_trial","4","definitely_new","","","","","","",""
"html-keyboard-response","96","254711","0.0-15.0-0.27","1699","2","""event"",""trial"",""time""
""fullscreenenter"",""1"",""1797""
","
","
","""event"",""trial"",""time""
""fullscreenenter"",""1"",""1797""
","
","","","","","","null","<div style=""font-size:60px;"">+</div>","null","","fixation","","","","","","","","",""
"memory-trial","97","257683","0.0-15.0-1.27","1699","2","""event"",""trial"",""time""
""fullscreenenter"",""1"",""1797""
","
","
","""event"",""trial"",""time""
""fullscreenenter"",""1"",""1797""
","
","","","","","","1966","images/orange5.png","","","memory_trial","1","definitely_old","","","","","","",""
"html-keyboard-response","98","258188","0.0-15.0-0.28","1699","2","""event"",""trial"",""time""
""fullscreenenter"",""1"",""1797""
","
","
","""event"",""trial"",""time""
""fullscreenenter"",""1"",""1797""
","
","","","","","","null","<div style=""font-size:60px;"">+</div>","null","","fixation","","","","","","","","",""
"memory-trial","99","260046","0.0-15.0-1.28","1699","2","""event"",""trial"",""time""
""fullscreenenter"",""1"",""1797""
","
","
","""event"",""trial"",""time""
""fullscreenenter"",""1"",""1797""
","
","","","","","","854.8999999985099","images/chair4.png","","","memory_trial","1","definitely_old","","","","","","",""
"html-keyboard-response","100","260551","0.0-15.0-0.29","1699","2","""event"",""trial"",""time""
""fullscreenenter"",""1"",""1797""
","
","
","""event"",""trial"",""time""
""fullscreenenter"",""1"",""1797""
","
","","","","","","null","<div style=""font-size:60px;"">+</div>","null","","fixation","","","","","","","","",""
"memory-trial","101","263564","0.0-15.0-1.29","1699","2","""event"",""trial"",""time""
""fullscreenenter"",""1"",""1797""
","
","
","""event"",""trial"",""time""
""fullscreenenter"",""1"",""1797""
","
","","","","","","2007.5","images/truck5.png","","","memory_trial","3","maybe_new","","","","","","",""
"html-keyboard-response","102","264069","0.0-15.0-0.30","1699","2","""event"",""trial"",""time""
""fullscreenenter"",""1"",""1797""
","
","
","""event"",""trial"",""time""
""fullscreenenter"",""1"",""1797""
","
","","","","","","null","<div style=""font-size:60px;"">+</div>","null","","fixation","","","","","","","","",""
"memory-trial","103","266562","0.0-15.0-1.30","1699","2","""event"",""trial"",""time""
""fullscreenenter"",""1"",""1797""
","
","
","""event"",""trial"",""time""
""fullscreenenter"",""1"",""1797""
","
","","","","","","1487.7000000029802","images/straw1.png","","","memory_trial","2","maybe_old","","","","","","",""
"html-keyboard-response","104","267063","0.0-15.0-0.31","1699","2","""event"",""trial"",""time""
""fullscreenenter"",""1"",""1797""
","
","
","""event"",""trial"",""time""
""fullscreenenter"",""1"",""1797""
","
","","","","","","null","<div style=""font-size:60px;"">+</div>","null","","fixation","","","","","","","","",""
"memory-trial","105","269334","0.0-15.0-1.31","1699","2","""event"",""trial"",""time""
""fullscreenenter"",""1"",""1797""
","
","
","""event"",""trial"",""time""
""fullscreenenter"",""1"",""1797""
","
","","","","","","1264.8999999985099","images/tree5.png","","","memory_trial","1","definitely_old","","","","","","",""
"html-keyboard-response","106","269839","0.0-15.0-0.32","1699","2","""event"",""trial"",""time""
""fullscreenenter"",""1"",""1797""
","
","
","""event"",""trial"",""time""
""fullscreenenter"",""1"",""1797""
","
","","","","","","null","<div style=""font-size:60px;"">+</div>","null","","fixation","","","","","","","","",""
"memory-trial","107","271806","0.0-15.0-1.32","1699","2","""event"",""trial"",""time""
""fullscreenenter"",""1"",""1797""
","
","
","""event"",""trial"",""time""
""fullscreenenter"",""1"",""1797""
","
","","","","","","960.1999999955297","images/rabbit4.png","","","memory_trial","4","definitely_new","","","","","","",""
"html-keyboard-response","108","272312","0.0-15.0-0.33","1699","2","""event"",""trial"",""time""
""fullscreenenter"",""1"",""1797""
","
","
","""event"",""trial"",""time""
""fullscreenenter"",""1"",""1797""
","
","","","","","","null","<div style=""font-size:60px;"">+</div>","null","","fixation","","","","","","","","",""
"memory-trial","109","274112","0.0-15.0-1.33","1699","2","""event"",""trial"",""time""
""fullscreenenter"",""1"",""1797""
","
","
","""event"",""trial"",""time""
""fullscreenenter"",""1"",""1797""
","
","","","","","","793.0999999940395","images/flower3.png","","","memory_trial","1","definitely_old","","","","","","",""
"html-keyboard-response","110","274617","0.0-15.0-0.34","1699","2","""event"",""trial"",""time""
""fullscreenenter"",""1"",""1797""
","
","
","""event"",""trial"",""time""
""fullscreenenter"",""1"",""1797""
","
","","","","","","null","<div style=""font-size:60px;"">+</div>","null","","fixation","","","","","","","","",""
"memory-trial","111","278076","0.0-15.0-1.34","1699","2","""event"",""trial"",""time""
""fullscreenenter"",""1"",""1797""
","
","
","""event"",""trial"",""time""
""fullscreenenter"",""1"",""1797""
","
","","","","","","2454.3000000044703","images/plane1.png","","","memory_trial","2","maybe_old","","","","","","",""
"html-keyboard-response","112","278581","0.0-15.0-0.35","1699","2","""event"",""trial"",""time""
""fullscreenenter"",""1"",""1797""
","
","
","""event"",""trial"",""time""
""fullscreenenter"",""1"",""1797""
","
","","","","","","null","<div style=""font-size:60px;"">+</div>","null","","fixation","","","","","","","","",""
"memory-trial","113","281472","0.0-15.0-1.35","1699","2","""event"",""trial"",""time""
""fullscreenenter"",""1"",""1797""
","
","
","""event"",""trial"",""time""
""fullscreenenter"",""1"",""1797""
","
","","","","","","1884.5","images/rabbit2.png","","","memory_trial","2","maybe_old","","","","","","",""
"html-keyboard-response","114","281977","0.0-15.0-0.36","1699","2","""event"",""trial"",""time""
""fullscreenenter"",""1"",""1797""
","
","
","""event"",""trial"",""time""
""fullscreenenter"",""1"",""1797""
","
","","","","","","null","<div style=""font-size:60px;"">+</div>","null","","fixation","","","","","","","","",""
"memory-trial","115","283975","0.0-15.0-1.36","1699","2","""event"",""trial"",""time""
""fullscreenenter"",""1"",""1797""
","
","
","""event"",""trial"",""time""
""fullscreenenter"",""1"",""1797""
","
","","","","","","991.7000000029802","images/bush3.png","","","memory_trial","4","definitely_new","","","","","","",""
"html-keyboard-response","116","284479","0.0-15.0-0.37","1699","2","""event"",""trial"",""time""
""fullscreenenter"",""1"",""1797""
","
","
","""event"",""trial"",""time""
""fullscreenenter"",""1"",""1797""
","
","","","","","","null","<div style=""font-size:60px;"">+</div>","null","","fixation","","","","","","","","",""
"memory-trial","117","288636","0.0-15.0-1.37","1699","2","""event"",""trial"",""time""
""fullscreenenter"",""1"",""1797""
","
","
","""event"",""trial"",""time""
""fullscreenenter"",""1"",""1797""
","
","","","","","","3150","images/rodent3.png","","","memory_trial","3","maybe_new","","","","","","",""
"html-keyboard-response","118","289141","0.0-15.0-0.38","1699","2","""event"",""trial"",""time""
""fullscreenenter"",""1"",""1797""
","
","
","""event"",""trial"",""time""
""fullscreenenter"",""1"",""1797""
","
","","","","","","null","<div style=""font-size:60px;"">+</div>","null","","fixation","","","","","","","","",""
"memory-trial","119","293030","0.0-15.0-1.38","1699","2","""event"",""trial"",""time""
""fullscreenenter"",""1"",""1797""
","
","
","""event"",""trial"",""time""
""fullscreenenter"",""1"",""1797""
","
","","","","","","2886.39999999851","images/rodent1.png","","","memory_trial","3","maybe_new","","","","","","",""
"html-keyboard-response","120","293535","0.0-15.0-0.39","1699","2","""event"",""trial"",""time""
""fullscreenenter"",""1"",""1797""
","
","
","""event"",""trial"",""time""
""fullscreenenter"",""1"",""1797""
","
","","","","","","null","<div style=""font-size:60px;"">+</div>","null","","fixation","","","","","","","","",""
"memory-trial","121","297551","0.0-15.0-1.39","1699","2","""event"",""trial"",""time""
""fullscreenenter"",""1"",""1797""
","
","
","""event"",""trial"",""time""
""fullscreenenter"",""1"",""1797""
","
","","","","","","3009.5","images/bush1.png","","","memory_trial","4","definitely_new","","","","","","",""
"html-keyboard-response","122","298057","0.0-15.0-0.40","1699","2","""event"",""trial"",""time""
""fullscreenenter"",""1"",""1797""
","
","
","""event"",""trial"",""time""
""fullscreenenter"",""1"",""1797""
","
","","","","","","null","<div style=""font-size:60px;"">+</div>","null","","fixation","","","","","","","","",""
"memory-trial","123","301512","0.0-15.0-1.40","1699","2","""event"",""trial"",""time""
""fullscreenenter"",""1"",""1797""
","
","
","""event"",""trial"",""time""
""fullscreenenter"",""1"",""1797""
","
","","","","","","2450.6999999955297","images/cactus2.png","","","memory_trial","1","definitely_old","","","","","","",""
"html-keyboard-response","124","302017","0.0-15.0-0.41","1699","2","""event"",""trial"",""time""
""fullscreenenter"",""1"",""1797""
","
","
","""event"",""trial"",""time""
""fullscreenenter"",""1"",""1797""
","
","","","","","","null","<div style=""font-size:60px;"">+</div>","null","","fixation","","","","","","","","",""
"memory-trial","125","304141","0.0-15.0-1.41","1699","2","""event"",""trial"",""time""
""fullscreenenter"",""1"",""1797""
","
","
","""event"",""trial"",""time""
""fullscreenenter"",""1"",""1797""
","
","","","","","","1121.3000000044703","images/feline5.png","","","memory_trial","1","definitely_old","","","","","","",""
"html-keyboard-response","126","304646","0.0-15.0-0.42","1699","2","""event"",""trial"",""time""
""fullscreenenter"",""1"",""1797""
","
","
","""event"",""trial"",""time""
""fullscreenenter"",""1"",""1797""
","
","","","","","","null","<div style=""font-size:60px;"">+</div>","null","","fixation","","","","","","","","",""
"memory-trial","127","306706","0.0-15.0-1.42","1699","2","""event"",""trial"",""time""
""fullscreenenter"",""1"",""1797""
","
","
","""event"",""trial"",""time""
""fullscreenenter"",""1"",""1797""
","
","","","","","","1053.3999999985099","images/train4.png","","","memory_trial","1","definitely_old","","","","","","",""
"html-keyboard-response","128","307212","0.0-15.0-0.43","1699","2","""event"",""trial"",""time""
""fullscreenenter"",""1"",""1797""
","
","
","""event"",""trial"",""time""
""fullscreenenter"",""1"",""1797""
","
","","","","","","null","<div style=""font-size:60px;"">+</div>","null","","fixation","","","","","","","","",""
"memory-trial","129","309034","0.0-15.0-1.43","1699","2","""event"",""trial"",""time""
""fullscreenenter"",""1"",""1797""
","
","
","""event"",""trial"",""time""
""fullscreenenter"",""1"",""1797""
","
","","","","","","815.1999999955297","images/horse3.png","","","memory_trial","1","definitely_old","","","","","","",""
"html-keyboard-response","130","309540","0.0-15.0-0.44","1699","2","""event"",""trial"",""time""
""fullscreenenter"",""1"",""1797""
","
","
","""event"",""trial"",""time""
""fullscreenenter"",""1"",""1797""
","
","","","","","","null","<div style=""font-size:60px;"">+</div>","null","","fixation","","","","","","","","",""
"memory-trial","131","312256","0.0-15.0-1.44","1699","2","""event"",""trial"",""time""
""fullscreenenter"",""1"",""1797""
","
","
","""event"",""trial"",""time""
""fullscreenenter"",""1"",""1797""
","
","","","","","","1713.2999999970198","images/bed1.png","","","memory_trial","1","definitely_old","","","","","","",""
"html-keyboard-response","132","312762","0.0-15.0-0.45","1699","2","""event"",""trial"",""time""
""fullscreenenter"",""1"",""1797""
","
","
","""event"",""trial"",""time""
""fullscreenenter"",""1"",""1797""
","
","","","","","","null","<div style=""font-size:60px;"">+</div>","null","","fixation","","","","","","","","",""
"memory-trial","133","314776","0.0-15.0-1.45","1699","2","""event"",""trial"",""time""
""fullscreenenter"",""1"",""1797""
","
","
","""event"",""trial"",""time""
""fullscreenenter"",""1"",""1797""
","
","","","","","","1012.4000000059605","images/train1.png","","","memory_trial","4","definitely_new","","","","","","",""
"html-keyboard-response","134","315281","0.0-15.0-0.46","1699","2","""event"",""trial"",""time""
""fullscreenenter"",""1"",""1797""
","
","
","""event"",""trial"",""time""
""fullscreenenter"",""1"",""1797""
","
","","","","","","null","<div style=""font-size:60px;"">+</div>","null","","fixation","","","","","","","","",""
"memory-trial","135","319931","0.0-15.0-1.46","1699","2","""event"",""trial"",""time""
""fullscreenenter"",""1"",""1797""
","
","
","""event"",""trial"",""time""
""fullscreenenter"",""1"",""1797""
","
","","","","","","3642.5","images/apple4.png","","","memory_trial","3","maybe_new","","","","","","",""
"html-button-response","136","341579","0.0-15.0-2.46-0.46","1699","2","""event"",""trial"",""time""
""fullscreenenter"",""1"",""1797""
","
","
","""event"",""trial"",""time""
""fullscreenenter"",""1"",""1797""
","
","","","","","","21646","<p> Take a break! </p><p> Click the button to continue. </p>","0","","break","","","","","","","","",""
"html-keyboard-response","137","342083","0.0-15.0-0.47","1699","2","""event"",""trial"",""time""
""fullscreenenter"",""1"",""1797""
","
","
","""event"",""trial"",""time""
""fullscreenenter"",""1"",""1797""
","
","","","","","","null","<div style=""font-size:60px;"">+</div>","null","","fixation","","","","","","","","",""
"memory-trial","138","344172","0.0-15.0-1.47","1699","2","""event"",""trial"",""time""
""fullscreenenter"",""1"",""1797""
","
","
","""event"",""trial"",""time""
""fullscreenenter"",""1"",""1797""
","
","","","","","","1083.8999999985099","images/bed5.png","","","memory_trial","1","definitely_old","","","","","","",""
"html-keyboard-response","139","344678","0.0-15.0-0.48","1699","2","""event"",""trial"",""time""
""fullscreenenter"",""1"",""1797""
","
","
","""event"",""trial"",""time""
""fullscreenenter"",""1"",""1797""
","
","","","","","","null","<div style=""font-size:60px;"">+</div>","null","","fixation","","","","","","","","",""
"memory-trial","140","346656","0.0-15.0-1.48","1699","2","""event"",""trial"",""time""
""fullscreenenter"",""1"",""1797""
","
","
","""event"",""trial"",""time""
""fullscreenenter"",""1"",""1797""
","
","","","","","","975.5","images/cow5.png","","","memory_trial","4","definitely_new","","","","","","",""
"html-keyboard-response","141","347160","0.0-15.0-0.49","1699","2","""event"",""trial"",""time""
""fullscreenenter"",""1"",""1797""
","
","
","""event"",""trial"",""time""
""fullscreenenter"",""1"",""1797""
","
","","","","","","null","<div style=""font-size:60px;"">+</div>","null","","fixation","","","","","","","","",""
"memory-trial","142","349086","0.0-15.0-1.49","1699","2","""event"",""trial"",""time""
""fullscreenenter"",""1"",""1797""
","
","
","""event"",""trial"",""time""
""fullscreenenter"",""1"",""1797""
","
","","","","","","924.1999999955297","images/tree2.png","","","memory_trial","4","definitely_new","","","","","","",""
"html-keyboard-response","143","349591","0.0-15.0-0.50","1699","2","""event"",""trial"",""time""
""fullscreenenter"",""1"",""1797""
","
","
","""event"",""trial"",""time""
""fullscreenenter"",""1"",""1797""
","
","","","","","","null","<div style=""font-size:60px;"">+</div>","null","","fixation","","","","","","","","",""
"memory-trial","144","351702","0.0-15.0-1.50","1699","2","""event"",""trial"",""time""
""fullscreenenter"",""1"",""1797""
","
","
","""event"",""trial"",""time""
""fullscreenenter"",""1"",""1797""
","
","","","","","","1109.6999999955297","images/orange2.png","","","memory_trial","2","maybe_old","","","","","","",""
"html-keyboard-response","145","352207","0.0-15.0-0.51","1699","2","""event"",""trial"",""time""
""fullscreenenter"",""1"",""1797""
","
","
","""event"",""trial"",""time""
""fullscreenenter"",""1"",""1797""
","
","","","","","","null","<div style=""font-size:60px;"">+</div>","null","","fixation","","","","","","","","",""
"memory-trial","146","354586","0.0-15.0-1.51","1699","2","""event"",""trial"",""time""
""fullscreenenter"",""1"",""1797""
","
","
","""event"",""trial"",""time""
""fullscreenenter"",""1"",""1797""
","
","","","","","","1377.1000000014901","images/table5.png","","","memory_trial","2","maybe_old","","","","","","",""
"html-keyboard-response","147","355090","0.0-15.0-0.52","1699","2","""event"",""trial"",""time""
""fullscreenenter"",""1"",""1797""
","
","
","""event"",""trial"",""time""
""fullscreenenter"",""1"",""1797""
","
","","","","","","null","<div style=""font-size:60px;"">+</div>","null","","fixation","","","","","","","","",""
"memory-trial","148","357602","0.0-15.0-1.52","1699","2","""event"",""trial"",""time""
""fullscreenenter"",""1"",""1797""
","
","
","""event"",""trial"",""time""
""fullscreenenter"",""1"",""1797""
","
","","","","","","1506.4000000059605","images/plane5.png","","","memory_trial","3","maybe_new","","","","","","",""
"html-keyboard-response","149","358104","0.0-15.0-0.53","1699","2","""event"",""trial"",""time""
""fullscreenenter"",""1"",""1797""
","
","
","""event"",""trial"",""time""
""fullscreenenter"",""1"",""1797""
","
","","","","","","null","<div style=""font-size:60px;"">+</div>","null","","fixation","","","","","","","","",""
"memory-trial","150","360207","0.0-15.0-1.53","1699","2","""event"",""trial"",""time""
""fullscreenenter"",""1"",""1797""
","
","
","""event"",""trial"",""time""
""fullscreenenter"",""1"",""1797""
","
","","","","","","1097","images/rodent5.png","","","memory_trial","4","definitely_new","","","","","","",""
"html-keyboard-response","151","360712","0.0-15.0-0.54","1699","2","""event"",""trial"",""time""
""fullscreenenter"",""1"",""1797""
","
","
","""event"",""trial"",""time""
""fullscreenenter"",""1"",""1797""
","
","","","","","","null","<div style=""font-size:60px;"">+</div>","null","","fixation","","","","","","","","",""
"memory-trial","152","362849","0.0-15.0-1.54","1699","2","""event"",""trial"",""time""
""fullscreenenter"",""1"",""1797""
","
","
","""event"",""trial"",""time""
""fullscreenenter"",""1"",""1797""
","
","","","","","","1131.6000000014901","images/cow2.png","","","memory_trial","4","definitely_new","","","","","","",""
"html-keyboard-response","153","363353","0.0-15.0-0.55","1699","2","""event"",""trial"",""time""
""fullscreenenter"",""1"",""1797""
","
","
","""event"",""trial"",""time""
""fullscreenenter"",""1"",""1797""
","
","","","","","","null","<div style=""font-size:60px;"">+</div>","null","","fixation","","","","","","","","",""
"memory-trial","154","365187","0.0-15.0-1.55","1699","2","""event"",""trial"",""time""
""fullscreenenter"",""1"",""1797""
","
","
","""event"",""trial"",""time""
""fullscreenenter"",""1"",""1797""
","
","","","","","","827.8999999985099","images/apple5.png","","","memory_trial","4","definitely_new","","","","","","",""
"html-keyboard-response","155","365692","0.0-15.0-0.56","1699","2","""event"",""trial"",""time""
""fullscreenenter"",""1"",""1797""
","
","
","""event"",""trial"",""time""
""fullscreenenter"",""1"",""1797""
","
","","","","","","null","<div style=""font-size:60px;"">+</div>","null","","fixation","","","","","","","","",""
"memory-trial","156","368670","0.0-15.0-1.56","1699","2","""event"",""trial"",""time""
""fullscreenenter"",""1"",""1797""
","
","
","""event"",""trial"",""time""
""fullscreenenter"",""1"",""1797""
","
","","","","","","1972.8999999985099","images/horse2.png","","","memory_trial","3","maybe_new","","","","","","",""
"html-keyboard-response","157","369175","0.0-15.0-0.57","1699","2","""event"",""trial"",""time""
""fullscreenenter"",""1"",""1797""
","
","
","""event"",""trial"",""time""
""fullscreenenter"",""1"",""1797""
","
","","","","","","null","<div style=""font-size:60px;"">+</div>","null","","fixation","","","","","","","","",""
"memory-trial","158","371206","0.0-15.0-1.57","1699","2","""event"",""trial"",""time""
""fullscreenenter"",""1"",""1797""
","
","
","""event"",""trial"",""time""
""fullscreenenter"",""1"",""1797""
","
","","","","","","1028.3999999985099","images/train5.png","","","memory_trial","3","maybe_new","","","","","","",""
"html-keyboard-response","159","371710","0.0-15.0-0.58","1699","2","""event"",""trial"",""time""
""fullscreenenter"",""1"",""1797""
","
","
","""event"",""trial"",""time""
""fullscreenenter"",""1"",""1797""
","
","","","","","","null","<div style=""font-size:60px;"">+</div>","null","","fixation","","","","","","","","",""
"memory-trial","160","374130","0.0-15.0-1.58","1699","2","""event"",""trial"",""time""
""fullscreenenter"",""1"",""1797""
","
","
","""event"",""trial"",""time""
""fullscreenenter"",""1"",""1797""
","
","","","","","","1417","images/sheep4.png","","","memory_trial","1","definitely_old","","","","","","",""
"html-keyboard-response","161","374636","0.0-15.0-0.59","1699","2","""event"",""trial"",""time""
""fullscreenenter"",""1"",""1797""
","
","
","""event"",""trial"",""time""
""fullscreenenter"",""1"",""1797""
","
","","","","","","null","<div style=""font-size:60px;"">+</div>","null","","fixation","","","","","","","","",""
"memory-trial","162","376921","0.0-15.0-1.59","1699","2","""event"",""trial"",""time""
""fullscreenenter"",""1"",""1797""
","
","
","""event"",""trial"",""time""
""fullscreenenter"",""1"",""1797""
","
","","","","","","1280.1000000014901","images/straw5.png","","","memory_trial","3","maybe_new","","","","","","",""
"html-keyboard-response","163","377427","0.0-15.0-0.60","1699","2","""event"",""trial"",""time""
""fullscreenenter"",""1"",""1797""
","
","
","""event"",""trial"",""time""
""fullscreenenter"",""1"",""1797""
","
","","","","","","null","<div style=""font-size:60px;"">+</div>","null","","fixation","","","","","","","","",""
"memory-trial","164","379488","0.0-15.0-1.60","1699","2","""event"",""trial"",""time""
""fullscreenenter"",""1"",""1797""
","
","
","""event"",""trial"",""time""
""fullscreenenter"",""1"",""1797""
","
","","","","","","1058.2000000029802","images/cow4.png","","","memory_trial","4","definitely_new","","","","","","",""
"html-keyboard-response","165","379993","0.0-15.0-0.61","1699","2","""event"",""trial"",""time""
""fullscreenenter"",""1"",""1797""
","
","
","""event"",""trial"",""time""
""fullscreenenter"",""1"",""1797""
","
","","","","","","null","<div style=""font-size:60px;"">+</div>","null","","fixation","","","","","","","","",""
"memory-trial","166","382036","0.0-15.0-1.61","1699","2","""event"",""trial"",""time""
""fullscreenenter"",""1"",""1797""
","
","
","""event"",""trial"",""time""
""fullscreenenter"",""1"",""1797""
","
","","","","","","1035.5","images/sheep1.png","","","memory_trial","1","definitely_old","","","","","","",""
"html-keyboard-response","167","382542","0.0-15.0-0.62","1699","2","""event"",""trial"",""time""
""fullscreenenter"",""1"",""1797""
","
","
","""event"",""trial"",""time""
""fullscreenenter"",""1"",""1797""
","
","","","","","","null","<div style=""font-size:60px;"">+</div>","null","","fixation","","","","","","","","",""
"memory-trial","168","385311","0.0-15.0-1.62","1699","2","""event"",""trial"",""time""
""fullscreenenter"",""1"",""1797""
","
","
","""event"",""trial"",""time""
""fullscreenenter"",""1"",""1797""
","
","","","","","","1765.6000000014901","images/rabbit3.png","","","memory_trial","4","definitely_new","","","","","","",""
"html-keyboard-response","169","385815","0.0-15.0-0.63","1699","2","""event"",""trial"",""time""
""fullscreenenter"",""1"",""1797""
","
","
","""event"",""trial"",""time""
""fullscreenenter"",""1"",""1797""
","
","","","","","","null","<div style=""font-size:60px;"">+</div>","null","","fixation","","","","","","","","",""
"memory-trial","170","387615","0.0-15.0-1.63","1699","2","""event"",""trial"",""time""
""fullscreenenter"",""1"",""1797""
","
","
","""event"",""trial"",""time""
""fullscreenenter"",""1"",""1797""
","
","","","","","","793.3000000044703","images/banana4.png","","","memory_trial","1","definitely_old","","","","","","",""
"html-keyboard-response","171","388120","0.0-15.0-0.64","1699","2","""event"",""trial"",""time""
""fullscreenenter"",""1"",""1797""
","
","
","""event"",""trial"",""time""
""fullscreenenter"",""1"",""1797""
","
","","","","","","null","<div style=""font-size:60px;"">+</div>","null","","fixation","","","","","","","","",""
"memory-trial","172","390610","0.0-15.0-1.64","1699","2","""event"",""trial"",""time""
""fullscreenenter"",""1"",""1797""
","
","
","""event"",""trial"",""time""
""fullscreenenter"",""1"",""1797""
","
","","","","","","1485.8999999985099","images/truck4.png","","","memory_trial","3","maybe_new","","","","","","",""
"html-keyboard-response","173","391115","0.0-15.0-0.65","1699","2","""event"",""trial"",""time""
""fullscreenenter"",""1"",""1797""
","
","
","""event"",""trial"",""time""
""fullscreenenter"",""1"",""1797""
","
","","","","","","null","<div style=""font-size:60px;"">+</div>","null","","fixation","","","","","","","","",""
"memory-trial","174","396089","0.0-15.0-1.65","1699","2","""event"",""trial"",""time""
""fullscreenenter"",""1"",""1797""
","
","
","""event"",""trial"",""time""
""fullscreenenter"",""1"",""1797""
","
","","","","","","3971.89999999851","images/horse4.png","","","memory_trial","3","maybe_new","","","","","","",""
"html-keyboard-response","175","396594","0.0-15.0-0.66","1699","2","""event"",""trial"",""time""
""fullscreenenter"",""1"",""1797""
","
","
","""event"",""trial"",""time""
""fullscreenenter"",""1"",""1797""
","
","","","","","","null","<div style=""font-size:60px;"">+</div>","null","","fixation","","","","","","","","",""
"memory-trial","176","400983","0.0-15.0-1.66","1699","2","""event"",""trial"",""time""
""fullscreenenter"",""1"",""1797""
","
","
","""event"",""trial"",""time""
""fullscreenenter"",""1"",""1797""
","
","","","","","","3386.0999999940395","images/cactus3.png","","","memory_trial","3","maybe_new","","","","","","",""
"html-keyboard-response","177","401488","0.0-15.0-0.67","1699","2","""event"",""trial"",""time""
""fullscreenenter"",""1"",""1797""
","
","
","""event"",""trial"",""time""
""fullscreenenter"",""1"",""1797""
","
","","","","","","null","<div style=""font-size:60px;"">+</div>","null","","fixation","","","","","","","","",""
"memory-trial","178","404136","0.0-15.0-1.67","1699","2","""event"",""trial"",""time""
""fullscreenenter"",""1"",""1797""
","
","
","""event"",""trial"",""time""
""fullscreenenter"",""1"",""1797""
","
","","","","","","1641.5","images/feline4.png","","","memory_trial","3","maybe_new","","","","","","",""
"html-keyboard-response","179","404640","0.0-15.0-0.68","1699","2","""event"",""trial"",""time""
""fullscreenenter"",""1"",""1797""
","
","
","""event"",""trial"",""time""
""fullscreenenter"",""1"",""1797""
","
","","","","","","null","<div style=""font-size:60px;"">+</div>","null","","fixation","","","","","","","","",""
"memory-trial","180","407032","0.0-15.0-1.68","1699","2","""event"",""trial"",""time""
""fullscreenenter"",""1"",""1797""
","
","
","""event"",""trial"",""time""
""fullscreenenter"",""1"",""1797""
","
","","","","","","1387.0999999940395","images/straw4.png","","","memory_trial","2","maybe_old","","","","","","",""
"html-keyboard-response","181","407537","0.0-15.0-0.69","1699","2","""event"",""trial"",""time""
""fullscreenenter"",""1"",""1797""
","
","
","""event"",""trial"",""time""
""fullscreenenter"",""1"",""1797""
","
","","","","","","null","<div style=""font-size:60px;"">+</div>","null","","fixation","","","","","","","","",""
"memory-trial","182","410056","0.0-15.0-1.69","1699","2","""event"",""trial"",""time""
""fullscreenenter"",""1"",""1797""
","
","
","""event"",""trial"",""time""
""fullscreenenter"",""1"",""1797""
","
","","","","","","1516.3999999985099","images/goat1.png","","","memory_trial","2","maybe_old","","","","","","",""
"html-keyboard-response","183","410561","0.0-15.0-0.70","1699","2","""event"",""trial"",""time""
""fullscreenenter"",""1"",""1797""
","
","
","""event"",""trial"",""time""
""fullscreenenter"",""1"",""1797""
","
","","","","","","null","<div style=""font-size:60px;"">+</div>","null","","fixation","","","","","","","","",""
"memory-trial","184","412324","0.0-15.0-1.70","1699","2","""event"",""trial"",""time""
""fullscreenenter"",""1"",""1797""
","
","
","""event"",""trial"",""time""
""fullscreenenter"",""1"",""1797""
","
","","","","","","756.7999999970198","images/chair3.png","","","memory_trial","1","definitely_old","","","","","","",""
"html-keyboard-response","185","412829","0.0-15.0-0.71","1699","2","""event"",""trial"",""time""
""fullscreenenter"",""1"",""1797""
","
","
","""event"",""trial"",""time""
""fullscreenenter"",""1"",""1797""
","
","","","","","","null","<div style=""font-size:60px;"">+</div>","null","","fixation","","","","","","","","",""
"memory-trial","186","416558","0.0-15.0-1.71","1699","2","""event"",""trial"",""time""
""fullscreenenter"",""1"",""1797""
","
","
","""event"",""trial"",""time""
""fullscreenenter"",""1"",""1797""
","
","","","","","","2722.8000000044703","images/flower4.png","","","memory_trial","3","maybe_new","","","","","","",""
"html-keyboard-response","187","417063","0.0-15.0-0.72","1699","2","""event"",""trial"",""time""
""fullscreenenter"",""1"",""1797""
","
","
","""event"",""trial"",""time""
""fullscreenenter"",""1"",""1797""
","
","","","","","","null","<div style=""font-size:60px;"">+</div>","null","","fixation","","","","","","","","",""
"memory-trial","188","418857","0.0-15.0-1.72","1699","2","""event"",""trial"",""time""
""fullscreenenter"",""1"",""1797""
","
","
","""event"",""trial"",""time""
""fullscreenenter"",""1"",""1797""
","
","","","","","","790.2000000029802","images/sofa2.png","","","memory_trial","3","maybe_new","","","","","","",""
"html-keyboard-response","189","419361","0.0-15.0-0.73","1699","2","""event"",""trial"",""time""
""fullscreenenter"",""1"",""1797""
","
","
","""event"",""trial"",""time""
""fullscreenenter"",""1"",""1797""
","
","","","","","","null","<div style=""font-size:60px;"">+</div>","null","","fixation","","","","","","","","",""
"memory-trial","190","421799","0.0-15.0-1.73","1699","2","""event"",""trial"",""time""
""fullscreenenter"",""1"",""1797""
","
","
","""event"",""trial"",""time""
""fullscreenenter"",""1"",""1797""
","
","","","","","","1433.5999999940395","images/sofa3.png","","","memory_trial","4","definitely_new","","","","","","",""
"html-keyboard-response","191","422304","0.0-15.0-0.74","1699","2","""event"",""trial"",""time""
""fullscreenenter"",""1"",""1797""
","
","
","""event"",""trial"",""time""
""fullscreenenter"",""1"",""1797""
","
","","","","","","null","<div style=""font-size:60px;"">+</div>","null","","fixation","","","","","","","","",""
"memory-trial","192","426553","0.0-15.0-1.74","1699","2","""event"",""trial"",""time""
""fullscreenenter"",""1"",""1797""
","
","
","""event"",""trial"",""time""
""fullscreenenter"",""1"",""1797""
","
","","","","","","3244.60000000149","images/dog4.png","","","memory_trial","1","definitely_old","","","","","","",""
"html-keyboard-response","193","427059","0.0-15.0-0.75","1699","2","""event"",""trial"",""time""
""fullscreenenter"",""1"",""1797""
","
","
","""event"",""trial"",""time""
""fullscreenenter"",""1"",""1797""
","
","","","","","","null","<div style=""font-size:60px;"">+</div>","null","","fixation","","","","","","","","",""
"memory-trial","194","431277","0.0-15.0-1.75","1699","2","""event"",""trial"",""time""
""fullscreenenter"",""1"",""1797""
","
","
","""event"",""trial"",""time""
""fullscreenenter"",""1"",""1797""
","
","","","","","","3212.5","images/flower2.png","","","memory_trial","1","definitely_old","","","","","","",""
"html-keyboard-response","195","431783","0.0-15.0-0.76","1699","2","""event"",""trial"",""time""
""fullscreenenter"",""1"",""1797""
","
","
","""event"",""trial"",""time""
""fullscreenenter"",""1"",""1797""
","
","","","","","","null","<div style=""font-size:60px;"">+</div>","null","","fixation","","","","","","","","",""
"memory-trial","196","433995","0.0-15.0-1.76","1699","2","""event"",""trial"",""time""
""fullscreenenter"",""1"",""1797""
","
","
","""event"",""trial"",""time""
""fullscreenenter"",""1"",""1797""
","
","","","","","","1205.5","images/cactus1.png","","","memory_trial","1","definitely_old","","","","","","",""
"html-keyboard-response","197","434500","0.0-15.0-0.77","1699","2","""event"",""trial"",""time""
""fullscreenenter"",""1"",""1797""
","
","
","""event"",""trial"",""time""
""fullscreenenter"",""1"",""1797""
","
","","","","","","null","<div style=""font-size:60px;"">+</div>","null","","fixation","","","","","","","","",""
"memory-trial","198","436788","0.0-15.0-1.77","1699","2","""event"",""trial"",""time""
""fullscreenenter"",""1"",""1797""
","
","
","""event"",""trial"",""time""
""fullscreenenter"",""1"",""1797""
","
","","","","","","1281.2999999970198","images/sheep5.png","","","memory_trial","4","definitely_new","","","","","","",""
"html-keyboard-response","199","437293","0.0-15.0-0.78","1699","2","""event"",""trial"",""time""
""fullscreenenter"",""1"",""1797""
","
","
","""event"",""trial"",""time""
""fullscreenenter"",""1"",""1797""
","
","","","","","","null","<div style=""font-size:60px;"">+</div>","null","","fixation","","","","","","","","",""
"memory-trial","200","439348","0.0-15.0-1.78","1699","2","""event"",""trial"",""time""
""fullscreenenter"",""1"",""1797""
","
","
","""event"",""trial"",""time""
""fullscreenenter"",""1"",""1797""
","
","","","","","","1050.5","images/dog3.png","","","memory_trial","4","definitely_new","","","","","","",""
"html-keyboard-response","201","439853","0.0-15.0-0.79","1699","2","""event"",""trial"",""time""
""fullscreenenter"",""1"",""1797""
","
","
","""event"",""trial"",""time""
""fullscreenenter"",""1"",""1797""
","
","","","","","","null","<div style=""font-size:60px;"">+</div>","null","","fixation","","","","","","","","",""
"memory-trial","202","443069","0.0-15.0-1.79","1699","2","""event"",""trial"",""time""
""fullscreenenter"",""1"",""1797""
","
","
","""event"",""trial"",""time""
""fullscreenenter"",""1"",""1797""
","
","","","","","","2212.5999999940395","images/sofa1.png","","","memory_trial","4","definitely_new","","","","","","",""
"html-keyboard-response","203","443574","0.0-15.0-0.80","1699","2","""event"",""trial"",""time""
""fullscreenenter"",""1"",""1797""
","
","
","""event"",""trial"",""time""
""fullscreenenter"",""1"",""1797""
","
","","","","","","null","<div style=""font-size:60px;"">+</div>","null","","fixation","","","","","","","","",""
"memory-trial","204","447266","0.0-15.0-1.80","1699","2","""event"",""trial"",""time""
""fullscreenenter"",""1"",""1797""
","
","
","""event"",""trial"",""time""
""fullscreenenter"",""1"",""1797""
","
","","","","","","2687.10000000149","images/chair1.png","","","memory_trial","3","maybe_new","","","","","","",""
"html-keyboard-response","205","447771","0.0-15.0-0.81","1699","2","""event"",""trial"",""time""
""fullscreenenter"",""1"",""1797""
","
","
","""event"",""trial"",""time""
""fullscreenenter"",""1"",""1797""
","
","","","","","","null","<div style=""font-size:60px;"">+</div>","null","","fixation","","","","","","","","",""
"memory-trial","206","449861","0.0-15.0-1.81","1699","2","""event"",""trial"",""time""
""fullscreenenter"",""1"",""1797""
","
","
","""event"",""trial"",""time""
""fullscreenenter"",""1"",""1797""
","
","","","","","","1087.2999999970198","images/table4.png","","","memory_trial","1","definitely_old","","","","","","",""
"html-keyboard-response","207","450366","0.0-15.0-0.82","1699","2","""event"",""trial"",""time""
""fullscreenenter"",""1"",""1797""
","
","
","""event"",""trial"",""time""
""fullscreenenter"",""1"",""1797""
","
","","","","","","null","<div style=""font-size:60px;"">+</div>","null","","fixation","","","","","","","","",""
"memory-trial","208","452514","0.0-15.0-1.82","1699","2","""event"",""trial"",""time""
""fullscreenenter"",""1"",""1797""
","
","
","""event"",""trial"",""time""
""fullscreenenter"",""1"",""1797""
","
","","","","","","1142.3999999985099","images/orange1.png","","","memory_trial","1","definitely_old","","","","","","",""
"html-keyboard-response","209","453019","0.0-15.0-0.83","1699","2","""event"",""trial"",""time""
""fullscreenenter"",""1"",""1797""
","
","
","""event"",""trial"",""time""
""fullscreenenter"",""1"",""1797""
","
","","","","","","null","<div style=""font-size:60px;"">+</div>","null","","fixation","","","","","","","","",""
"memory-trial","210","455434","0.0-15.0-1.83","1699","2","""event"",""trial"",""time""
""fullscreenenter"",""1"",""1797""
","
","
","""event"",""trial"",""time""
""fullscreenenter"",""1"",""1797""
","
","","","","","","1411.1000000014901","images/straw3.png","","","memory_trial","3","maybe_new","","","","","","",""
"html-keyboard-response","211","455939","0.0-15.0-0.84","1699","2","""event"",""trial"",""time""
""fullscreenenter"",""1"",""1797""
","
","
","""event"",""trial"",""time""
""fullscreenenter"",""1"",""1797""
","
","","","","","","null","<div style=""font-size:60px;"">+</div>","null","","fixation","","","","","","","","",""
"memory-trial","212","457715","0.0-15.0-1.84","1699","2","""event"",""trial"",""time""
""fullscreenenter"",""1"",""1797""
","
","
","""event"",""trial"",""time""
""fullscreenenter"",""1"",""1797""
","
","","","","","","771.4000000059605","images/apple2.png","","","memory_trial","4","definitely_new","","","","","","",""
"html-keyboard-response","213","458220","0.0-15.0-0.85","1699","2","""event"",""trial"",""time""
""fullscreenenter"",""1"",""1797""
","
","
","""event"",""trial"",""time""
""fullscreenenter"",""1"",""1797""
","
","","","","","","null","<div style=""font-size:60px;"">+</div>","null","","fixation","","","","","","","","",""
"memory-trial","214","460692","0.0-15.0-1.85","1699","2","""event"",""trial"",""time""
""fullscreenenter"",""1"",""1797""
","
","
","""event"",""trial"",""time""
""fullscreenenter"",""1"",""1797""
","
","","","","","","1465.6000000014901","images/boat3.png","","","memory_trial","4","definitely_new","","","","","","",""
"html-keyboard-response","215","461198","0.0-15.0-0.86","1699","2","""event"",""trial"",""time""
""fullscreenenter"",""1"",""1797""
","
","
","""event"",""trial"",""time""
""fullscreenenter"",""1"",""1797""
","
","","","","","","null","<div style=""font-size:60px;"">+</div>","null","","fixation","","","","","","","","",""
"memory-trial","216","462846","0.0-15.0-1.86","1699","2","""event"",""trial"",""time""
""fullscreenenter"",""1"",""1797""
","
","
","""event"",""trial"",""time""
""fullscreenenter"",""1"",""1797""
","
","","","","","","643","images/tree4.png","","","memory_trial","4","definitely_new","","","","","","",""
"html-keyboard-response","217","463352","0.0-15.0-0.87","1699","2","""event"",""trial"",""time""
""fullscreenenter"",""1"",""1797""
","
","
","""event"",""trial"",""time""
""fullscreenenter"",""1"",""1797""
","
","","","","","","null","<div style=""font-size:60px;"">+</div>","null","","fixation","","","","","","","","",""
"memory-trial","218","465313","0.0-15.0-1.87","1699","2","""event"",""trial"",""time""
""fullscreenenter"",""1"",""1797""
","
","
","""event"",""trial"",""time""
""fullscreenenter"",""1"",""1797""
","
","","","","","","954.5999999940395","images/feline1.png","","","memory_trial","1","definitely_old","","","","","","",""
"html-keyboard-response","219","465819","0.0-15.0-0.88","1699","2","""event"",""trial"",""time""
""fullscreenenter"",""1"",""1797""
","
","
","""event"",""trial"",""time""
""fullscreenenter"",""1"",""1797""
","
","","","","","","null","<div style=""font-size:60px;"">+</div>","null","","fixation","","","","","","","","",""
"memory-trial","220","467613","0.0-15.0-1.88","1699","2","""event"",""trial"",""time""
""fullscreenenter"",""1"",""1797""
","
","
","""event"",""trial"",""time""
""fullscreenenter"",""1"",""1797""
","
","","","","","","790.5","images/apple1.png","","","memory_trial","4","definitely_new","","","","","","",""
"html-keyboard-response","221","468118","0.0-15.0-0.89","1699","2","""event"",""trial"",""time""
""fullscreenenter"",""1"",""1797""
","
","
","""event"",""trial"",""time""
""fullscreenenter"",""1"",""1797""
","
","","","","","","null","<div style=""font-size:60px;"">+</div>","null","","fixation","","","","","","","","",""
"memory-trial","222","470759","0.0-15.0-1.89","1699","2","""event"",""trial"",""time""
""fullscreenenter"",""1"",""1797""
","
","
","""event"",""trial"",""time""
""fullscreenenter"",""1"",""1797""
","
","","","","","","1637.8999999985099","images/bed4.png","","","memory_trial","4","definitely_new","","","","","","",""
"html-keyboard-response","223","471264","0.0-15.0-0.90","1699","2","""event"",""trial"",""time""
""fullscreenenter"",""1"",""1797""
","
","
","""event"",""trial"",""time""
""fullscreenenter"",""1"",""1797""
","
","","","","","","null","<div style=""font-size:60px;"">+</div>","null","","fixation","","","","","","","","",""
"memory-trial","224","472884","0.0-15.0-1.90","1699","2","""event"",""trial"",""time""
""fullscreenenter"",""1"",""1797""
","
","
","""event"",""trial"",""time""
""fullscreenenter"",""1"",""1797""
","
","","","","","","616.2000000029802","images/apple3.png","","","memory_trial","4","definitely_new","","","","","","",""
"html-keyboard-response","225","473389","0.0-15.0-0.91","1699","2","""event"",""trial"",""time""
""fullscreenenter"",""1"",""1797""
","
","
","""event"",""trial"",""time""
""fullscreenenter"",""1"",""1797""
","
","","","","","","null","<div style=""font-size:60px;"">+</div>","null","","fixation","","","","","","","","",""
"memory-trial","226","475083","0.0-15.0-1.91","1699","2","""event"",""trial"",""time""
""fullscreenenter"",""1"",""1797""
","
","
","""event"",""trial"",""time""
""fullscreenenter"",""1"",""1797""
","
","","","","","","687.8999999985099","images/truck3.png","","","memory_trial","4","definitely_new","","","","","","",""
"html-keyboard-response","227","475589","0.0-15.0-0.92","1699","2","""event"",""trial"",""time""
""fullscreenenter"",""1"",""1797""
","
","
","""event"",""trial"",""time""
""fullscreenenter"",""1"",""1797""
","
","","","","","","null","<div style=""font-size:60px;"">+</div>","null","","fixation","","","","","","","","",""
"memory-trial","228","477469","0.0-15.0-1.92","1699","2","""event"",""trial"",""time""
""fullscreenenter"",""1"",""1797""
","
","
","""event"",""trial"",""time""
""fullscreenenter"",""1"",""1797""
","
","","","","","","873.6999999955297","images/train3.png","","","memory_trial","1","definitely_old","","","","","","",""
"html-keyboard-response","229","477975","0.0-15.0-0.93","1699","2","""event"",""trial"",""time""
""fullscreenenter"",""1"",""1797""
","
","
","""event"",""trial"",""time""
""fullscreenenter"",""1"",""1797""
","
","","","","","","null","<div style=""font-size:60px;"">+</div>","null","","fixation","","","","","","","","",""
"memory-trial","230","480261","0.0-15.0-1.93","1699","2","""event"",""trial"",""time""
""fullscreenenter"",""1"",""1797""
","
","
","""event"",""trial"",""time""
""fullscreenenter"",""1"",""1797""
","
","","","","","","1283.1000000014901","images/flower1.png","","","memory_trial","4","definitely_new","","","","","","",""
"html-keyboard-response","231","480767","0.0-15.0-0.94","1699","2","""event"",""trial"",""time""
""fullscreenenter"",""1"",""1797""
","
","
","""event"",""trial"",""time""
""fullscreenenter"",""1"",""1797""
","
","","","","","","null","<div style=""font-size:60px;"">+</div>","null","","fixation","","","","","","","","",""
"memory-trial","232","484198","0.0-15.0-1.94","1699","2","""event"",""trial"",""time""
""fullscreenenter"",""1"",""1797""
","
","
","""event"",""trial"",""time""
""fullscreenenter"",""1"",""1797""
","
","","","","","","2424.89999999851","images/bed3.png","","","memory_trial","1","definitely_old","","","","","","",""
"html-keyboard-response","233","484702","0.0-15.0-0.95","1699","2","""event"",""trial"",""time""
""fullscreenenter"",""1"",""1797""
","
","
","""event"",""trial"",""time""
""fullscreenenter"",""1"",""1797""
","
","","","","","","null","<div style=""font-size:60px;"">+</div>","null","","fixation","","","","","","","","",""
"memory-trial","234","487989","0.0-15.0-1.95","1699","2","""event"",""trial"",""time""
""fullscreenenter"",""1"",""1797""
","
","
","""event"",""trial"",""time""
""fullscreenenter"",""1"",""1797""
","
","","","","","","2280.3000000044703","images/goat4.png","","","memory_trial","4","definitely_new","","","","","","",""
"html-keyboard-response","235","488494","0.0-15.0-0.96","1699","2","""event"",""trial"",""time""
""fullscreenenter"",""1"",""1797""
","
","
","""event"",""trial"",""time""
""fullscreenenter"",""1"",""1797""
","
","","","","","","null","<div style=""font-size:60px;"">+</div>","null","","fixation","","","","","","","","",""
"memory-trial","236","490479","0.0-15.0-1.96","1699","2","""event"",""trial"",""time""
""fullscreenenter"",""1"",""1797""
","
","
","""event"",""trial"",""time""
""fullscreenenter"",""1"",""1797""
","
","","","","","","978","images/goat3.png","","","memory_trial","1","definitely_old","","","","","","",""
"html-keyboard-response","237","490984","0.0-15.0-0.97","1699","2","""event"",""trial"",""time""
""fullscreenenter"",""1"",""1797""
","
","
","""event"",""trial"",""time""
""fullscreenenter"",""1"",""1797""
","
","","","","","","null","<div style=""font-size:60px;"">+</div>","null","","fixation","","","","","","","","",""
"memory-trial","238","493712","0.0-15.0-1.97","1699","2","""event"",""trial"",""time""
""fullscreenenter"",""1"",""1797""
","
","
","""event"",""trial"",""time""
""fullscreenenter"",""1"",""1797""
","
","","","","","","1724.2000000029802","images/truck2.png","","","memory_trial","3","maybe_new","","","","","","",""
"html-keyboard-response","239","494217","0.0-15.0-0.98","1699","2","""event"",""trial"",""time""
""fullscreenenter"",""1"",""1797""
","
","
","""event"",""trial"",""time""
""fullscreenenter"",""1"",""1797""
","
","","","","","","null","<div style=""font-size:60px;"">+</div>","null","","fixation","","","","","","","","",""
"memory-trial","240","496603","0.0-15.0-1.98","1699","2","""event"",""trial"",""time""
""fullscreenenter"",""1"",""1797""
","
","
","""event"",""trial"",""time""
""fullscreenenter"",""1"",""1797""
","
","","","","","","1380.1000000014901","images/dog2.png","","","memory_trial","4","definitely_new","","","","","","",""
"html-keyboard-response","241","497108","0.0-15.0-0.99","1699","2","""event"",""trial"",""time""
""fullscreenenter"",""1"",""1797""
","
","
","""event"",""trial"",""time""
""fullscreenenter"",""1"",""1797""
","
","","","","","","null","<div style=""font-size:60px;"">+</div>","null","","fixation","","","","","","","","",""
"memory-trial","242","502123","0.0-15.0-1.99","1699","2","""event"",""trial"",""time""
""fullscreenenter"",""1"",""1797""
","
","
","""event"",""trial"",""time""
""fullscreenenter"",""1"",""1797""
","
","","","","","","4010","images/sheep3.png","","","memory_trial","3","maybe_new","","","","","","",""
"html-keyboard-response","243","502629","0.0-15.0-0.100","1699","2","""event"",""trial"",""time""
""fullscreenenter"",""1"",""1797""
","
","
","""event"",""trial"",""time""
""fullscreenenter"",""1"",""1797""
","
","","","","","","null","<div style=""font-size:60px;"">+</div>","null","","fixation","","","","","","","","",""
"memory-trial","244","504521","0.0-15.0-1.100","1699","2","""event"",""trial"",""time""
""fullscreenenter"",""1"",""1797""
","
","
","""event"",""trial"",""time""
""fullscreenenter"",""1"",""1797""
","
","","","","","","889","images/bush2.png","","","memory_trial","4","definitely_new","","","","","","",""
"html-keyboard-response","245","505026","0.0-15.0-0.101","1699","2","""event"",""trial"",""time""
""fullscreenenter"",""1"",""1797""
","
","
","""event"",""trial"",""time""
""fullscreenenter"",""1"",""1797""
","
","","","","","","null","<div style=""font-size:60px;"">+</div>","null","","fixation","","","","","","","","",""
"memory-trial","246","508428","0.0-15.0-1.101","1699","2","""event"",""trial"",""time""
""fullscreenenter"",""1"",""1797""
","
","
","""event"",""trial"",""time""
""fullscreenenter"",""1"",""1797""
","
","","","","","","2398.8000000044703","images/banana3.png","","","memory_trial","3","maybe_new","","","","","","",""
"html-button-response","247","509684","0.0-15.0-2.101-0.101","1699","2","""event"",""trial"",""time""
""fullscreenenter"",""1"",""1797""
","
","
","""event"",""trial"",""time""
""fullscreenenter"",""1"",""1797""
","
","","","","","","1254.2999999970198","<p> Take a break! </p><p> Click the button to continue. </p>","0","","break","","","","","","","","",""
"html-keyboard-response","248","510187","0.0-15.0-0.102","1699","2","""event"",""trial"",""time""
""fullscreenenter"",""1"",""1797""
","
","
","""event"",""trial"",""time""
""fullscreenenter"",""1"",""1797""
","
","","","","","","null","<div style=""font-size:60px;"">+</div>","null","","fixation","","","","","","","","",""
"memory-trial","249","512776","0.0-15.0-1.102","1699","2","""event"",""trial"",""time""
""fullscreenenter"",""1"",""1797""
","
","
","""event"",""trial"",""time""
""fullscreenenter"",""1"",""1797""
","
","","","","","","1585.6000000014901","images/banana2.png","","","memory_trial","4","definitely_new","","","","","","",""
"html-keyboard-response","250","513281","0.0-15.0-0.103","1699","2","""event"",""trial"",""time""
""fullscreenenter"",""1"",""1797""
","
","
","""event"",""trial"",""time""
""fullscreenenter"",""1"",""1797""
","
","","","","","","null","<div style=""font-size:60px;"">+</div>","null","","fixation","","","","","","","","",""
"memory-trial","251","516619","0.0-15.0-1.103","1699","2","""event"",""trial"",""time""
""fullscreenenter"",""1"",""1797""
","
","
","""event"",""trial"",""time""
""fullscreenenter"",""1"",""1797""
","
","","","","","","2331.7000000029802","images/table2.png","","","memory_trial","4","definitely_new","","","","","","",""
"html-keyboard-response","252","517124","0.0-15.0-0.104","1699","2","""event"",""trial"",""time""
""fullscreenenter"",""1"",""1797""
","
","
","""event"",""trial"",""time""
""fullscreenenter"",""1"",""1797""
","
","","","","","","null","<div style=""font-size:60px;"">+</div>","null","","fixation","","","","","","","","",""
"memory-trial","253","519069","0.0-15.0-1.104","1699","2","""event"",""trial"",""time""
""fullscreenenter"",""1"",""1797""
","
","
","""event"",""trial"",""time""
""fullscreenenter"",""1"",""1797""
","
","","","","","","938.6000000014901","images/table1.png","","","memory_trial","1","definitely_old","","","","","","",""
"html-keyboard-response","254","519574","0.0-15.0-0.105","1699","2","""event"",""trial"",""time""
""fullscreenenter"",""1"",""1797""
","
","
","""event"",""trial"",""time""
""fullscreenenter"",""1"",""1797""
","
","","","","","","null","<div style=""font-size:60px;"">+</div>","null","","fixation","","","","","","","","",""
"memory-trial","255","521577","0.0-15.0-1.105","1699","2","""event"",""trial"",""time""
""fullscreenenter"",""1"",""1797""
","
","
","""event"",""trial"",""time""
""fullscreenenter"",""1"",""1797""
","
","","","","","","996.1000000014901","images/plane4.png","","","memory_trial","4","definitely_new","","","","","","",""
"html-keyboard-response","256","522081","0.0-15.0-0.106","1699","2","""event"",""trial"",""time""
""fullscreenenter"",""1"",""1797""
","
","
","""event"",""trial"",""time""
""fullscreenenter"",""1"",""1797""
","
","","","","","","null","<div style=""font-size:60px;"">+</div>","null","","fixation","","","","","","","","",""
"memory-trial","257","523713","0.0-15.0-1.106","1699","2","""event"",""trial"",""time""
""fullscreenenter"",""1"",""1797""
","
","
","""event"",""trial"",""time""
""fullscreenenter"",""1"",""1797""
","
","","","","","","627.2000000029802","images/plane3.png","","","memory_trial","4","definitely_new","","","","","","",""
"html-keyboard-response","258","524218","0.0-15.0-0.107","1699","2","""event"",""trial"",""time""
""fullscreenenter"",""1"",""1797""
","
","
","""event"",""trial"",""time""
""fullscreenenter"",""1"",""1797""
","
","","","","","","null","<div style=""font-size:60px;"">+</div>","null","","fixation","","","","","","","","",""
"memory-trial","259","525935","0.0-15.0-1.107","1699","2","""event"",""trial"",""time""
""fullscreenenter"",""1"",""1797""
","
","
","""event"",""trial"",""time""
""fullscreenenter"",""1"",""1797""
","
","","","","","","711.1999999955297","images/cow1.png","","","memory_trial","4","definitely_new","","","","","","",""
"html-keyboard-response","260","526441","0.0-15.0-0.108","1699","2","""event"",""trial"",""time""
""fullscreenenter"",""1"",""1797""
","
","
","""event"",""trial"",""time""
""fullscreenenter"",""1"",""1797""
","
","","","","","","null","<div style=""font-size:60px;"">+</div>","null","","fixation","","","","","","","","",""
"memory-trial","261","528702","0.0-15.0-1.108","1699","2","""event"",""trial"",""time""
""fullscreenenter"",""1"",""1797""
","
","
","""event"",""trial"",""time""
""fullscreenenter"",""1"",""1797""
","
","","","","","","1255.3999999985099","images/dog1.png","","","memory_trial","1","definitely_old","","","","","","",""
"html-keyboard-response","262","529204","0.0-15.0-0.109","1699","2","""event"",""trial"",""time""
""fullscreenenter"",""1"",""1797""
","
","
","""event"",""trial"",""time""
""fullscreenenter"",""1"",""1797""
","
","","","","","","null","<div style=""font-size:60px;"">+</div>","null","","fixation","","","","","","","","",""
"memory-trial","263","530859","0.0-15.0-1.109","1699","2","""event"",""trial"",""time""
""fullscreenenter"",""1"",""1797""
","
","
","""event"",""trial"",""time""
""fullscreenenter"",""1"",""1797""
","
","","","","","","650.1999999955297","images/bush5.png","","","memory_trial","4","definitely_new","","","","","","",""
"html-keyboard-response","264","531363","0.0-15.0-0.110","1699","2","""event"",""trial"",""time""
""fullscreenenter"",""1"",""1797""
","
","
","""event"",""trial"",""time""
""fullscreenenter"",""1"",""1797""
","
","","","","","","null","<div style=""font-size:60px;"">+</div>","null","","fixation","","","","","","","","",""
"memory-trial","265","533877","0.0-15.0-1.110","1699","2","""event"",""trial"",""time""
""fullscreenenter"",""1"",""1797""
","
","
","""event"",""trial"",""time""
""fullscreenenter"",""1"",""1797""
","
","","","","","","1509.1000000014901","images/tree3.png","","","memory_trial","2","maybe_old","","","","","","",""
"html-keyboard-response","266","534381","0.0-15.0-0.111","1699","2","""event"",""trial"",""time""
""fullscreenenter"",""1"",""1797""
","
","
","""event"",""trial"",""time""
""fullscreenenter"",""1"",""1797""
","
","","","","","","null","<div style=""font-size:60px;"">+</div>","null","","fixation","","","","","","","","",""
"memory-trial","267","537731","0.0-15.0-1.111","1699","2","""event"",""trial"",""time""
""fullscreenenter"",""1"",""1797""
","
","
","""event"",""trial"",""time""
""fullscreenenter"",""1"",""1797""
","
","","","","","","2344","images/flower5.png","","","memory_trial","1","definitely_old","","","","","","",""
"html-keyboard-response","268","538235","0.0-15.0-0.112","1699","2","""event"",""trial"",""time""
""fullscreenenter"",""1"",""1797""
","
","
","""event"",""trial"",""time""
""fullscreenenter"",""1"",""1797""
","
","","","","","","null","<div style=""font-size:60px;"">+</div>","null","","fixation","","","","","","","","",""
"memory-trial","269","541899","0.0-15.0-1.112","1699","2","""event"",""trial"",""time""
""fullscreenenter"",""1"",""1797""
","
","
","""event"",""trial"",""time""
""fullscreenenter"",""1"",""1797""
","
","","","","","","2657.7999999970198","images/orange3.png","","","memory_trial","2","maybe_old","","","","","","",""
"html-keyboard-response","270","542404","0.0-15.0-0.113","1699","2","""event"",""trial"",""time""
""fullscreenenter"",""1"",""1797""
","
","
","""event"",""trial"",""time""
""fullscreenenter"",""1"",""1797""
","
","","","","","","null","<div style=""font-size:60px;"">+</div>","null","","fixation","","","","","","","","",""
"memory-trial","271","545812","0.0-15.0-1.113","1699","2","""event"",""trial"",""time""
""fullscreenenter"",""1"",""1797""
","
","
","""event"",""trial"",""time""
""fullscreenenter"",""1"",""1797""
","
","","","","","","2402.7999999970198","images/plane2.png","","","memory_trial","4","definitely_new","","","","","","",""
"html-keyboard-response","272","546317","0.0-15.0-0.114","1699","2","""event"",""trial"",""time""
""fullscreenenter"",""1"",""1797""
","
","
","""event"",""trial"",""time""
""fullscreenenter"",""1"",""1797""
","
","","","","","","null","<div style=""font-size:60px;"">+</div>","null","","fixation","","","","","","","","",""
"memory-trial","273","550491","0.0-15.0-1.114","1699","2","""event"",""trial"",""time""
""fullscreenenter"",""1"",""1797""
","
","
","""event"",""trial"",""time""
""fullscreenenter"",""1"",""1797""
","
","","","","","","3170.39999999851","images/horse5.png","","","memory_trial","2","maybe_old","","","","","","",""
"html-keyboard-response","274","550996","0.0-15.0-0.115","1699","2","""event"",""trial"",""time""
""fullscreenenter"",""1"",""1797""
","
","
","""event"",""trial"",""time""
""fullscreenenter"",""1"",""1797""
","
","","","","","","null","<div style=""font-size:60px;"">+</div>","null","","fixation","","","","","","","","",""
"memory-trial","275","553156","0.0-15.0-1.115","1699","2","""event"",""trial"",""time""
""fullscreenenter"",""1"",""1797""
","
","
","""event"",""trial"",""time""
""fullscreenenter"",""1"",""1797""
","
","","","","","","1153.5","images/banana5.png","","","memory_trial","1","definitely_old","","","","","","",""
"html-keyboard-response","276","553661","0.0-15.0-0.116","1699","2","""event"",""trial"",""time""
""fullscreenenter"",""1"",""1797""
","
","
","""event"",""trial"",""time""
""fullscreenenter"",""1"",""1797""
","
","","","","","","null","<div style=""font-size:60px;"">+</div>","null","","fixation","","","","","","","","",""
"memory-trial","277","557475","0.0-15.0-1.116","1699","2","""event"",""trial"",""time""
""fullscreenenter"",""1"",""1797""
","
","
","""event"",""trial"",""time""
""fullscreenenter"",""1"",""1797""
","
","","","","","","2808.2999999970198","images/sofa5.png","","","memory_trial","3","maybe_new","","","","","","",""
"html-keyboard-response","278","557980","0.0-15.0-0.117","1699","2","""event"",""trial"",""time""
""fullscreenenter"",""1"",""1797""
","
","
","""event"",""trial"",""time""
""fullscreenenter"",""1"",""1797""
","
","","","","","","null","<div style=""font-size:60px;"">+</div>","null","","fixation","","","","","","","","",""
"memory-trial","279","559743","0.0-15.0-1.117","1699","2","""event"",""trial"",""time""
""fullscreenenter"",""1"",""1797""
","
","
","""event"",""trial"",""time""
""fullscreenenter"",""1"",""1797""
","
","","","","","","757.2000000029802","images/cow3.png","","","memory_trial","4","definitely_new","","","","","","",""
"html-keyboard-response","280","560250","0.0-15.0-0.118","1699","2","""event"",""trial"",""time""
""fullscreenenter"",""1"",""1797""
","
","
","""event"",""trial"",""time""
""fullscreenenter"",""1"",""1797""
","
","","","","","","null","<div style=""font-size:60px;"">+</div>","null","","fixation","","","","","","","","",""
"memory-trial","281","562183","0.0-15.0-1.118","1699","2","""event"",""trial"",""time""
""fullscreenenter"",""1"",""1797""
","
","
","""event"",""trial"",""time""
""fullscreenenter"",""1"",""1797""
","
","","","","","","928.6999999955297","images/train2.png","","","memory_trial","1","definitely_old","","","","","","",""
"html-keyboard-response","282","562687","0.0-15.0-0.119","1699","2","""event"",""trial"",""time""
""fullscreenenter"",""1"",""1797""
","
","
","""event"",""trial"",""time""
""fullscreenenter"",""1"",""1797""
","
","","","","","","null","<div style=""font-size:60px;"">+</div>","null","","fixation","","","","","","","","",""
"memory-trial","283","567076","0.0-15.0-1.119","1699","2","""event"",""trial"",""time""
""fullscreenenter"",""1"",""1797""
","
","
","""event"",""trial"",""time""
""fullscreenenter"",""1"",""1797""
","
","","","","","","3383","images/rabbit1.png","","","memory_trial","3","maybe_new","","","","","","",""
"preload","284","571881","0.0-16.0","1699","2","""event"",""trial"",""time""
""fullscreenenter"",""1"",""1797""
","
","
","""event"",""trial"",""time""
""fullscreenenter"",""1"",""1797""
","
","true","false","[]","[]","[]","","","","","","","","","","","","","",""
"learning-instructions","285","577129","0.0-17.0-0.0-0.0-0.0","1699","2","""event"",""trial"",""time""
""fullscreenenter"",""1"",""1797""
","
","
","""event"",""trial"",""time""
""fullscreenenter"",""1"",""1797""
","
","","","","","","1795.8999999985099","<p> We're now going to ask you to deliver furniture again. </p>","","0","instructions","","","","","","","","",""
"learning-instructions","286","583784","0.0-17.0-0.0-0.0-0.1","1699","2","""event"",""trial"",""time""
""fullscreenenter"",""1"",""1797""
","
","
","""event"",""trial"",""time""
""fullscreenenter"",""1"",""1797""
","
","","","","","","364.70000000298023","<p> On each trial, you will see a furniture item. Select the building where you think the furniture item belongs. </p>","","0","instructions","","","","","","","","",""
"learning-instructions","287","591274","0.0-17.0-0.0-0.0-0.2","1699","2","""event"",""trial"",""time""
""fullscreenenter"",""1"",""1797""
","
","
","""event"",""trial"",""time""
""fullscreenenter"",""1"",""1797""
","
","","","","","","430.59999999403954","<p> To make your selection, think about what you learned last week. You will NOT receive any feedback about your choice. </p>","","0","instructions","","","","","","","","",""
"learning-instructions","288","601057","0.0-17.0-0.0-0.0-0.3","1699","2","""event"",""trial"",""time""
""fullscreenenter"",""1"",""1797""
","
","
","""event"",""trial"",""time""
""fullscreenenter"",""1"",""1797""
","
","","","","","","1505","<p> You should use the 1 key to select the building on the left, the 2 key to select the building in the middle, and the 3 key to select the building on the right. </p><br><div class=""choice-mem-instructions-grid""> <div class=""choice-mem-option""><img src=""images/furniture_choice1.png"" class=""choice-mem-option-img"" stage=""instructions"" position=""0"" ><div class=""choice-mem-option-text""> Press ""1."" </div></div><div class=""choice-mem-option""><img src=""images/furniture_choice2.png"" class=""choice-mem-option-img"" stage=""instructions"" position=""1"" ><div class=""choice-mem-option-text""> Press ""2."" </div></div><div class=""choice-mem-option""><img src=""images/furniture_choice3.png"" class=""choice-mem-option-img"" stage=""instructions"" position=""2"" ><div class=""choice-mem-option-text""> Press ""3."" </div></div></div>","","0","instructions","","","","","","","","",""
"learning-instructions","289","608797","0.0-17.0-0.0-0.0-0.4","1699","2","""event"",""trial"",""time""
""fullscreenenter"",""1"",""1797""
","
","
","""event"",""trial"",""time""
""fullscreenenter"",""1"",""1797""
","
","","","","","","1472","<p> You will have 10 seconds to make each selection. Try to respond before time runs out! </p>","","0","instructions","","","","","","","","",""
"learning-instructions","290","613297","0.0-17.0-0.0-1.0","1699","2","""event"",""trial"",""time""
""fullscreenenter"",""1"",""1797""
","
","
","""event"",""trial"",""time""
""fullscreenenter"",""1"",""1797""
","
","","","","","","2442.2999999970198","<p> You are now ready to begin the game. </p>","","0","instructions","","","","","","","","",""
"html-keyboard-response","291","613904","0.0-17.0-0.0-2.0-0.0","1699","2","""event"",""trial"",""time""
""fullscreenenter"",""1"",""1797""
","
","
","""event"",""trial"",""time""
""fullscreenenter"",""1"",""1797""
","
","","","","","","null","<div style=""font-size:60px;"">+</div>","null","","fixation","","","","","","","","",""
"choice-memory-trial","292","616206","0.0-17.0-0.0-2.0-1.0","1699","2","""event"",""trial"",""time""
""fullscreenenter"",""1"",""1797""
","
","
","""event"",""trial"",""time""
""fullscreenenter"",""1"",""1797""
","
