"trial_type","trial_index","time_elapsed","internal_node_id","subject_id","task_version","interactions","blur_events","focus_events","fullscreenenter_events","fullscreenexit_events","success","timeout","failed_images","failed_audio","failed_video","rt","stimulus","response","button_pressed","task_part","key_press","answer","correct","left_choice","middle_choice","right_choice","choice_positions","option_selected","block"
"pavlovia","0","11","0.0-0.0","1686","2","""event"",""trial"",""time""
""fullscreenenter"",""1"",""4283""
","
","
","""event"",""trial"",""time""
""fullscreenenter"",""1"",""4283""
","
","","","","","","","","","","","","","","","","","","",""
"fullscreen","1","5260","0.0-1.0","1686","2","""event"",""trial"",""time""
""fullscreenenter"",""1"",""4283""
","
","
","""event"",""trial"",""time""
""fullscreenenter"",""1"",""4283""
","
","true","","","","","","","","","","","","","","","","","",""
"preload","2","5940","0.0-2.0","1686","2","""event"",""trial"",""time""
""fullscreenenter"",""1"",""4283""
","
","
","""event"",""trial"",""time""
""fullscreenenter"",""1"",""4283""
","
","true","false","[]","[]","[]","","","","","","","","","","","","","",""
"audio-keyboard-response","3","8827","0.0-3.0","1686","2","""event"",""trial"",""time""
""fullscreenenter"",""1"",""4283""
","
","
","""event"",""trial"",""time""
""fullscreenenter"",""1"",""4283""
","
","","","","","","2880","audio/beep_loop.wav","audiovolumeup","","","","","","","","","","",""
"audio-button-response","4","12171","0.0-4.0","1686","2","""event"",""trial"",""time""
""fullscreenenter"",""1"",""4283""
","
","
","""event"",""trial"",""time""
""fullscreenenter"",""1"",""4283""
","
","","","","","","3331","audio/turtle.wav","3","","","","","","","","","","",""
"audio-button-response","5","15650","0.0-5.0","1686","2","""event"",""trial"",""time""
""fullscreenenter"",""1"",""4283""
","
","
","""event"",""trial"",""time""
""fullscreenenter"",""1"",""4283""
","
","","","","","","2469","audio/shark.wav","2","","","","","","","","","","",""
"preload","6","18720","0.0-6.0","1686","2","""event"",""trial"",""time""
""fullscreenenter"",""1"",""4283""
","
","
","""event"",""trial"",""time""
""fullscreenenter"",""1"",""4283""
","
","true","false","[]","[]","[]","","","","","","","","","","","","","",""
"learning-instructions","7","28814","0.0-7.0-0.0","1686","2","""event"",""trial"",""time""
""fullscreenenter"",""1"",""4283""
","
","
","""event"",""trial"",""time""
""fullscreenenter"",""1"",""4283""
","
","","","","","","5280.5","<p> Welcome back! </p><p> Last week, you had to make choices about lots of different items.  </p>","","0","instructions","","","","","","","","",""
"learning-instructions","8","34155","0.0-7.0-0.1","1686","2","""event"",""trial"",""time""
""fullscreenenter"",""1"",""4283""
","
","
","""event"",""trial"",""time""
""fullscreenenter"",""1"",""4283""
","
","","","","","","1030.7000000476837","<p> Today, we are going to ask you to try to remember all the items. </p>","","0","instructions","","","","","","","","",""
"learning-instructions","9","44941","0.0-7.0-0.2","1686","2","""event"",""trial"",""time""
""fullscreenenter"",""1"",""4283""
","
","
","""event"",""trial"",""time""
""fullscreenenter"",""1"",""4283""
","
","","","","","","647.5","<p> On every trial, you will see an image. </p><p> The image may be an OLD image you saw during the games last week or it may be a NEW image that was not presented. </p>","","0","instructions","","","","","","","","",""
"learning-instructions","10","54372","0.0-7.0-0.3","1686","2","""event"",""trial"",""time""
""fullscreenenter"",""1"",""4283""
","
","
","""event"",""trial"",""time""
""fullscreenenter"",""1"",""4283""
","
","","","","","","928.2000000476837","<p> You need to select whether the image is:  </p><p>  'Definitely old', 'Maybe old', 'Maybe new', or 'Definitely new.'  </p><div class=""mem-choice-instructions-grid""><div class=""choice-option"" id=""choice-option-1"" ><img src=""images/definitely_old_1.png"" id=""choice-option-img-1"" class=""choice-option-img"" stage=""1""></div><div class=""choice-option"" id=""choice-option-2"" ><img src=""images/maybe_old_1.png"" id=""choice-option-img-2"" class=""choice-option-img"" stage=""1""></div><div class=""choice-option"" id=""choice-option-3"" ><img src=""images/maybe_new_1.png"" id=""choice-option-img-3"" class=""choice-option-img"" stage=""1""></div><div class=""choice-option"" id=""choice-option-4"" > <img src=""images/definitely_new_1.png"" id=""choice-option-img-4"" class=""choice-option-img"" stage=""1""></div></div>","","0","instructions","","","","","","","","",""
"learning-instructions","11","63128","0.0-7.0-0.4","1686","2","""event"",""trial"",""time""
""fullscreenenter"",""1"",""4283""
","
","
","""event"",""trial"",""time""
""fullscreenenter"",""1"",""4283""
","
","","","","","","2056.2999999523163","<p> You should use the 1, 2, 3, and 4 keys to make your responses.  </p><div class=""mem-choice-instructions-grid""><div class=""choice-option"" id=""choice-option-1"" ><img src=""images/definitely_old.png"" id=""choice-option-img-1"" class=""choice-option-img"" stage=""1""></div><div class=""choice-option"" id=""choice-option-2"" ><img src=""images/maybe_old.png"" id=""choice-option-img-2"" class=""choice-option-img"" stage=""1""></div><div class=""choice-option"" id=""choice-option-3"" ><img src=""images/maybe_new.png"" id=""choice-option-img-3"" class=""choice-option-img"" stage=""1""></div><div class=""choice-option"" id=""choice-option-4"" > <img src=""images/definitely_new.png"" id=""choice-option-img-4"" class=""choice-option-img"" stage=""1""></div></div>","","0","instructions","","","","","","","","",""
"learning-instructions","12","71364","0.0-7.0-0.5","1686","2","""event"",""trial"",""time""
""fullscreenenter"",""1"",""4283""
","
","
","""event"",""trial"",""time""
""fullscreenenter"",""1"",""4283""
","
","","","","","","1472.0999999046326","<p> You will have 10 seconds to make each response.  </p><p>  Make sure to respond before time runs out! </p>","","0","instructions","","","","","","","","",""
"learning-instructions","13","101425","0.0-7.0-0.6","1686","2","""event"",""trial"",""time""
""fullscreenenter"",""1"",""4283""
","
","
","""event"",""trial"",""time""
""fullscreenenter"",""1"",""4283""
","
","","","","","","22473.299999952316","<p> Today, you will see each image ONCE only.  </p><p>  That means none of the images will repeat. </p>","","0","instructions","","","","","","","","",""
"learning-instructions","14","115038","0.0-7.0-0.7","1686","2","""event"",""trial"",""time""
""fullscreenenter"",""1"",""4283""
","
","
","""event"",""trial"",""time""
""fullscreenenter"",""1"",""4283""
","
","","","","","","907","<p> Before you play the real game, it is time to practice. </p><p>  Just like in the real game, some of the images in the practice will be ones you have seen before. </p><p>  Others will be entirely new. </p>","","0","instructions","","","","","","","","",""
"html-button-response","15","116848","0.0-8.0","1686","2","""event"",""trial"",""time""
""fullscreenenter"",""1"",""4283""
","
","
","""event"",""trial"",""time""
""fullscreenenter"",""1"",""4283""
","
","","","","","","1702.3000000715256","<p> Ready to practice? </p><p> Remember, use the 1, 2, 3, and 4 keys to make your responses. </p>","0","","instructions","","","","","","","","",""
"html-keyboard-response","16","117459","0.0-9.0-0.0","1686","2","""event"",""trial"",""time""
""fullscreenenter"",""1"",""4283""
","
","
","""event"",""trial"",""time""
""fullscreenenter"",""1"",""4283""
","
","","","","","","null","<div style=""font-size:60px;"">+</div>","null","","fixation","","","","","","","","",""
"memory-trial","17","121577","0.0-9.0-1.0","1686","2","""event"",""trial"",""time""
""fullscreenenter"",""1"",""4283""
","
","
","""event"",""trial"",""time""
""fullscreenenter"",""1"",""4283""
","
","","","","","","3106.9000000953674","images/racket3.png","","","practice","1","definitely_old","","","","","","",""
"html-keyboard-response","18","122084","0.0-9.0-0.1","1686","2","""event"",""trial"",""time""
""fullscreenenter"",""1"",""4283""
","
","
","""event"",""trial"",""time""
""fullscreenenter"",""1"",""4283""
","
","","","","","","null","<div style=""font-size:60px;"">+</div>","null","","fixation","","","","","","","","",""
"memory-trial","19","124145","0.0-9.0-1.1","1686","2","""event"",""trial"",""time""
""fullscreenenter"",""1"",""4283""
","
","
","""event"",""trial"",""time""
""fullscreenenter"",""1"",""4283""
","
","","","","","","1052.2000000476837","images/ball1.png","","","practice","4","definitely_new","","","","","","",""
"html-keyboard-response","20","124647","0.0-9.0-0.2","1686","2","""event"",""trial"",""time""
""fullscreenenter"",""1"",""4283""
","
","
","""event"",""trial"",""time""
""fullscreenenter"",""1"",""4283""
","
","","","","","","null","<div style=""font-size:60px;"">+</div>","null","","fixation","","","","","","","","",""
"memory-trial","21","126697","0.0-9.0-1.2","1686","2","""event"",""trial"",""time""
""fullscreenenter"",""1"",""4283""
","
","
","""event"",""trial"",""time""
""fullscreenenter"",""1"",""4283""
","
","","","","","","1040.2000000476837","images/racket4.png","","","practice","4","definitely_new","","","","","","",""
"html-keyboard-response","22","127207","0.0-9.0-0.3","1686","2","""event"",""trial"",""time""
""fullscreenenter"",""1"",""4283""
","
","
","""event"",""trial"",""time""
""fullscreenenter"",""1"",""4283""
","
","","","","","","null","<div style=""font-size:60px;"">+</div>","null","","fixation","","","","","","","","",""
"memory-trial","23","130402","0.0-9.0-1.3","1686","2","""event"",""trial"",""time""
""fullscreenenter"",""1"",""4283""
","
","
","""event"",""trial"",""time""
""fullscreenenter"",""1"",""4283""
","
","","","","","","2190.2000000476837","images/racket2.png","","","practice","1","definitely_old","","","","","","",""
"html-keyboard-response","24","130905","0.0-9.0-0.4","1686","2","""event"",""trial"",""time""
""fullscreenenter"",""1"",""4283""
","
","
","""event"",""trial"",""time""
""fullscreenenter"",""1"",""4283""
","
","","","","","","null","<div style=""font-size:60px;"">+</div>","null","","fixation","","","","","","","","",""
"memory-trial","25","134828","0.0-9.0-1.4","1686","2","""event"",""trial"",""time""
""fullscreenenter"",""1"",""4283""
","
","
","""event"",""trial"",""time""
""fullscreenenter"",""1"",""4283""
","
","","","","","","2914.100000023842","images/ball4.png","","","practice","1","definitely_old","","","","","","",""
"html-keyboard-response","26","135332","0.0-9.0-0.5","1686","2","""event"",""trial"",""time""
""fullscreenenter"",""1"",""4283""
","
","
","""event"",""trial"",""time""
""fullscreenenter"",""1"",""4283""
","
","","","","","","null","<div style=""font-size:60px;"">+</div>","null","","fixation","","","","","","","","",""
"memory-trial","27","138111","0.0-9.0-1.5","1686","2","""event"",""trial"",""time""
""fullscreenenter"",""1"",""4283""
","
","
","""event"",""trial"",""time""
""fullscreenenter"",""1"",""4283""
","
","","","","","","1770.8000000715256","images/racket1.png","","","practice","1","definitely_old","","","","","","",""
"html-keyboard-response","28","138623","0.0-9.0-0.6","1686","2","""event"",""trial"",""time""
""fullscreenenter"",""1"",""4283""
","
","
","""event"",""trial"",""time""
""fullscreenenter"",""1"",""4283""
","
","","","","","","null","<div style=""font-size:60px;"">+</div>","null","","fixation","","","","","","","","",""
"memory-trial","29","140894","0.0-9.0-1.6","1686","2","""event"",""trial"",""time""
""fullscreenenter"",""1"",""4283""
","
","
","""event"",""trial"",""time""
""fullscreenenter"",""1"",""4283""
","
","","","","","","1263.7000000476837","images/ball2.png","","","practice","1","definitely_old","","","","","","",""
"html-keyboard-response","30","141406","0.0-9.0-0.7","1686","2","""event"",""trial"",""time""
""fullscreenenter"",""1"",""4283""
","
","
","""event"",""trial"",""time""
""fullscreenenter"",""1"",""4283""
","
","","","","","","null","<div style=""font-size:60px;"">+</div>","null","","fixation","","","","","","","","",""
"memory-trial","31","144120","0.0-9.0-1.7","1686","2","""event"",""trial"",""time""
""fullscreenenter"",""1"",""4283""
","
","
","""event"",""trial"",""time""
""fullscreenenter"",""1"",""4283""
","
","","","","","","1695.6000000238419","images/ball3.png","","","practice","1","definitely_old","","","","","","",""
"learning-instructions","32","153905","0.0-10.0-0.0","1686","2","""event"",""trial"",""time""
""fullscreenenter"",""1"",""4283""
","
","
","""event"",""trial"",""time""
""fullscreenenter"",""1"",""4283""
","
","","","","","","1833","<p> Great! You have completed the practice. </p><p> Before you start, we're going to ask you a few questions about how the game works.  </p>","","0","instructions","","","","","","","","",""
"preload","33","155490","0.0-11.0","1686","2","""event"",""trial"",""time""
""fullscreenenter"",""1"",""4283""
","
","
","""event"",""trial"",""time""
""fullscreenenter"",""1"",""4283""
","
","true","false","[]","[]","[]","","","","","","","","","","","","","",""
"comp-q","34","163043","0.0-12.0-0.0","1686","2","""event"",""trial"",""time""
""fullscreenenter"",""1"",""4283""
","
","
","""event"",""trial"",""time""
""fullscreenenter"",""1"",""4283""
","
","","","","","","1720","<p> <b> True or False? </b> </p><p> In this game, you will only see each image once. </p>","","0","comp_question","","","true","","","","","",""
"comp-q","35","171069","0.0-12.0-1.0","1686","2","""event"",""trial"",""time""
""fullscreenenter"",""1"",""4283""
","
","
","""event"",""trial"",""time""
""fullscreenenter"",""1"",""4283""
","
","","","","","","1687","<p> <b> That's right! </b> You will see many different images <i> one time each </i> in this game. </p>","","0","comp_answer","","","","","","","","",""
"comp-q","36","178119","0.0-12.0-0.1","1686","2","""event"",""trial"",""time""
""fullscreenenter"",""1"",""4283""
","
","
","""event"",""trial"",""time""
""fullscreenenter"",""1"",""4283""
","
","","","","","","1246.5","<p> <b> True or False? </b> </p><p> You should use the mouse and click to make your response. </p>","","1","comp_question","","","true","","","","","",""
"comp-q","37","186925","0.0-12.0-1.1","1686","2","""event"",""trial"",""time""
""fullscreenenter"",""1"",""4283""
","
","
","""event"",""trial"",""time""
""fullscreenenter"",""1"",""4283""
","
","","","","","","1453.5","<p><b> That's right! </b> You should use the '1', '2', '3', and '4' keys to make your response. </p>","","0","comp_answer","","","","","","","","",""
"comp-q","38","193831","0.0-12.0-0.2","1686","2","""event"",""trial"",""time""
""fullscreenenter"",""1"",""4283""
","
","
","""event"",""trial"",""time""
""fullscreenenter"",""1"",""4283""
","
","","","","","","908.5","<p> <b> True or False? </b> </p><p> You will have as much time as you want to make each choice. </p>","","1","comp_question","","","true","","","","","",""
"comp-q","39","200349","0.0-12.0-1.2","1686","2","""event"",""trial"",""time""
""fullscreenenter"",""1"",""4283""
","
","
","""event"",""trial"",""time""
""fullscreenenter"",""1"",""4283""
","
","","","","","","1126.3999999761581","<p> <b> That's right! </b> You will only have 10 seconds to make each choice. </p>","","0","comp_answer","","","","","","","","",""
"learning-instructions","40","211811","0.0-13.0","1686","2","""event"",""trial"",""time""
""fullscreenenter"",""1"",""4283""
","
","
","""event"",""trial"",""time""
""fullscreenenter"",""1"",""4283""
","
","","","","","","2788.7000000476837","<p> Great! You are now ready to begin the game. </p><p> Remember, use the 1, 2, 3, and 4 keys to make your responses. </p>","","0","instructions","","","","","","","","",""
"preload","41","214705","0.0-14.0","1686","2","""event"",""trial"",""time""
""fullscreenenter"",""1"",""4283""
","
","
","""event"",""trial"",""time""
""fullscreenenter"",""1"",""4283""
","
","true","false","[]","[]","[]","","","","","","","","","","","","","",""
"html-keyboard-response","42","215210","0.0-15.0-0.0","1686","2","""event"",""trial"",""time""
""fullscreenenter"",""1"",""4283""
","
","
","""event"",""trial"",""time""
""fullscreenenter"",""1"",""4283""
","
","","","","","","null","<div style=""font-size:60px;"">+</div>","null","","fixation","","","","","","","","",""
"memory-trial","43","218021","0.0-15.0-1.0","1686","2","""event"",""trial"",""time""
""fullscreenenter"",""1"",""4283""
","
","
","""event"",""trial"",""time""
""fullscreenenter"",""1"",""4283""
","
","","","","","","1792.3999999761581","images/apple3.png","","","memory_trial","2","maybe_old","","","","","","",""
"html-keyboard-response","44","218531","0.0-15.0-0.1","1686","2","""event"",""trial"",""time""
""fullscreenenter"",""1"",""4283""
","
","
","""event"",""trial"",""time""
""fullscreenenter"",""1"",""4283""
","
","","","","","","null","<div style=""font-size:60px;"">+</div>","null","","fixation","","","","","","","","",""
"memory-trial","45","221424","0.0-15.0-1.1","1686","2","""event"",""trial"",""time""
""fullscreenenter"",""1"",""4283""
","
","
","""event"",""trial"",""time""
""fullscreenenter"",""1"",""4283""
","
","","","","","","1877","images/flower4.png","","","memory_trial","2","maybe_old","","","","","","",""
"html-keyboard-response","46","221935","0.0-15.0-0.2","1686","2","""event"",""trial"",""time""
""fullscreenenter"",""1"",""4283""
","
","
","""event"",""trial"",""time""
""fullscreenenter"",""1"",""4283""
","
","","","","","","null","<div style=""font-size:60px;"">+</div>","null","","fixation","","","","","","","","",""
"memory-trial","47","225453","0.0-15.0-1.2","1686","2","""event"",""trial"",""time""
""fullscreenenter"",""1"",""4283""
","
","
","""event"",""trial"",""time""
""fullscreenenter"",""1"",""4283""
","
","","","","","","2505.7000000476837","images/chair1.png","","","memory_trial","3","maybe_new","","","","","","",""
"html-keyboard-response","48","225961","0.0-15.0-0.3","1686","2","""event"",""trial"",""time""
""fullscreenenter"",""1"",""4283""
","
","
","""event"",""trial"",""time""
""fullscreenenter"",""1"",""4283""
","
","","","","","","null","<div style=""font-size:60px;"">+</div>","null","","fixation","","","","","","","","",""
"memory-trial","49","229027","0.0-15.0-1.3","1686","2","""event"",""trial"",""time""
""fullscreenenter"",""1"",""4283""
","
","
","""event"",""trial"",""time""
""fullscreenenter"",""1"",""4283""
","
","","","","","","2050","images/orange2.png","","","memory_trial","3","maybe_new","","","","","","",""
"html-keyboard-response","50","229539","0.0-15.0-0.4","1686","2","""event"",""trial"",""time""
""fullscreenenter"",""1"",""4283""
","
","
","""event"",""trial"",""time""
""fullscreenenter"",""1"",""4283""
","
","","","","","","null","<div style=""font-size:60px;"">+</div>","null","","fixation","","","","","","","","",""
"memory-trial","51","232584","0.0-15.0-1.4","1686","2","""event"",""trial"",""time""
""fullscreenenter"",""1"",""4283""
","
","
","""event"",""trial"",""time""
""fullscreenenter"",""1"",""4283""
","
","","","","","","2035.8999999761581","images/rabbit5.png","","","memory_trial","2","maybe_old","","","","","","",""
"html-keyboard-response","52","233095","0.0-15.0-0.5","1686","2","""event"",""trial"",""time""
""fullscreenenter"",""1"",""4283""
","
","
","""event"",""trial"",""time""
""fullscreenenter"",""1"",""4283""
","
","","","","","","null","<div style=""font-size:60px;"">+</div>","null","","fixation","","","","","","","","",""
"memory-trial","53","236071","0.0-15.0-1.5","1686","2","""event"",""trial"",""time""
""fullscreenenter"",""1"",""4283""
","
","
","""event"",""trial"",""time""
""fullscreenenter"",""1"",""4283""
","
","","","","","","1964.1000000238419","images/boat1.png","","","memory_trial","4","definitely_new","","","","","","",""
"html-keyboard-response","54","236582","0.0-15.0-0.6","1686","2","""event"",""trial"",""time""
""fullscreenenter"",""1"",""4283""
","
","
","""event"",""trial"",""time""
""fullscreenenter"",""1"",""4283""
","
","","","","","","null","<div style=""font-size:60px;"">+</div>","null","","fixation","","","","","","","","",""
"memory-trial","55","238736","0.0-15.0-1.6","1686","2","""event"",""trial"",""time""
""fullscreenenter"",""1"",""4283""
","
","
","""event"",""trial"",""time""
""fullscreenenter"",""1"",""4283""
","
","","","","","","1144","images/bush2.png","","","memory_trial","4","definitely_new","","","","","","",""
"html-keyboard-response","56","239239","0.0-15.0-0.7","1686","2","""event"",""trial"",""time""
""fullscreenenter"",""1"",""4283""
","
","
","""event"",""trial"",""time""
""fullscreenenter"",""1"",""4283""
","
","","","","","","null","<div style=""font-size:60px;"">+</div>","null","","fixation","","","","","","","","",""
"memory-trial","57","242579","0.0-15.0-1.7","1686","2","""event"",""trial"",""time""
""fullscreenenter"",""1"",""4283""
","
","
","""event"",""trial"",""time""
""fullscreenenter"",""1"",""4283""
","
","","","","","","2335.100000023842","images/table5.png","","","memory_trial","1","definitely_old","","","","","","",""
"html-keyboard-response","58","243082","0.0-15.0-0.8","1686","2","""event"",""trial"",""time""
""fullscreenenter"",""1"",""4283""
","
","
","""event"",""trial"",""time""
""fullscreenenter"",""1"",""4283""
","
","","","","","","null","<div style=""font-size:60px;"">+</div>","null","","fixation","","","","","","","","",""
"memory-trial","59","245280","0.0-15.0-1.8","1686","2","""event"",""trial"",""time""
""fullscreenenter"",""1"",""4283""
","
","
","""event"",""trial"",""time""
""fullscreenenter"",""1"",""4283""
","
","","","","","","1192.7999999523163","images/horse1.png","","","memory_trial","4","definitely_new","","","","","","",""
"html-keyboard-response","60","245785","0.0-15.0-0.9","1686","2","""event"",""trial"",""time""
""fullscreenenter"",""1"",""4283""
","
","
","""event"",""trial"",""time""
""fullscreenenter"",""1"",""4283""
","
","","","","","","null","<div style=""font-size:60px;"">+</div>","null","","fixation","","","","","","","","",""
"memory-trial","61","248234","0.0-15.0-1.9","1686","2","""event"",""trial"",""time""
""fullscreenenter"",""1"",""4283""
","
","
","""event"",""trial"",""time""
""fullscreenenter"",""1"",""4283""
","
","","","","","","1441.6000000238419","images/plane2.png","","","memory_trial","1","definitely_old","","","","","","",""
"html-keyboard-response","62","248736","0.0-15.0-0.10","1686","2","""event"",""trial"",""time""
""fullscreenenter"",""1"",""4283""
","
","
","""event"",""trial"",""time""
""fullscreenenter"",""1"",""4283""
","
","","","","","","null","<div style=""font-size:60px;"">+</div>","null","","fixation","","","","","","","","",""
"memory-trial","63","251301","0.0-15.0-1.10","1686","2","""event"",""trial"",""time""
""fullscreenenter"",""1"",""4283""
","
","
","""event"",""trial"",""time""
""fullscreenenter"",""1"",""4283""
","
","","","","","","1558.5999999046326","images/tree4.png","","","memory_trial","4","definitely_new","","","","","","",""
"html-keyboard-response","64","251803","0.0-15.0-0.11","1686","2","""event"",""trial"",""time""
""fullscreenenter"",""1"",""4283""
","
","
","""event"",""trial"",""time""
""fullscreenenter"",""1"",""4283""
","
","","","","","","null","<div style=""font-size:60px;"">+</div>","null","","fixation","","","","","","","","",""
"memory-trial","65","256000","0.0-15.0-1.11","1686","2","""event"",""trial"",""time""
""fullscreenenter"",""1"",""4283""
","
","
","""event"",""trial"",""time""
""fullscreenenter"",""1"",""4283""
","
","","","","","","3190.3000000715256","images/train1.png","","","memory_trial","3","maybe_new","","","","","","",""
"html-keyboard-response","66","256503","0.0-15.0-0.12","1686","2","""event"",""trial"",""time""
""fullscreenenter"",""1"",""4283""
","
","
","""event"",""trial"",""time""
""fullscreenenter"",""1"",""4283""
","
","","","","","","null","<div style=""font-size:60px;"">+</div>","null","","fixation","","","","","","","","",""
"memory-trial","67","259437","0.0-15.0-1.12","1686","2","""event"",""trial"",""time""
""fullscreenenter"",""1"",""4283""
","
","
","""event"",""trial"",""time""
""fullscreenenter"",""1"",""4283""
","
","","","","","","1928.7000000476837","images/bed4.png","","","memory_trial","2","maybe_old","","","","","","",""
"html-keyboard-response","68","259941","0.0-15.0-0.13","1686","2","""event"",""trial"",""time""
""fullscreenenter"",""1"",""4283""
","
","
","""event"",""trial"",""time""
""fullscreenenter"",""1"",""4283""
","
","","","","","","null","<div style=""font-size:60px;"">+</div>","null","","fixation","","","","","","","","",""
"memory-trial","69","264570","0.0-15.0-1.13","1686","2","""event"",""trial"",""time""
""fullscreenenter"",""1"",""4283""
","
","
","""event"",""trial"",""time""
""fullscreenenter"",""1"",""4283""
","
","","","","","","3622.9000000953674","images/apple1.png","","","memory_trial","2","maybe_old","","","","","","",""
"html-keyboard-response","70","265074","0.0-15.0-0.14","1686","2","""event"",""trial"",""time""
""fullscreenenter"",""1"",""4283""
","
","
","""event"",""trial"",""time""
""fullscreenenter"",""1"",""4283""
","
","","","","","","null","<div style=""font-size:60px;"">+</div>","null","","fixation","","","","","","","","",""
"memory-trial","71","269004","0.0-15.0-1.14","1686","2","""event"",""trial"",""time""
""fullscreenenter"",""1"",""4283""
","
","
","""event"",""trial"",""time""
""fullscreenenter"",""1"",""4283""
","
","","","","","","2927.4000000953674","images/straw1.png","","","memory_trial","3","maybe_new","","","","","","",""
"html-keyboard-response","72","269506","0.0-15.0-0.15","1686","2","""event"",""trial"",""time""
""fullscreenenter"",""1"",""4283""
","
","
","""event"",""trial"",""time""
""fullscreenenter"",""1"",""4283""
","
","","","","","","null","<div style=""font-size:60px;"">+</div>","null","","fixation","","","","","","","","",""
"memory-trial","73","273278","0.0-15.0-1.15","1686","2","""event"",""trial"",""time""
""fullscreenenter"",""1"",""4283""
","
","
","""event"",""trial"",""time""
""fullscreenenter"",""1"",""4283""
","
","","","","","","2764.6999999284744","images/dog2.png","","","memory_trial","1","definitely_old","","","","","","",""
"html-keyboard-response","74","273780","0.0-15.0-0.16","1686","2","""event"",""trial"",""time""
""fullscreenenter"",""1"",""4283""
","
","
","""event"",""trial"",""time""
""fullscreenenter"",""1"",""4283""
","
","","","","","","null","<div style=""font-size:60px;"">+</div>","null","","fixation","","","","","","","","",""
"memory-trial","75","276714","0.0-15.0-1.16","1686","2","""event"",""trial"",""time""
""fullscreenenter"",""1"",""4283""
","
","
","""event"",""trial"",""time""
""fullscreenenter"",""1"",""4283""
","
","","","","","","1927.1000000238419","images/rodent5.png","","","memory_trial","4","definitely_new","","","","","","",""
"html-keyboard-response","76","277216","0.0-15.0-0.17","1686","2","""event"",""trial"",""time""
""fullscreenenter"",""1"",""4283""
","
","
","""event"",""trial"",""time""
""fullscreenenter"",""1"",""4283""
","
","","","","","","null","<div style=""font-size:60px;"">+</div>","null","","fixation","","","","","","","","",""
"memory-trial","77","280424","0.0-15.0-1.17","1686","2","""event"",""trial"",""time""
""fullscreenenter"",""1"",""4283""
","
","
","""event"",""trial"",""time""
""fullscreenenter"",""1"",""4283""
","
","","","","","","2203","images/sofa4.png","","","memory_trial","3","maybe_new","","","","","","",""
"html-keyboard-response","78","280927","0.0-15.0-0.18","1686","2","""event"",""trial"",""time""
""fullscreenenter"",""1"",""4283""
","
","
","""event"",""trial"",""time""
""fullscreenenter"",""1"",""4283""
","
","","","","","","null","<div style=""font-size:60px;"">+</div>","null","","fixation","","","","","","","","",""
"memory-trial","79","283213","0.0-15.0-1.18","1686","2","""event"",""trial"",""time""
""fullscreenenter"",""1"",""4283""
","
","
","""event"",""trial"",""time""
""fullscreenenter"",""1"",""4283""
","
","","","","","","1281.1999999284744","images/bed2.png","","","memory_trial","2","maybe_old","","","","","","",""
"html-keyboard-response","80","283716","0.0-15.0-0.19","1686","2","""event"",""trial"",""time""
""fullscreenenter"",""1"",""4283""
","
","
","""event"",""trial"",""time""
""fullscreenenter"",""1"",""4283""
","
","","","","","","null","<div style=""font-size:60px;"">+</div>","null","","fixation","","","","","","","","",""
"memory-trial","81","286179","0.0-15.0-1.19","1686","2","""event"",""trial"",""time""
""fullscreenenter"",""1"",""4283""
","
","
","""event"",""trial"",""time""
""fullscreenenter"",""1"",""4283""
","
","","","","","","1456.5","images/tree2.png","","","memory_trial","1","definitely_old","","","","","","",""
"html-keyboard-response","82","286682","0.0-15.0-0.20","1686","2","""event"",""trial"",""time""
""fullscreenenter"",""1"",""4283""
","
","
","""event"",""trial"",""time""
""fullscreenenter"",""1"",""4283""
","
","","","","","","null","<div style=""font-size:60px;"">+</div>","null","","fixation","","","","","","","","",""
"memory-trial","83","288881","0.0-15.0-1.20","1686","2","""event"",""trial"",""time""
""fullscreenenter"",""1"",""4283""
","
","
","""event"",""trial"",""time""
""fullscreenenter"",""1"",""4283""
","
","","","","","","1195.2000000476837","images/cow2.png","","","memory_trial","4","definitely_new","","","","","","",""
"html-keyboard-response","84","289384","0.0-15.0-0.21","1686","2","""event"",""trial"",""time""
""fullscreenenter"",""1"",""4283""
","
","
","""event"",""trial"",""time""
""fullscreenenter"",""1"",""4283""
","
","","","","","","null","<div style=""font-size:60px;"">+</div>","null","","fixation","","","","","","","","",""
"memory-trial","85","291448","0.0-15.0-1.21","1686","2","""event"",""trial"",""time""
""fullscreenenter"",""1"",""4283""
","
","
","""event"",""trial"",""time""
""fullscreenenter"",""1"",""4283""
","
","","","","","","1059.7999999523163","images/bush3.png","","","memory_trial","4","definitely_new","","","","","","",""
"html-keyboard-response","86","291949","0.0-15.0-0.22","1686","2","""event"",""trial"",""time""
""fullscreenenter"",""1"",""4283""
","
","
","""event"",""trial"",""time""
""fullscreenenter"",""1"",""4283""
","
","","","","","","null","<div style=""font-size:60px;"">+</div>","null","","fixation","","","","","","","","",""
"memory-trial","87","293983","0.0-15.0-1.22","1686","2","""event"",""trial"",""time""
""fullscreenenter"",""1"",""4283""
","
","
","""event"",""trial"",""time""
""fullscreenenter"",""1"",""4283""
","
","","","","","","1030.3999999761581","images/chair3.png","","","memory_trial","1","definitely_old","","","","","","",""
"html-keyboard-response","88","294486","0.0-15.0-0.23","1686","2","""event"",""trial"",""time""
""fullscreenenter"",""1"",""4283""
","
","
","""event"",""trial"",""time""
""fullscreenenter"",""1"",""4283""
","
","","","","","","null","<div style=""font-size:60px;"">+</div>","null","","fixation","","","","","","","","",""
"memory-trial","89","297315","0.0-15.0-1.23","1686","2","""event"",""trial"",""time""
""fullscreenenter"",""1"",""4283""
","
","
","""event"",""trial"",""time""
""fullscreenenter"",""1"",""4283""
","
","","","","","","1825.5","images/banana5.png","","","memory_trial","2","maybe_old","","","","","","",""
"html-keyboard-response","90","297817","0.0-15.0-0.24","1686","2","""event"",""trial"",""time""
""fullscreenenter"",""1"",""4283""
","
","
","""event"",""trial"",""time""
""fullscreenenter"",""1"",""4283""
","
","","","","","","null","<div style=""font-size:60px;"">+</div>","null","","fixation","","","","","","","","",""
"memory-trial","91","299970","0.0-15.0-1.24","1686","2","""event"",""trial"",""time""
""fullscreenenter"",""1"",""4283""
","
","
","""event"",""trial"",""time""
""fullscreenenter"",""1"",""4283""
","
","","","","","","1150.6000000238419","images/boat3.png","","","memory_trial","3","maybe_new","","","","","","",""
"html-keyboard-response","92","300473","0.0-15.0-0.25","1686","2","""event"",""trial"",""time""
""fullscreenenter"",""1"",""4283""
","
","
","""event"",""trial"",""time""
""fullscreenenter"",""1"",""4283""
","
","","","","","","null","<div style=""font-size:60px;"">+</div>","null","","fixation","","","","","","","","",""
"memory-trial","93","306256","0.0-15.0-1.25","1686","2","""event"",""trial"",""time""
""fullscreenenter"",""1"",""4283""
","
","
","""event"",""trial"",""time""
""fullscreenenter"",""1"",""4283""
","
","","","","","","4777.700000047684","images/goat1.png","","","memory_trial","3","maybe_new","","","","","","",""
"html-keyboard-response","94","306758","0.0-15.0-0.26","1686","2","""event"",""trial"",""time""
""fullscreenenter"",""1"",""4283""
","
","
","""event"",""trial"",""time""
""fullscreenenter"",""1"",""4283""
","
","","","","","","null","<div style=""font-size:60px;"">+</div>","null","","fixation","","","","","","","","",""
"memory-trial","95","309043","0.0-15.0-1.26","1686","2","""event"",""trial"",""time""
""fullscreenenter"",""1"",""4283""
","
","
","""event"",""trial"",""time""
""fullscreenenter"",""1"",""4283""
","
","","","","","","1280.8999999761581","images/orange1.png","","","memory_trial","1","definitely_old","","","","","","",""
"html-keyboard-response","96","309546","0.0-15.0-0.27","1686","2","""event"",""trial"",""time""
""fullscreenenter"",""1"",""4283""
","
","
","""event"",""trial"",""time""
""fullscreenenter"",""1"",""4283""
","
","","","","","","null","<div style=""font-size:60px;"">+</div>","null","","fixation","","","","","","","","",""
"memory-trial","97","312380","0.0-15.0-1.27","1686","2","""event"",""trial"",""time""
""fullscreenenter"",""1"",""4283""
","
","
","""event"",""trial"",""time""
""fullscreenenter"",""1"",""4283""
","
","","","","","","1828.8000000715256","images/truck5.png","","","memory_trial","3","maybe_new","","","","","","",""
"html-keyboard-response","98","312883","0.0-15.0-0.28","1686","2","""event"",""trial"",""time""
""fullscreenenter"",""1"",""4283""
","
","
","""event"",""trial"",""time""
""fullscreenenter"",""1"",""4283""
","
","","","","","","null","<div style=""font-size:60px;"">+</div>","null","","fixation","","","","","","","","",""
"memory-trial","99","315936","0.0-15.0-1.28","1686","2","""event"",""trial"",""time""
""fullscreenenter"",""1"",""4283""
","
","
","""event"",""trial"",""time""
""fullscreenenter"",""1"",""4283""
","
","","","","","","2046.9000000953674","images/chair2.png","","","memory_trial","4","definitely_new","","","","","","",""
"html-keyboard-response","100","316439","0.0-15.0-0.29","1686","2","""event"",""trial"",""time""
""fullscreenenter"",""1"",""4283""
","
","
","""event"",""trial"",""time""
""fullscreenenter"",""1"",""4283""
","
","","","","","","null","<div style=""font-size:60px;"">+</div>","null","","fixation","","","","","","","","",""
"memory-trial","101","318866","0.0-15.0-1.29","1686","2","""event"",""trial"",""time""
""fullscreenenter"",""1"",""4283""
","
","
","""event"",""trial"",""time""
""fullscreenenter"",""1"",""4283""
","
","","","","","","1420.2000000476837","images/cactus4.png","","","memory_trial","1","definitely_old","","","","","","",""
"html-keyboard-response","102","319368","0.0-15.0-0.30","1686","2","""event"",""trial"",""time""
""fullscreenenter"",""1"",""4283""
","
","
","""event"",""trial"",""time""
""fullscreenenter"",""1"",""4283""
","
","","","","","","null","<div style=""font-size:60px;"">+</div>","null","","fixation","","","","","","","","",""
"memory-trial","103","321657","0.0-15.0-1.30","1686","2","""event"",""trial"",""time""
""fullscreenenter"",""1"",""4283""
","
","
","""event"",""trial"",""time""
""fullscreenenter"",""1"",""4283""
","
","","","","","","1283.9000000953674","images/train3.png","","","memory_trial","2","maybe_old","","","","","","",""
"html-keyboard-response","104","322159","0.0-15.0-0.31","1686","2","""event"",""trial"",""time""
""fullscreenenter"",""1"",""4283""
","
","
","""event"",""trial"",""time""
""fullscreenenter"",""1"",""4283""
","
","","","","","","null","<div style=""font-size:60px;"">+</div>","null","","fixation","","","","","","","","",""
"memory-trial","105","324681","0.0-15.0-1.31","1686","2","""event"",""trial"",""time""
""fullscreenenter"",""1"",""4283""
","
","
","""event"",""trial"",""time""
""fullscreenenter"",""1"",""4283""
","
","","","","","","1516.5","images/boat5.png","","","memory_trial","4","definitely_new","","","","","","",""
"html-keyboard-response","106","325183","0.0-15.0-0.32","1686","2","""event"",""trial"",""time""
""fullscreenenter"",""1"",""4283""
","
","
","""event"",""trial"",""time""
""fullscreenenter"",""1"",""4283""
","
","","","","","","null","<div style=""font-size:60px;"">+</div>","null","","fixation","","","","","","","","",""
"memory-trial","107","327224","0.0-15.0-1.32","1686","2","""event"",""trial"",""time""
""fullscreenenter"",""1"",""4283""
","
","
","""event"",""trial"",""time""
""fullscreenenter"",""1"",""4283""
","
","","","","","","1037","images/flower2.png","","","memory_trial","1","definitely_old","","","","","","",""
"html-keyboard-response","108","327726","0.0-15.0-0.33","1686","2","""event"",""trial"",""time""
""fullscreenenter"",""1"",""4283""
","
","
","""event"",""trial"",""time""
""fullscreenenter"",""1"",""4283""
","
","","","","","","null","<div style=""font-size:60px;"">+</div>","null","","fixation","","","","","","","","",""
"memory-trial","109","329536","0.0-15.0-1.33","1686","2","""event"",""trial"",""time""
""fullscreenenter"",""1"",""4283""
","
","
","""event"",""trial"",""time""
""fullscreenenter"",""1"",""4283""
","
","","","","","","804.1999999284744","images/flower5.png","","","memory_trial","1","definitely_old","","","","","","",""
"html-keyboard-response","110","330039","0.0-15.0-0.34","1686","2","""event"",""trial"",""time""
""fullscreenenter"",""1"",""4283""
","
","
","""event"",""trial"",""time""
""fullscreenenter"",""1"",""4283""
","
","","","","","","null","<div style=""font-size:60px;"">+</div>","null","","fixation","","","","","","","","",""
"memory-trial","111","333039","0.0-15.0-1.34","1686","2","""event"",""trial"",""time""
""fullscreenenter"",""1"",""4283""
","
","
","""event"",""trial"",""time""
""fullscreenenter"",""1"",""4283""
","
","","","","","","1994.7999999523163","images/truck1.png","","","memory_trial","4","definitely_new","","","","","","",""
"html-keyboard-response","112","333541","0.0-15.0-0.35","1686","2","""event"",""trial"",""time""
""fullscreenenter"",""1"",""4283""
","
","
","""event"",""trial"",""time""
""fullscreenenter"",""1"",""4283""
","
","","","","","","null","<div style=""font-size:60px;"">+</div>","null","","fixation","","","","","","","","",""
"memory-trial","113","337291","0.0-15.0-1.35","1686","2","""event"",""trial"",""time""
""fullscreenenter"",""1"",""4283""
","
","
","""event"",""trial"",""time""
""fullscreenenter"",""1"",""4283""
","
","","","","","","2742.7999999523163","images/banana4.png","","","memory_trial","2","maybe_old","","","","","","",""
"html-keyboard-response","114","337794","0.0-15.0-0.36","1686","2","""event"",""trial"",""time""
""fullscreenenter"",""1"",""4283""
","
","
","""event"",""trial"",""time""
""fullscreenenter"",""1"",""4283""
","
","","","","","","null","<div style=""font-size:60px;"">+</div>","null","","fixation","","","","","","","","",""
"memory-trial","115","340502","0.0-15.0-1.36","1686","2","""event"",""trial"",""time""
""fullscreenenter"",""1"",""4283""
","
","
","""event"",""trial"",""time""
""fullscreenenter"",""1"",""4283""
","
","","","","","","1701.9000000953674","images/sofa3.png","","","memory_trial","3","maybe_new","","","","","","",""
"html-keyboard-response","116","341005","0.0-15.0-0.37","1686","2","""event"",""trial"",""time""
""fullscreenenter"",""1"",""4283""
","
","
","""event"",""trial"",""time""
""fullscreenenter"",""1"",""4283""
","
","","","","","","null","<div style=""font-size:60px;"">+</div>","null","","fixation","","","","","","","","",""
"memory-trial","117","343833","0.0-15.0-1.37","1686","2","""event"",""trial"",""time""
""fullscreenenter"",""1"",""4283""
","
","
","""event"",""trial"",""time""
""fullscreenenter"",""1"",""4283""
","
","","","","","","1821.6000000238419","images/table4.png","","","memory_trial","2","maybe_old","","","","","","",""
"html-keyboard-response","118","344335","0.0-15.0-0.38","1686","2","""event"",""trial"",""time""
""fullscreenenter"",""1"",""4283""
","
","
","""event"",""trial"",""time""
""fullscreenenter"",""1"",""4283""
","
","","","","","","null","<div style=""font-size:60px;"">+</div>","null","","fixation","","","","","","","","",""
"memory-trial","119","349725","0.0-15.0-1.38","1686","2","""event"",""trial"",""time""
""fullscreenenter"",""1"",""4283""
","
","
","""event"",""trial"",""time""
""fullscreenenter"",""1"",""4283""
","
","","","","","","4382.799999952316","images/banana1.png","","","memory_trial","4","definitely_new","","","","","","",""
"html-keyboard-response","120","350228","0.0-15.0-0.39","1686","2","""event"",""trial"",""time""
""fullscreenenter"",""1"",""4283""
","
","
","""event"",""trial"",""time""
""fullscreenenter"",""1"",""4283""
","
","","","","","","null","<div style=""font-size:60px;"">+</div>","null","","fixation","","","","","","","","",""
"memory-trial","121","352564","0.0-15.0-1.39","1686","2","""event"",""trial"",""time""
""fullscreenenter"",""1"",""4283""
","
","
","""event"",""trial"",""time""
""fullscreenenter"",""1"",""4283""
","
","","","","","","1328.5","images/cactus5.png","","","memory_trial","2","maybe_old","","","","","","",""
"html-keyboard-response","122","353066","0.0-15.0-0.40","1686","2","""event"",""trial"",""time""
""fullscreenenter"",""1"",""4283""
","
","
","""event"",""trial"",""time""
""fullscreenenter"",""1"",""4283""
","
","","","","","","null","<div style=""font-size:60px;"">+</div>","null","","fixation","","","","","","","","",""
"memory-trial","123","355586","0.0-15.0-1.40","1686","2","""event"",""trial"",""time""
""fullscreenenter"",""1"",""4283""
","
","
","""event"",""trial"",""time""
""fullscreenenter"",""1"",""4283""
","
","","","","","","1514.1000000238419","images/apple2.png","","","memory_trial","1","definitely_old","","","","","","",""
"html-keyboard-response","124","356089","0.0-15.0-0.41","1686","2","""event"",""trial"",""time""
""fullscreenenter"",""1"",""4283""
","
","
","""event"",""trial"",""time""
""fullscreenenter"",""1"",""4283""
","
","","","","","","null","<div style=""font-size:60px;"">+</div>","null","","fixation","","","","","","","","",""
"memory-trial","125","358027","0.0-15.0-1.41","1686","2","""event"",""trial"",""time""
""fullscreenenter"",""1"",""4283""
","
","
","""event"",""trial"",""time""
""fullscreenenter"",""1"",""4283""
","
","","","","","","930.3999999761581","images/feline2.png","","","memory_trial","3","maybe_new","","","","","","",""
"html-keyboard-response","126","358529","0.0-15.0-0.42","1686","2","""event"",""trial"",""time""
""fullscreenenter"",""1"",""4283""
","
","
","""event"",""trial"",""time""
""fullscreenenter"",""1"",""4283""
","
","","","","","","null","<div style=""font-size:60px;"">+</div>","null","","fixation","","","","","","","","",""
"memory-trial","127","360794","0.0-15.0-1.42","1686","2","""event"",""trial"",""time""
""fullscreenenter"",""1"",""4283""
","
","
","""event"",""trial"",""time""
""fullscreenenter"",""1"",""4283""
","
","","","","","","1260.6999999284744","images/sofa1.png","","","memory_trial","3","maybe_new","","","","","","",""
"html-keyboard-response","128","361297","0.0-15.0-0.43","1686","2","""event"",""trial"",""time""
""fullscreenenter"",""1"",""4283""
","
","
","""event"",""trial"",""time""
""fullscreenenter"",""1"",""4283""
","
","","","","","","null","<div style=""font-size:60px;"">+</div>","null","","fixation","","","","","","","","",""
"memory-trial","129","363721","0.0-15.0-1.43","1686","2","""event"",""trial"",""time""
""fullscreenenter"",""1"",""4283""
","
","
","""event"",""trial"",""time""
""fullscreenenter"",""1"",""4283""
","
","","","","","","1419.1000000238419","images/boat2.png","","","memory_trial","4","definitely_new","","","","","","",""
"html-keyboard-response","130","364223","0.0-15.0-0.44","1686","2","""event"",""trial"",""time""
""fullscreenenter"",""1"",""4283""
","
","
","""event"",""trial"",""time""
""fullscreenenter"",""1"",""4283""
","
","","","","","","null","<div style=""font-size:60px;"">+</div>","null","","fixation","","","","","","","","",""
"memory-trial","131","370563","0.0-15.0-1.44","1686","2","""event"",""trial"",""time""
""fullscreenenter"",""1"",""4283""
","
","
","""event"",""trial"",""time""
""fullscreenenter"",""1"",""4283""
","
","","","","","","5337.5","images/truck3.png","","","memory_trial","1","definitely_old","","","","","","",""
"html-keyboard-response","132","371066","0.0-15.0-0.45","1686","2","""event"",""trial"",""time""
""fullscreenenter"",""1"",""4283""
","
","
","""event"",""trial"",""time""
""fullscreenenter"",""1"",""4283""
","
","","","","","","null","<div style=""font-size:60px;"">+</div>","null","","fixation","","","","","","","","",""
"memory-trial","133","374743","0.0-15.0-1.45","1686","2","""event"",""trial"",""time""
""fullscreenenter"",""1"",""4283""
","
","
","""event"",""trial"",""time""
""fullscreenenter"",""1"",""4283""
","
","","","","","","2673.7999999523163","images/feline3.png","","","memory_trial","3","maybe_new","","","","","","",""
"html-keyboard-response","134","375244","0.0-15.0-0.46","1686","2","""event"",""trial"",""time""
""fullscreenenter"",""1"",""4283""
","
","
","""event"",""trial"",""time""
""fullscreenenter"",""1"",""4283""
","
","","","","","","null","<div style=""font-size:60px;"">+</div>","null","","fixation","","","","","","","","",""
"memory-trial","135","381195","0.0-15.0-1.46","1686","2","""event"",""trial"",""time""
""fullscreenenter"",""1"",""4283""
","
","
","""event"",""trial"",""time""
""fullscreenenter"",""1"",""4283""
","
","","","","","","4948.199999928474","images/truck4.png","","","memory_trial","4","definitely_new","","","","","","",""
"html-button-response","136","412175","0.0-15.0-2.46-0.46","1686","2","""event"",""trial"",""time""
""fullscreenenter"",""1"",""4283""
","
","
","""event"",""trial"",""time""
""fullscreenenter"",""1"",""4283""
","
","","","","","","30978.399999976158","<p> Take a break! </p><p> Click the button to continue. </p>","0","","break","","","","","","","","",""
"html-keyboard-response","137","412676","0.0-15.0-0.47","1686","2","""event"",""trial"",""time""
""fullscreenenter"",""1"",""4283""
","
","
","""event"",""trial"",""time""
""fullscreenenter"",""1"",""4283""
","
","","","","","","null","<div style=""font-size:60px;"">+</div>","null","","fixation","","","","","","","","",""
"memory-trial","138","416787","0.0-15.0-1.47","1686","2","""event"",""trial"",""time""
""fullscreenenter"",""1"",""4283""
","
","
","""event"",""trial"",""time""
""fullscreenenter"",""1"",""4283""
","
","","","","","","3103.100000023842","images/goat4.png","","","memory_trial","4","definitely_new","","","","","","",""
"html-keyboard-response","139","417290","0.0-15.0-0.48","1686","2","""event"",""trial"",""time""
""fullscreenenter"",""1"",""4283""
","
","
","""event"",""trial"",""time""
""fullscreenenter"",""1"",""4283""
","
","","","","","","null","<div style=""font-size:60px;"">+</div>","null","","fixation","","","","","","","","",""
"memory-trial","140","419019","0.0-15.0-1.48","1686","2","""event"",""trial"",""time""
""fullscreenenter"",""1"",""4283""
","
","
","""event"",""trial"",""time""
""fullscreenenter"",""1"",""4283""
","
","","","","","","722.5999999046326","images/horse2.png","","","memory_trial","4","definitely_new","","","","","","",""
"html-keyboard-response","141","419522","0.0-15.0-0.49","1686","2","""event"",""trial"",""time""
""fullscreenenter"",""1"",""4283""
","
","
","""event"",""trial"",""time""
""fullscreenenter"",""1"",""4283""
","
","","","","","","null","<div style=""font-size:60px;"">+</div>","null","","fixation","","","","","","","","",""
"memory-trial","142","421542","0.0-15.0-1.49","1686","2","""event"",""trial"",""time""
""fullscreenenter"",""1"",""4283""
","
","
","""event"",""trial"",""time""
""fullscreenenter"",""1"",""4283""
","
","","","","","","1015.3999999761581","images/feline1.png","","","memory_trial","4","definitely_new","","","","","","",""
"html-keyboard-response","143","422045","0.0-15.0-0.50","1686","2","""event"",""trial"",""time""
""fullscreenenter"",""1"",""4283""
","
","
","""event"",""trial"",""time""
""fullscreenenter"",""1"",""4283""
","
","","","","","","null","<div style=""font-size:60px;"">+</div>","null","","fixation","","","","","","","","",""
"memory-trial","144","424895","0.0-15.0-1.50","1686","2","""event"",""trial"",""time""
""fullscreenenter"",""1"",""4283""
","
","
","""event"",""trial"",""time""
""fullscreenenter"",""1"",""4283""
","
","","","","","","1845.0999999046326","images/rabbit2.png","","","memory_trial","2","maybe_old","","","","","","",""
"html-keyboard-response","145","425399","0.0-15.0-0.51","1686","2","""event"",""trial"",""time""
""fullscreenenter"",""1"",""4283""
","
","
","""event"",""trial"",""time""
""fullscreenenter"",""1"",""4283""
","
","","","","","","null","<div style=""font-size:60px;"">+</div>","null","","fixation","","","","","","","","",""
"memory-trial","146","427438","0.0-15.0-1.51","1686","2","""event"",""trial"",""time""
""fullscreenenter"",""1"",""4283""
","
","
","""event"",""trial"",""time""
""fullscreenenter"",""1"",""4283""
","
","","","","","","1032.2000000476837","images/dog1.png","","","memory_trial","1","definitely_old","","","","","","",""
"html-keyboard-response","147","427940","0.0-15.0-0.52","1686","2","""event"",""trial"",""time""
""fullscreenenter"",""1"",""4283""
","
","
","""event"",""trial"",""time""
""fullscreenenter"",""1"",""4283""
","
","","","","","","null","<div style=""font-size:60px;"">+</div>","null","","fixation","","","","","","","","",""
"memory-trial","148","430107","0.0-15.0-1.52","1686","2","""event"",""trial"",""time""
""fullscreenenter"",""1"",""4283""
","
","
","""event"",""trial"",""time""
""fullscreenenter"",""1"",""4283""
","
","","","","","","1161.7000000476837","images/train2.png","","","memory_trial","1","definitely_old","","","","","","",""
"html-keyboard-response","149","430610","0.0-15.0-0.53","1686","2","""event"",""trial"",""time""
""fullscreenenter"",""1"",""4283""
","
","
","""event"",""trial"",""time""
""fullscreenenter"",""1"",""4283""
","
","","","","","","null","<div style=""font-size:60px;"">+</div>","null","","fixation","","","","","","","","",""
"memory-trial","150","432548","0.0-15.0-1.53","1686","2","""event"",""trial"",""time""
""fullscreenenter"",""1"",""4283""
","
","
","""event"",""trial"",""time""
""fullscreenenter"",""1"",""4283""
","
","","","","","","932.5","images/bush4.png","","","memory_trial","4","definitely_new","","","","","","",""
"html-keyboard-response","151","433052","0.0-15.0-0.54","1686","2","""event"",""trial"",""time""
""fullscreenenter"",""1"",""4283""
","
","
","""event"",""trial"",""time""
""fullscreenenter"",""1"",""4283""
","
","","","","","","null","<div style=""font-size:60px;"">+</div>","null","","fixation","","","","","","","","",""
"memory-trial","152","435076","0.0-15.0-1.54","1686","2","""event"",""trial"",""time""
""fullscreenenter"",""1"",""4283""
","
","
","""event"",""trial"",""time""
""fullscreenenter"",""1"",""4283""
","
","","","","","","1017.2999999523163","images/horse5.png","","","memory_trial","2","maybe_old","","","","","","",""
"html-keyboard-response","153","435579","0.0-15.0-0.55","1686","2","""event"",""trial"",""time""
""fullscreenenter"",""1"",""4283""
","
","
","""event"",""trial"",""time""
""fullscreenenter"",""1"",""4283""
","
","","","","","","null","<div style=""font-size:60px;"">+</div>","null","","fixation","","","","","","","","",""
"memory-trial","154","437595","0.0-15.0-1.55","1686","2","""event"",""trial"",""time""
""fullscreenenter"",""1"",""4283""
","
","
","""event"",""trial"",""time""
""fullscreenenter"",""1"",""4283""
","
","","","","","","1010.7000000476837","images/cactus1.png","","","memory_trial","1","definitely_old","","","","","","",""
"html-keyboard-response","155","438098","0.0-15.0-0.56","1686","2","""event"",""trial"",""time""
""fullscreenenter"",""1"",""4283""
","
","
","""event"",""trial"",""time""
""fullscreenenter"",""1"",""4283""
","
","","","","","","null","<div style=""font-size:60px;"">+</div>","null","","fixation","","","","","","","","",""
"memory-trial","156","441191","0.0-15.0-1.56","1686","2","""event"",""trial"",""time""
""fullscreenenter"",""1"",""4283""
","
","
","""event"",""trial"",""time""
""fullscreenenter"",""1"",""4283""
","
","","","","","","2088.6999999284744","images/rodent4.png","","","memory_trial","4","definitely_new","","","","","","",""
"html-keyboard-response","157","441694","0.0-15.0-0.57","1686","2","""event"",""trial"",""time""
""fullscreenenter"",""1"",""4283""
","
","
","""event"",""trial"",""time""
""fullscreenenter"",""1"",""4283""
","
","","","","","","null","<div style=""font-size:60px;"">+</div>","null","","fixation","","","","","","","","",""
"memory-trial","158","444065","0.0-15.0-1.57","1686","2","""event"",""trial"",""time""
""fullscreenenter"",""1"",""4283""
","
","
","""event"",""trial"",""time""
""fullscreenenter"",""1"",""4283""
","
","","","","","","1364.3999999761581","images/rodent3.png","","","memory_trial","1","definitely_old","","","","","","",""
"html-keyboard-response","159","444567","0.0-15.0-0.58","1686","2","""event"",""trial"",""time""
""fullscreenenter"",""1"",""4283""
","
","
","""event"",""trial"",""time""
""fullscreenenter"",""1"",""4283""
","
","","","","","","null","<div style=""font-size:60px;"">+</div>","null","","fixation","","","","","","","","",""
"memory-trial","160","446323","0.0-15.0-1.58","1686","2","""event"",""trial"",""time""
""fullscreenenter"",""1"",""4283""
","
","
","""event"",""trial"",""time""
""fullscreenenter"",""1"",""4283""
","
","","","","","","752.3999999761581","images/train4.png","","","memory_trial","2","maybe_old","","","","","","",""
"html-keyboard-response","161","446825","0.0-15.0-0.59","1686","2","""event"",""trial"",""time""
""fullscreenenter"",""1"",""4283""
","
","
","""event"",""trial"",""time""
""fullscreenenter"",""1"",""4283""
","
","","","","","","null","<div style=""font-size:60px;"">+</div>","null","","fixation","","","","","","","","",""
"memory-trial","162","448913","0.0-15.0-1.59","1686","2","""event"",""trial"",""time""
""fullscreenenter"",""1"",""4283""
","
","
","""event"",""trial"",""time""
""fullscreenenter"",""1"",""4283""
","
","","","","","","1080.7000000476837","images/dog3.png","","","memory_trial","1","definitely_old","","","","","","",""
"html-keyboard-response","163","449416","0.0-15.0-0.60","1686","2","""event"",""trial"",""time""
""fullscreenenter"",""1"",""4283""
","
","
","""event"",""trial"",""time""
""fullscreenenter"",""1"",""4283""
","
","","","","","","null","<div style=""font-size:60px;"">+</div>","null","","fixation","","","","","","","","",""
"memory-trial","164","451315","0.0-15.0-1.60","1686","2","""event"",""trial"",""time""
""fullscreenenter"",""1"",""4283""
","
","
","""event"",""trial"",""time""
""fullscreenenter"",""1"",""4283""
","
","","","","","","894.2999999523163","images/flower3.png","","","memory_trial","1","definitely_old","","","","","","",""
"html-keyboard-response","165","451819","0.0-15.0-0.61","1686","2","""event"",""trial"",""time""
""fullscreenenter"",""1"",""4283""
","
","
","""event"",""trial"",""time""
""fullscreenenter"",""1"",""4283""
","
","","","","","","null","<div style=""font-size:60px;"">+</div>","null","","fixation","","","","","","","","",""
"memory-trial","166","454705","0.0-15.0-1.61","1686","2","""event"",""trial"",""time""
""fullscreenenter"",""1"",""4283""
","
","
","""event"",""trial"",""time""
""fullscreenenter"",""1"",""4283""
","
","","","","","","1880.6000000238419","images/straw5.png","","","memory_trial","4","definitely_new","","","","","","",""
"html-keyboard-response","167","455207","0.0-15.0-0.62","1686","2","""event"",""trial"",""time""
""fullscreenenter"",""1"",""4283""
","
","
","""event"",""trial"",""time""
""fullscreenenter"",""1"",""4283""
","
","","","","","","null","<div style=""font-size:60px;"">+</div>","null","","fixation","","","","","","","","",""
"memory-trial","168","458557","0.0-15.0-1.62","1686","2","""event"",""trial"",""time""
""fullscreenenter"",""1"",""4283""
","
","
","""event"",""trial"",""time""
""fullscreenenter"",""1"",""4283""
","
","","","","","","2338.600000023842","images/table2.png","","","memory_trial","1","definitely_old","","","","","","",""
"html-keyboard-response","169","459060","0.0-15.0-0.63","1686","2","""event"",""trial"",""time""
""fullscreenenter"",""1"",""4283""
","
","
","""event"",""trial"",""time""
""fullscreenenter"",""1"",""4283""
","
","","","","","","null","<div style=""font-size:60px;"">+</div>","null","","fixation","","","","","","","","",""
"memory-trial","170","462291","0.0-15.0-1.63","1686","2","""event"",""trial"",""time""
""fullscreenenter"",""1"",""4283""
","
","
","""event"",""trial"",""time""
""fullscreenenter"",""1"",""4283""
","
","","","","","","2225","images/train5.png","","","memory_trial","4","definitely_new","","","","","","",""
"html-keyboard-response","171","462794","0.0-15.0-0.64","1686","2","""event"",""trial"",""time""
""fullscreenenter"",""1"",""4283""
","
","
","""event"",""trial"",""time""
""fullscreenenter"",""1"",""4283""
","
","","","","","","null","<div style=""font-size:60px;"">+</div>","null","","fixation","","","","","","","","",""
"memory-trial","172","464770","0.0-15.0-1.64","1686","2","""event"",""trial"",""time""
""fullscreenenter"",""1"",""4283""
","
","
","""event"",""trial"",""time""
""fullscreenenter"",""1"",""4283""
","
","","","","","","970.5","images/cow3.png","","","memory_trial","2","maybe_old","","","","","","",""
"html-keyboard-response","173","465273","0.0-15.0-0.65","1686","2","""event"",""trial"",""time""
""fullscreenenter"",""1"",""4283""
","
","
","""event"",""trial"",""time""
""fullscreenenter"",""1"",""4283""
","
","","","","","","null","<div style=""font-size:60px;"">+</div>","null","","fixation","","","","","","","","",""
"memory-trial","174","467627","0.0-15.0-1.65","1686","2","""event"",""trial"",""time""
""fullscreenenter"",""1"",""4283""
","
","
","""event"",""trial"",""time""
""fullscreenenter"",""1"",""4283""
","
","","","","","","1347.7999999523163","images/rabbit3.png","","","memory_trial","2","maybe_old","","","","","","",""
"html-keyboard-response","175","468129","0.0-15.0-0.66","1686","2","""event"",""trial"",""time""
""fullscreenenter"",""1"",""4283""
","
","
","""event"",""trial"",""time""
""fullscreenenter"",""1"",""4283""
","
","","","","","","null","<div style=""font-size:60px;"">+</div>","null","","fixation","","","","","","","","",""
"memory-trial","176","469993","0.0-15.0-1.66","1686","2","""event"",""trial"",""time""
""fullscreenenter"",""1"",""4283""
","
","
","""event"",""trial"",""time""
""fullscreenenter"",""1"",""4283""
","
","","","","","","857.7999999523163","images/rabbit4.png","","","memory_trial","4","definitely_new","","","","","","",""
"html-keyboard-response","177","470496","0.0-15.0-0.67","1686","2","""event"",""trial"",""time""
""fullscreenenter"",""1"",""4283""
","
","
","""event"",""trial"",""time""
""fullscreenenter"",""1"",""4283""
","
","","","","","","null","<div style=""font-size:60px;"">+</div>","null","","fixation","","","","","","","","",""
"memory-trial","178","473148","0.0-15.0-1.67","1686","2","""event"",""trial"",""time""
""fullscreenenter"",""1"",""4283""
","
","
","""event"",""trial"",""time""
""fullscreenenter"",""1"",""4283""
","
","","","","","","1646.7999999523163","images/cactus3.png","","","memory_trial","2","maybe_old","","","","","","",""
"html-keyboard-response","179","473653","0.0-15.0-0.68","1686","2","""event"",""trial"",""time""
""fullscreenenter"",""1"",""4283""
","
","
","""event"",""trial"",""time""
""fullscreenenter"",""1"",""4283""
","
","","","","","","null","<div style=""font-size:60px;"">+</div>","null","","fixation","","","","","","","","",""
"memory-trial","180","475947","0.0-15.0-1.68","1686","2","""event"",""trial"",""time""
""fullscreenenter"",""1"",""4283""
","
","
","""event"",""trial"",""time""
""fullscreenenter"",""1"",""4283""
","
","","","","","","1286.5999999046326","images/cow1.png","","","memory_trial","3","maybe_new","","","","","","",""
"html-keyboard-response","181","476450","0.0-15.0-0.69","1686","2","""event"",""trial"",""time""
""fullscreenenter"",""1"",""4283""
","
","
","""event"",""trial"",""time""
""fullscreenenter"",""1"",""4283""
","
","","","","","","null","<div style=""font-size:60px;"">+</div>","null","","fixation","","","","","","","","",""
"memory-trial","182","479253","0.0-15.0-1.69","1686","2","""event"",""trial"",""time""
""fullscreenenter"",""1"",""4283""
","
","
","""event"",""trial"",""time""
""fullscreenenter"",""1"",""4283""
","
","","","","","","1796.5","images/tree5.png","","","memory_trial","4","definitely_new","","","","","","",""
"html-keyboard-response","183","479756","0.0-15.0-0.70","1686","2","""event"",""trial"",""time""
""fullscreenenter"",""1"",""4283""
","
","
","""event"",""trial"",""time""
""fullscreenenter"",""1"",""4283""
","
","","","","","","null","<div style=""font-size:60px;"">+</div>","null","","fixation","","","","","","","","",""
"memory-trial","184","482013","0.0-15.0-1.70","1686","2","""event"",""trial"",""time""
""fullscreenenter"",""1"",""4283""
","
","
","""event"",""trial"",""time""
""fullscreenenter"",""1"",""4283""
","
","","","","","","1249.3999999761581","images/sheep1.png","","","memory_trial","3","maybe_new","","","","","","",""
"html-keyboard-response","185","482515","0.0-15.0-0.71","1686","2","""event"",""trial"",""time""
""fullscreenenter"",""1"",""4283""
","
","
","""event"",""trial"",""time""
""fullscreenenter"",""1"",""4283""
","
","","","","","","null","<div style=""font-size:60px;"">+</div>","null","","fixation","","","","","","","","",""
"memory-trial","186","485335","0.0-15.0-1.71","1686","2","""event"",""trial"",""time""
""fullscreenenter"",""1"",""4283""
","
","
","""event"",""trial"",""time""
""fullscreenenter"",""1"",""4283""
","
","","","","","","1814.6000000238419","images/table1.png","","","memory_trial","3","maybe_new","","","","","","",""
"html-keyboard-response","187","485838","0.0-15.0-0.72","1686","2","""event"",""trial"",""time""
""fullscreenenter"",""1"",""4283""
","
","
","""event"",""trial"",""time""
""fullscreenenter"",""1"",""4283""
","
","","","","","","null","<div style=""font-size:60px;"">+</div>","null","","fixation","","","","","","","","",""
"memory-trial","188","489657","0.0-15.0-1.72","1686","2","""event"",""trial"",""time""
""fullscreenenter"",""1"",""4283""
","
","
","""event"",""trial"",""time""
""fullscreenenter"",""1"",""4283""
","
","","","","","","2812.5","images/straw2.png","","","memory_trial","4","definitely_new","","","","","","",""
"html-keyboard-response","189","490160","0.0-15.0-0.73","1686","2","""event"",""trial"",""time""
""fullscreenenter"",""1"",""4283""
","
","
","""event"",""trial"",""time""
""fullscreenenter"",""1"",""4283""
","
","","","","","","null","<div style=""font-size:60px;"">+</div>","null","","fixation","","","","","","","","",""
"memory-trial","190","493941","0.0-15.0-1.73","1686","2","""event"",""trial"",""time""
""fullscreenenter"",""1"",""4283""
","
","
","""event"",""trial"",""time""
""fullscreenenter"",""1"",""4283""
","
","","","","","","2773","images/sofa2.png","","","memory_trial","2","maybe_old","","","","","","",""
"html-keyboard-response","191","494444","0.0-15.0-0.74","1686","2","""event"",""trial"",""time""
""fullscreenenter"",""1"",""4283""
","
","
","""event"",""trial"",""time""
""fullscreenenter"",""1"",""4283""
","
","","","","","","null","<div style=""font-size:60px;"">+</div>","null","","fixation","","","","","","","","",""
"memory-trial","192","497252","0.0-15.0-1.74","1686","2","""event"",""trial"",""time""
""fullscreenenter"",""1"",""4283""
","
","
","""event"",""trial"",""time""
""fullscreenenter"",""1"",""4283""
","
","","","","","","1802","images/bed5.png","","","memory_trial","1","definitely_old","","","","","","",""
"html-keyboard-response","193","497756","0.0-15.0-0.75","1686","2","""event"",""trial"",""time""
""fullscreenenter"",""1"",""4283""
","
","
","""event"",""trial"",""time""
""fullscreenenter"",""1"",""4283""
","
","","","","","","null","<div style=""font-size:60px;"">+</div>","null","","fixation","","","","","","","","",""
"memory-trial","194","501175","0.0-15.0-1.75","1686","2","""event"",""trial"",""time""
""fullscreenenter"",""1"",""4283""
","
","
","""event"",""trial"",""time""
""fullscreenenter"",""1"",""4283""
","
","","","","","","2411.7999999523163","images/feline4.png","","","memory_trial","4","definitely_new","","","","","","",""
"html-keyboard-response","195","501678","0.0-15.0-0.76","1686","2","""event"",""trial"",""time""
""fullscreenenter"",""1"",""4283""
","
","
","""event"",""trial"",""time""
""fullscreenenter"",""1"",""4283""
","
","","","","","","null","<div style=""font-size:60px;"">+</div>","null","","fixation","","","","","","","","",""
"memory-trial","196","505058","0.0-15.0-1.76","1686","2","""event"",""trial"",""time""
""fullscreenenter"",""1"",""4283""
","
","
","""event"",""trial"",""time""
""fullscreenenter"",""1"",""4283""
","
","","","","","","2374","images/plane4.png","","","memory_trial","1","definitely_old","","","","","","",""
"html-keyboard-response","197","505560","0.0-15.0-0.77","1686","2","""event"",""trial"",""time""
""fullscreenenter"",""1"",""4283""
","
","
","""event"",""trial"",""time""
""fullscreenenter"",""1"",""4283""
","
","","","","","","null","<div style=""font-size:60px;"">+</div>","null","","fixation","","","","","","","","",""
"memory-trial","198","508071","0.0-15.0-1.77","1686","2","""event"",""trial"",""time""
""fullscreenenter"",""1"",""4283""
","
","
","""event"",""trial"",""time""
""fullscreenenter"",""1"",""4283""
","
","","","","","","1503.7000000476837","images/rodent1.png","","","memory_trial","3","maybe_new","","","","","","",""
"html-keyboard-response","199","508574","0.0-15.0-0.78","1686","2","""event"",""trial"",""time""
""fullscreenenter"",""1"",""4283""
","
","
","""event"",""trial"",""time""
""fullscreenenter"",""1"",""4283""
","
","","","","","","null","<div style=""font-size:60px;"">+</div>","null","","fixation","","","","","","","","",""
"memory-trial","200","511726","0.0-15.0-1.78","1686","2","""event"",""trial"",""time""
""fullscreenenter"",""1"",""4283""
","
","
","""event"",""trial"",""time""
""fullscreenenter"",""1"",""4283""
","
","","","","","","2146.2999999523163","images/boat4.png","","","memory_trial","4","definitely_new","","","","","","",""
"html-keyboard-response","201","512229","0.0-15.0-0.79","1686","2","""event"",""trial"",""time""
""fullscreenenter"",""1"",""4283""
","
","
","""event"",""trial"",""time""
""fullscreenenter"",""1"",""4283""
","
","","","","","","null","<div style=""font-size:60px;"">+</div>","null","","fixation","","","","","","","","",""
"memory-trial","202","515868","0.0-15.0-1.79","1686","2","""event"",""trial"",""time""
""fullscreenenter"",""1"",""4283""
","
","
","""event"",""trial"",""time""
""fullscreenenter"",""1"",""4283""
","
","","","","","","2632.1999999284744","images/dog4.png","","","memory_trial","4","definitely_new","","","","","","",""
"html-keyboard-response","203","516382","0.0-15.0-0.80","1686","2","""event"",""trial"",""time""
""fullscreenenter"",""1"",""4283""
","
","
","""event"",""trial"",""time""
""fullscreenenter"",""1"",""4283""
","
","","","","","","null","<div style=""font-size:60px;"">+</div>","null","","fixation","","","","","","","","",""
"memory-trial","204","519879","0.0-15.0-1.80","1686","2","""event"",""trial"",""time""
""fullscreenenter"",""1"",""4283""
","
","
","""event"",""trial"",""time""
""fullscreenenter"",""1"",""4283""
","
","","","","","","2488.899999976158","images/tree3.png","","","memory_trial","4","definitely_new","","","","","","",""
"html-keyboard-response","205","520398","0.0-15.0-0.81","1686","2","""event"",""trial"",""time""
""fullscreenenter"",""1"",""4283""
","
","
","""event"",""trial"",""time""
""fullscreenenter"",""1"",""4283""
","
","","","","","","null","<div style=""font-size:60px;"">+</div>","null","","fixation","","","","","","","","",""
"memory-trial","206","523496","0.0-15.0-1.81","1686","2","""event"",""trial"",""time""
""fullscreenenter"",""1"",""4283""
","
","
","""event"",""trial"",""time""
""fullscreenenter"",""1"",""4283""
","
","","","","","","2090.5","images/sofa5.png","","","memory_trial","2","maybe_old","","","","","","",""
"html-keyboard-response","207","523999","0.0-15.0-0.82","1686","2","""event"",""trial"",""time""
""fullscreenenter"",""1"",""4283""
","
","
","""event"",""trial"",""time""
""fullscreenenter"",""1"",""4283""
","
","","","","","","null","<div style=""font-size:60px;"">+</div>","null","","fixation","","","","","","","","",""
"memory-trial","208","526484","0.0-15.0-1.82","1686","2","""event"",""trial"",""time""
""fullscreenenter"",""1"",""4283""
","
","
","""event"",""trial"",""time""
""fullscreenenter"",""1"",""4283""
","
","","","","","","1479","images/rabbit1.png","","","memory_trial","2","maybe_old","","","","","","",""
"html-keyboard-response","209","526987","0.0-15.0-0.83","1686","2","""event"",""trial"",""time""
""fullscreenenter"",""1"",""4283""
","
","
","""event"",""trial"",""time""
""fullscreenenter"",""1"",""4283""
","
","","","","","","null","<div style=""font-size:60px;"">+</div>","null","","fixation","","","","","","","","",""
"memory-trial","210","529908","0.0-15.0-1.83","1686","2","""event"",""trial"",""time""
""fullscreenenter"",""1"",""4283""
","
","
","""event"",""trial"",""time""
""fullscreenenter"",""1"",""4283""
","
","","","","","","1913.4000000953674","images/sheep3.png","","","memory_trial","4","definitely_new","","","","","","",""
"html-keyboard-response","211","530411","0.0-15.0-0.84","1686","2","""event"",""trial"",""time""
""fullscreenenter"",""1"",""4283""
","
","
","""event"",""trial"",""time""
""fullscreenenter"",""1"",""4283""
","
","","","","","","null","<div style=""font-size:60px;"">+</div>","null","","fixation","","","","","","","","",""
"memory-trial","212","534085","0.0-15.0-1.84","1686","2","""event"",""trial"",""time""
""fullscreenenter"",""1"",""4283""
","
","
","""event"",""trial"",""time""
""fullscreenenter"",""1"",""4283""
","
","","","","","","2668.7000000476837","images/sheep5.png","","","memory_trial","1","definitely_old","","","","","","",""
"html-keyboard-response","213","534589","0.0-15.0-0.85","1686","2","""event"",""trial"",""time""
""fullscreenenter"",""1"",""4283""
","
","
","""event"",""trial"",""time""
""fullscreenenter"",""1"",""4283""
","
","","","","","","null","<div style=""font-size:60px;"">+</div>","null","","fixation","","","","","","","","",""
"memory-trial","214","537026","0.0-15.0-1.85","1686","2","""event"",""trial"",""time""
""fullscreenenter"",""1"",""4283""
","
","
","""event"",""trial"",""time""
""fullscreenenter"",""1"",""4283""
","
","","","","","","1430.7999999523163","images/feline5.png","","","memory_trial","4","definitely_new","","","","","","",""
"html-keyboard-response","215","537529","0.0-15.0-0.86","1686","2","""event"",""trial"",""time""
""fullscreenenter"",""1"",""4283""
","
","
","""event"",""trial"",""time""
""fullscreenenter"",""1"",""4283""
","
","","","","","","null","<div style=""font-size:60px;"">+</div>","null","","fixation","","","","","","","","",""
"memory-trial","216","540683","0.0-15.0-1.86","1686","2","""event"",""trial"",""time""
""fullscreenenter"",""1"",""4283""
","
","
","""event"",""trial"",""time""
""fullscreenenter"",""1"",""4283""
","
","","","","","","2146.2999999523163","images/apple4.png","","","memory_trial","2","maybe_old","","","","","","",""
"html-keyboard-response","217","541186","0.0-15.0-0.87","1686","2","""event"",""trial"",""time""
""fullscreenenter"",""1"",""4283""
","
","
","""event"",""trial"",""time""
""fullscreenenter"",""1"",""4283""
","
","","","","","","null","<div style=""font-size:60px;"">+</div>","null","","fixation","","","","","","","","",""
"memory-trial","218","544365","0.0-15.0-1.87","1686","2","""event"",""trial"",""time""
""fullscreenenter"",""1"",""4283""
","
","
","""event"",""trial"",""time""
""fullscreenenter"",""1"",""4283""
","
","","","","","","2172.399999976158","images/tree1.png","","","memory_trial","3","maybe_new","","","","","","",""
"html-keyboard-response","219","544868","0.0-15.0-0.88","1686","2","""event"",""trial"",""time""
""fullscreenenter"",""1"",""4283""
","
","
","""event"",""trial"",""time""
""fullscreenenter"",""1"",""4283""
","
","","","","","","null","<div style=""font-size:60px;"">+</div>","null","","fixation","","","","","","","","",""
"memory-trial","220","549630","0.0-15.0-1.88","1686","2","""event"",""trial"",""time""
""fullscreenenter"",""1"",""4283""
","
","
","""event"",""trial"",""time""
""fullscreenenter"",""1"",""4283""
","
","","","","","","3755.8000000715256","images/plane1.png","","","memory_trial","3","maybe_new","","","","","","",""
"html-keyboard-response","221","550134","0.0-15.0-0.89","1686","2","""event"",""trial"",""time""
""fullscreenenter"",""1"",""4283""
","
","
","""event"",""trial"",""time""
""fullscreenenter"",""1"",""4283""
","
","","","","","","null","<div style=""font-size:60px;"">+</div>","null","","fixation","","","","","","","","",""
"memory-trial","222","553878","0.0-15.0-1.89","1686","2","""event"",""trial"",""time""
""fullscreenenter"",""1"",""4283""
","
","
","""event"",""trial"",""time""
""fullscreenenter"",""1"",""4283""
","
","","","","","","2737.7000000476837","images/orange3.png","","","memory_trial","2","maybe_old","","","","","","",""
"html-keyboard-response","223","554387","0.0-15.0-0.90","1686","2","""event"",""trial"",""time""
""fullscreenenter"",""1"",""4283""
","
","
","""event"",""trial"",""time""
""fullscreenenter"",""1"",""4283""
","
","","","","","","null","<div style=""font-size:60px;"">+</div>","null","","fixation","","","","","","","","",""
"memory-trial","224","557165","0.0-15.0-1.90","1686","2","""event"",""trial"",""time""
""fullscreenenter"",""1"",""4283""
","
","
","""event"",""trial"",""time""
""fullscreenenter"",""1"",""4283""
","
","","","","","","1771.3999999761581","images/bush1.png","","","memory_trial","4","definitely_new","","","","","","",""
"html-keyboard-response","225","557668","0.0-15.0-0.91","1686","2","""event"",""trial"",""time""
""fullscreenenter"",""1"",""4283""
","
","
","""event"",""trial"",""time""
""fullscreenenter"",""1"",""4283""
","
","","","","","","null","<div style=""font-size:60px;"">+</div>","null","","fixation","","","","","","","","",""
"memory-trial","226","560206","0.0-15.0-1.91","1686","2","""event"",""trial"",""time""
""fullscreenenter"",""1"",""4283""
","
","
","""event"",""trial"",""time""
""fullscreenenter"",""1"",""4283""
","
","","","","","","1529.5","images/bed3.png","","","memory_trial","2","maybe_old","","","","","","",""
"html-keyboard-response","227","560708","0.0-15.0-0.92","1686","2","""event"",""trial"",""time""
""fullscreenenter"",""1"",""4283""
","
","
","""event"",""trial"",""time""
""fullscreenenter"",""1"",""4283""
","
","","","","","","null","<div style=""font-size:60px;"">+</div>","null","","fixation","","","","","","","","",""
"memory-trial","228","563100","0.0-15.0-1.92","1686","2","""event"",""trial"",""time""
""fullscreenenter"",""1"",""4283""
","
","
","""event"",""trial"",""time""
""fullscreenenter"",""1"",""4283""
","
","","","","","","1386.2000000476837","images/goat2.png","","","memory_trial","3","maybe_new","","","","","","",""
"html-keyboard-response","229","563603","0.0-15.0-0.93","1686","2","""event"",""trial"",""time""
""fullscreenenter"",""1"",""4283""
","
","
","""event"",""trial"",""time""
""fullscreenenter"",""1"",""4283""
","
","","","","","","null","<div style=""font-size:60px;"">+</div>","null","","fixation","","","","","","","","",""
"memory-trial","230","566218","0.0-15.0-1.93","1686","2","""event"",""trial"",""time""
""fullscreenenter"",""1"",""4283""
","
","
","""event"",""trial"",""time""
""fullscreenenter"",""1"",""4283""
","
","","","","","","1606.1000000238419","images/horse3.png","","","memory_trial","4","definitely_new","","","","","","",""
"html-keyboard-response","231","566721","0.0-15.0-0.94","1686","2","""event"",""trial"",""time""
""fullscreenenter"",""1"",""4283""
","
","
","""event"",""trial"",""time""
""fullscreenenter"",""1"",""4283""
","
","","","","","","null","<div style=""font-size:60px;"">+</div>","null","","fixation","","","","","","","","",""
"memory-trial","232","569401","0.0-15.0-1.94","1686","2","""event"",""trial"",""time""
""fullscreenenter"",""1"",""4283""
","
","
","""event"",""trial"",""time""
""fullscreenenter"",""1"",""4283""
","
","","","","","","1674.2999999523163","images/straw3.png","","","memory_trial","4","definitely_new","","","","","","",""
"html-keyboard-response","233","569904","0.0-15.0-0.95","1686","2","""event"",""trial"",""time""
""fullscreenenter"",""1"",""4283""
","
","
","""event"",""trial"",""time""
""fullscreenenter"",""1"",""4283""
","
","","","","","","null","<div style=""font-size:60px;"">+</div>","null","","fixation","","","","","","","","",""
"memory-trial","234","572530","0.0-15.0-1.95","1686","2","""event"",""trial"",""time""
""fullscreenenter"",""1"",""4283""
","
","
","""event"",""trial"",""time""
""fullscreenenter"",""1"",""4283""
","
","","","","","","1618.3999999761581","images/chair5.png","","","memory_trial","2","maybe_old","","","","","","",""
"html-keyboard-response","235","573034","0.0-15.0-0.96","1686","2","""event"",""trial"",""time""
""fullscreenenter"",""1"",""4283""
","
","
","""event"",""trial"",""time""
""fullscreenenter"",""1"",""4283""
","
","","","","","","null","<div style=""font-size:60px;"">+</div>","null","","fixation","","","","","","","","",""
"memory-trial","236","575944","0.0-15.0-1.96","1686","2","""event"",""trial"",""time""
""fullscreenenter"",""1"",""4283""
","
","
","""event"",""trial"",""time""
""fullscreenenter"",""1"",""4283""
","
","","","","","","1901.7999999523163","images/sheep4.png","","","memory_trial","3","maybe_new","","","","","","",""
"html-keyboard-response","237","576447","0.0-15.0-0.97","1686","2","""event"",""trial"",""time""
""fullscreenenter"",""1"",""4283""
","
","
","""event"",""trial"",""time""
""fullscreenenter"",""1"",""4283""
","
","","","","","","null","<div style=""font-size:60px;"">+</div>","null","","fixation","","","","","","","","",""
"memory-trial","238","579075","0.0-15.0-1.97","1686","2","""event"",""trial"",""time""
""fullscreenenter"",""1"",""4283""
","
","
","""event"",""trial"",""time""
""fullscreenenter"",""1"",""4283""
","
","","","","","","1622.1000000238419","images/bush5.png","","","memory_trial","4","definitely_new","","","","","","",""
"html-keyboard-response","239","579578","0.0-15.0-0.98","1686","2","""event"",""trial"",""time""
""fullscreenenter"",""1"",""4283""
","
","
","""event"",""trial"",""time""
""fullscreenenter"",""1"",""4283""
","
","","","","","","null","<div style=""font-size:60px;"">+</div>","null","","fixation","","","","","","","","",""
"memory-trial","240","582782","0.0-15.0-1.98","1686","2","""event"",""trial"",""time""
""fullscreenenter"",""1"",""4283""
","
","
","""event"",""trial"",""time""
""fullscreenenter"",""1"",""4283""
","
","","","","","","2197.399999976158","images/cow4.png","","","memory_trial","2","maybe_old","","","","","","",""
"html-keyboard-response","241","583286","0.0-15.0-0.99","1686","2","""event"",""trial"",""time""
""fullscreenenter"",""1"",""4283""
","
","
","""event"",""trial"",""time""
""fullscreenenter"",""1"",""4283""
","
","","","","","","null","<div style=""font-size:60px;"">+</div>","null","","fixation","","","","","","","","",""
"memory-trial","242","586624","0.0-15.0-1.99","1686","2","""event"",""trial"",""time""
""fullscreenenter"",""1"",""4283""
","
","
","""event"",""trial"",""time""
""fullscreenenter"",""1"",""4283""
","
","","","","","","2330.3000000715256","images/banana2.png","","","memory_trial","3","maybe_new","","","","","","",""
"html-keyboard-response","243","587127","0.0-15.0-0.100","1686","2","""event"",""trial"",""time""
""fullscreenenter"",""1"",""4283""
","
","
","""event"",""trial"",""time""
""fullscreenenter"",""1"",""4283""
","
","","","","","","null","<div style=""font-size:60px;"">+</div>","null","","fixation","","","","","","","","",""
"memory-trial","244","590744","0.0-15.0-1.100","1686","2","""event"",""trial"",""time""
""fullscreenenter"",""1"",""4283""
","
","
","""event"",""trial"",""time""
""fullscreenenter"",""1"",""4283""
","
","","","","","","2610.7999999523163","images/goat5.png","","","memory_trial","1","definitely_old","","","","","","",""
"html-keyboard-response","245","591247","0.0-15.0-0.101","1686","2","""event"",""trial"",""time""
""fullscreenenter"",""1"",""4283""
","
","
","""event"",""trial"",""time""
""fullscreenenter"",""1"",""4283""
","
","","","","","","null","<div style=""font-size:60px;"">+</div>","null","","fixation","","","","","","","","",""
"memory-trial","246","594251","0.0-15.0-1.101","1686","2","""event"",""trial"",""time""
""fullscreenenter"",""1"",""4283""
","
","
","""event"",""trial"",""time""
""fullscreenenter"",""1"",""4283""
","
","","","","","","1997.7000000476837","images/goat3.png","","","memory_trial","2","maybe_old","","","","","","",""
"html-button-response","247","618592","0.0-15.0-2.101-0.101","1686","2","""event"",""trial"",""time""
""fullscreenenter"",""1"",""4283""
","
","
","""event"",""trial"",""time""
""fullscreenenter"",""1"",""4283""
","
","","","","","","24338.899999976158","<p> Take a break! </p><p> Click the button to continue. </p>","0","","break","","","","","","","","",""
"html-keyboard-response","248","619094","0.0-15.0-0.102","1686","2","""event"",""trial"",""time""
""fullscreenenter"",""1"",""4283""
","
","
","""event"",""trial"",""time""
""fullscreenenter"",""1"",""4283""
","
","","","","","","null","<div style=""font-size:60px;"">+</div>","null","","fixation","","","","","","","","",""
"memory-trial","249","621102","0.0-15.0-1.102","1686","2","""event"",""trial"",""time""
""fullscreenenter"",""1"",""4283""
","
","
","""event"",""trial"",""time""
""fullscreenenter"",""1"",""4283""
","
","","","","","","1001","images/horse4.png","","","memory_trial","2","maybe_old","","","","","","",""
"html-keyboard-response","250","621605","0.0-15.0-0.103","1686","2","""event"",""trial"",""time""
""fullscreenenter"",""1"",""4283""
","
","
","""event"",""trial"",""time""
""fullscreenenter"",""1"",""4283""
","
","","","","","","null","<div style=""font-size:60px;"">+</div>","null","","fixation","","","","","","","","",""
"memory-trial","251","623434","0.0-15.0-1.103","1686","2","""event"",""trial"",""time""
""fullscreenenter"",""1"",""4283""
","
","
","""event"",""trial"",""time""
""fullscreenenter"",""1"",""4283""
","
","","","","","","823.2000000476837","images/cow5.png","","","memory_trial","2","maybe_old","","","","","","",""
"html-keyboard-response","252","623937","0.0-15.0-0.104","1686","2","""event"",""trial"",""time""
""fullscreenenter"",""1"",""4283""
","
","
","""event"",""trial"",""time""
""fullscreenenter"",""1"",""4283""
","
","","","","","","null","<div style=""font-size:60px;"">+</div>","null","","fixation","","","","","","","","",""
"memory-trial","253","625407","0.0-15.0-1.104","1686","2","""event"",""trial"",""time""
""fullscreenenter"",""1"",""4283""
","
","
","""event"",""trial"",""time""
""fullscreenenter"",""1"",""4283""
","
","","","","","","465","images/rodent2.png","","","memory_trial","2","maybe_old","","","","","","",""
"html-keyboard-response","254","625910","0.0-15.0-0.105","1686","2","""event"",""trial"",""time""
""fullscreenenter"",""1"",""4283""
","
","
","""event"",""trial"",""time""
""fullscreenenter"",""1"",""4283""
","
","","","","","","null","<div style=""font-size:60px;"">+</div>","null","","fixation","","","","","","","","",""
"memory-trial","255","629695","0.0-15.0-1.105","1686","2","""event"",""trial"",""time""
""fullscreenenter"",""1"",""4283""
","
","
","""event"",""trial"",""time""
""fullscreenenter"",""1"",""4283""
","
","","","","","","2780.5","images/apple5.png","","","memory_trial","4","definitely_new","","","","","","",""
"html-keyboard-response","256","630197","0.0-15.0-0.106","1686","2","""event"",""trial"",""time""
""fullscreenenter"",""1"",""4283""
","
","
","""event"",""trial"",""time""
""fullscreenenter"",""1"",""4283""
","
","","","","","","null","<div style=""font-size:60px;"">+</div>","null","","fixation","","","","","","","","",""
"memory-trial","257","632083","0.0-15.0-1.106","1686","2","""event"",""trial"",""time""
""fullscreenenter"",""1"",""4283""
","
","
","""event"",""trial"",""time""
""fullscreenenter"",""1"",""4283""
","
","","","","","","882.8000000715256","images/banana3.png","","","memory_trial","2","maybe_old","","","","","","",""
"html-keyboard-response","258","632587","0.0-15.0-0.107","1686","2","""event"",""trial"",""time""
""fullscreenenter"",""1"",""4283""
","
","
","""event"",""trial"",""time""
""fullscreenenter"",""1"",""4283""
","
","","","","","","null","<div style=""font-size:60px;"">+</div>","null","","fixation","","","","","","","","",""
"memory-trial","259","637356","0.0-15.0-1.107","1686","2","""event"",""trial"",""time""
""fullscreenenter"",""1"",""4283""
","
","
","""event"",""trial"",""time""
""fullscreenenter"",""1"",""4283""
","
","","","","","","3765.899999976158","images/dog5.png","","","memory_trial","4","definitely_new","","","","","","",""
"html-keyboard-response","260","637859","0.0-15.0-0.108","1686","2","""event"",""trial"",""time""
""fullscreenenter"",""1"",""4283""
","
","
","""event"",""trial"",""time""
""fullscreenenter"",""1"",""4283""
","
","","","","","","null","<div style=""font-size:60px;"">+</div>","null","","fixation","","","","","","","","",""
"memory-trial","261","640244","0.0-15.0-1.108","1686","2","""event"",""trial"",""time""
""fullscreenenter"",""1"",""4283""
","
","
","""event"",""trial"",""time""
""fullscreenenter"",""1"",""4283""
","
","","","","","","1380.6000000238419","images/sheep2.png","","","memory_trial","2","maybe_old","","","","","","",""
"html-keyboard-response","262","640746","0.0-15.0-0.109","1686","2","""event"",""trial"",""time""
""fullscreenenter"",""1"",""4283""
","
","
","""event"",""trial"",""time""
""fullscreenenter"",""1"",""4283""
","
","","","","","","null","<div style=""font-size:60px;"">+</div>","null","","fixation","","","","","","","","",""
"memory-trial","263","642243","0.0-15.0-1.109","1686","2","""event"",""trial"",""time""
""fullscreenenter"",""1"",""4283""
","
","
","""event"",""trial"",""time""
""fullscreenenter"",""1"",""4283""
","
","","","","","","493.90000009536743","images/flower1.png","","","memory_trial","2","maybe_old","","","","","","",""
"html-keyboard-response","264","642746","0.0-15.0-0.110","1686","2","""event"",""trial"",""time""
""fullscreenenter"",""1"",""4283""
","
","
","""event"",""trial"",""time""
""fullscreenenter"",""1"",""4283""
","
","","","","","","null","<div style=""font-size:60px;"">+</div>","null","","fixation","","","","","","","","",""
"memory-trial","265","644049","0.0-15.0-1.110","1686","2","""event"",""trial"",""time""
""fullscreenenter"",""1"",""4283""
","
","
","""event"",""trial"",""time""
""fullscreenenter"",""1"",""4283""
","
","","","","","","300.2999999523163","images/bed1.png","","","memory_trial","2","maybe_old","","","","","","",""
"html-keyboard-response","266","644552","0.0-15.0-0.111","1686","2","""event"",""trial"",""time""
""fullscreenenter"",""1"",""4283""
","
","
","""event"",""trial"",""time""
""fullscreenenter"",""1"",""4283""
","
","","","","","","null","<div style=""font-size:60px;"">+</div>","null","","fixation","","","","","","","","",""
"memory-trial","267","645854","0.0-15.0-1.111","1686","2","""event"",""trial"",""time""
""fullscreenenter"",""1"",""4283""
","
","
","""event"",""trial"",""time""
""fullscreenenter"",""1"",""4283""
","
","","","","","","298.39999997615814","images/chair4.png","","","memory_trial","2","maybe_old","","","","","","",""
"html-keyboard-response","268","646356","0.0-15.0-0.112","1686","2","""event"",""trial"",""time""
""fullscreenenter"",""1"",""4283""
","
","
","""event"",""trial"",""time""
""fullscreenenter"",""1"",""4283""
","
","","","","","","null","<div style=""font-size:60px;"">+</div>","null","","fixation","","","","","","","","",""
"memory-trial","269","647563","0.0-15.0-1.112","1686","2","""event"",""trial"",""time""
""fullscreenenter"",""1"",""4283""
","
","
","""event"",""trial"",""time""
""fullscreenenter"",""1"",""4283""
","
","","","","","","202.79999995231628","images/plane3.png","","","memory_trial","2","maybe_old","","","","","","",""
"html-keyboard-response","270","648065","0.0-15.0-0.113","1686","2","""event"",""trial"",""time""
""fullscreenenter"",""1"",""4283""
","
","
","""event"",""trial"",""time""
""fullscreenenter"",""1"",""4283""
","
","","","","","","null","<div style=""font-size:60px;"">+</div>","null","","fixation","","","","","","","","",""
"memory-trial","271","649486","0.0-15.0-1.113","1686","2","""event"",""trial"",""time""
""fullscreenenter"",""1"",""4283""
","
","
","""event"",""trial"",""time""
""fullscreenenter"",""1"",""4283""
","
","","","","","","416.2999999523163","images/orange4.png","","","memory_trial","2","maybe_old","","","","","","",""
"html-keyboard-response","272","649993","0.0-15.0-0.114","1686","2","""event"",""trial"",""time""
""fullscreenenter"",""1"",""4283""
","
","
","""event"",""trial"",""time""
""fullscreenenter"",""1"",""4283""
","
","","","","","","null","<div style=""font-size:60px;"">+</div>","null","","fixation","","","","","","","","",""
"memory-trial","273","651261","0.0-15.0-1.114","1686","2","""event"",""trial"",""time""
""fullscreenenter"",""1"",""4283""
","
","
","""event"",""trial"",""time""
""fullscreenenter"",""1"",""4283""
","
","","","","","","263.89999997615814","images/plane5.png","","","memory_trial","2","maybe_old","","","","","","",""
"html-keyboard-response","274","651764","0.0-15.0-0.115","1686","2","""event"",""trial"",""time""
""fullscreenenter"",""1"",""4283""
","
","
","""event"",""trial"",""time""
""fullscreenenter"",""1"",""4283""
","
","","","","","","null","<div style=""font-size:60px;"">+</div>","null","","fixation","","","","","","","","",""
"memory-trial","275","653099","0.0-15.0-1.115","1686","2","""event"",""trial"",""time""
""fullscreenenter"",""1"",""4283""
","
","
","""event"",""trial"",""time""
""fullscreenenter"",""1"",""4283""
","
","","","","","","331.89999997615814","images/table3.png","","","memory_trial","2","maybe_old","","","","","","",""
"html-keyboard-response","276","653602","0.0-15.0-0.116","1686","2","""event"",""trial"",""time""
""fullscreenenter"",""1"",""4283""
","
","
","""event"",""trial"",""time""
""fullscreenenter"",""1"",""4283""
","
","","","","","","null","<div style=""font-size:60px;"">+</div>","null","","fixation","","","","","","","","",""
"memory-trial","277","654975","0.0-15.0-1.116","1686","2","""event"",""trial"",""time""
""fullscreenenter"",""1"",""4283""
","
","
","""event"",""trial"",""time""
""fullscreenenter"",""1"",""4283""
","
","","","","","","369.7999999523163","images/cactus2.png","","","memory_trial","2","maybe_old","","","","","","",""
"html-keyboard-response","278","655478","0.0-15.0-0.117","1686","2","""event"",""trial"",""time""
""fullscreenenter"",""1"",""4283""
","
","
","""event"",""trial"",""time""
""fullscreenenter"",""1"",""4283""
","
","","","","","","null","<div style=""font-size:60px;"">+</div>","null","","fixation","","","","","","","","",""
"memory-trial","279","656822","0.0-15.0-1.117","1686","2","""event"",""trial"",""time""
""fullscreenenter"",""1"",""4283""
","
","
","""event"",""trial"",""time""
""fullscreenenter"",""1"",""4283""
","
","","","","","","340.2000000476837","images/truck2.png","","","memory_trial","2","maybe_old","","","","","","",""
"html-keyboard-response","280","657324","0.0-15.0-0.118","1686","2","""event"",""trial"",""time""
""fullscreenenter"",""1"",""4283""
","
","
","""event"",""trial"",""time""
""fullscreenenter"",""1"",""4283""
","
","","","","","","null","<div style=""font-size:60px;"">+</div>","null","","fixation","","","","","","","","",""
"memory-trial","281","658757","0.0-15.0-1.118","1686","2","""event"",""trial"",""time""
""fullscreenenter"",""1"",""4283""
","
","
","""event"",""trial"",""time""
""fullscreenenter"",""1"",""4283""
","
","","","","","","427.89999997615814","images/straw4.png","","","memory_trial","2","maybe_old","","","","","","",""
"html-keyboard-response","282","659258","0.0-15.0-0.119","1686","2","""event"",""trial"",""time""
""fullscreenenter"",""1"",""4283""
","
","
","""event"",""trial"",""time""
""fullscreenenter"",""1"",""4283""
","
","","","","","","null","<div style=""font-size:60px;"">+</div>","null","","fixation","","","","","","","","",""
"memory-trial","283","660611","0.0-15.0-1.119","1686","2","""event"",""trial"",""time""
""fullscreenenter"",""1"",""4283""
","
","
","""event"",""trial"",""time""
""fullscreenenter"",""1"",""4283""
","
","","","","","","348.1999999284744","images/orange5.png","","","memory_trial","2","maybe_old","","","","","","",""
"preload","284","663831","0.0-16.0","1686","2","""event"",""trial"",""time""
""fullscreenenter"",""1"",""4283""
","
","
","""event"",""trial"",""time""
""fullscreenenter"",""1"",""4283""
","
","true","false","[]","[]","[]","","","","","","","","","","","","","",""
"learning-instructions","285","669566","0.0-17.0-0.0-0.0-0.0","1686","2","""event"",""trial"",""time""
""fullscreenenter"",""1"",""4283""
","
","
","""event"",""trial"",""time""
""fullscreenenter"",""1"",""4283""
","
","","","","","","2672.5","<p> We're now going to ask you to feed your pets again. </p>","","0","instructions","","","","","","","","",""
"learning-instructions","286","677053","0.0-17.0-0.0-0.0-0.1","1686","2","""event"",""trial"",""time""
""fullscreenenter"",""1"",""4283""
","
","
","""event"",""trial"",""time""
""fullscreenenter"",""1"",""4283""
","
","","","","","","1328.3999999761581","<p> On each trial, you will see a pet. Select the food that you think is most likely to make the pet happy. </p>","","0","instructions","","","","","","","","",""
"learning-instructions","287","685016","0.0-17.0-0.0-0.0-0.2","1686","2","""event"",""trial"",""time""
""fullscreenenter"",""1"",""4283""
","
","
","""event"",""trial"",""time""
""fullscreenenter"",""1"",""4283""
","
","","","","","","901.2999999523163","<p> To make your selection, think about what you learned last week. You will NOT receive any feedback about your choice. </p>","","0","instructions","","","","","","","","",""
"learning-instructions","288","694249","0.0-17.0-0.0-0.0-0.3","1686","2","""event"",""trial"",""time""
""fullscreenenter"",""1"",""4283""
","
","
","""event"",""trial"",""time""
""fullscreenenter"",""1"",""4283""
","
","","","","","","1604.2000000476837","<p> You should use the 1 key to select the food on the left, the 2 key to select the food in the middle, and the 3 key to select the food on the right. </p><br><div class=""choice-mem-instructions-grid""> <div class=""choice-mem-option""><img src=""images/pets_choice1.png"" class=""choice-mem-option-img"" stage=""instructions"" position=""0"" ><div class=""choice-mem-option-text""> Press ""1."" </div></div><div class=""choice-mem-option""><img src=""images/pets_choice2.png"" class=""choice-mem-option-img"" stage=""instructions"" position=""1"" ><div class=""choice-mem-option-text""> Press ""2."" </div></div><div class=""choice-mem-option""><img src=""images/pets_choice3.png"" class=""choice-mem-option-img"" stage=""instructions"" position=""2"" ><div class=""choice-mem-option-text""> Press ""3."" </div></div></div>","","0","instructions","","","","","","","","",""
"learning-instructions","289","701148","0.0-17.0-0.0-0.0-0.4","1686","2","""event"",""trial"",""time""
""fullscreenenter"",""1"",""4283""
","
","
","""event"",""trial"",""time""
""fullscreenenter"",""1"",""4283""
","
","","","","","","624.2999999523163","<p> You will have 10 seconds to make each selection. Try to respond before time runs out! </p>","","0","instructions","","","","","","","","",""
"learning-instructions","290","703688","0.0-17.0-0.0-1.0","1686","2","""event"",""trial"",""time""
""fullscreenenter"",""1"",""4283""
","
","
","""event"",""trial"",""time""
""fullscreenenter"",""1"",""4283""
","
","","","","","","474","<p> You are now ready to begin the game. </p>","","0","instructions","","","","","","","","",""
"html-keyboard-response","291","704306","0.0-17.0-0.0-2.0-0.0","1686","2","""event"",""trial"",""time""
""fullscreenenter"",""1"",""4283""
","
","
","""event"",""trial"",""time""
""fullscreenenter"",""1"",""4283""
","
","","","","","","null","<div style=""font-size:60px;"">+</div>","null","","fixation","","","","","","","","",""
"choice-memory-trial","292","707003","0.0-17.0-0.0-2.0-1.0","1686","2","""event"",""trial"",""time""
""fullscreenenter"",""1"",""4283""
","
","
","""event"",""trial"",""time""
""fullscreenenter"",""1"",""4283""
","
