"trial_type","trial_index","time_elapsed","internal_node_id","subject_id","task_version","interactions","blur_events","focus_events","fullscreenenter_events","fullscreenexit_events","success","timeout","failed_images","failed_audio","failed_video","rt","stimulus","response","button_pressed","task_part","key_press","answer","correct","left_choice","middle_choice","right_choice","choice_positions","option_selected","block"
"pavlovia","0","2","0.0-0.0","1694","2","""event"",""trial"",""time""
""fullscreenenter"",""1"",""3315""
","
","
","""event"",""trial"",""time""
""fullscreenenter"",""1"",""3315""
","
","","","","","","","","","","","","","","","","","","",""
"fullscreen","1","4298","0.0-1.0","1694","2","""event"",""trial"",""time""
""fullscreenenter"",""1"",""3315""
","
","
","""event"",""trial"",""time""
""fullscreenenter"",""1"",""3315""
","
","true","","","","","","","","","","","","","","","","","",""
"preload","2","4349","0.0-2.0","1694","2","""event"",""trial"",""time""
""fullscreenenter"",""1"",""3315""
","
","
","""event"",""trial"",""time""
""fullscreenenter"",""1"",""3315""
","
","true","false","[]","[]","[]","","","","","","","","","","","","","",""
"audio-keyboard-response","3","5460","0.0-3.0","1694","2","""event"",""trial"",""time""
""fullscreenenter"",""1"",""3315""
""fullscreenexit"",""4"",""6194""
","
","
","""event"",""trial"",""time""
""fullscreenenter"",""1"",""3315""
","""event"",""trial"",""time""
""fullscreenexit"",""4"",""6194""
","","","","","","0","audio/beep_loop.wav"," ","","","","","","","","","","",""
"audio-button-response","4","6951","0.0-4.0","1694","2","""event"",""trial"",""time""
""fullscreenenter"",""1"",""3315""
""fullscreenexit"",""4"",""6194""
","
","
","""event"",""trial"",""time""
""fullscreenenter"",""1"",""3315""
","""event"",""trial"",""time""
""fullscreenexit"",""4"",""6194""
","","","","","","1429","audio/turtle.wav","3","","","","","","","","","","",""
"audio-button-response","5","8466","0.0-5.0","1694","2","""event"",""trial"",""time""
""fullscreenenter"",""1"",""3315""
""fullscreenexit"",""4"",""6194""
","
","
","""event"",""trial"",""time""
""fullscreenenter"",""1"",""3315""
","""event"",""trial"",""time""
""fullscreenexit"",""4"",""6194""
","","","","","","509","audio/shark.wav","2","","","","","","","","","","",""
"preload","6","18510","0.0-6.0","1694","2","""event"",""trial"",""time""
""fullscreenenter"",""1"",""3315""
""fullscreenexit"",""4"",""6194""
","
","
","""event"",""trial"",""time""
""fullscreenenter"",""1"",""3315""
","""event"",""trial"",""time""
""fullscreenexit"",""4"",""6194""
","true","false","[]","[]","[]","","","","","","","","","","","","","",""
"learning-instructions","7","25952","0.0-7.0-0.0","1694","2","""event"",""trial"",""time""
""fullscreenenter"",""1"",""3315""
""fullscreenexit"",""4"",""6194""
""blur"",""8"",""28827""
""focus"",""8"",""31170""
","""event"",""trial"",""time""
""blur"",""8"",""28827""
","""event"",""trial"",""time""
""focus"",""8"",""31170""
","""event"",""trial"",""time""
""fullscreenenter"",""1"",""3315""
","""event"",""trial"",""time""
""fullscreenexit"",""4"",""6194""
","","","","","","2635.7999999970198","<p> Welcome back! </p><p> Last week, you had to make choices about lots of different items.  </p>","","0","instructions","","","","","","","","",""
"learning-instructions","8","32942","0.0-7.0-0.1","1694","2","""event"",""trial"",""time""
""fullscreenenter"",""1"",""3315""
""fullscreenexit"",""4"",""6194""
""blur"",""8"",""28827""
""focus"",""8"",""31170""
","""event"",""trial"",""time""
""blur"",""8"",""28827""
","""event"",""trial"",""time""
""focus"",""8"",""31170""
","""event"",""trial"",""time""
""fullscreenenter"",""1"",""3315""
","""event"",""trial"",""time""
""fullscreenexit"",""4"",""6194""
","","","","","","2678.89999999851","<p> Today, we are going to ask you to try to remember all the items. </p>","","0","instructions","","","","","","","","",""
"learning-instructions","9","44804","0.0-7.0-0.2","1694","2","""event"",""trial"",""time""
""fullscreenenter"",""1"",""3315""
""fullscreenexit"",""4"",""6194""
""blur"",""8"",""28827""
""focus"",""8"",""31170""
","""event"",""trial"",""time""
""blur"",""8"",""28827""
","""event"",""trial"",""time""
""focus"",""8"",""31170""
","""event"",""trial"",""time""
""fullscreenenter"",""1"",""3315""
","""event"",""trial"",""time""
""fullscreenexit"",""4"",""6194""
","","","","","","1708.6000000014901","<p> On every trial, you will see an image. </p><p> The image may be an OLD image you saw during the games last week or it may be a NEW image that was not presented. </p>","","0","instructions","","","","","","","","",""
"learning-instructions","10","54804","0.0-7.0-0.3","1694","2","""event"",""trial"",""time""
""fullscreenenter"",""1"",""3315""
""fullscreenexit"",""4"",""6194""
""blur"",""8"",""28827""
""focus"",""8"",""31170""
","""event"",""trial"",""time""
""blur"",""8"",""28827""
","""event"",""trial"",""time""
""focus"",""8"",""31170""
","""event"",""trial"",""time""
""fullscreenenter"",""1"",""3315""
","""event"",""trial"",""time""
""fullscreenexit"",""4"",""6194""
","","","","","","1487.2000000029802","<p> You need to select whether the image is:  </p><p>  'Definitely old', 'Maybe old', 'Maybe new', or 'Definitely new.'  </p><div class=""mem-choice-instructions-grid""><div class=""choice-option"" id=""choice-option-1"" ><img src=""images/definitely_old_1.png"" id=""choice-option-img-1"" class=""choice-option-img"" stage=""1""></div><div class=""choice-option"" id=""choice-option-2"" ><img src=""images/maybe_old_1.png"" id=""choice-option-img-2"" class=""choice-option-img"" stage=""1""></div><div class=""choice-option"" id=""choice-option-3"" ><img src=""images/maybe_new_1.png"" id=""choice-option-img-3"" class=""choice-option-img"" stage=""1""></div><div class=""choice-option"" id=""choice-option-4"" > <img src=""images/definitely_new_1.png"" id=""choice-option-img-4"" class=""choice-option-img"" stage=""1""></div></div>","","0","instructions","","","","","","","","",""
"learning-instructions","11","62800","0.0-7.0-0.4","1694","2","""event"",""trial"",""time""
""fullscreenenter"",""1"",""3315""
""fullscreenexit"",""4"",""6194""
""blur"",""8"",""28827""
""focus"",""8"",""31170""
","""event"",""trial"",""time""
""blur"",""8"",""28827""
","""event"",""trial"",""time""
""focus"",""8"",""31170""
","""event"",""trial"",""time""
""fullscreenenter"",""1"",""3315""
","""event"",""trial"",""time""
""fullscreenexit"",""4"",""6194""
","","","","","","1284.2999999970198","<p> You should use the 1, 2, 3, and 4 keys to make your responses.  </p><div class=""mem-choice-instructions-grid""><div class=""choice-option"" id=""choice-option-1"" ><img src=""images/definitely_old.png"" id=""choice-option-img-1"" class=""choice-option-img"" stage=""1""></div><div class=""choice-option"" id=""choice-option-2"" ><img src=""images/maybe_old.png"" id=""choice-option-img-2"" class=""choice-option-img"" stage=""1""></div><div class=""choice-option"" id=""choice-option-3"" ><img src=""images/maybe_new.png"" id=""choice-option-img-3"" class=""choice-option-img"" stage=""1""></div><div class=""choice-option"" id=""choice-option-4"" > <img src=""images/definitely_new.png"" id=""choice-option-img-4"" class=""choice-option-img"" stage=""1""></div></div>","","0","instructions","","","","","","","","",""
"learning-instructions","12","70999","0.0-7.0-0.5","1694","2","""event"",""trial"",""time""
""fullscreenenter"",""1"",""3315""
""fullscreenexit"",""4"",""6194""
""blur"",""8"",""28827""
""focus"",""8"",""31170""
","""event"",""trial"",""time""
""blur"",""8"",""28827""
","""event"",""trial"",""time""
""focus"",""8"",""31170""
","""event"",""trial"",""time""
""fullscreenenter"",""1"",""3315""
","""event"",""trial"",""time""
""fullscreenexit"",""4"",""6194""
","","","","","","1435.3999999985099","<p> You will have 10 seconds to make each response.  </p><p>  Make sure to respond before time runs out! </p>","","0","instructions","","","","","","","","",""
"learning-instructions","13","79720","0.0-7.0-0.6","1694","2","""event"",""trial"",""time""
""fullscreenenter"",""1"",""3315""
""fullscreenexit"",""4"",""6194""
""blur"",""8"",""28827""
""focus"",""8"",""31170""
","""event"",""trial"",""time""
""blur"",""8"",""28827""
","""event"",""trial"",""time""
""focus"",""8"",""31170""
","""event"",""trial"",""time""
""fullscreenenter"",""1"",""3315""
","""event"",""trial"",""time""
""fullscreenexit"",""4"",""6194""
","","","","","","1135.2000000029802","<p> Today, you will see each image ONCE only.  </p><p>  That means none of the images will repeat. </p>","","0","instructions","","","","","","","","",""
"learning-instructions","14","94227","0.0-7.0-0.7","1694","2","""event"",""trial"",""time""
""fullscreenenter"",""1"",""3315""
""fullscreenexit"",""4"",""6194""
""blur"",""8"",""28827""
""focus"",""8"",""31170""
","""event"",""trial"",""time""
""blur"",""8"",""28827""
","""event"",""trial"",""time""
""focus"",""8"",""31170""
","""event"",""trial"",""time""
""fullscreenenter"",""1"",""3315""
","""event"",""trial"",""time""
""fullscreenexit"",""4"",""6194""
","","","","","","1822.3000000044703","<p> Before you play the real game, it is time to practice. </p><p>  Just like in the real game, some of the images in the practice will be ones you have seen before. </p><p>  Others will be entirely new. </p>","","0","instructions","","","","","","","","",""
"html-button-response","15","96730","0.0-8.0","1694","2","""event"",""trial"",""time""
""fullscreenenter"",""1"",""3315""
""fullscreenexit"",""4"",""6194""
""blur"",""8"",""28827""
""focus"",""8"",""31170""
","""event"",""trial"",""time""
""blur"",""8"",""28827""
","""event"",""trial"",""time""
""focus"",""8"",""31170""
","""event"",""trial"",""time""
""fullscreenenter"",""1"",""3315""
","""event"",""trial"",""time""
""fullscreenexit"",""4"",""6194""
","","","","","","2385","<p> Ready to practice? </p><p> Remember, use the 1, 2, 3, and 4 keys to make your responses. </p>","0","","instructions","","","","","","","","",""
"html-keyboard-response","16","97353","0.0-9.0-0.0","1694","2","""event"",""trial"",""time""
""fullscreenenter"",""1"",""3315""
""fullscreenexit"",""4"",""6194""
""blur"",""8"",""28827""
""focus"",""8"",""31170""
","""event"",""trial"",""time""
""blur"",""8"",""28827""
","""event"",""trial"",""time""
""focus"",""8"",""31170""
","""event"",""trial"",""time""
""fullscreenenter"",""1"",""3315""
","""event"",""trial"",""time""
""fullscreenexit"",""4"",""6194""
","","","","","","null","<div style=""font-size:60px;"">+</div>","null","","fixation","","","","","","","","",""
"memory-trial","17","100643","0.0-9.0-1.0","1694","2","""event"",""trial"",""time""
""fullscreenenter"",""1"",""3315""
""fullscreenexit"",""4"",""6194""
""blur"",""8"",""28827""
""focus"",""8"",""31170""
","""event"",""trial"",""time""
""blur"",""8"",""28827""
","""event"",""trial"",""time""
""focus"",""8"",""31170""
","""event"",""trial"",""time""
""fullscreenenter"",""1"",""3315""
","""event"",""trial"",""time""
""fullscreenexit"",""4"",""6194""
","","","","","","2267.10000000149","images/ball4.png","","","practice","4","definitely_new","","","","","","",""
"html-keyboard-response","18","101152","0.0-9.0-0.1","1694","2","""event"",""trial"",""time""
""fullscreenenter"",""1"",""3315""
""fullscreenexit"",""4"",""6194""
""blur"",""8"",""28827""
""focus"",""8"",""31170""
","""event"",""trial"",""time""
""blur"",""8"",""28827""
","""event"",""trial"",""time""
""focus"",""8"",""31170""
","""event"",""trial"",""time""
""fullscreenenter"",""1"",""3315""
","""event"",""trial"",""time""
""fullscreenexit"",""4"",""6194""
","","","","","","null","<div style=""font-size:60px;"">+</div>","null","","fixation","","","","","","","","",""
"memory-trial","19","104723","0.0-9.0-1.1","1694","2","""event"",""trial"",""time""
""fullscreenenter"",""1"",""3315""
""fullscreenexit"",""4"",""6194""
""blur"",""8"",""28827""
""focus"",""8"",""31170""
","""event"",""trial"",""time""
""blur"",""8"",""28827""
","""event"",""trial"",""time""
""focus"",""8"",""31170""
","""event"",""trial"",""time""
""fullscreenenter"",""1"",""3315""
","""event"",""trial"",""time""
""fullscreenexit"",""4"",""6194""
","","","","","","2551.5","images/ball2.png","","","practice","3","maybe_new","","","","","","",""
"html-keyboard-response","20","105233","0.0-9.0-0.2","1694","2","""event"",""trial"",""time""
""fullscreenenter"",""1"",""3315""
""fullscreenexit"",""4"",""6194""
""blur"",""8"",""28827""
""focus"",""8"",""31170""
","""event"",""trial"",""time""
""blur"",""8"",""28827""
","""event"",""trial"",""time""
""focus"",""8"",""31170""
","""event"",""trial"",""time""
""fullscreenenter"",""1"",""3315""
","""event"",""trial"",""time""
""fullscreenexit"",""4"",""6194""
","","","","","","null","<div style=""font-size:60px;"">+</div>","null","","fixation","","","","","","","","",""
"memory-trial","21","107673","0.0-9.0-1.2","1694","2","""event"",""trial"",""time""
""fullscreenenter"",""1"",""3315""
""fullscreenexit"",""4"",""6194""
""blur"",""8"",""28827""
""focus"",""8"",""31170""
","""event"",""trial"",""time""
""blur"",""8"",""28827""
","""event"",""trial"",""time""
""focus"",""8"",""31170""
","""event"",""trial"",""time""
""fullscreenenter"",""1"",""3315""
","""event"",""trial"",""time""
""fullscreenexit"",""4"",""6194""
","","","","","","1415.7000000029802","images/racket1.png","","","practice","1","definitely_old","","","","","","",""
"html-keyboard-response","22","108182","0.0-9.0-0.3","1694","2","""event"",""trial"",""time""
""fullscreenenter"",""1"",""3315""
""fullscreenexit"",""4"",""6194""
""blur"",""8"",""28827""
""focus"",""8"",""31170""
","""event"",""trial"",""time""
""blur"",""8"",""28827""
","""event"",""trial"",""time""
""focus"",""8"",""31170""
","""event"",""trial"",""time""
""fullscreenenter"",""1"",""3315""
","""event"",""trial"",""time""
""fullscreenexit"",""4"",""6194""
","","","","","","null","<div style=""font-size:60px;"">+</div>","null","","fixation","","","","","","","","",""
"memory-trial","23","110092","0.0-9.0-1.3","1694","2","""event"",""trial"",""time""
""fullscreenenter"",""1"",""3315""
""fullscreenexit"",""4"",""6194""
""blur"",""8"",""28827""
""focus"",""8"",""31170""
","""event"",""trial"",""time""
""blur"",""8"",""28827""
","""event"",""trial"",""time""
""focus"",""8"",""31170""
","""event"",""trial"",""time""
""fullscreenenter"",""1"",""3315""
","""event"",""trial"",""time""
""fullscreenexit"",""4"",""6194""
","","","","","","900.1999999955297","images/racket2.png","","","practice","1","definitely_old","","","","","","",""
"html-keyboard-response","24","110602","0.0-9.0-0.4","1694","2","""event"",""trial"",""time""
""fullscreenenter"",""1"",""3315""
""fullscreenexit"",""4"",""6194""
""blur"",""8"",""28827""
""focus"",""8"",""31170""
","""event"",""trial"",""time""
""blur"",""8"",""28827""
","""event"",""trial"",""time""
""focus"",""8"",""31170""
","""event"",""trial"",""time""
""fullscreenenter"",""1"",""3315""
","""event"",""trial"",""time""
""fullscreenexit"",""4"",""6194""
","","","","","","null","<div style=""font-size:60px;"">+</div>","null","","fixation","","","","","","","","",""
"memory-trial","25","113662","0.0-9.0-1.4","1694","2","""event"",""trial"",""time""
""fullscreenenter"",""1"",""3315""
""fullscreenexit"",""4"",""6194""
""blur"",""8"",""28827""
""focus"",""8"",""31170""
","""event"",""trial"",""time""
""blur"",""8"",""28827""
","""event"",""trial"",""time""
""focus"",""8"",""31170""
","""event"",""trial"",""time""
""fullscreenenter"",""1"",""3315""
","""event"",""trial"",""time""
""fullscreenexit"",""4"",""6194""
","","","","","","2053.39999999851","images/ball3.png","","","practice","3","maybe_new","","","","","","",""
"html-keyboard-response","26","114182","0.0-9.0-0.5","1694","2","""event"",""trial"",""time""
""fullscreenenter"",""1"",""3315""
""fullscreenexit"",""4"",""6194""
""blur"",""8"",""28827""
""focus"",""8"",""31170""
","""event"",""trial"",""time""
""blur"",""8"",""28827""
","""event"",""trial"",""time""
""focus"",""8"",""31170""
","""event"",""trial"",""time""
""fullscreenenter"",""1"",""3315""
","""event"",""trial"",""time""
""fullscreenexit"",""4"",""6194""
","","","","","","null","<div style=""font-size:60px;"">+</div>","null","","fixation","","","","","","","","",""
"memory-trial","27","116682","0.0-9.0-1.5","1694","2","""event"",""trial"",""time""
""fullscreenenter"",""1"",""3315""
""fullscreenexit"",""4"",""6194""
""blur"",""8"",""28827""
""focus"",""8"",""31170""
","""event"",""trial"",""time""
""blur"",""8"",""28827""
","""event"",""trial"",""time""
""focus"",""8"",""31170""
","""event"",""trial"",""time""
""fullscreenenter"",""1"",""3315""
","""event"",""trial"",""time""
""fullscreenexit"",""4"",""6194""
","","","","","","1495.6000000014901","images/racket3.png","","","practice","4","definitely_new","","","","","","",""
"html-keyboard-response","28","117192","0.0-9.0-0.6","1694","2","""event"",""trial"",""time""
""fullscreenenter"",""1"",""3315""
""fullscreenexit"",""4"",""6194""
""blur"",""8"",""28827""
""focus"",""8"",""31170""
","""event"",""trial"",""time""
""blur"",""8"",""28827""
","""event"",""trial"",""time""
""focus"",""8"",""31170""
","""event"",""trial"",""time""
""fullscreenenter"",""1"",""3315""
","""event"",""trial"",""time""
""fullscreenexit"",""4"",""6194""
","","","","","","null","<div style=""font-size:60px;"">+</div>","null","","fixation","","","","","","","","",""
"memory-trial","29","119992","0.0-9.0-1.6","1694","2","""event"",""trial"",""time""
""fullscreenenter"",""1"",""3315""
""fullscreenexit"",""4"",""6194""
""blur"",""8"",""28827""
""focus"",""8"",""31170""
","""event"",""trial"",""time""
""blur"",""8"",""28827""
","""event"",""trial"",""time""
""focus"",""8"",""31170""
","""event"",""trial"",""time""
""fullscreenenter"",""1"",""3315""
","""event"",""trial"",""time""
""fullscreenexit"",""4"",""6194""
","","","","","","1795.8000000044703","images/racket4.png","","","practice","3","maybe_new","","","","","","",""
"html-keyboard-response","30","120512","0.0-9.0-0.7","1694","2","""event"",""trial"",""time""
""fullscreenenter"",""1"",""3315""
""fullscreenexit"",""4"",""6194""
""blur"",""8"",""28827""
""focus"",""8"",""31170""
","""event"",""trial"",""time""
""blur"",""8"",""28827""
","""event"",""trial"",""time""
""focus"",""8"",""31170""
","""event"",""trial"",""time""
""fullscreenenter"",""1"",""3315""
","""event"",""trial"",""time""
""fullscreenexit"",""4"",""6194""
","","","","","","null","<div style=""font-size:60px;"">+</div>","null","","fixation","","","","","","","","",""
"memory-trial","31","123050","0.0-9.0-1.7","1694","2","""event"",""trial"",""time""
""fullscreenenter"",""1"",""3315""
""fullscreenexit"",""4"",""6194""
""blur"",""8"",""28827""
""focus"",""8"",""31170""
","""event"",""trial"",""time""
""blur"",""8"",""28827""
","""event"",""trial"",""time""
""focus"",""8"",""31170""
","""event"",""trial"",""time""
""fullscreenenter"",""1"",""3315""
","""event"",""trial"",""time""
""fullscreenexit"",""4"",""6194""
","","","","","","1530.1000000014901","images/ball1.png","","","practice","2","maybe_old","","","","","","",""
"learning-instructions","32","132620","0.0-10.0-0.0","1694","2","""event"",""trial"",""time""
""fullscreenenter"",""1"",""3315""
""fullscreenexit"",""4"",""6194""
""blur"",""8"",""28827""
""focus"",""8"",""31170""
","""event"",""trial"",""time""
""blur"",""8"",""28827""
","""event"",""trial"",""time""
""focus"",""8"",""31170""
","""event"",""trial"",""time""
""fullscreenenter"",""1"",""3315""
","""event"",""trial"",""time""
""fullscreenexit"",""4"",""6194""
","","","","","","1631.7000000029802","<p> Great! You have completed the practice. </p><p> Before you start, we're going to ask you a few questions about how the game works.  </p>","","0","instructions","","","","","","","","",""
"preload","33","134871","0.0-11.0","1694","2","""event"",""trial"",""time""
""fullscreenenter"",""1"",""3315""
""fullscreenexit"",""4"",""6194""
""blur"",""8"",""28827""
""focus"",""8"",""31170""
","""event"",""trial"",""time""
""blur"",""8"",""28827""
","""event"",""trial"",""time""
""focus"",""8"",""31170""
","""event"",""trial"",""time""
""fullscreenenter"",""1"",""3315""
","""event"",""trial"",""time""
""fullscreenexit"",""4"",""6194""
","true","false","[]","[]","[]","","","","","","","","","","","","","",""
"comp-q","34","141481","0.0-12.0-0.0","1694","2","""event"",""trial"",""time""
""fullscreenenter"",""1"",""3315""
""fullscreenexit"",""4"",""6194""
""blur"",""8"",""28827""
""focus"",""8"",""31170""
","""event"",""trial"",""time""
""blur"",""8"",""28827""
","""event"",""trial"",""time""
""focus"",""8"",""31170""
","""event"",""trial"",""time""
""fullscreenenter"",""1"",""3315""
","""event"",""trial"",""time""
""fullscreenexit"",""4"",""6194""
","","","","","","781.7999999970198","<p> <b> True or False? </b> </p><p> In this game, you will only see each image once. </p>","","0","comp_question","","","true","","","","","",""
"comp-q","35","149660","0.0-12.0-1.0","1694","2","""event"",""trial"",""time""
""fullscreenenter"",""1"",""3315""
""fullscreenexit"",""4"",""6194""
""blur"",""8"",""28827""
""focus"",""8"",""31170""
","""event"",""trial"",""time""
""blur"",""8"",""28827""
","""event"",""trial"",""time""
""focus"",""8"",""31170""
","""event"",""trial"",""time""
""fullscreenenter"",""1"",""3315""
","""event"",""trial"",""time""
""fullscreenexit"",""4"",""6194""
","","","","","","1833.3000000044703","<p> <b> That's right! </b> You will see many different images <i> one time each </i> in this game. </p>","","0","comp_answer","","","","","","","","",""
"comp-q","36","156697","0.0-12.0-0.1","1694","2","""event"",""trial"",""time""
""fullscreenenter"",""1"",""3315""
""fullscreenexit"",""4"",""6194""
""blur"",""8"",""28827""
""focus"",""8"",""31170""
","""event"",""trial"",""time""
""blur"",""8"",""28827""
","""event"",""trial"",""time""
""focus"",""8"",""31170""
","""event"",""trial"",""time""
""fullscreenenter"",""1"",""3315""
","""event"",""trial"",""time""
""fullscreenexit"",""4"",""6194""
","","","","","","1229.4000000059605","<p> <b> True or False? </b> </p><p> You should use the mouse and click to make your response. </p>","","1","comp_question","","","true","","","","","",""
"comp-q","37","165371","0.0-12.0-1.1","1694","2","""event"",""trial"",""time""
""fullscreenenter"",""1"",""3315""
""fullscreenexit"",""4"",""6194""
""blur"",""8"",""28827""
""focus"",""8"",""31170""
","""event"",""trial"",""time""
""blur"",""8"",""28827""
","""event"",""trial"",""time""
""focus"",""8"",""31170""
","""event"",""trial"",""time""
""fullscreenenter"",""1"",""3315""
","""event"",""trial"",""time""
""fullscreenexit"",""4"",""6194""
","","","","","","1303.8999999985099","<p><b> That's right! </b> You should use the '1', '2', '3', and '4' keys to make your response. </p>","","0","comp_answer","","","","","","","","",""
"comp-q","38","172898","0.0-12.0-0.2","1694","2","""event"",""trial"",""time""
""fullscreenenter"",""1"",""3315""
""fullscreenexit"",""4"",""6194""
""blur"",""8"",""28827""
""focus"",""8"",""31170""
","""event"",""trial"",""time""
""blur"",""8"",""28827""
","""event"",""trial"",""time""
""focus"",""8"",""31170""
","""event"",""trial"",""time""
""fullscreenenter"",""1"",""3315""
","""event"",""trial"",""time""
""fullscreenexit"",""4"",""6194""
","","","","","","1520.4000000059605","<p> <b> True or False? </b> </p><p> You will have as much time as you want to make each choice. </p>","","1","comp_question","","","true","","","","","",""
"comp-q","39","179465","0.0-12.0-1.2","1694","2","""event"",""trial"",""time""
""fullscreenenter"",""1"",""3315""
""fullscreenexit"",""4"",""6194""
""blur"",""8"",""28827""
""focus"",""8"",""31170""
","""event"",""trial"",""time""
""blur"",""8"",""28827""
","""event"",""trial"",""time""
""focus"",""8"",""31170""
","""event"",""trial"",""time""
""fullscreenenter"",""1"",""3315""
","""event"",""trial"",""time""
""fullscreenexit"",""4"",""6194""
","","","","","","1178","<p> <b> That's right! </b> You will only have 10 seconds to make each choice. </p>","","0","comp_answer","","","","","","","","",""
"learning-instructions","40","190233","0.0-13.0","1694","2","""event"",""trial"",""time""
""fullscreenenter"",""1"",""3315""
""fullscreenexit"",""4"",""6194""
""blur"",""8"",""28827""
""focus"",""8"",""31170""
","""event"",""trial"",""time""
""blur"",""8"",""28827""
","""event"",""trial"",""time""
""focus"",""8"",""31170""
","""event"",""trial"",""time""
""fullscreenenter"",""1"",""3315""
","""event"",""trial"",""time""
""fullscreenexit"",""4"",""6194""
","","","","","","2095.60000000149","<p> Great! You are now ready to begin the game. </p><p> Remember, use the 1, 2, 3, and 4 keys to make your responses. </p>","","0","instructions","","","","","","","","",""
"preload","41","193295","0.0-14.0","1694","2","""event"",""trial"",""time""
""fullscreenenter"",""1"",""3315""
""fullscreenexit"",""4"",""6194""
""blur"",""8"",""28827""
""focus"",""8"",""31170""
","""event"",""trial"",""time""
""blur"",""8"",""28827""
","""event"",""trial"",""time""
""focus"",""8"",""31170""
","""event"",""trial"",""time""
""fullscreenenter"",""1"",""3315""
","""event"",""trial"",""time""
""fullscreenexit"",""4"",""6194""
","true","false","[]","[]","[]","","","","","","","","","","","","","",""
"html-keyboard-response","42","193805","0.0-15.0-0.0","1694","2","""event"",""trial"",""time""
""fullscreenenter"",""1"",""3315""
""fullscreenexit"",""4"",""6194""
""blur"",""8"",""28827""
""focus"",""8"",""31170""
","""event"",""trial"",""time""
""blur"",""8"",""28827""
","""event"",""trial"",""time""
""focus"",""8"",""31170""
","""event"",""trial"",""time""
""fullscreenenter"",""1"",""3315""
","""event"",""trial"",""time""
""fullscreenexit"",""4"",""6194""
","","","","","","null","<div style=""font-size:60px;"">+</div>","null","","fixation","","","","","","","","",""
"memory-trial","43","197505","0.0-15.0-1.0","1694","2","""event"",""trial"",""time""
""fullscreenenter"",""1"",""3315""
""fullscreenexit"",""4"",""6194""
""blur"",""8"",""28827""
""focus"",""8"",""31170""
","""event"",""trial"",""time""
""blur"",""8"",""28827""
","""event"",""trial"",""time""
""focus"",""8"",""31170""
","""event"",""trial"",""time""
""fullscreenenter"",""1"",""3315""
","""event"",""trial"",""time""
""fullscreenexit"",""4"",""6194""
","","","","","","2678.5","images/sofa5.png","","","memory_trial","1","definitely_old","","","","","","",""
"html-keyboard-response","44","198015","0.0-15.0-0.1","1694","2","""event"",""trial"",""time""
""fullscreenenter"",""1"",""3315""
""fullscreenexit"",""4"",""6194""
""blur"",""8"",""28827""
""focus"",""8"",""31170""
","""event"",""trial"",""time""
""blur"",""8"",""28827""
","""event"",""trial"",""time""
""focus"",""8"",""31170""
","""event"",""trial"",""time""
""fullscreenenter"",""1"",""3315""
","""event"",""trial"",""time""
""fullscreenexit"",""4"",""6194""
","","","","","","null","<div style=""font-size:60px;"">+</div>","null","","fixation","","","","","","","","",""
"memory-trial","45","201305","0.0-15.0-1.1","1694","2","""event"",""trial"",""time""
""fullscreenenter"",""1"",""3315""
""fullscreenexit"",""4"",""6194""
""blur"",""8"",""28827""
""focus"",""8"",""31170""
","""event"",""trial"",""time""
""blur"",""8"",""28827""
","""event"",""trial"",""time""
""focus"",""8"",""31170""
","""event"",""trial"",""time""
""fullscreenenter"",""1"",""3315""
","""event"",""trial"",""time""
""fullscreenexit"",""4"",""6194""
","","","","","","2281.8000000044703","images/rabbit1.png","","","memory_trial","1","definitely_old","","","","","","",""
"html-keyboard-response","46","201825","0.0-15.0-0.2","1694","2","""event"",""trial"",""time""
""fullscreenenter"",""1"",""3315""
""fullscreenexit"",""4"",""6194""
""blur"",""8"",""28827""
""focus"",""8"",""31170""
","""event"",""trial"",""time""
""blur"",""8"",""28827""
","""event"",""trial"",""time""
""focus"",""8"",""31170""
","""event"",""trial"",""time""
""fullscreenenter"",""1"",""3315""
","""event"",""trial"",""time""
""fullscreenexit"",""4"",""6194""
","","","","","","null","<div style=""font-size:60px;"">+</div>","null","","fixation","","","","","","","","",""
"memory-trial","47","204496","0.0-15.0-1.2","1694","2","""event"",""trial"",""time""
""fullscreenenter"",""1"",""3315""
""fullscreenexit"",""4"",""6194""
""blur"",""8"",""28827""
""focus"",""8"",""31170""
","""event"",""trial"",""time""
""blur"",""8"",""28827""
","""event"",""trial"",""time""
""focus"",""8"",""31170""
","""event"",""trial"",""time""
""fullscreenenter"",""1"",""3315""
","""event"",""trial"",""time""
""fullscreenexit"",""4"",""6194""
","","","","","","1649.1999999955297","images/train4.png","","","memory_trial","4","definitely_new","","","","","","",""
"html-keyboard-response","48","205005","0.0-15.0-0.3","1694","2","""event"",""trial"",""time""
""fullscreenenter"",""1"",""3315""
""fullscreenexit"",""4"",""6194""
""blur"",""8"",""28827""
""focus"",""8"",""31170""
","""event"",""trial"",""time""
""blur"",""8"",""28827""
","""event"",""trial"",""time""
""focus"",""8"",""31170""
","""event"",""trial"",""time""
""fullscreenenter"",""1"",""3315""
","""event"",""trial"",""time""
""fullscreenexit"",""4"",""6194""
","","","","","","null","<div style=""font-size:60px;"">+</div>","null","","fixation","","","","","","","","",""
"memory-trial","49","208705","0.0-15.0-1.3","1694","2","""event"",""trial"",""time""
""fullscreenenter"",""1"",""3315""
""fullscreenexit"",""4"",""6194""
""blur"",""8"",""28827""
""focus"",""8"",""31170""
","""event"",""trial"",""time""
""blur"",""8"",""28827""
","""event"",""trial"",""time""
""focus"",""8"",""31170""
","""event"",""trial"",""time""
""fullscreenenter"",""1"",""3315""
","""event"",""trial"",""time""
""fullscreenexit"",""4"",""6194""
","","","","","","2683.2000000029802","images/banana5.png","","","memory_trial","1","definitely_old","","","","","","",""
"html-keyboard-response","50","209215","0.0-15.0-0.4","1694","2","""event"",""trial"",""time""
""fullscreenenter"",""1"",""3315""
""fullscreenexit"",""4"",""6194""
""blur"",""8"",""28827""
""focus"",""8"",""31170""
","""event"",""trial"",""time""
""blur"",""8"",""28827""
","""event"",""trial"",""time""
""focus"",""8"",""31170""
","""event"",""trial"",""time""
""fullscreenenter"",""1"",""3315""
","""event"",""trial"",""time""
""fullscreenexit"",""4"",""6194""
","","","","","","null","<div style=""font-size:60px;"">+</div>","null","","fixation","","","","","","","","",""
"memory-trial","51","211655","0.0-15.0-1.4","1694","2","""event"",""trial"",""time""
""fullscreenenter"",""1"",""3315""
""fullscreenexit"",""4"",""6194""
""blur"",""8"",""28827""
""focus"",""8"",""31170""
","""event"",""trial"",""time""
""blur"",""8"",""28827""
","""event"",""trial"",""time""
""focus"",""8"",""31170""
","""event"",""trial"",""time""
""fullscreenenter"",""1"",""3315""
","""event"",""trial"",""time""
""fullscreenexit"",""4"",""6194""
","","","","","","1426.7000000029802","images/cow2.png","","","memory_trial","1","definitely_old","","","","","","",""
"html-keyboard-response","52","212164","0.0-15.0-0.5","1694","2","""event"",""trial"",""time""
""fullscreenenter"",""1"",""3315""
""fullscreenexit"",""4"",""6194""
""blur"",""8"",""28827""
""focus"",""8"",""31170""
","""event"",""trial"",""time""
""blur"",""8"",""28827""
","""event"",""trial"",""time""
""focus"",""8"",""31170""
","""event"",""trial"",""time""
""fullscreenenter"",""1"",""3315""
","""event"",""trial"",""time""
""fullscreenexit"",""4"",""6194""
","","","","","","null","<div style=""font-size:60px;"">+</div>","null","","fixation","","","","","","","","",""
"memory-trial","53","214735","0.0-15.0-1.5","1694","2","""event"",""trial"",""time""
""fullscreenenter"",""1"",""3315""
""fullscreenexit"",""4"",""6194""
""blur"",""8"",""28827""
""focus"",""8"",""31170""
","""event"",""trial"",""time""
""blur"",""8"",""28827""
","""event"",""trial"",""time""
""focus"",""8"",""31170""
","""event"",""trial"",""time""
""fullscreenenter"",""1"",""3315""
","""event"",""trial"",""time""
""fullscreenexit"",""4"",""6194""
","","","","","","1564.5","images/rodent5.png","","","memory_trial","3","maybe_new","","","","","","",""
"html-keyboard-response","54","215255","0.0-15.0-0.6","1694","2","""event"",""trial"",""time""
""fullscreenenter"",""1"",""3315""
""fullscreenexit"",""4"",""6194""
""blur"",""8"",""28827""
""focus"",""8"",""31170""
","""event"",""trial"",""time""
""blur"",""8"",""28827""
","""event"",""trial"",""time""
""focus"",""8"",""31170""
","""event"",""trial"",""time""
""fullscreenenter"",""1"",""3315""
","""event"",""trial"",""time""
""fullscreenexit"",""4"",""6194""
","","","","","","null","<div style=""font-size:60px;"">+</div>","null","","fixation","","","","","","","","",""
"memory-trial","55","218429","0.0-15.0-1.6","1694","2","""event"",""trial"",""time""
""fullscreenenter"",""1"",""3315""
""fullscreenexit"",""4"",""6194""
""blur"",""8"",""28827""
""focus"",""8"",""31170""
","""event"",""trial"",""time""
""blur"",""8"",""28827""
","""event"",""trial"",""time""
""focus"",""8"",""31170""
","""event"",""trial"",""time""
""fullscreenenter"",""1"",""3315""
","""event"",""trial"",""time""
""fullscreenexit"",""4"",""6194""
","","","","","","2167.89999999851","images/bed3.png","","","memory_trial","3","maybe_new","","","","","","",""
"html-keyboard-response","56","218932","0.0-15.0-0.7","1694","2","""event"",""trial"",""time""
""fullscreenenter"",""1"",""3315""
""fullscreenexit"",""4"",""6194""
""blur"",""8"",""28827""
""focus"",""8"",""31170""
","""event"",""trial"",""time""
""blur"",""8"",""28827""
","""event"",""trial"",""time""
""focus"",""8"",""31170""
","""event"",""trial"",""time""
""fullscreenenter"",""1"",""3315""
","""event"",""trial"",""time""
""fullscreenexit"",""4"",""6194""
","","","","","","null","<div style=""font-size:60px;"">+</div>","null","","fixation","","","","","","","","",""
"memory-trial","57","221553","0.0-15.0-1.7","1694","2","""event"",""trial"",""time""
""fullscreenenter"",""1"",""3315""
""fullscreenexit"",""4"",""6194""
""blur"",""8"",""28827""
""focus"",""8"",""31170""
","""event"",""trial"",""time""
""blur"",""8"",""28827""
","""event"",""trial"",""time""
""focus"",""8"",""31170""
","""event"",""trial"",""time""
""fullscreenenter"",""1"",""3315""
","""event"",""trial"",""time""
""fullscreenexit"",""4"",""6194""
","","","","","","1616.1999999955297","images/bush3.png","","","memory_trial","1","definitely_old","","","","","","",""
"html-keyboard-response","58","222056","0.0-15.0-0.8","1694","2","""event"",""trial"",""time""
""fullscreenenter"",""1"",""3315""
""fullscreenexit"",""4"",""6194""
""blur"",""8"",""28827""
""focus"",""8"",""31170""
","""event"",""trial"",""time""
""blur"",""8"",""28827""
","""event"",""trial"",""time""
""focus"",""8"",""31170""
","""event"",""trial"",""time""
""fullscreenenter"",""1"",""3315""
","""event"",""trial"",""time""
""fullscreenexit"",""4"",""6194""
","","","","","","null","<div style=""font-size:60px;"">+</div>","null","","fixation","","","","","","","","",""
"memory-trial","59","224985","0.0-15.0-1.8","1694","2","""event"",""trial"",""time""
""fullscreenenter"",""1"",""3315""
""fullscreenexit"",""4"",""6194""
""blur"",""8"",""28827""
""focus"",""8"",""31170""
","""event"",""trial"",""time""
""blur"",""8"",""28827""
","""event"",""trial"",""time""
""focus"",""8"",""31170""
","""event"",""trial"",""time""
""fullscreenenter"",""1"",""3315""
","""event"",""trial"",""time""
""fullscreenexit"",""4"",""6194""
","","","","","","1923.3000000044703","images/boat1.png","","","memory_trial","1","definitely_old","","","","","","",""
"html-keyboard-response","60","225489","0.0-15.0-0.9","1694","2","""event"",""trial"",""time""
""fullscreenenter"",""1"",""3315""
""fullscreenexit"",""4"",""6194""
""blur"",""8"",""28827""
""focus"",""8"",""31170""
","""event"",""trial"",""time""
""blur"",""8"",""28827""
","""event"",""trial"",""time""
""focus"",""8"",""31170""
","""event"",""trial"",""time""
""fullscreenenter"",""1"",""3315""
","""event"",""trial"",""time""
""fullscreenexit"",""4"",""6194""
","","","","","","null","<div style=""font-size:60px;"">+</div>","null","","fixation","","","","","","","","",""
"memory-trial","61","228065","0.0-15.0-1.9","1694","2","""event"",""trial"",""time""
""fullscreenenter"",""1"",""3315""
""fullscreenexit"",""4"",""6194""
""blur"",""8"",""28827""
""focus"",""8"",""31170""
","""event"",""trial"",""time""
""blur"",""8"",""28827""
","""event"",""trial"",""time""
""focus"",""8"",""31170""
","""event"",""trial"",""time""
""fullscreenenter"",""1"",""3315""
","""event"",""trial"",""time""
""fullscreenexit"",""4"",""6194""
","","","","","","1572.1000000014901","images/rodent2.png","","","memory_trial","2","maybe_old","","","","","","",""
"html-keyboard-response","62","228568","0.0-15.0-0.10","1694","2","""event"",""trial"",""time""
""fullscreenenter"",""1"",""3315""
""fullscreenexit"",""4"",""6194""
""blur"",""8"",""28827""
""focus"",""8"",""31170""
","""event"",""trial"",""time""
""blur"",""8"",""28827""
","""event"",""trial"",""time""
""focus"",""8"",""31170""
","""event"",""trial"",""time""
""fullscreenenter"",""1"",""3315""
","""event"",""trial"",""time""
""fullscreenexit"",""4"",""6194""
","","","","","","null","<div style=""font-size:60px;"">+</div>","null","","fixation","","","","","","","","",""
"memory-trial","63","232846","0.0-15.0-1.10","1694","2","""event"",""trial"",""time""
""fullscreenenter"",""1"",""3315""
""fullscreenexit"",""4"",""6194""
""blur"",""8"",""28827""
""focus"",""8"",""31170""
","""event"",""trial"",""time""
""blur"",""8"",""28827""
","""event"",""trial"",""time""
""focus"",""8"",""31170""
","""event"",""trial"",""time""
""fullscreenenter"",""1"",""3315""
","""event"",""trial"",""time""
""fullscreenexit"",""4"",""6194""
","","","","","","3272.10000000149","images/plane1.png","","","memory_trial","3","maybe_new","","","","","","",""
"html-keyboard-response","64","233355","0.0-15.0-0.11","1694","2","""event"",""trial"",""time""
""fullscreenenter"",""1"",""3315""
""fullscreenexit"",""4"",""6194""
""blur"",""8"",""28827""
""focus"",""8"",""31170""
","""event"",""trial"",""time""
""blur"",""8"",""28827""
","""event"",""trial"",""time""
""focus"",""8"",""31170""
","""event"",""trial"",""time""
""fullscreenenter"",""1"",""3315""
","""event"",""trial"",""time""
""fullscreenexit"",""4"",""6194""
","","","","","","null","<div style=""font-size:60px;"">+</div>","null","","fixation","","","","","","","","",""
"memory-trial","65","236338","0.0-15.0-1.11","1694","2","""event"",""trial"",""time""
""fullscreenenter"",""1"",""3315""
""fullscreenexit"",""4"",""6194""
""blur"",""8"",""28827""
""focus"",""8"",""31170""
","""event"",""trial"",""time""
""blur"",""8"",""28827""
","""event"",""trial"",""time""
""focus"",""8"",""31170""
","""event"",""trial"",""time""
""fullscreenenter"",""1"",""3315""
","""event"",""trial"",""time""
""fullscreenexit"",""4"",""6194""
","","","","","","1977.8999999985099","images/truck5.png","","","memory_trial","2","maybe_old","","","","","","",""
"html-keyboard-response","66","236840","0.0-15.0-0.12","1694","2","""event"",""trial"",""time""
""fullscreenenter"",""1"",""3315""
""fullscreenexit"",""4"",""6194""
""blur"",""8"",""28827""
""focus"",""8"",""31170""
","""event"",""trial"",""time""
""blur"",""8"",""28827""
","""event"",""trial"",""time""
""focus"",""8"",""31170""
","""event"",""trial"",""time""
""fullscreenenter"",""1"",""3315""
","""event"",""trial"",""time""
""fullscreenexit"",""4"",""6194""
","","","","","","null","<div style=""font-size:60px;"">+</div>","null","","fixation","","","","","","","","",""
"memory-trial","67","239468","0.0-15.0-1.12","1694","2","""event"",""trial"",""time""
""fullscreenenter"",""1"",""3315""
""fullscreenexit"",""4"",""6194""
""blur"",""8"",""28827""
""focus"",""8"",""31170""
","""event"",""trial"",""time""
""blur"",""8"",""28827""
","""event"",""trial"",""time""
""focus"",""8"",""31170""
","""event"",""trial"",""time""
""fullscreenenter"",""1"",""3315""
","""event"",""trial"",""time""
""fullscreenexit"",""4"",""6194""
","","","","","","1625.2000000029802","images/table3.png","","","memory_trial","3","maybe_new","","","","","","",""
"html-keyboard-response","68","239970","0.0-15.0-0.13","1694","2","""event"",""trial"",""time""
""fullscreenenter"",""1"",""3315""
""fullscreenexit"",""4"",""6194""
""blur"",""8"",""28827""
""focus"",""8"",""31170""
","""event"",""trial"",""time""
""blur"",""8"",""28827""
","""event"",""trial"",""time""
""focus"",""8"",""31170""
","""event"",""trial"",""time""
""fullscreenenter"",""1"",""3315""
","""event"",""trial"",""time""
""fullscreenexit"",""4"",""6194""
","","","","","","null","<div style=""font-size:60px;"">+</div>","null","","fixation","","","","","","","","",""
"memory-trial","69","242460","0.0-15.0-1.13","1694","2","""event"",""trial"",""time""
""fullscreenenter"",""1"",""3315""
""fullscreenexit"",""4"",""6194""
""blur"",""8"",""28827""
""focus"",""8"",""31170""
","""event"",""trial"",""time""
""blur"",""8"",""28827""
","""event"",""trial"",""time""
""focus"",""8"",""31170""
","""event"",""trial"",""time""
""fullscreenenter"",""1"",""3315""
","""event"",""trial"",""time""
""fullscreenexit"",""4"",""6194""
","","","","","","1485.3000000044703","images/horse1.png","","","memory_trial","4","definitely_new","","","","","","",""
"html-keyboard-response","70","242963","0.0-15.0-0.14","1694","2","""event"",""trial"",""time""
""fullscreenenter"",""1"",""3315""
""fullscreenexit"",""4"",""6194""
""blur"",""8"",""28827""
""focus"",""8"",""31170""
","""event"",""trial"",""time""
""blur"",""8"",""28827""
","""event"",""trial"",""time""
""focus"",""8"",""31170""
","""event"",""trial"",""time""
""fullscreenenter"",""1"",""3315""
","""event"",""trial"",""time""
""fullscreenexit"",""4"",""6194""
","","","","","","null","<div style=""font-size:60px;"">+</div>","null","","fixation","","","","","","","","",""
"memory-trial","71","245732","0.0-15.0-1.14","1694","2","""event"",""trial"",""time""
""fullscreenenter"",""1"",""3315""
""fullscreenexit"",""4"",""6194""
""blur"",""8"",""28827""
""focus"",""8"",""31170""
","""event"",""trial"",""time""
""blur"",""8"",""28827""
","""event"",""trial"",""time""
""focus"",""8"",""31170""
","""event"",""trial"",""time""
""fullscreenenter"",""1"",""3315""
","""event"",""trial"",""time""
""fullscreenexit"",""4"",""6194""
","","","","","","1765.1000000014901","images/dog1.png","","","memory_trial","4","definitely_new","","","","","","",""
"html-keyboard-response","72","246238","0.0-15.0-0.15","1694","2","""event"",""trial"",""time""
""fullscreenenter"",""1"",""3315""
""fullscreenexit"",""4"",""6194""
""blur"",""8"",""28827""
""focus"",""8"",""31170""
","""event"",""trial"",""time""
""blur"",""8"",""28827""
","""event"",""trial"",""time""
""focus"",""8"",""31170""
","""event"",""trial"",""time""
""fullscreenenter"",""1"",""3315""
","""event"",""trial"",""time""
""fullscreenexit"",""4"",""6194""
","","","","","","null","<div style=""font-size:60px;"">+</div>","null","","fixation","","","","","","","","",""
"memory-trial","73","248776","0.0-15.0-1.15","1694","2","""event"",""trial"",""time""
""fullscreenenter"",""1"",""3315""
""fullscreenexit"",""4"",""6194""
""blur"",""8"",""28827""
""focus"",""8"",""31170""
","""event"",""trial"",""time""
""blur"",""8"",""28827""
","""event"",""trial"",""time""
""focus"",""8"",""31170""
","""event"",""trial"",""time""
""fullscreenenter"",""1"",""3315""
","""event"",""trial"",""time""
""fullscreenexit"",""4"",""6194""
","","","","","","1531.7999999970198","images/apple2.png","","","memory_trial","2","maybe_old","","","","","","",""
"html-keyboard-response","74","249279","0.0-15.0-0.16","1694","2","""event"",""trial"",""time""
""fullscreenenter"",""1"",""3315""
""fullscreenexit"",""4"",""6194""
""blur"",""8"",""28827""
""focus"",""8"",""31170""
","""event"",""trial"",""time""
""blur"",""8"",""28827""
","""event"",""trial"",""time""
""focus"",""8"",""31170""
","""event"",""trial"",""time""
""fullscreenenter"",""1"",""3315""
","""event"",""trial"",""time""
""fullscreenexit"",""4"",""6194""
","","","","","","null","<div style=""font-size:60px;"">+</div>","null","","fixation","","","","","","","","",""
"memory-trial","75","252023","0.0-15.0-1.16","1694","2","""event"",""trial"",""time""
""fullscreenenter"",""1"",""3315""
""fullscreenexit"",""4"",""6194""
""blur"",""8"",""28827""
""focus"",""8"",""31170""
","""event"",""trial"",""time""
""blur"",""8"",""28827""
","""event"",""trial"",""time""
""focus"",""8"",""31170""
","""event"",""trial"",""time""
""fullscreenenter"",""1"",""3315""
","""event"",""trial"",""time""
""fullscreenexit"",""4"",""6194""
","","","","","","1739.7000000029802","images/boat4.png","","","memory_trial","1","definitely_old","","","","","","",""
"html-keyboard-response","76","252525","0.0-15.0-0.17","1694","2","""event"",""trial"",""time""
""fullscreenenter"",""1"",""3315""
""fullscreenexit"",""4"",""6194""
""blur"",""8"",""28827""
""focus"",""8"",""31170""
","""event"",""trial"",""time""
""blur"",""8"",""28827""
","""event"",""trial"",""time""
""focus"",""8"",""31170""
","""event"",""trial"",""time""
""fullscreenenter"",""1"",""3315""
","""event"",""trial"",""time""
""fullscreenexit"",""4"",""6194""
","","","","","","null","<div style=""font-size:60px;"">+</div>","null","","fixation","","","","","","","","",""
"memory-trial","77","255602","0.0-15.0-1.17","1694","2","""event"",""trial"",""time""
""fullscreenenter"",""1"",""3315""
""fullscreenexit"",""4"",""6194""
""blur"",""8"",""28827""
""focus"",""8"",""31170""
","""event"",""trial"",""time""
""blur"",""8"",""28827""
","""event"",""trial"",""time""
""focus"",""8"",""31170""
","""event"",""trial"",""time""
""fullscreenenter"",""1"",""3315""
","""event"",""trial"",""time""
""fullscreenexit"",""4"",""6194""
","","","","","","2071","images/sheep3.png","","","memory_trial","3","maybe_new","","","","","","",""
"html-keyboard-response","78","256104","0.0-15.0-0.18","1694","2","""event"",""trial"",""time""
""fullscreenenter"",""1"",""3315""
""fullscreenexit"",""4"",""6194""
""blur"",""8"",""28827""
""focus"",""8"",""31170""
","""event"",""trial"",""time""
""blur"",""8"",""28827""
","""event"",""trial"",""time""
""focus"",""8"",""31170""
","""event"",""trial"",""time""
""fullscreenenter"",""1"",""3315""
","""event"",""trial"",""time""
""fullscreenexit"",""4"",""6194""
","","","","","","null","<div style=""font-size:60px;"">+</div>","null","","fixation","","","","","","","","",""
"memory-trial","79","259286","0.0-15.0-1.18","1694","2","""event"",""trial"",""time""
""fullscreenenter"",""1"",""3315""
""fullscreenexit"",""4"",""6194""
""blur"",""8"",""28827""
""focus"",""8"",""31170""
","""event"",""trial"",""time""
""blur"",""8"",""28827""
","""event"",""trial"",""time""
""focus"",""8"",""31170""
","""event"",""trial"",""time""
""fullscreenenter"",""1"",""3315""
","""event"",""trial"",""time""
""fullscreenexit"",""4"",""6194""
","","","","","","2176.2999999970198","images/apple3.png","","","memory_trial","4","definitely_new","","","","","","",""
"html-keyboard-response","80","259789","0.0-15.0-0.19","1694","2","""event"",""trial"",""time""
""fullscreenenter"",""1"",""3315""
""fullscreenexit"",""4"",""6194""
""blur"",""8"",""28827""
""focus"",""8"",""31170""
","""event"",""trial"",""time""
""blur"",""8"",""28827""
","""event"",""trial"",""time""
""focus"",""8"",""31170""
","""event"",""trial"",""time""
""fullscreenenter"",""1"",""3315""
","""event"",""trial"",""time""
""fullscreenexit"",""4"",""6194""
","","","","","","null","<div style=""font-size:60px;"">+</div>","null","","fixation","","","","","","","","",""
"memory-trial","81","262496","0.0-15.0-1.19","1694","2","""event"",""trial"",""time""
""fullscreenenter"",""1"",""3315""
""fullscreenexit"",""4"",""6194""
""blur"",""8"",""28827""
""focus"",""8"",""31170""
","""event"",""trial"",""time""
""blur"",""8"",""28827""
","""event"",""trial"",""time""
""focus"",""8"",""31170""
","""event"",""trial"",""time""
""fullscreenenter"",""1"",""3315""
","""event"",""trial"",""time""
""fullscreenexit"",""4"",""6194""
","","","","","","1701.5","images/bed5.png","","","memory_trial","4","definitely_new","","","","","","",""
"html-keyboard-response","82","262998","0.0-15.0-0.20","1694","2","""event"",""trial"",""time""
""fullscreenenter"",""1"",""3315""
""fullscreenexit"",""4"",""6194""
""blur"",""8"",""28827""
""focus"",""8"",""31170""
","""event"",""trial"",""time""
""blur"",""8"",""28827""
","""event"",""trial"",""time""
""focus"",""8"",""31170""
","""event"",""trial"",""time""
""fullscreenenter"",""1"",""3315""
","""event"",""trial"",""time""
""fullscreenexit"",""4"",""6194""
","","","","","","null","<div style=""font-size:60px;"">+</div>","null","","fixation","","","","","","","","",""
"memory-trial","83","265423","0.0-15.0-1.20","1694","2","""event"",""trial"",""time""
""fullscreenenter"",""1"",""3315""
""fullscreenexit"",""4"",""6194""
""blur"",""8"",""28827""
""focus"",""8"",""31170""
","""event"",""trial"",""time""
""blur"",""8"",""28827""
","""event"",""trial"",""time""
""focus"",""8"",""31170""
","""event"",""trial"",""time""
""fullscreenenter"",""1"",""3315""
","""event"",""trial"",""time""
""fullscreenexit"",""4"",""6194""
","","","","","","1419.2000000029802","images/chair4.png","","","memory_trial","4","definitely_new","","","","","","",""
"html-keyboard-response","84","265925","0.0-15.0-0.21","1694","2","""event"",""trial"",""time""
""fullscreenenter"",""1"",""3315""
""fullscreenexit"",""4"",""6194""
""blur"",""8"",""28827""
""focus"",""8"",""31170""
","""event"",""trial"",""time""
""blur"",""8"",""28827""
","""event"",""trial"",""time""
""focus"",""8"",""31170""
","""event"",""trial"",""time""
""fullscreenenter"",""1"",""3315""
","""event"",""trial"",""time""
""fullscreenexit"",""4"",""6194""
","","","","","","null","<div style=""font-size:60px;"">+</div>","null","","fixation","","","","","","","","",""
"memory-trial","85","268482","0.0-15.0-1.21","1694","2","""event"",""trial"",""time""
""fullscreenenter"",""1"",""3315""
""fullscreenexit"",""4"",""6194""
""blur"",""8"",""28827""
""focus"",""8"",""31170""
","""event"",""trial"",""time""
""blur"",""8"",""28827""
","""event"",""trial"",""time""
""focus"",""8"",""31170""
","""event"",""trial"",""time""
""fullscreenenter"",""1"",""3315""
","""event"",""trial"",""time""
""fullscreenexit"",""4"",""6194""
","","","","","","1551.2999999970198","images/rodent1.png","","","memory_trial","2","maybe_old","","","","","","",""
"html-keyboard-response","86","268984","0.0-15.0-0.22","1694","2","""event"",""trial"",""time""
""fullscreenenter"",""1"",""3315""
""fullscreenexit"",""4"",""6194""
""blur"",""8"",""28827""
""focus"",""8"",""31170""
","""event"",""trial"",""time""
""blur"",""8"",""28827""
","""event"",""trial"",""time""
""focus"",""8"",""31170""
","""event"",""trial"",""time""
""fullscreenenter"",""1"",""3315""
","""event"",""trial"",""time""
""fullscreenexit"",""4"",""6194""
","","","","","","null","<div style=""font-size:60px;"">+</div>","null","","fixation","","","","","","","","",""
"memory-trial","87","272534","0.0-15.0-1.22","1694","2","""event"",""trial"",""time""
""fullscreenenter"",""1"",""3315""
""fullscreenexit"",""4"",""6194""
""blur"",""8"",""28827""
""focus"",""8"",""31170""
","""event"",""trial"",""time""
""blur"",""8"",""28827""
","""event"",""trial"",""time""
""focus"",""8"",""31170""
","""event"",""trial"",""time""
""fullscreenenter"",""1"",""3315""
","""event"",""trial"",""time""
""fullscreenexit"",""4"",""6194""
","","","","","","2543.8000000044703","images/rabbit3.png","","","memory_trial","4","definitely_new","","","","","","",""
"html-keyboard-response","88","273036","0.0-15.0-0.23","1694","2","""event"",""trial"",""time""
""fullscreenenter"",""1"",""3315""
""fullscreenexit"",""4"",""6194""
""blur"",""8"",""28827""
""focus"",""8"",""31170""
","""event"",""trial"",""time""
""blur"",""8"",""28827""
","""event"",""trial"",""time""
""focus"",""8"",""31170""
","""event"",""trial"",""time""
""fullscreenenter"",""1"",""3315""
","""event"",""trial"",""time""
""fullscreenexit"",""4"",""6194""
","","","","","","null","<div style=""font-size:60px;"">+</div>","null","","fixation","","","","","","","","",""
"memory-trial","89","275548","0.0-15.0-1.23","1694","2","""event"",""trial"",""time""
""fullscreenenter"",""1"",""3315""
""fullscreenexit"",""4"",""6194""
""blur"",""8"",""28827""
""focus"",""8"",""31170""
","""event"",""trial"",""time""
""blur"",""8"",""28827""
","""event"",""trial"",""time""
""focus"",""8"",""31170""
","""event"",""trial"",""time""
""fullscreenenter"",""1"",""3315""
","""event"",""trial"",""time""
""fullscreenexit"",""4"",""6194""
","","","","","","1506.2000000029802","images/straw4.png","","","memory_trial","1","definitely_old","","","","","","",""
"html-keyboard-response","90","276050","0.0-15.0-0.24","1694","2","""event"",""trial"",""time""
""fullscreenenter"",""1"",""3315""
""fullscreenexit"",""4"",""6194""
""blur"",""8"",""28827""
""focus"",""8"",""31170""
","""event"",""trial"",""time""
""blur"",""8"",""28827""
","""event"",""trial"",""time""
""focus"",""8"",""31170""
","""event"",""trial"",""time""
""fullscreenenter"",""1"",""3315""
","""event"",""trial"",""time""
""fullscreenexit"",""4"",""6194""
","","","","","","null","<div style=""font-size:60px;"">+</div>","null","","fixation","","","","","","","","",""
"memory-trial","91","278503","0.0-15.0-1.24","1694","2","""event"",""trial"",""time""
""fullscreenenter"",""1"",""3315""
""fullscreenexit"",""4"",""6194""
""blur"",""8"",""28827""
""focus"",""8"",""31170""
","""event"",""trial"",""time""
""blur"",""8"",""28827""
","""event"",""trial"",""time""
""focus"",""8"",""31170""
","""event"",""trial"",""time""
""fullscreenenter"",""1"",""3315""
","""event"",""trial"",""time""
""fullscreenexit"",""4"",""6194""
","","","","","","1448.1000000014901","images/apple5.png","","","memory_trial","4","definitely_new","","","","","","",""
"html-keyboard-response","92","279006","0.0-15.0-0.25","1694","2","""event"",""trial"",""time""
""fullscreenenter"",""1"",""3315""
""fullscreenexit"",""4"",""6194""
""blur"",""8"",""28827""
""focus"",""8"",""31170""
","""event"",""trial"",""time""
""blur"",""8"",""28827""
","""event"",""trial"",""time""
""focus"",""8"",""31170""
","""event"",""trial"",""time""
""fullscreenenter"",""1"",""3315""
","""event"",""trial"",""time""
""fullscreenexit"",""4"",""6194""
","","","","","","null","<div style=""font-size:60px;"">+</div>","null","","fixation","","","","","","","","",""
"memory-trial","93","281771","0.0-15.0-1.25","1694","2","""event"",""trial"",""time""
""fullscreenenter"",""1"",""3315""
""fullscreenexit"",""4"",""6194""
""blur"",""8"",""28827""
""focus"",""8"",""31170""
","""event"",""trial"",""time""
""blur"",""8"",""28827""
","""event"",""trial"",""time""
""focus"",""8"",""31170""
","""event"",""trial"",""time""
""fullscreenenter"",""1"",""3315""
","""event"",""trial"",""time""
""fullscreenexit"",""4"",""6194""
","","","","","","1760.2000000029802","images/orange1.png","","","memory_trial","4","definitely_new","","","","","","",""
"html-keyboard-response","94","282273","0.0-15.0-0.26","1694","2","""event"",""trial"",""time""
""fullscreenenter"",""1"",""3315""
""fullscreenexit"",""4"",""6194""
""blur"",""8"",""28827""
""focus"",""8"",""31170""
","""event"",""trial"",""time""
""blur"",""8"",""28827""
","""event"",""trial"",""time""
""focus"",""8"",""31170""
","""event"",""trial"",""time""
""fullscreenenter"",""1"",""3315""
","""event"",""trial"",""time""
""fullscreenexit"",""4"",""6194""
","","","","","","null","<div style=""font-size:60px;"">+</div>","null","","fixation","","","","","","","","",""
"memory-trial","95","285641","0.0-15.0-1.26","1694","2","""event"",""trial"",""time""
""fullscreenenter"",""1"",""3315""
""fullscreenexit"",""4"",""6194""
""blur"",""8"",""28827""
""focus"",""8"",""31170""
","""event"",""trial"",""time""
""blur"",""8"",""28827""
","""event"",""trial"",""time""
""focus"",""8"",""31170""
","""event"",""trial"",""time""
""fullscreenenter"",""1"",""3315""
","""event"",""trial"",""time""
""fullscreenexit"",""4"",""6194""
","","","","","","2349.6999999955297","images/truck4.png","","","memory_trial","3","maybe_new","","","","","","",""
"html-keyboard-response","96","286144","0.0-15.0-0.27","1694","2","""event"",""trial"",""time""
""fullscreenenter"",""1"",""3315""
""fullscreenexit"",""4"",""6194""
""blur"",""8"",""28827""
""focus"",""8"",""31170""
","""event"",""trial"",""time""
""blur"",""8"",""28827""
","""event"",""trial"",""time""
""focus"",""8"",""31170""
","""event"",""trial"",""time""
""fullscreenenter"",""1"",""3315""
","""event"",""trial"",""time""
""fullscreenexit"",""4"",""6194""
","","","","","","null","<div style=""font-size:60px;"">+</div>","null","","fixation","","","","","","","","",""
"memory-trial","97","288757","0.0-15.0-1.27","1694","2","""event"",""trial"",""time""
""fullscreenenter"",""1"",""3315""
""fullscreenexit"",""4"",""6194""
""blur"",""8"",""28827""
""focus"",""8"",""31170""
","""event"",""trial"",""time""
""blur"",""8"",""28827""
","""event"",""trial"",""time""
""focus"",""8"",""31170""
","""event"",""trial"",""time""
""fullscreenenter"",""1"",""3315""
","""event"",""trial"",""time""
""fullscreenexit"",""4"",""6194""
","","","","","","1607.5","images/straw1.png","","","memory_trial","3","maybe_new","","","","","","",""
"html-keyboard-response","98","289260","0.0-15.0-0.28","1694","2","""event"",""trial"",""time""
""fullscreenenter"",""1"",""3315""
""fullscreenexit"",""4"",""6194""
""blur"",""8"",""28827""
""focus"",""8"",""31170""
","""event"",""trial"",""time""
""blur"",""8"",""28827""
","""event"",""trial"",""time""
""focus"",""8"",""31170""
","""event"",""trial"",""time""
""fullscreenenter"",""1"",""3315""
","""event"",""trial"",""time""
""fullscreenexit"",""4"",""6194""
","","","","","","null","<div style=""font-size:60px;"">+</div>","null","","fixation","","","","","","","","",""
"memory-trial","99","291803","0.0-15.0-1.28","1694","2","""event"",""trial"",""time""
""fullscreenenter"",""1"",""3315""
""fullscreenexit"",""4"",""6194""
""blur"",""8"",""28827""
""focus"",""8"",""31170""
","""event"",""trial"",""time""
""blur"",""8"",""28827""
","""event"",""trial"",""time""
""focus"",""8"",""31170""
","""event"",""trial"",""time""
""fullscreenenter"",""1"",""3315""
","""event"",""trial"",""time""
""fullscreenexit"",""4"",""6194""
","","","","","","1539.1000000014901","images/horse2.png","","","memory_trial","2","maybe_old","","","","","","",""
"html-keyboard-response","100","292306","0.0-15.0-0.29","1694","2","""event"",""trial"",""time""
""fullscreenenter"",""1"",""3315""
""fullscreenexit"",""4"",""6194""
""blur"",""8"",""28827""
""focus"",""8"",""31170""
","""event"",""trial"",""time""
""blur"",""8"",""28827""
","""event"",""trial"",""time""
""focus"",""8"",""31170""
","""event"",""trial"",""time""
""fullscreenenter"",""1"",""3315""
","""event"",""trial"",""time""
""fullscreenexit"",""4"",""6194""
","","","","","","null","<div style=""font-size:60px;"">+</div>","null","","fixation","","","","","","","","",""
"memory-trial","101","295412","0.0-15.0-1.29","1694","2","""event"",""trial"",""time""
""fullscreenenter"",""1"",""3315""
""fullscreenexit"",""4"",""6194""
""blur"",""8"",""28827""
""focus"",""8"",""31170""
","""event"",""trial"",""time""
""blur"",""8"",""28827""
","""event"",""trial"",""time""
""focus"",""8"",""31170""
","""event"",""trial"",""time""
""fullscreenenter"",""1"",""3315""
","""event"",""trial"",""time""
""fullscreenexit"",""4"",""6194""
","","","","","","2100.39999999851","images/rabbit5.png","","","memory_trial","3","maybe_new","","","","","","",""
"html-keyboard-response","102","295914","0.0-15.0-0.30","1694","2","""event"",""trial"",""time""
""fullscreenenter"",""1"",""3315""
""fullscreenexit"",""4"",""6194""
""blur"",""8"",""28827""
""focus"",""8"",""31170""
","""event"",""trial"",""time""
""blur"",""8"",""28827""
","""event"",""trial"",""time""
""focus"",""8"",""31170""
","""event"",""trial"",""time""
""fullscreenenter"",""1"",""3315""
","""event"",""trial"",""time""
""fullscreenexit"",""4"",""6194""
","","","","","","null","<div style=""font-size:60px;"">+</div>","null","","fixation","","","","","","","","",""
"memory-trial","103","299431","0.0-15.0-1.30","1694","2","""event"",""trial"",""time""
""fullscreenenter"",""1"",""3315""
""fullscreenexit"",""4"",""6194""
""blur"",""8"",""28827""
""focus"",""8"",""31170""
","""event"",""trial"",""time""
""blur"",""8"",""28827""
","""event"",""trial"",""time""
""focus"",""8"",""31170""
","""event"",""trial"",""time""
""fullscreenenter"",""1"",""3315""
","""event"",""trial"",""time""
""fullscreenexit"",""4"",""6194""
","","","","","","2511","images/cow3.png","","","memory_trial","3","maybe_new","","","","","","",""
"html-keyboard-response","104","299933","0.0-15.0-0.31","1694","2","""event"",""trial"",""time""
""fullscreenenter"",""1"",""3315""
""fullscreenexit"",""4"",""6194""
""blur"",""8"",""28827""
""focus"",""8"",""31170""
","""event"",""trial"",""time""
""blur"",""8"",""28827""
","""event"",""trial"",""time""
""focus"",""8"",""31170""
","""event"",""trial"",""time""
""fullscreenenter"",""1"",""3315""
","""event"",""trial"",""time""
""fullscreenexit"",""4"",""6194""
","","","","","","null","<div style=""font-size:60px;"">+</div>","null","","fixation","","","","","","","","",""
"memory-trial","105","302837","0.0-15.0-1.31","1694","2","""event"",""trial"",""time""
""fullscreenenter"",""1"",""3315""
""fullscreenexit"",""4"",""6194""
""blur"",""8"",""28827""
""focus"",""8"",""31170""
","""event"",""trial"",""time""
""blur"",""8"",""28827""
","""event"",""trial"",""time""
""focus"",""8"",""31170""
","""event"",""trial"",""time""
""fullscreenenter"",""1"",""3315""
","""event"",""trial"",""time""
""fullscreenexit"",""4"",""6194""
","","","","","","1897.6999999955297","images/truck1.png","","","memory_trial","4","definitely_new","","","","","","",""
"html-keyboard-response","106","303339","0.0-15.0-0.32","1694","2","""event"",""trial"",""time""
""fullscreenenter"",""1"",""3315""
""fullscreenexit"",""4"",""6194""
""blur"",""8"",""28827""
""focus"",""8"",""31170""
","""event"",""trial"",""time""
""blur"",""8"",""28827""
","""event"",""trial"",""time""
""focus"",""8"",""31170""
","""event"",""trial"",""time""
""fullscreenenter"",""1"",""3315""
","""event"",""trial"",""time""
""fullscreenexit"",""4"",""6194""
","","","","","","null","<div style=""font-size:60px;"">+</div>","null","","fixation","","","","","","","","",""
"memory-trial","107","305982","0.0-15.0-1.32","1694","2","""event"",""trial"",""time""
""fullscreenenter"",""1"",""3315""
""fullscreenexit"",""4"",""6194""
""blur"",""8"",""28827""
""focus"",""8"",""31170""
","""event"",""trial"",""time""
""blur"",""8"",""28827""
","""event"",""trial"",""time""
""focus"",""8"",""31170""
","""event"",""trial"",""time""
""fullscreenenter"",""1"",""3315""
","""event"",""trial"",""time""
""fullscreenexit"",""4"",""6194""
","","","","","","1638.0999999940395","images/cactus3.png","","","memory_trial","4","definitely_new","","","","","","",""
"html-keyboard-response","108","306485","0.0-15.0-0.33","1694","2","""event"",""trial"",""time""
""fullscreenenter"",""1"",""3315""
""fullscreenexit"",""4"",""6194""
""blur"",""8"",""28827""
""focus"",""8"",""31170""
","""event"",""trial"",""time""
""blur"",""8"",""28827""
","""event"",""trial"",""time""
""focus"",""8"",""31170""
","""event"",""trial"",""time""
""fullscreenenter"",""1"",""3315""
","""event"",""trial"",""time""
""fullscreenexit"",""4"",""6194""
","","","","","","null","<div style=""font-size:60px;"">+</div>","null","","fixation","","","","","","","","",""
"memory-trial","109","308806","0.0-15.0-1.33","1694","2","""event"",""trial"",""time""
""fullscreenenter"",""1"",""3315""
""fullscreenexit"",""4"",""6194""
""blur"",""8"",""28827""
""focus"",""8"",""31170""
","""event"",""trial"",""time""
""blur"",""8"",""28827""
","""event"",""trial"",""time""
""focus"",""8"",""31170""
","""event"",""trial"",""time""
""fullscreenenter"",""1"",""3315""
","""event"",""trial"",""time""
""fullscreenexit"",""4"",""6194""
","","","","","","1314.8999999985099","images/sheep2.png","","","memory_trial","1","definitely_old","","","","","","",""
"html-keyboard-response","110","309309","0.0-15.0-0.34","1694","2","""event"",""trial"",""time""
""fullscreenenter"",""1"",""3315""
""fullscreenexit"",""4"",""6194""
""blur"",""8"",""28827""
""focus"",""8"",""31170""
","""event"",""trial"",""time""
""blur"",""8"",""28827""
","""event"",""trial"",""time""
""focus"",""8"",""31170""
","""event"",""trial"",""time""
""fullscreenenter"",""1"",""3315""
","""event"",""trial"",""time""
""fullscreenexit"",""4"",""6194""
","","","","","","null","<div style=""font-size:60px;"">+</div>","null","","fixation","","","","","","","","",""
"memory-trial","111","311716","0.0-15.0-1.34","1694","2","""event"",""trial"",""time""
""fullscreenenter"",""1"",""3315""
""fullscreenexit"",""4"",""6194""
""blur"",""8"",""28827""
""focus"",""8"",""31170""
","""event"",""trial"",""time""
""blur"",""8"",""28827""
","""event"",""trial"",""time""
""focus"",""8"",""31170""
","""event"",""trial"",""time""
""fullscreenenter"",""1"",""3315""
","""event"",""trial"",""time""
""fullscreenexit"",""4"",""6194""
","","","","","","1402","images/apple4.png","","","memory_trial","2","maybe_old","","","","","","",""
"html-keyboard-response","112","312218","0.0-15.0-0.35","1694","2","""event"",""trial"",""time""
""fullscreenenter"",""1"",""3315""
""fullscreenexit"",""4"",""6194""
""blur"",""8"",""28827""
""focus"",""8"",""31170""
","""event"",""trial"",""time""
""blur"",""8"",""28827""
","""event"",""trial"",""time""
""focus"",""8"",""31170""
","""event"",""trial"",""time""
""fullscreenenter"",""1"",""3315""
","""event"",""trial"",""time""
""fullscreenexit"",""4"",""6194""
","","","","","","null","<div style=""font-size:60px;"">+</div>","null","","fixation","","","","","","","","",""
"memory-trial","113","314562","0.0-15.0-1.35","1694","2","""event"",""trial"",""time""
""fullscreenenter"",""1"",""3315""
""fullscreenexit"",""4"",""6194""
""blur"",""8"",""28827""
""focus"",""8"",""31170""
","""event"",""trial"",""time""
""blur"",""8"",""28827""
","""event"",""trial"",""time""
""focus"",""8"",""31170""
","""event"",""trial"",""time""
""fullscreenenter"",""1"",""3315""
","""event"",""trial"",""time""
""fullscreenexit"",""4"",""6194""
","","","","","","1339.1000000014901","images/horse3.png","","","memory_trial","1","definitely_old","","","","","","",""
"html-keyboard-response","114","315065","0.0-15.0-0.36","1694","2","""event"",""trial"",""time""
""fullscreenenter"",""1"",""3315""
""fullscreenexit"",""4"",""6194""
""blur"",""8"",""28827""
""focus"",""8"",""31170""
","""event"",""trial"",""time""
""blur"",""8"",""28827""
","""event"",""trial"",""time""
""focus"",""8"",""31170""
","""event"",""trial"",""time""
""fullscreenenter"",""1"",""3315""
","""event"",""trial"",""time""
""fullscreenexit"",""4"",""6194""
","","","","","","null","<div style=""font-size:60px;"">+</div>","null","","fixation","","","","","","","","",""
"memory-trial","115","318067","0.0-15.0-1.36","1694","2","""event"",""trial"",""time""
""fullscreenenter"",""1"",""3315""
""fullscreenexit"",""4"",""6194""
""blur"",""8"",""28827""
""focus"",""8"",""31170""
","""event"",""trial"",""time""
""blur"",""8"",""28827""
","""event"",""trial"",""time""
""focus"",""8"",""31170""
","""event"",""trial"",""time""
""fullscreenenter"",""1"",""3315""
","""event"",""trial"",""time""
""fullscreenexit"",""4"",""6194""
","","","","","","1998.8999999985099","images/goat5.png","","","memory_trial","3","maybe_new","","","","","","",""
"html-keyboard-response","116","318570","0.0-15.0-0.37","1694","2","""event"",""trial"",""time""
""fullscreenenter"",""1"",""3315""
""fullscreenexit"",""4"",""6194""
""blur"",""8"",""28827""
""focus"",""8"",""31170""
","""event"",""trial"",""time""
""blur"",""8"",""28827""
","""event"",""trial"",""time""
""focus"",""8"",""31170""
","""event"",""trial"",""time""
""fullscreenenter"",""1"",""3315""
","""event"",""trial"",""time""
""fullscreenexit"",""4"",""6194""
","","","","","","null","<div style=""font-size:60px;"">+</div>","null","","fixation","","","","","","","","",""
"memory-trial","117","320915","0.0-15.0-1.37","1694","2","""event"",""trial"",""time""
""fullscreenenter"",""1"",""3315""
""fullscreenexit"",""4"",""6194""
""blur"",""8"",""28827""
""focus"",""8"",""31170""
","""event"",""trial"",""time""
""blur"",""8"",""28827""
","""event"",""trial"",""time""
""focus"",""8"",""31170""
","""event"",""trial"",""time""
""fullscreenenter"",""1"",""3315""
","""event"",""trial"",""time""
""fullscreenexit"",""4"",""6194""
","","","","","","1340.1000000014901","images/sheep1.png","","","memory_trial","1","definitely_old","","","","","","",""
"html-keyboard-response","118","321419","0.0-15.0-0.38","1694","2","""event"",""trial"",""time""
""fullscreenenter"",""1"",""3315""
""fullscreenexit"",""4"",""6194""
""blur"",""8"",""28827""
""focus"",""8"",""31170""
","""event"",""trial"",""time""
""blur"",""8"",""28827""
","""event"",""trial"",""time""
""focus"",""8"",""31170""
","""event"",""trial"",""time""
""fullscreenenter"",""1"",""3315""
","""event"",""trial"",""time""
""fullscreenexit"",""4"",""6194""
","","","","","","null","<div style=""font-size:60px;"">+</div>","null","","fixation","","","","","","","","",""
"memory-trial","119","324323","0.0-15.0-1.38","1694","2","""event"",""trial"",""time""
""fullscreenenter"",""1"",""3315""
""fullscreenexit"",""4"",""6194""
""blur"",""8"",""28827""
""focus"",""8"",""31170""
","""event"",""trial"",""time""
""blur"",""8"",""28827""
","""event"",""trial"",""time""
""focus"",""8"",""31170""
","""event"",""trial"",""time""
""fullscreenenter"",""1"",""3315""
","""event"",""trial"",""time""
""fullscreenexit"",""4"",""6194""
","","","","","","1895.1000000014901","images/rodent4.png","","","memory_trial","3","maybe_new","","","","","","",""
"html-keyboard-response","120","324825","0.0-15.0-0.39","1694","2","""event"",""trial"",""time""
""fullscreenenter"",""1"",""3315""
""fullscreenexit"",""4"",""6194""
""blur"",""8"",""28827""
""focus"",""8"",""31170""
","""event"",""trial"",""time""
""blur"",""8"",""28827""
","""event"",""trial"",""time""
""focus"",""8"",""31170""
","""event"",""trial"",""time""
""fullscreenenter"",""1"",""3315""
","""event"",""trial"",""time""
""fullscreenexit"",""4"",""6194""
","","","","","","null","<div style=""font-size:60px;"">+</div>","null","","fixation","","","","","","","","",""
"memory-trial","121","327172","0.0-15.0-1.39","1694","2","""event"",""trial"",""time""
""fullscreenenter"",""1"",""3315""
""fullscreenexit"",""4"",""6194""
""blur"",""8"",""28827""
""focus"",""8"",""31170""
","""event"",""trial"",""time""
""blur"",""8"",""28827""
","""event"",""trial"",""time""
""focus"",""8"",""31170""
","""event"",""trial"",""time""
""fullscreenenter"",""1"",""3315""
","""event"",""trial"",""time""
""fullscreenexit"",""4"",""6194""
","","","","","","1342.1999999955297","images/chair1.png","","","memory_trial","2","maybe_old","","","","","","",""
"html-keyboard-response","122","327674","0.0-15.0-0.40","1694","2","""event"",""trial"",""time""
""fullscreenenter"",""1"",""3315""
""fullscreenexit"",""4"",""6194""
""blur"",""8"",""28827""
""focus"",""8"",""31170""
","""event"",""trial"",""time""
""blur"",""8"",""28827""
","""event"",""trial"",""time""
""focus"",""8"",""31170""
","""event"",""trial"",""time""
""fullscreenenter"",""1"",""3315""
","""event"",""trial"",""time""
""fullscreenexit"",""4"",""6194""
","","","","","","null","<div style=""font-size:60px;"">+</div>","null","","fixation","","","","","","","","",""
"memory-trial","123","329812","0.0-15.0-1.40","1694","2","""event"",""trial"",""time""
""fullscreenenter"",""1"",""3315""
""fullscreenexit"",""4"",""6194""
""blur"",""8"",""28827""
""focus"",""8"",""31170""
","""event"",""trial"",""time""
""blur"",""8"",""28827""
","""event"",""trial"",""time""
""focus"",""8"",""31170""
","""event"",""trial"",""time""
""fullscreenenter"",""1"",""3315""
","""event"",""trial"",""time""
""fullscreenexit"",""4"",""6194""
","","","","","","1132.1999999955297","images/chair3.png","","","memory_trial","1","definitely_old","","","","","","",""
"html-keyboard-response","124","330313","0.0-15.0-0.41","1694","2","""event"",""trial"",""time""
""fullscreenenter"",""1"",""3315""
""fullscreenexit"",""4"",""6194""
""blur"",""8"",""28827""
""focus"",""8"",""31170""
","""event"",""trial"",""time""
""blur"",""8"",""28827""
","""event"",""trial"",""time""
""focus"",""8"",""31170""
","""event"",""trial"",""time""
""fullscreenenter"",""1"",""3315""
","""event"",""trial"",""time""
""fullscreenexit"",""4"",""6194""
","","","","","","null","<div style=""font-size:60px;"">+</div>","null","","fixation","","","","","","","","",""
"memory-trial","125","333052","0.0-15.0-1.41","1694","2","""event"",""trial"",""time""
""fullscreenenter"",""1"",""3315""
""fullscreenexit"",""4"",""6194""
""blur"",""8"",""28827""
""focus"",""8"",""31170""
","""event"",""trial"",""time""
""blur"",""8"",""28827""
","""event"",""trial"",""time""
""focus"",""8"",""31170""
","""event"",""trial"",""time""
""fullscreenenter"",""1"",""3315""
","""event"",""trial"",""time""
""fullscreenexit"",""4"",""6194""
","","","","","","1733.1000000014901","images/flower5.png","","","memory_trial","4","definitely_new","","","","","","",""
"html-keyboard-response","126","333555","0.0-15.0-0.42","1694","2","""event"",""trial"",""time""
""fullscreenenter"",""1"",""3315""
""fullscreenexit"",""4"",""6194""
""blur"",""8"",""28827""
""focus"",""8"",""31170""
","""event"",""trial"",""time""
""blur"",""8"",""28827""
","""event"",""trial"",""time""
""focus"",""8"",""31170""
","""event"",""trial"",""time""
""fullscreenenter"",""1"",""3315""
","""event"",""trial"",""time""
""fullscreenexit"",""4"",""6194""
","","","","","","null","<div style=""font-size:60px;"">+</div>","null","","fixation","","","","","","","","",""
"memory-trial","127","335977","0.0-15.0-1.42","1694","2","""event"",""trial"",""time""
""fullscreenenter"",""1"",""3315""
""fullscreenexit"",""4"",""6194""
""blur"",""8"",""28827""
""focus"",""8"",""31170""
","""event"",""trial"",""time""
""blur"",""8"",""28827""
","""event"",""trial"",""time""
""focus"",""8"",""31170""
","""event"",""trial"",""time""
""fullscreenenter"",""1"",""3315""
","""event"",""trial"",""time""
""fullscreenexit"",""4"",""6194""
","","","","","","1417","images/dog3.png","","","memory_trial","4","definitely_new","","","","","","",""
"html-keyboard-response","128","336480","0.0-15.0-0.43","1694","2","""event"",""trial"",""time""
""fullscreenenter"",""1"",""3315""
""fullscreenexit"",""4"",""6194""
""blur"",""8"",""28827""
""focus"",""8"",""31170""
","""event"",""trial"",""time""
""blur"",""8"",""28827""
","""event"",""trial"",""time""
""focus"",""8"",""31170""
","""event"",""trial"",""time""
""fullscreenenter"",""1"",""3315""
","""event"",""trial"",""time""
""fullscreenexit"",""4"",""6194""
","","","","","","null","<div style=""font-size:60px;"">+</div>","null","","fixation","","","","","","","","",""
"memory-trial","129","338691","0.0-15.0-1.43","1694","2","""event"",""trial"",""time""
""fullscreenenter"",""1"",""3315""
""fullscreenexit"",""4"",""6194""
""blur"",""8"",""28827""
""focus"",""8"",""31170""
","""event"",""trial"",""time""
""blur"",""8"",""28827""
","""event"",""trial"",""time""
""focus"",""8"",""31170""
","""event"",""trial"",""time""
""fullscreenenter"",""1"",""3315""
","""event"",""trial"",""time""
""fullscreenexit"",""4"",""6194""
","","","","","","1191","images/cactus4.png","","","memory_trial","4","definitely_new","","","","","","",""
"html-keyboard-response","130","339193","0.0-15.0-0.44","1694","2","""event"",""trial"",""time""
""fullscreenenter"",""1"",""3315""
""fullscreenexit"",""4"",""6194""
""blur"",""8"",""28827""
""focus"",""8"",""31170""
","""event"",""trial"",""time""
""blur"",""8"",""28827""
","""event"",""trial"",""time""
""focus"",""8"",""31170""
","""event"",""trial"",""time""
""fullscreenenter"",""1"",""3315""
","""event"",""trial"",""time""
""fullscreenexit"",""4"",""6194""
","","","","","","null","<div style=""font-size:60px;"">+</div>","null","","fixation","","","","","","","","",""
"memory-trial","131","341370","0.0-15.0-1.44","1694","2","""event"",""trial"",""time""
""fullscreenenter"",""1"",""3315""
""fullscreenexit"",""4"",""6194""
""blur"",""8"",""28827""
""focus"",""8"",""31170""
","""event"",""trial"",""time""
""blur"",""8"",""28827""
","""event"",""trial"",""time""
""focus"",""8"",""31170""
","""event"",""trial"",""time""
""fullscreenenter"",""1"",""3315""
","""event"",""trial"",""time""
""fullscreenexit"",""4"",""6194""
","","","","","","1172.1000000014901","images/bush5.png","","","memory_trial","2","maybe_old","","","","","","",""
"html-keyboard-response","132","341872","0.0-15.0-0.45","1694","2","""event"",""trial"",""time""
""fullscreenenter"",""1"",""3315""
""fullscreenexit"",""4"",""6194""
""blur"",""8"",""28827""
""focus"",""8"",""31170""
","""event"",""trial"",""time""
""blur"",""8"",""28827""
","""event"",""trial"",""time""
""focus"",""8"",""31170""
","""event"",""trial"",""time""
""fullscreenenter"",""1"",""3315""
","""event"",""trial"",""time""
""fullscreenexit"",""4"",""6194""
","","","","","","null","<div style=""font-size:60px;"">+</div>","null","","fixation","","","","","","","","",""
"memory-trial","133","344019","0.0-15.0-1.45","1694","2","""event"",""trial"",""time""
""fullscreenenter"",""1"",""3315""
""fullscreenexit"",""4"",""6194""
""blur"",""8"",""28827""
""focus"",""8"",""31170""
","""event"",""trial"",""time""
""blur"",""8"",""28827""
","""event"",""trial"",""time""
""focus"",""8"",""31170""
","""event"",""trial"",""time""
""fullscreenenter"",""1"",""3315""
","""event"",""trial"",""time""
""fullscreenexit"",""4"",""6194""
","","","","","","1141.6000000014901","images/sofa4.png","","","memory_trial","1","definitely_old","","","","","","",""
"html-keyboard-response","134","344521","0.0-15.0-0.46","1694","2","""event"",""trial"",""time""
""fullscreenenter"",""1"",""3315""
""fullscreenexit"",""4"",""6194""
""blur"",""8"",""28827""
""focus"",""8"",""31170""
","""event"",""trial"",""time""
""blur"",""8"",""28827""
","""event"",""trial"",""time""
""focus"",""8"",""31170""
","""event"",""trial"",""time""
""fullscreenenter"",""1"",""3315""
","""event"",""trial"",""time""
""fullscreenexit"",""4"",""6194""
","","","","","","null","<div style=""font-size:60px;"">+</div>","null","","fixation","","","","","","","","",""
"memory-trial","135","346672","0.0-15.0-1.46","1694","2","""event"",""trial"",""time""
""fullscreenenter"",""1"",""3315""
""fullscreenexit"",""4"",""6194""
""blur"",""8"",""28827""
""focus"",""8"",""31170""
","""event"",""trial"",""time""
""blur"",""8"",""28827""
","""event"",""trial"",""time""
""focus"",""8"",""31170""
","""event"",""trial"",""time""
""fullscreenenter"",""1"",""3315""
","""event"",""trial"",""time""
""fullscreenexit"",""4"",""6194""
","","","","","","1144.8999999985099","images/sofa1.png","","","memory_trial","2","maybe_old","","","","","","",""
"html-button-response","136","349719","0.0-15.0-2.46-0.46","1694","2","""event"",""trial"",""time""
""fullscreenenter"",""1"",""3315""
""fullscreenexit"",""4"",""6194""
""blur"",""8"",""28827""
""focus"",""8"",""31170""
","""event"",""trial"",""time""
""blur"",""8"",""28827""
","""event"",""trial"",""time""
""focus"",""8"",""31170""
","""event"",""trial"",""time""
""fullscreenenter"",""1"",""3315""
","""event"",""trial"",""time""
""fullscreenexit"",""4"",""6194""
","","","","","","3045.10000000149","<p> Take a break! </p><p> Click the button to continue. </p>","0","","break","","","","","","","","",""
"html-keyboard-response","137","350221","0.0-15.0-0.47","1694","2","""event"",""trial"",""time""
""fullscreenenter"",""1"",""3315""
""fullscreenexit"",""4"",""6194""
""blur"",""8"",""28827""
""focus"",""8"",""31170""
","""event"",""trial"",""time""
""blur"",""8"",""28827""
","""event"",""trial"",""time""
""focus"",""8"",""31170""
","""event"",""trial"",""time""
""fullscreenenter"",""1"",""3315""
","""event"",""trial"",""time""
""fullscreenexit"",""4"",""6194""
","","","","","","null","<div style=""font-size:60px;"">+</div>","null","","fixation","","","","","","","","",""
"memory-trial","138","352544","0.0-15.0-1.47","1694","2","""event"",""trial"",""time""
""fullscreenenter"",""1"",""3315""
""fullscreenexit"",""4"",""6194""
""blur"",""8"",""28827""
""focus"",""8"",""31170""
","""event"",""trial"",""time""
""blur"",""8"",""28827""
","""event"",""trial"",""time""
""focus"",""8"",""31170""
","""event"",""trial"",""time""
""fullscreenenter"",""1"",""3315""
","""event"",""trial"",""time""
""fullscreenexit"",""4"",""6194""
","","","","","","1317.3999999985099","images/bush2.png","","","memory_trial","1","definitely_old","","","","","","",""
"html-keyboard-response","139","353046","0.0-15.0-0.48","1694","2","""event"",""trial"",""time""
""fullscreenenter"",""1"",""3315""
""fullscreenexit"",""4"",""6194""
""blur"",""8"",""28827""
""focus"",""8"",""31170""
","""event"",""trial"",""time""
""blur"",""8"",""28827""
","""event"",""trial"",""time""
""focus"",""8"",""31170""
","""event"",""trial"",""time""
""fullscreenenter"",""1"",""3315""
","""event"",""trial"",""time""
""fullscreenexit"",""4"",""6194""
","","","","","","null","<div style=""font-size:60px;"">+</div>","null","","fixation","","","","","","","","",""
"memory-trial","140","355885","0.0-15.0-1.48","1694","2","""event"",""trial"",""time""
""fullscreenenter"",""1"",""3315""
""fullscreenexit"",""4"",""6194""
""blur"",""8"",""28827""
""focus"",""8"",""31170""
","""event"",""trial"",""time""
""blur"",""8"",""28827""
","""event"",""trial"",""time""
""focus"",""8"",""31170""
","""event"",""trial"",""time""
""fullscreenenter"",""1"",""3315""
","""event"",""trial"",""time""
""fullscreenexit"",""4"",""6194""
","","","","","","1834.4000000059605","images/straw3.png","","","memory_trial","3","maybe_new","","","","","","",""
"html-keyboard-response","141","356389","0.0-15.0-0.49","1694","2","""event"",""trial"",""time""
""fullscreenenter"",""1"",""3315""
""fullscreenexit"",""4"",""6194""
""blur"",""8"",""28827""
""focus"",""8"",""31170""
","""event"",""trial"",""time""
""blur"",""8"",""28827""
","""event"",""trial"",""time""
""focus"",""8"",""31170""
","""event"",""trial"",""time""
""fullscreenenter"",""1"",""3315""
","""event"",""trial"",""time""
""fullscreenexit"",""4"",""6194""
","","","","","","null","<div style=""font-size:60px;"">+</div>","null","","fixation","","","","","","","","",""
"memory-trial","142","358793","0.0-15.0-1.49","1694","2","""event"",""trial"",""time""
""fullscreenenter"",""1"",""3315""
""fullscreenexit"",""4"",""6194""
""blur"",""8"",""28827""
""focus"",""8"",""31170""
","""event"",""trial"",""time""
""blur"",""8"",""28827""
","""event"",""trial"",""time""
""focus"",""8"",""31170""
","""event"",""trial"",""time""
""fullscreenenter"",""1"",""3315""
","""event"",""trial"",""time""
""fullscreenexit"",""4"",""6194""
","","","","","","1397.3000000044703","images/cow4.png","","","memory_trial","2","maybe_old","","","","","","",""
"html-keyboard-response","143","359295","0.0-15.0-0.50","1694","2","""event"",""trial"",""time""
""fullscreenenter"",""1"",""3315""
""fullscreenexit"",""4"",""6194""
""blur"",""8"",""28827""
""focus"",""8"",""31170""
","""event"",""trial"",""time""
""blur"",""8"",""28827""
","""event"",""trial"",""time""
""focus"",""8"",""31170""
","""event"",""trial"",""time""
""fullscreenenter"",""1"",""3315""
","""event"",""trial"",""time""
""fullscreenexit"",""4"",""6194""
","","","","","","null","<div style=""font-size:60px;"">+</div>","null","","fixation","","","","","","","","",""
"memory-trial","144","361782","0.0-15.0-1.50","1694","2","""event"",""trial"",""time""
""fullscreenenter"",""1"",""3315""
""fullscreenexit"",""4"",""6194""
""blur"",""8"",""28827""
""focus"",""8"",""31170""
","""event"",""trial"",""time""
""blur"",""8"",""28827""
","""event"",""trial"",""time""
""focus"",""8"",""31170""
","""event"",""trial"",""time""
""fullscreenenter"",""1"",""3315""
","""event"",""trial"",""time""
""fullscreenexit"",""4"",""6194""
","","","","","","1483.6999999955297","images/sheep5.png","","","memory_trial","3","maybe_new","","","","","","",""
"html-keyboard-response","145","362285","0.0-15.0-0.51","1694","2","""event"",""trial"",""time""
""fullscreenenter"",""1"",""3315""
""fullscreenexit"",""4"",""6194""
""blur"",""8"",""28827""
""focus"",""8"",""31170""
","""event"",""trial"",""time""
""blur"",""8"",""28827""
","""event"",""trial"",""time""
""focus"",""8"",""31170""
","""event"",""trial"",""time""
""fullscreenenter"",""1"",""3315""
","""event"",""trial"",""time""
""fullscreenexit"",""4"",""6194""
","","","","","","null","<div style=""font-size:60px;"">+</div>","null","","fixation","","","","","","","","",""
"memory-trial","146","364524","0.0-15.0-1.51","1694","2","""event"",""trial"",""time""
""fullscreenenter"",""1"",""3315""
""fullscreenexit"",""4"",""6194""
""blur"",""8"",""28827""
""focus"",""8"",""31170""
","""event"",""trial"",""time""
""blur"",""8"",""28827""
","""event"",""trial"",""time""
""focus"",""8"",""31170""
","""event"",""trial"",""time""
""fullscreenenter"",""1"",""3315""
","""event"",""trial"",""time""
""fullscreenexit"",""4"",""6194""
","","","","","","1232.8999999985099","images/bush4.png","","","memory_trial","2","maybe_old","","","","","","",""
"html-keyboard-response","147","365030","0.0-15.0-0.52","1694","2","""event"",""trial"",""time""
""fullscreenenter"",""1"",""3315""
""fullscreenexit"",""4"",""6194""
""blur"",""8"",""28827""
""focus"",""8"",""31170""
","""event"",""trial"",""time""
""blur"",""8"",""28827""
","""event"",""trial"",""time""
""focus"",""8"",""31170""
","""event"",""trial"",""time""
""fullscreenenter"",""1"",""3315""
","""event"",""trial"",""time""
""fullscreenexit"",""4"",""6194""
","","","","","","null","<div style=""font-size:60px;"">+</div>","null","","fixation","","","","","","","","",""
"memory-trial","148","367320","0.0-15.0-1.52","1694","2","""event"",""trial"",""time""
""fullscreenenter"",""1"",""3315""
""fullscreenexit"",""4"",""6194""
""blur"",""8"",""28827""
""focus"",""8"",""31170""
","""event"",""trial"",""time""
""blur"",""8"",""28827""
","""event"",""trial"",""time""
""focus"",""8"",""31170""
","""event"",""trial"",""time""
""fullscreenenter"",""1"",""3315""
","""event"",""trial"",""time""
""fullscreenexit"",""4"",""6194""
","","","","","","1285.7999999970198","images/truck3.png","","","memory_trial","4","definitely_new","","","","","","",""
"html-keyboard-response","149","367822","0.0-15.0-0.53","1694","2","""event"",""trial"",""time""
""fullscreenenter"",""1"",""3315""
""fullscreenexit"",""4"",""6194""
""blur"",""8"",""28827""
""focus"",""8"",""31170""
","""event"",""trial"",""time""
""blur"",""8"",""28827""
","""event"",""trial"",""time""
""focus"",""8"",""31170""
","""event"",""trial"",""time""
""fullscreenenter"",""1"",""3315""
","""event"",""trial"",""time""
""fullscreenexit"",""4"",""6194""
","","","","","","null","<div style=""font-size:60px;"">+</div>","null","","fixation","","","","","","","","",""
"memory-trial","150","370181","0.0-15.0-1.53","1694","2","""event"",""trial"",""time""
""fullscreenenter"",""1"",""3315""
""fullscreenexit"",""4"",""6194""
""blur"",""8"",""28827""
""focus"",""8"",""31170""
","""event"",""trial"",""time""
""blur"",""8"",""28827""
","""event"",""trial"",""time""
""focus"",""8"",""31170""
","""event"",""trial"",""time""
""fullscreenenter"",""1"",""3315""
","""event"",""trial"",""time""
""fullscreenexit"",""4"",""6194""
","","","","","","1355.7999999970198","images/boat2.png","","","memory_trial","3","maybe_new","","","","","","",""
"html-keyboard-response","151","370683","0.0-15.0-0.54","1694","2","""event"",""trial"",""time""
""fullscreenenter"",""1"",""3315""
""fullscreenexit"",""4"",""6194""
""blur"",""8"",""28827""
""focus"",""8"",""31170""
","""event"",""trial"",""time""
""blur"",""8"",""28827""
","""event"",""trial"",""time""
""focus"",""8"",""31170""
","""event"",""trial"",""time""
""fullscreenenter"",""1"",""3315""
","""event"",""trial"",""time""
""fullscreenexit"",""4"",""6194""
","","","","","","null","<div style=""font-size:60px;"">+</div>","null","","fixation","","","","","","","","",""
"memory-trial","152","372937","0.0-15.0-1.54","1694","2","""event"",""trial"",""time""
""fullscreenenter"",""1"",""3315""
""fullscreenexit"",""4"",""6194""
""blur"",""8"",""28827""
""focus"",""8"",""31170""
","""event"",""trial"",""time""
""blur"",""8"",""28827""
","""event"",""trial"",""time""
""focus"",""8"",""31170""
","""event"",""trial"",""time""
""fullscreenenter"",""1"",""3315""
","""event"",""trial"",""time""
""fullscreenexit"",""4"",""6194""
","","","","","","1248.5","images/horse4.png","","","memory_trial","2","maybe_old","","","","","","",""
"html-keyboard-response","153","373450","0.0-15.0-0.55","1694","2","""event"",""trial"",""time""
""fullscreenenter"",""1"",""3315""
""fullscreenexit"",""4"",""6194""
""blur"",""8"",""28827""
""focus"",""8"",""31170""
","""event"",""trial"",""time""
""blur"",""8"",""28827""
","""event"",""trial"",""time""
""focus"",""8"",""31170""
","""event"",""trial"",""time""
""fullscreenenter"",""1"",""3315""
","""event"",""trial"",""time""
""fullscreenexit"",""4"",""6194""
","","","","","","null","<div style=""font-size:60px;"">+</div>","null","","fixation","","","","","","","","",""
"memory-trial","154","376151","0.0-15.0-1.55","1694","2","""event"",""trial"",""time""
""fullscreenenter"",""1"",""3315""
""fullscreenexit"",""4"",""6194""
""blur"",""8"",""28827""
""focus"",""8"",""31170""
","""event"",""trial"",""time""
""blur"",""8"",""28827""
","""event"",""trial"",""time""
""focus"",""8"",""31170""
","""event"",""trial"",""time""
""fullscreenenter"",""1"",""3315""
","""event"",""trial"",""time""
""fullscreenexit"",""4"",""6194""
","","","","","","1697.2000000029802","images/cactus5.png","","","memory_trial","3","maybe_new","","","","","","",""
"html-keyboard-response","155","376654","0.0-15.0-0.56","1694","2","""event"",""trial"",""time""
""fullscreenenter"",""1"",""3315""
""fullscreenexit"",""4"",""6194""
""blur"",""8"",""28827""
""focus"",""8"",""31170""
","""event"",""trial"",""time""
""blur"",""8"",""28827""
","""event"",""trial"",""time""
""focus"",""8"",""31170""
","""event"",""trial"",""time""
""fullscreenenter"",""1"",""3315""
","""event"",""trial"",""time""
""fullscreenexit"",""4"",""6194""
","","","","","","null","<div style=""font-size:60px;"">+</div>","null","","fixation","","","","","","","","",""
"memory-trial","156","378970","0.0-15.0-1.56","1694","2","""event"",""trial"",""time""
""fullscreenenter"",""1"",""3315""
""fullscreenexit"",""4"",""6194""
""blur"",""8"",""28827""
""focus"",""8"",""31170""
","""event"",""trial"",""time""
""blur"",""8"",""28827""
","""event"",""trial"",""time""
""focus"",""8"",""31170""
","""event"",""trial"",""time""
""fullscreenenter"",""1"",""3315""
","""event"",""trial"",""time""
""fullscreenexit"",""4"",""6194""
","","","","","","1310.6000000014901","images/banana2.png","","","memory_trial","4","definitely_new","","","","","","",""
"html-keyboard-response","157","379472","0.0-15.0-0.57","1694","2","""event"",""trial"",""time""
""fullscreenenter"",""1"",""3315""
""fullscreenexit"",""4"",""6194""
""blur"",""8"",""28827""
""focus"",""8"",""31170""
","""event"",""trial"",""time""
""blur"",""8"",""28827""
","""event"",""trial"",""time""
""focus"",""8"",""31170""
","""event"",""trial"",""time""
""fullscreenenter"",""1"",""3315""
","""event"",""trial"",""time""
""fullscreenexit"",""4"",""6194""
","","","","","","null","<div style=""font-size:60px;"">+</div>","null","","fixation","","","","","","","","",""
"memory-trial","158","381509","0.0-15.0-1.57","1694","2","""event"",""trial"",""time""
""fullscreenenter"",""1"",""3315""
""fullscreenexit"",""4"",""6194""
""blur"",""8"",""28827""
""focus"",""8"",""31170""
","""event"",""trial"",""time""
""blur"",""8"",""28827""
","""event"",""trial"",""time""
""focus"",""8"",""31170""
","""event"",""trial"",""time""
""fullscreenenter"",""1"",""3315""
","""event"",""trial"",""time""
""fullscreenexit"",""4"",""6194""
","","","","","","1032.2000000029802","images/dog5.png","","","memory_trial","4","definitely_new","","","","","","",""
"html-keyboard-response","159","382011","0.0-15.0-0.58","1694","2","""event"",""trial"",""time""
""fullscreenenter"",""1"",""3315""
""fullscreenexit"",""4"",""6194""
""blur"",""8"",""28827""
""focus"",""8"",""31170""
","""event"",""trial"",""time""
""blur"",""8"",""28827""
","""event"",""trial"",""time""
""focus"",""8"",""31170""
","""event"",""trial"",""time""
""fullscreenenter"",""1"",""3315""
","""event"",""trial"",""time""
""fullscreenexit"",""4"",""6194""
","","","","","","null","<div style=""font-size:60px;"">+</div>","null","","fixation","","","","","","","","",""
"memory-trial","160","384337","0.0-15.0-1.58","1694","2","""event"",""trial"",""time""
""fullscreenenter"",""1"",""3315""
""fullscreenexit"",""4"",""6194""
""blur"",""8"",""28827""
""focus"",""8"",""31170""
","""event"",""trial"",""time""
""blur"",""8"",""28827""
","""event"",""trial"",""time""
""focus"",""8"",""31170""
","""event"",""trial"",""time""
""fullscreenenter"",""1"",""3315""
","""event"",""trial"",""time""
""fullscreenexit"",""4"",""6194""
","","","","","","1322","images/goat3.png","","","memory_trial","4","definitely_new","","","","","","",""
"html-keyboard-response","161","384839","0.0-15.0-0.59","1694","2","""event"",""trial"",""time""
""fullscreenenter"",""1"",""3315""
""fullscreenexit"",""4"",""6194""
""blur"",""8"",""28827""
""focus"",""8"",""31170""
","""event"",""trial"",""time""
""blur"",""8"",""28827""
","""event"",""trial"",""time""
""focus"",""8"",""31170""
","""event"",""trial"",""time""
""fullscreenenter"",""1"",""3315""
","""event"",""trial"",""time""
""fullscreenexit"",""4"",""6194""
","","","","","","null","<div style=""font-size:60px;"">+</div>","null","","fixation","","","","","","","","",""
"memory-trial","162","386931","0.0-15.0-1.59","1694","2","""event"",""trial"",""time""
""fullscreenenter"",""1"",""3315""
""fullscreenexit"",""4"",""6194""
""blur"",""8"",""28827""
""focus"",""8"",""31170""
","""event"",""trial"",""time""
""blur"",""8"",""28827""
","""event"",""trial"",""time""
""focus"",""8"",""31170""
","""event"",""trial"",""time""
""fullscreenenter"",""1"",""3315""
","""event"",""trial"",""time""
""fullscreenexit"",""4"",""6194""
","","","","","","1075.8000000044703","images/chair2.png","","","memory_trial","1","definitely_old","","","","","","",""
"html-keyboard-response","163","387433","0.0-15.0-0.60","1694","2","""event"",""trial"",""time""
""fullscreenenter"",""1"",""3315""
""fullscreenexit"",""4"",""6194""
""blur"",""8"",""28827""
""focus"",""8"",""31170""
","""event"",""trial"",""time""
""blur"",""8"",""28827""
","""event"",""trial"",""time""
""focus"",""8"",""31170""
","""event"",""trial"",""time""
""fullscreenenter"",""1"",""3315""
","""event"",""trial"",""time""
""fullscreenexit"",""4"",""6194""
","","","","","","null","<div style=""font-size:60px;"">+</div>","null","","fixation","","","","","","","","",""
"memory-trial","164","389666","0.0-15.0-1.60","1694","2","""event"",""trial"",""time""
""fullscreenenter"",""1"",""3315""
""fullscreenexit"",""4"",""6194""
""blur"",""8"",""28827""
""focus"",""8"",""31170""
","""event"",""trial"",""time""
""blur"",""8"",""28827""
","""event"",""trial"",""time""
""focus"",""8"",""31170""
","""event"",""trial"",""time""
""fullscreenenter"",""1"",""3315""
","""event"",""trial"",""time""
""fullscreenexit"",""4"",""6194""
","","","","","","1229.1000000014901","images/train2.png","","","memory_trial","2","maybe_old","","","","","","",""
"html-keyboard-response","165","390171","0.0-15.0-0.61","1694","2","""event"",""trial"",""time""
""fullscreenenter"",""1"",""3315""
""fullscreenexit"",""4"",""6194""
""blur"",""8"",""28827""
""focus"",""8"",""31170""
","""event"",""trial"",""time""
""blur"",""8"",""28827""
","""event"",""trial"",""time""
""focus"",""8"",""31170""
","""event"",""trial"",""time""
""fullscreenenter"",""1"",""3315""
","""event"",""trial"",""time""
""fullscreenexit"",""4"",""6194""
","","","","","","null","<div style=""font-size:60px;"">+</div>","null","","fixation","","","","","","","","",""
"memory-trial","166","392237","0.0-15.0-1.61","1694","2","""event"",""trial"",""time""
""fullscreenenter"",""1"",""3315""
""fullscreenexit"",""4"",""6194""
""blur"",""8"",""28827""
""focus"",""8"",""31170""
","""event"",""trial"",""time""
""blur"",""8"",""28827""
","""event"",""trial"",""time""
""focus"",""8"",""31170""
","""event"",""trial"",""time""
""fullscreenenter"",""1"",""3315""
","""event"",""trial"",""time""
""fullscreenexit"",""4"",""6194""
","","","","","","1060.1000000014901","images/dog4.png","","","memory_trial","4","definitely_new","","","","","","",""
"html-keyboard-response","167","392738","0.0-15.0-0.62","1694","2","""event"",""trial"",""time""
""fullscreenenter"",""1"",""3315""
""fullscreenexit"",""4"",""6194""
""blur"",""8"",""28827""
""focus"",""8"",""31170""
","""event"",""trial"",""time""
""blur"",""8"",""28827""
","""event"",""trial"",""time""
""focus"",""8"",""31170""
","""event"",""trial"",""time""
""fullscreenenter"",""1"",""3315""
","""event"",""trial"",""time""
""fullscreenexit"",""4"",""6194""
