"trial_type","trial_index","time_elapsed","internal_node_id","subject_id","task_version","interactions","blur_events","focus_events","fullscreenenter_events","fullscreenexit_events","success","timeout","failed_images","failed_audio","failed_video","rt","stimulus","response","button_pressed","task_part","key_press","answer","correct","left_choice","middle_choice","right_choice","choice_positions","option_selected","block"
"pavlovia","0","8","0.0-0.0","1868","2","""event"",""trial"",""time""
""fullscreenenter"",""1"",""1775""
","
","
","""event"",""trial"",""time""
""fullscreenenter"",""1"",""1775""
","
","","","","","","","","","","","","","","","","","","",""
"fullscreen","1","2713","0.0-1.0","1868","2","""event"",""trial"",""time""
""fullscreenenter"",""1"",""1775""
","
","
","""event"",""trial"",""time""
""fullscreenenter"",""1"",""1775""
","
","true","","","","","","","","","","","","","","","","","",""
"preload","2","3365","0.0-2.0","1868","2","""event"",""trial"",""time""
""fullscreenenter"",""1"",""1775""
","
","
","""event"",""trial"",""time""
""fullscreenenter"",""1"",""1775""
","
","true","false","[]","[]","[]","","","","","","","","","","","","","",""
"audio-keyboard-response","3","5747","0.0-3.0","1868","2","""event"",""trial"",""time""
""fullscreenenter"",""1"",""1775""
","
","
","""event"",""trial"",""time""
""fullscreenenter"",""1"",""1775""
","
","","","","","","2378.6666666666665","audio/beep_loop.wav"," ","","","","","","","","","","",""
"audio-button-response","4","7567","0.0-4.0","1868","2","""event"",""trial"",""time""
""fullscreenenter"",""1"",""1775""
","
","
","""event"",""trial"",""time""
""fullscreenenter"",""1"",""1775""
","
","","","","","","1813","audio/turtle.wav","3","","","","","","","","","","",""
"audio-button-response","5","9747","0.0-5.0","1868","2","""event"",""trial"",""time""
""fullscreenenter"",""1"",""1775""
","
","
","""event"",""trial"",""time""
""fullscreenenter"",""1"",""1775""
","
","","","","","","1173","audio/shark.wav","2","","","","","","","","","","",""
"preload","6","13217","0.0-6.0","1868","2","""event"",""trial"",""time""
""fullscreenenter"",""1"",""1775""
","
","
","""event"",""trial"",""time""
""fullscreenenter"",""1"",""1775""
","
","true","false","[]","[]","[]","","","","","","","","","","","","","",""
"learning-instructions","7","20441","0.0-7.0-0.0","1868","2","""event"",""trial"",""time""
""fullscreenenter"",""1"",""1775""
","
","
","""event"",""trial"",""time""
""fullscreenenter"",""1"",""1775""
","
","","","","","","2410.2000000001863","<p> Welcome back! </p><p> Last week, you had to make choices about lots of different items.  </p>","","0","instructions","","","","","","","","",""
"learning-instructions","8","25656","0.0-7.0-0.1","1868","2","""event"",""trial"",""time""
""fullscreenenter"",""1"",""1775""
","
","
","""event"",""trial"",""time""
""fullscreenenter"",""1"",""1775""
","
","","","","","","905.9000000001397","<p> Today, we are going to ask you to try to remember all the items. </p>","","0","instructions","","","","","","","","",""
"learning-instructions","9","37401","0.0-7.0-0.2","1868","2","""event"",""trial"",""time""
""fullscreenenter"",""1"",""1775""
","
","
","""event"",""trial"",""time""
""fullscreenenter"",""1"",""1775""
","
","","","","","","1602","<p> On every trial, you will see an image. </p><p> The image may be an OLD image you saw during the games last week or it may be a NEW image that was not presented. </p>","","0","instructions","","","","","","","","",""
"learning-instructions","10","47480","0.0-7.0-0.3","1868","2","""event"",""trial"",""time""
""fullscreenenter"",""1"",""1775""
","
","
","""event"",""trial"",""time""
""fullscreenenter"",""1"",""1775""
","
","","","","","","1577.1999999999534","<p> You need to select whether the image is:  </p><p>  'Definitely old', 'Maybe old', 'Maybe new', or 'Definitely new.'  </p><div class=""mem-choice-instructions-grid""><div class=""choice-option"" id=""choice-option-1"" ><img src=""images/definitely_old_1.png"" id=""choice-option-img-1"" class=""choice-option-img"" stage=""1""></div><div class=""choice-option"" id=""choice-option-2"" ><img src=""images/maybe_old_1.png"" id=""choice-option-img-2"" class=""choice-option-img"" stage=""1""></div><div class=""choice-option"" id=""choice-option-3"" ><img src=""images/maybe_new_1.png"" id=""choice-option-img-3"" class=""choice-option-img"" stage=""1""></div><div class=""choice-option"" id=""choice-option-4"" > <img src=""images/definitely_new_1.png"" id=""choice-option-img-4"" class=""choice-option-img"" stage=""1""></div></div>","","0","instructions","","","","","","","","",""
"learning-instructions","11","60052","0.0-7.0-0.4","1868","2","""event"",""trial"",""time""
""fullscreenenter"",""1"",""1775""
","
","
","""event"",""trial"",""time""
""fullscreenenter"",""1"",""1775""
","
","","","","","","5870.5","<p> You should use the 1, 2, 3, and 4 keys to make your responses.  </p><div class=""mem-choice-instructions-grid""><div class=""choice-option"" id=""choice-option-1"" ><img src=""images/definitely_old.png"" id=""choice-option-img-1"" class=""choice-option-img"" stage=""1""></div><div class=""choice-option"" id=""choice-option-2"" ><img src=""images/maybe_old.png"" id=""choice-option-img-2"" class=""choice-option-img"" stage=""1""></div><div class=""choice-option"" id=""choice-option-3"" ><img src=""images/maybe_new.png"" id=""choice-option-img-3"" class=""choice-option-img"" stage=""1""></div><div class=""choice-option"" id=""choice-option-4"" > <img src=""images/definitely_new.png"" id=""choice-option-img-4"" class=""choice-option-img"" stage=""1""></div></div>","","0","instructions","","","","","","","","",""
"learning-instructions","12","68200","0.0-7.0-0.5","1868","2","""event"",""trial"",""time""
""fullscreenenter"",""1"",""1775""
","
","
","""event"",""trial"",""time""
""fullscreenenter"",""1"",""1775""
","
","","","","","","1392.2999999998137","<p> You will have 10 seconds to make each response.  </p><p>  Make sure to respond before time runs out! </p>","","0","instructions","","","","","","","","",""
"learning-instructions","13","77029","0.0-7.0-0.6","1868","2","""event"",""trial"",""time""
""fullscreenenter"",""1"",""1775""
","
","
","""event"",""trial"",""time""
""fullscreenenter"",""1"",""1775""
","
","","","","","","1249.8999999999069","<p> Today, you will see each image ONCE only.  </p><p>  That means none of the images will repeat. </p>","","0","instructions","","","","","","","","",""
"learning-instructions","14","91846","0.0-7.0-0.7","1868","2","""event"",""trial"",""time""
""fullscreenenter"",""1"",""1775""
","
","
","""event"",""trial"",""time""
""fullscreenenter"",""1"",""1775""
","
","","","","","","2147.9000000001397","<p> Before you play the real game, it is time to practice. </p><p>  Just like in the real game, some of the images in the practice will be ones you have seen before. </p><p>  Others will be entirely new. </p>","","0","instructions","","","","","","","","",""
"html-button-response","15","93533","0.0-8.0","1868","2","""event"",""trial"",""time""
""fullscreenenter"",""1"",""1775""
","
","
","""event"",""trial"",""time""
""fullscreenenter"",""1"",""1775""
","
","","","","","","1582","<p> Ready to practice? </p><p> Remember, use the 1, 2, 3, and 4 keys to make your responses. </p>","0","","instructions","","","","","","","","",""
"html-keyboard-response","16","94136","0.0-9.0-0.0","1868","2","""event"",""trial"",""time""
""fullscreenenter"",""1"",""1775""
","
","
","""event"",""trial"",""time""
""fullscreenenter"",""1"",""1775""
","
","","","","","","null","<div style=""font-size:60px;"">+</div>","null","","fixation","","","","","","","","",""
"memory-trial","17","97487","0.0-9.0-1.0","1868","2","""event"",""trial"",""time""
""fullscreenenter"",""1"",""1775""
","
","
","""event"",""trial"",""time""
""fullscreenenter"",""1"",""1775""
","
","","","","","","2341.399999999907","images/ball3.png","","","practice","1","definitely_old","","","","","","",""
"html-keyboard-response","18","97990","0.0-9.0-0.1","1868","2","""event"",""trial"",""time""
""fullscreenenter"",""1"",""1775""
","
","
","""event"",""trial"",""time""
""fullscreenenter"",""1"",""1775""
","
","","","","","","null","<div style=""font-size:60px;"">+</div>","null","","fixation","","","","","","","","",""
"memory-trial","19","102642","0.0-9.0-1.1","1868","2","""event"",""trial"",""time""
""fullscreenenter"",""1"",""1775""
","
","
","""event"",""trial"",""time""
""fullscreenenter"",""1"",""1775""
","
","","","","","","3646.7999999998137","images/ball1.png","","","practice","2","maybe_old","","","","","","",""
"html-keyboard-response","20","103144","0.0-9.0-0.2","1868","2","""event"",""trial"",""time""
""fullscreenenter"",""1"",""1775""
","
","
","""event"",""trial"",""time""
""fullscreenenter"",""1"",""1775""
","
","","","","","","null","<div style=""font-size:60px;"">+</div>","null","","fixation","","","","","","","","",""
"memory-trial","21","109551","0.0-9.0-1.2","1868","2","""event"",""trial"",""time""
""fullscreenenter"",""1"",""1775""
","
","
","""event"",""trial"",""time""
""fullscreenenter"",""1"",""1775""
","
","","","","","","5399.800000000047","images/racket2.png","","","practice","2","maybe_old","","","","","","",""
"html-keyboard-response","22","110053","0.0-9.0-0.3","1868","2","""event"",""trial"",""time""
""fullscreenenter"",""1"",""1775""
","
","
","""event"",""trial"",""time""
""fullscreenenter"",""1"",""1775""
","
","","","","","","null","<div style=""font-size:60px;"">+</div>","null","","fixation","","","","","","","","",""
"memory-trial","23","115578","0.0-9.0-1.3","1868","2","""event"",""trial"",""time""
""fullscreenenter"",""1"",""1775""
","
","
","""event"",""trial"",""time""
""fullscreenenter"",""1"",""1775""
","
","","","","","","4518.90000000014","images/ball4.png","","","practice","3","maybe_new","","","","","","",""
"html-keyboard-response","24","116080","0.0-9.0-0.4","1868","2","""event"",""trial"",""time""
""fullscreenenter"",""1"",""1775""
","
","
","""event"",""trial"",""time""
""fullscreenenter"",""1"",""1775""
","
","","","","","","null","<div style=""font-size:60px;"">+</div>","null","","fixation","","","","","","","","",""
"memory-trial","25","119185","0.0-9.0-1.4","1868","2","""event"",""trial"",""time""
""fullscreenenter"",""1"",""1775""
","
","
","""event"",""trial"",""time""
""fullscreenenter"",""1"",""1775""
","
","","","","","","2098","images/racket3.png","","","practice","2","maybe_old","","","","","","",""
"html-keyboard-response","26","119688","0.0-9.0-0.5","1868","2","""event"",""trial"",""time""
""fullscreenenter"",""1"",""1775""
","
","
","""event"",""trial"",""time""
""fullscreenenter"",""1"",""1775""
","
","","","","","","null","<div style=""font-size:60px;"">+</div>","null","","fixation","","","","","","","","",""
"memory-trial","27","125476","0.0-9.0-1.5","1868","2","""event"",""trial"",""time""
""fullscreenenter"",""1"",""1775""
","
","
","""event"",""trial"",""time""
""fullscreenenter"",""1"",""1775""
","
","","","","","","4781.300000000047","images/ball2.png","","","practice","2","maybe_old","","","","","","",""
"html-keyboard-response","28","125979","0.0-9.0-0.6","1868","2","""event"",""trial"",""time""
""fullscreenenter"",""1"",""1775""
","
","
","""event"",""trial"",""time""
""fullscreenenter"",""1"",""1775""
","
","","","","","","null","<div style=""font-size:60px;"">+</div>","null","","fixation","","","","","","","","",""
"memory-trial","29","128352","0.0-9.0-1.6","1868","2","""event"",""trial"",""time""
""fullscreenenter"",""1"",""1775""
","
","
","""event"",""trial"",""time""
""fullscreenenter"",""1"",""1775""
","
","","","","","","1367.0999999998603","images/racket4.png","","","practice","1","definitely_old","","","","","","",""
"html-keyboard-response","30","128854","0.0-9.0-0.7","1868","2","""event"",""trial"",""time""
""fullscreenenter"",""1"",""1775""
","
","
","""event"",""trial"",""time""
""fullscreenenter"",""1"",""1775""
","
","","","","","","null","<div style=""font-size:60px;"">+</div>","null","","fixation","","","","","","","","",""
"memory-trial","31","132201","0.0-9.0-1.7","1868","2","""event"",""trial"",""time""
""fullscreenenter"",""1"",""1775""
","
","
","""event"",""trial"",""time""
""fullscreenenter"",""1"",""1775""
","
","","","","","","2341.100000000093","images/racket1.png","","","practice","3","maybe_new","","","","","","",""
"learning-instructions","32","142111","0.0-10.0-0.0","1868","2","""event"",""trial"",""time""
""fullscreenenter"",""1"",""1775""
","
","
","""event"",""trial"",""time""
""fullscreenenter"",""1"",""1775""
","
","","","","","","1934.9000000001397","<p> Great! You have completed the practice. </p><p> Before you start, we're going to ask you a few questions about how the game works.  </p>","","0","instructions","","","","","","","","",""
"preload","33","144200","0.0-11.0","1868","2","""event"",""trial"",""time""
""fullscreenenter"",""1"",""1775""
","
","
","""event"",""trial"",""time""
""fullscreenenter"",""1"",""1775""
","
","true","false","[]","[]","[]","","","","","","","","","","","","","",""
"comp-q","34","151026","0.0-12.0-0.0","1868","2","""event"",""trial"",""time""
""fullscreenenter"",""1"",""1775""
","
","
","""event"",""trial"",""time""
""fullscreenenter"",""1"",""1775""
","
","","","","","","993.5","<p> <b> True or False? </b> </p><p> In this game, you will only see each image once. </p>","","0","comp_question","","","true","","","","","",""
"comp-q","35","170473","0.0-12.0-1.0","1868","2","""event"",""trial"",""time""
""fullscreenenter"",""1"",""1775""
","
","
","""event"",""trial"",""time""
""fullscreenenter"",""1"",""1775""
","
","","","","","","13101.59999999986","<p> <b> That's right! </b> You will see many different images <i> one time each </i> in this game. </p>","","0","comp_answer","","","","","","","","",""
"comp-q","36","177208","0.0-12.0-0.1","1868","2","""event"",""trial"",""time""
""fullscreenenter"",""1"",""1775""
","
","
","""event"",""trial"",""time""
""fullscreenenter"",""1"",""1775""
","
","","","","","","935.1999999999534","<p> <b> True or False? </b> </p><p> You should use the mouse and click to make your response. </p>","","1","comp_question","","","true","","","","","",""
"comp-q","37","186130","0.0-12.0-1.1","1868","2","""event"",""trial"",""time""
""fullscreenenter"",""1"",""1775""
","
","
","""event"",""trial"",""time""
""fullscreenenter"",""1"",""1775""
","
","","","","","","1581.3000000000466","<p><b> That's right! </b> You should use the '1', '2', '3', and '4' keys to make your response. </p>","","0","comp_answer","","","","","","","","",""
"comp-q","38","195769","0.0-12.0-0.2","1868","2","""event"",""trial"",""time""
""fullscreenenter"",""1"",""1775""
","
","
","""event"",""trial"",""time""
""fullscreenenter"",""1"",""1775""
","
","","","","","","3634.100000000093","<p> <b> True or False? </b> </p><p> You will have as much time as you want to make each choice. </p>","","1","comp_question","","","true","","","","","",""
"comp-q","39","206025","0.0-12.0-1.2","1868","2","""event"",""trial"",""time""
""fullscreenenter"",""1"",""1775""
","
","
","""event"",""trial"",""time""
""fullscreenenter"",""1"",""1775""
","
","","","","","","4866.600000000093","<p> <b> That's right! </b> You will only have 10 seconds to make each choice. </p>","","0","comp_answer","","","","","","","","",""
"learning-instructions","40","216403","0.0-13.0","1868","2","""event"",""trial"",""time""
""fullscreenenter"",""1"",""1775""
","
","
","""event"",""trial"",""time""
""fullscreenenter"",""1"",""1775""
","
","","","","","","1708.4000000001397","<p> Great! You are now ready to begin the game. </p><p> Remember, use the 1, 2, 3, and 4 keys to make your responses. </p>","","0","instructions","","","","","","","","",""
"preload","41","221278","0.0-14.0","1868","2","""event"",""trial"",""time""
""fullscreenenter"",""1"",""1775""
","
","
","""event"",""trial"",""time""
""fullscreenenter"",""1"",""1775""
","
","true","false","[]","[]","[]","","","","","","","","","","","","","",""
"html-keyboard-response","42","221781","0.0-15.0-0.0","1868","2","""event"",""trial"",""time""
""fullscreenenter"",""1"",""1775""
","
","
","""event"",""trial"",""time""
""fullscreenenter"",""1"",""1775""
","
","","","","","","null","<div style=""font-size:60px;"">+</div>","null","","fixation","","","","","","","","",""
"memory-trial","43","225500","0.0-15.0-1.0","1868","2","""event"",""trial"",""time""
""fullscreenenter"",""1"",""1775""
","
","
","""event"",""trial"",""time""
""fullscreenenter"",""1"",""1775""
","
","","","","","","2709.2000000001863","images/bed5.png","","","memory_trial","1","definitely_old","","","","","","",""
"html-keyboard-response","44","226003","0.0-15.0-0.1","1868","2","""event"",""trial"",""time""
""fullscreenenter"",""1"",""1775""
","
","
","""event"",""trial"",""time""
""fullscreenenter"",""1"",""1775""
","
","","","","","","null","<div style=""font-size:60px;"">+</div>","null","","fixation","","","","","","","","",""
"memory-trial","45","230397","0.0-15.0-1.1","1868","2","""event"",""trial"",""time""
""fullscreenenter"",""1"",""1775""
","
","
","""event"",""trial"",""time""
""fullscreenenter"",""1"",""1775""
","
","","","","","","3388","images/feline2.png","","","memory_trial","1","definitely_old","","","","","","",""
"html-keyboard-response","46","230900","0.0-15.0-0.2","1868","2","""event"",""trial"",""time""
""fullscreenenter"",""1"",""1775""
","
","
","""event"",""trial"",""time""
""fullscreenenter"",""1"",""1775""
","
","","","","","","null","<div style=""font-size:60px;"">+</div>","null","","fixation","","","","","","","","",""
"memory-trial","47","235703","0.0-15.0-1.2","1868","2","""event"",""trial"",""time""
""fullscreenenter"",""1"",""1775""
","
","
","""event"",""trial"",""time""
""fullscreenenter"",""1"",""1775""
","
","","","","","","3796.6999999999534","images/train3.png","","","memory_trial","4","definitely_new","","","","","","",""
"html-keyboard-response","48","236206","0.0-15.0-0.3","1868","2","""event"",""trial"",""time""
""fullscreenenter"",""1"",""1775""
","
","
","""event"",""trial"",""time""
""fullscreenenter"",""1"",""1775""
","
","","","","","","null","<div style=""font-size:60px;"">+</div>","null","","fixation","","","","","","","","",""
"memory-trial","49","244488","0.0-15.0-1.3","1868","2","""event"",""trial"",""time""
""fullscreenenter"",""1"",""1775""
","
","
","""event"",""trial"",""time""
""fullscreenenter"",""1"",""1775""
","
","","","","","","7279.700000000186","images/train5.png","","","memory_trial","3","maybe_new","","","","","","",""
"html-keyboard-response","50","244991","0.0-15.0-0.4","1868","2","""event"",""trial"",""time""
""fullscreenenter"",""1"",""1775""
","
","
","""event"",""trial"",""time""
""fullscreenenter"",""1"",""1775""
","
","","","","","","null","<div style=""font-size:60px;"">+</div>","null","","fixation","","","","","","","","",""
"memory-trial","51","249226","0.0-15.0-1.4","1868","2","""event"",""trial"",""time""
""fullscreenenter"",""1"",""1775""
","
","
","""event"",""trial"",""time""
""fullscreenenter"",""1"",""1775""
","
","","","","","","3228.3000000000466","images/straw1.png","","","memory_trial","2","maybe_old","","","","","","",""
"html-keyboard-response","52","249729","0.0-15.0-0.5","1868","2","""event"",""trial"",""time""
""fullscreenenter"",""1"",""1775""
","
","
","""event"",""trial"",""time""
""fullscreenenter"",""1"",""1775""
","
","","","","","","null","<div style=""font-size:60px;"">+</div>","null","","fixation","","","","","","","","",""
"memory-trial","53","253470","0.0-15.0-1.5","1868","2","""event"",""trial"",""time""
""fullscreenenter"",""1"",""1775""
","
","
","""event"",""trial"",""time""
""fullscreenenter"",""1"",""1775""
","
","","","","","","2734.4000000001397","images/cow3.png","","","memory_trial","2","maybe_old","","","","","","",""
"html-keyboard-response","54","253973","0.0-15.0-0.6","1868","2","""event"",""trial"",""time""
""fullscreenenter"",""1"",""1775""
","
","
","""event"",""trial"",""time""
""fullscreenenter"",""1"",""1775""
","
","","","","","","null","<div style=""font-size:60px;"">+</div>","null","","fixation","","","","","","","","",""
"memory-trial","55","258322","0.0-15.0-1.6","1868","2","""event"",""trial"",""time""
""fullscreenenter"",""1"",""1775""
","
","
","""event"",""trial"",""time""
""fullscreenenter"",""1"",""1775""
","
","","","","","","3342.8000000000466","images/bush5.png","","","memory_trial","4","definitely_new","","","","","","",""
"html-keyboard-response","56","258824","0.0-15.0-0.7","1868","2","""event"",""trial"",""time""
""fullscreenenter"",""1"",""1775""
","
","
","""event"",""trial"",""time""
""fullscreenenter"",""1"",""1775""
","
","","","","","","null","<div style=""font-size:60px;"">+</div>","null","","fixation","","","","","","","","",""
"memory-trial","57","262321","0.0-15.0-1.7","1868","2","""event"",""trial"",""time""
""fullscreenenter"",""1"",""1775""
","
","
","""event"",""trial"",""time""
""fullscreenenter"",""1"",""1775""
","
","","","","","","2490.9000000001397","images/orange1.png","","","memory_trial","1","definitely_old","","","","","","",""
"html-keyboard-response","58","262823","0.0-15.0-0.8","1868","2","""event"",""trial"",""time""
""fullscreenenter"",""1"",""1775""
","
","
","""event"",""trial"",""time""
""fullscreenenter"",""1"",""1775""
","
","","","","","","null","<div style=""font-size:60px;"">+</div>","null","","fixation","","","","","","","","",""
"memory-trial","59","267196","0.0-15.0-1.8","1868","2","""event"",""trial"",""time""
""fullscreenenter"",""1"",""1775""
","
","
","""event"",""trial"",""time""
""fullscreenenter"",""1"",""1775""
","
","","","","","","3367.5999999998603","images/horse2.png","","","memory_trial","4","definitely_new","","","","","","",""
"html-keyboard-response","60","267711","0.0-15.0-0.9","1868","2","""event"",""trial"",""time""
""fullscreenenter"",""1"",""1775""
","
","
","""event"",""trial"",""time""
""fullscreenenter"",""1"",""1775""
","
","","","","","","null","<div style=""font-size:60px;"">+</div>","null","","fixation","","","","","","","","",""
"memory-trial","61","270266","0.0-15.0-1.9","1868","2","""event"",""trial"",""time""
""fullscreenenter"",""1"",""1775""
","
","
","""event"",""trial"",""time""
""fullscreenenter"",""1"",""1775""
","
","","","","","","1548.6000000000931","images/dog3.png","","","memory_trial","1","definitely_old","","","","","","",""
"html-keyboard-response","62","270769","0.0-15.0-0.10","1868","2","""event"",""trial"",""time""
""fullscreenenter"",""1"",""1775""
","
","
","""event"",""trial"",""time""
""fullscreenenter"",""1"",""1775""
","
","","","","","","null","<div style=""font-size:60px;"">+</div>","null","","fixation","","","","","","","","",""
"memory-trial","63","273438","0.0-15.0-1.10","1868","2","""event"",""trial"",""time""
""fullscreenenter"",""1"",""1775""
","
","
","""event"",""trial"",""time""
""fullscreenenter"",""1"",""1775""
","
","","","","","","1664.6999999999534","images/plane2.png","","","memory_trial","1","definitely_old","","","","","","",""
"html-keyboard-response","64","273940","0.0-15.0-0.11","1868","2","""event"",""trial"",""time""
""fullscreenenter"",""1"",""1775""
","
","
","""event"",""trial"",""time""
""fullscreenenter"",""1"",""1775""
","
","","","","","","null","<div style=""font-size:60px;"">+</div>","null","","fixation","","","","","","","","",""
"memory-trial","65","277580","0.0-15.0-1.11","1868","2","""event"",""trial"",""time""
""fullscreenenter"",""1"",""1775""
","
","
","""event"",""trial"",""time""
""fullscreenenter"",""1"",""1775""
","
","","","","","","2635.600000000093","images/horse3.png","","","memory_trial","2","maybe_old","","","","","","",""
"html-keyboard-response","66","278082","0.0-15.0-0.12","1868","2","""event"",""trial"",""time""
""fullscreenenter"",""1"",""1775""
","
","
","""event"",""trial"",""time""
""fullscreenenter"",""1"",""1775""
","
","","","","","","null","<div style=""font-size:60px;"">+</div>","null","","fixation","","","","","","","","",""
"memory-trial","67","281358","0.0-15.0-1.12","1868","2","""event"",""trial"",""time""
""fullscreenenter"",""1"",""1775""
","
","
","""event"",""trial"",""time""
""fullscreenenter"",""1"",""1775""
","
","","","","","","2270.5","images/apple4.png","","","memory_trial","1","definitely_old","","","","","","",""
"html-keyboard-response","68","281861","0.0-15.0-0.13","1868","2","""event"",""trial"",""time""
""fullscreenenter"",""1"",""1775""
","
","
","""event"",""trial"",""time""
""fullscreenenter"",""1"",""1775""
","
","","","","","","null","<div style=""font-size:60px;"">+</div>","null","","fixation","","","","","","","","",""
"memory-trial","69","286667","0.0-15.0-1.13","1868","2","""event"",""trial"",""time""
""fullscreenenter"",""1"",""1775""
","
","
","""event"",""trial"",""time""
""fullscreenenter"",""1"",""1775""
","
","","","","","","3801.1999999999534","images/sheep1.png","","","memory_trial","2","maybe_old","","","","","","",""
"html-keyboard-response","70","287169","0.0-15.0-0.14","1868","2","""event"",""trial"",""time""
""fullscreenenter"",""1"",""1775""
","
","
","""event"",""trial"",""time""
""fullscreenenter"",""1"",""1775""
","
","","","","","","null","<div style=""font-size:60px;"">+</div>","null","","fixation","","","","","","","","",""
"memory-trial","71","290681","0.0-15.0-1.14","1868","2","""event"",""trial"",""time""
""fullscreenenter"",""1"",""1775""
","
","
","""event"",""trial"",""time""
""fullscreenenter"",""1"",""1775""
","
","","","","","","2507.5999999998603","images/cow1.png","","","memory_trial","3","maybe_new","","","","","","",""
"html-keyboard-response","72","291183","0.0-15.0-0.15","1868","2","""event"",""trial"",""time""
""fullscreenenter"",""1"",""1775""
","
","
","""event"",""trial"",""time""
""fullscreenenter"",""1"",""1775""
","
","","","","","","null","<div style=""font-size:60px;"">+</div>","null","","fixation","","","","","","","","",""
"memory-trial","73","294305","0.0-15.0-1.15","1868","2","""event"",""trial"",""time""
""fullscreenenter"",""1"",""1775""
","
","
","""event"",""trial"",""time""
""fullscreenenter"",""1"",""1775""
","
","","","","","","2115.6999999999534","images/truck4.png","","","memory_trial","1","definitely_old","","","","","","",""
"html-keyboard-response","74","294807","0.0-15.0-0.16","1868","2","""event"",""trial"",""time""
""fullscreenenter"",""1"",""1775""
","
","
","""event"",""trial"",""time""
""fullscreenenter"",""1"",""1775""
","
","","","","","","null","<div style=""font-size:60px;"">+</div>","null","","fixation","","","","","","","","",""
"memory-trial","75","298155","0.0-15.0-1.16","1868","2","""event"",""trial"",""time""
""fullscreenenter"",""1"",""1775""
","
","
","""event"",""trial"",""time""
""fullscreenenter"",""1"",""1775""
","
","","","","","","2343.3000000000466","images/train4.png","","","memory_trial","2","maybe_old","","","","","","",""
"html-keyboard-response","76","298657","0.0-15.0-0.17","1868","2","""event"",""trial"",""time""
""fullscreenenter"",""1"",""1775""
","
","
","""event"",""trial"",""time""
""fullscreenenter"",""1"",""1775""
","
","","","","","","null","<div style=""font-size:60px;"">+</div>","null","","fixation","","","","","","","","",""
"memory-trial","77","301359","0.0-15.0-1.17","1868","2","""event"",""trial"",""time""
""fullscreenenter"",""1"",""1775""
","
","
","""event"",""trial"",""time""
""fullscreenenter"",""1"",""1775""
","
","","","","","","1697.6999999999534","images/bed1.png","","","memory_trial","3","maybe_new","","","","","","",""
"html-keyboard-response","78","301862","0.0-15.0-0.18","1868","2","""event"",""trial"",""time""
""fullscreenenter"",""1"",""1775""
","
","
","""event"",""trial"",""time""
""fullscreenenter"",""1"",""1775""
","
","","","","","","null","<div style=""font-size:60px;"">+</div>","null","","fixation","","","","","","","","",""
"memory-trial","79","304583","0.0-15.0-1.18","1868","2","""event"",""trial"",""time""
""fullscreenenter"",""1"",""1775""
","
","
","""event"",""trial"",""time""
""fullscreenenter"",""1"",""1775""
","
","","","","","","1715.6999999999534","images/truck5.png","","","memory_trial","3","maybe_new","","","","","","",""
"html-keyboard-response","80","305086","0.0-15.0-0.19","1868","2","""event"",""trial"",""time""
""fullscreenenter"",""1"",""1775""
","
","
","""event"",""trial"",""time""
""fullscreenenter"",""1"",""1775""
","
","","","","","","null","<div style=""font-size:60px;"">+</div>","null","","fixation","","","","","","","","",""
"memory-trial","81","308804","0.0-15.0-1.19","1868","2","""event"",""trial"",""time""
""fullscreenenter"",""1"",""1775""
","
","
","""event"",""trial"",""time""
""fullscreenenter"",""1"",""1775""
","
","","","","","","2714.9000000001397","images/goat2.png","","","memory_trial","3","maybe_new","","","","","","",""
"html-keyboard-response","82","309307","0.0-15.0-0.20","1868","2","""event"",""trial"",""time""
""fullscreenenter"",""1"",""1775""
","
","
","""event"",""trial"",""time""
""fullscreenenter"",""1"",""1775""
","
","","","","","","null","<div style=""font-size:60px;"">+</div>","null","","fixation","","","","","","","","",""
"memory-trial","83","313116","0.0-15.0-1.20","1868","2","""event"",""trial"",""time""
""fullscreenenter"",""1"",""1775""
","
","
","""event"",""trial"",""time""
""fullscreenenter"",""1"",""1775""
","
","","","","","","2804","images/cow4.png","","","memory_trial","3","maybe_new","","","","","","",""
"html-keyboard-response","84","313618","0.0-15.0-0.21","1868","2","""event"",""trial"",""time""
""fullscreenenter"",""1"",""1775""
","
","
","""event"",""trial"",""time""
""fullscreenenter"",""1"",""1775""
","
","","","","","","null","<div style=""font-size:60px;"">+</div>","null","","fixation","","","","","","","","",""
"memory-trial","85","316534","0.0-15.0-1.21","1868","2","""event"",""trial"",""time""
""fullscreenenter"",""1"",""1775""
","
","
","""event"",""trial"",""time""
""fullscreenenter"",""1"",""1775""
","
","","","","","","1911.1999999999534","images/orange3.png","","","memory_trial","2","maybe_old","","","","","","",""
"html-keyboard-response","86","317036","0.0-15.0-0.22","1868","2","""event"",""trial"",""time""
""fullscreenenter"",""1"",""1775""
","
","
","""event"",""trial"",""time""
""fullscreenenter"",""1"",""1775""
","
","","","","","","null","<div style=""font-size:60px;"">+</div>","null","","fixation","","","","","","","","",""
"memory-trial","87","319619","0.0-15.0-1.22","1868","2","""event"",""trial"",""time""
""fullscreenenter"",""1"",""1775""
","
","
","""event"",""trial"",""time""
""fullscreenenter"",""1"",""1775""
","
","","","","","","1578.3000000000466","images/cactus2.png","","","memory_trial","4","definitely_new","","","","","","",""
"html-keyboard-response","88","320121","0.0-15.0-0.23","1868","2","""event"",""trial"",""time""
""fullscreenenter"",""1"",""1775""
","
","
","""event"",""trial"",""time""
""fullscreenenter"",""1"",""1775""
","
","","","","","","null","<div style=""font-size:60px;"">+</div>","null","","fixation","","","","","","","","",""
"memory-trial","89","324009","0.0-15.0-1.23","1868","2","""event"",""trial"",""time""
""fullscreenenter"",""1"",""1775""
","
","
","""event"",""trial"",""time""
""fullscreenenter"",""1"",""1775""
","
","","","","","","2883.1999999999534","images/banana5.png","","","memory_trial","2","maybe_old","","","","","","",""
"html-keyboard-response","90","324510","0.0-15.0-0.24","1868","2","""event"",""trial"",""time""
""fullscreenenter"",""1"",""1775""
","
","
","""event"",""trial"",""time""
""fullscreenenter"",""1"",""1775""
","
","","","","","","null","<div style=""font-size:60px;"">+</div>","null","","fixation","","","","","","","","",""
"memory-trial","91","329323","0.0-15.0-1.24","1868","2","""event"",""trial"",""time""
""fullscreenenter"",""1"",""1775""
","
","
","""event"",""trial"",""time""
""fullscreenenter"",""1"",""1775""
","
","","","","","","3807.7999999998137","images/rabbit5.png","","","memory_trial","2","maybe_old","","","","","","",""
"html-keyboard-response","92","329825","0.0-15.0-0.25","1868","2","""event"",""trial"",""time""
""fullscreenenter"",""1"",""1775""
","
","
","""event"",""trial"",""time""
""fullscreenenter"",""1"",""1775""
","
","","","","","","null","<div style=""font-size:60px;"">+</div>","null","","fixation","","","","","","","","",""
"memory-trial","93","332066","0.0-15.0-1.25","1868","2","""event"",""trial"",""time""
""fullscreenenter"",""1"",""1775""
","
","
","""event"",""trial"",""time""
""fullscreenenter"",""1"",""1775""
","
","","","","","","1235.5","images/boat3.png","","","memory_trial","4","definitely_new","","","","","","",""
"html-keyboard-response","94","332568","0.0-15.0-0.26","1868","2","""event"",""trial"",""time""
""fullscreenenter"",""1"",""1775""
","
","
","""event"",""trial"",""time""
""fullscreenenter"",""1"",""1775""
","
","","","","","","null","<div style=""font-size:60px;"">+</div>","null","","fixation","","","","","","","","",""
"memory-trial","95","335536","0.0-15.0-1.26","1868","2","""event"",""trial"",""time""
""fullscreenenter"",""1"",""1775""
","
","
","""event"",""trial"",""time""
""fullscreenenter"",""1"",""1775""
","
","","","","","","1964.3999999999069","images/flower1.png","","","memory_trial","1","definitely_old","","","","","","",""
"html-keyboard-response","96","336038","0.0-15.0-0.27","1868","2","""event"",""trial"",""time""
""fullscreenenter"",""1"",""1775""
","
","
","""event"",""trial"",""time""
""fullscreenenter"",""1"",""1775""
","
","","","","","","null","<div style=""font-size:60px;"">+</div>","null","","fixation","","","","","","","","",""
"memory-trial","97","340144","0.0-15.0-1.27","1868","2","""event"",""trial"",""time""
""fullscreenenter"",""1"",""1775""
","
","
","""event"",""trial"",""time""
""fullscreenenter"",""1"",""1775""
","
","","","","","","3100.6999999999534","images/chair3.png","","","memory_trial","3","maybe_new","","","","","","",""
"html-keyboard-response","98","340646","0.0-15.0-0.28","1868","2","""event"",""trial"",""time""
""fullscreenenter"",""1"",""1775""
","
","
","""event"",""trial"",""time""
""fullscreenenter"",""1"",""1775""
","
","","","","","","null","<div style=""font-size:60px;"">+</div>","null","","fixation","","","","","","","","",""
"memory-trial","99","343344","0.0-15.0-1.28","1868","2","""event"",""trial"",""time""
""fullscreenenter"",""1"",""1775""
","
","
","""event"",""trial"",""time""
""fullscreenenter"",""1"",""1775""
","
","","","","","","1694.1000000000931","images/sofa5.png","","","memory_trial","3","maybe_new","","","","","","",""
"html-keyboard-response","100","343846","0.0-15.0-0.29","1868","2","""event"",""trial"",""time""
""fullscreenenter"",""1"",""1775""
","
","
","""event"",""trial"",""time""
""fullscreenenter"",""1"",""1775""
","
","","","","","","null","<div style=""font-size:60px;"">+</div>","null","","fixation","","","","","","","","",""
"memory-trial","101","346726","0.0-15.0-1.29","1868","2","""event"",""trial"",""time""
""fullscreenenter"",""1"",""1775""
","
","
","""event"",""trial"",""time""
""fullscreenenter"",""1"",""1775""
","
","","","","","","1878.1000000000931","images/banana2.png","","","memory_trial","4","definitely_new","","","","","","",""
"html-keyboard-response","102","347228","0.0-15.0-0.30","1868","2","""event"",""trial"",""time""
""fullscreenenter"",""1"",""1775""
","
","
","""event"",""trial"",""time""
""fullscreenenter"",""1"",""1775""
","
","","","","","","null","<div style=""font-size:60px;"">+</div>","null","","fixation","","","","","","","","",""
"memory-trial","103","349889","0.0-15.0-1.30","1868","2","""event"",""trial"",""time""
""fullscreenenter"",""1"",""1775""
","
","
","""event"",""trial"",""time""
""fullscreenenter"",""1"",""1775""
","
","","","","","","1656.8999999999069","images/cactus3.png","","","memory_trial","3","maybe_new","","","","","","",""
"html-keyboard-response","104","350391","0.0-15.0-0.31","1868","2","""event"",""trial"",""time""
""fullscreenenter"",""1"",""1775""
","
","
","""event"",""trial"",""time""
""fullscreenenter"",""1"",""1775""
","
","","","","","","null","<div style=""font-size:60px;"">+</div>","null","","fixation","","","","","","","","",""
"memory-trial","105","352691","0.0-15.0-1.31","1868","2","""event"",""trial"",""time""
""fullscreenenter"",""1"",""1775""
","
","
","""event"",""trial"",""time""
""fullscreenenter"",""1"",""1775""
","
","","","","","","1294.9000000001397","images/table4.png","","","memory_trial","3","maybe_new","","","","","","",""
"html-keyboard-response","106","353193","0.0-15.0-0.32","1868","2","""event"",""trial"",""time""
""fullscreenenter"",""1"",""1775""
","
","
","""event"",""trial"",""time""
""fullscreenenter"",""1"",""1775""
","
","","","","","","null","<div style=""font-size:60px;"">+</div>","null","","fixation","","","","","","","","",""
"memory-trial","107","355893","0.0-15.0-1.32","1868","2","""event"",""trial"",""time""
""fullscreenenter"",""1"",""1775""
","
","
","""event"",""trial"",""time""
""fullscreenenter"",""1"",""1775""
","
","","","","","","1696.9000000001397","images/cactus5.png","","","memory_trial","3","maybe_new","","","","","","",""
"html-keyboard-response","108","356395","0.0-15.0-0.33","1868","2","""event"",""trial"",""time""
""fullscreenenter"",""1"",""1775""
","
","
","""event"",""trial"",""time""
""fullscreenenter"",""1"",""1775""
","
","","","","","","null","<div style=""font-size:60px;"">+</div>","null","","fixation","","","","","","","","",""
"memory-trial","109","359898","0.0-15.0-1.33","1868","2","""event"",""trial"",""time""
""fullscreenenter"",""1"",""1775""
","
","
","""event"",""trial"",""time""
""fullscreenenter"",""1"",""1775""
","
","","","","","","2497.5","images/chair4.png","","","memory_trial","4","definitely_new","","","","","","",""
"html-keyboard-response","110","360400","0.0-15.0-0.34","1868","2","""event"",""trial"",""time""
""fullscreenenter"",""1"",""1775""
","
","
","""event"",""trial"",""time""
""fullscreenenter"",""1"",""1775""
","
","","","","","","null","<div style=""font-size:60px;"">+</div>","null","","fixation","","","","","","","","",""
"memory-trial","111","363383","0.0-15.0-1.34","1868","2","""event"",""trial"",""time""
""fullscreenenter"",""1"",""1775""
","
","
","""event"",""trial"",""time""
""fullscreenenter"",""1"",""1775""
","
","","","","","","1978.1999999999534","images/feline4.png","","","memory_trial","3","maybe_new","","","","","","",""
"html-keyboard-response","112","363884","0.0-15.0-0.35","1868","2","""event"",""trial"",""time""
""fullscreenenter"",""1"",""1775""
","
","
","""event"",""trial"",""time""
""fullscreenenter"",""1"",""1775""
","
","","","","","","null","<div style=""font-size:60px;"">+</div>","null","","fixation","","","","","","","","",""
"memory-trial","113","367312","0.0-15.0-1.35","1868","2","""event"",""trial"",""time""
""fullscreenenter"",""1"",""1775""
","
","
","""event"",""trial"",""time""
""fullscreenenter"",""1"",""1775""
","
","","","","","","2421.899999999907","images/rodent3.png","","","memory_trial","4","definitely_new","","","","","","",""
"html-keyboard-response","114","367814","0.0-15.0-0.36","1868","2","""event"",""trial"",""time""
""fullscreenenter"",""1"",""1775""
","
","
","""event"",""trial"",""time""
""fullscreenenter"",""1"",""1775""
","
","","","","","","null","<div style=""font-size:60px;"">+</div>","null","","fixation","","","","","","","","",""
"memory-trial","115","370118","0.0-15.0-1.36","1868","2","""event"",""trial"",""time""
""fullscreenenter"",""1"",""1775""
","
","
","""event"",""trial"",""time""
""fullscreenenter"",""1"",""1775""
","
","","","","","","1299","images/tree3.png","","","memory_trial","3","maybe_new","","","","","","",""
"html-keyboard-response","116","370620","0.0-15.0-0.37","1868","2","""event"",""trial"",""time""
""fullscreenenter"",""1"",""1775""
","
","
","""event"",""trial"",""time""
""fullscreenenter"",""1"",""1775""
","
","","","","","","null","<div style=""font-size:60px;"">+</div>","null","","fixation","","","","","","","","",""
"memory-trial","117","374609","0.0-15.0-1.37","1868","2","""event"",""trial"",""time""
""fullscreenenter"",""1"",""1775""
","
","
","""event"",""trial"",""time""
""fullscreenenter"",""1"",""1775""
","
","","","","","","2983.6999999999534","images/rodent4.png","","","memory_trial","3","maybe_new","","","","","","",""
"html-keyboard-response","118","375111","0.0-15.0-0.38","1868","2","""event"",""trial"",""time""
""fullscreenenter"",""1"",""1775""
","
","
","""event"",""trial"",""time""
""fullscreenenter"",""1"",""1775""
","
","","","","","","null","<div style=""font-size:60px;"">+</div>","null","","fixation","","","","","","","","",""
"memory-trial","119","377952","0.0-15.0-1.38","1868","2","""event"",""trial"",""time""
""fullscreenenter"",""1"",""1775""
","
","
","""event"",""trial"",""time""
""fullscreenenter"",""1"",""1775""
","
","","","","","","1834.8000000000466","images/goat5.png","","","memory_trial","4","definitely_new","","","","","","",""
"html-keyboard-response","120","378454","0.0-15.0-0.39","1868","2","""event"",""trial"",""time""
""fullscreenenter"",""1"",""1775""
","
","
","""event"",""trial"",""time""
""fullscreenenter"",""1"",""1775""
","
","","","","","","null","<div style=""font-size:60px;"">+</div>","null","","fixation","","","","","","","","",""
"memory-trial","121","381140","0.0-15.0-1.39","1868","2","""event"",""trial"",""time""
""fullscreenenter"",""1"",""1775""
","
","
","""event"",""trial"",""time""
""fullscreenenter"",""1"",""1775""
","
","","","","","","1681.2000000001863","images/truck2.png","","","memory_trial","3","maybe_new","","","","","","",""
"html-keyboard-response","122","381642","0.0-15.0-0.40","1868","2","""event"",""trial"",""time""
""fullscreenenter"",""1"",""1775""
","
","
","""event"",""trial"",""time""
""fullscreenenter"",""1"",""1775""
","
","","","","","","null","<div style=""font-size:60px;"">+</div>","null","","fixation","","","","","","","","",""
"memory-trial","123","384378","0.0-15.0-1.40","1868","2","""event"",""trial"",""time""
""fullscreenenter"",""1"",""1775""
","
","
","""event"",""trial"",""time""
""fullscreenenter"",""1"",""1775""
","
","","","","","","1731.0999999998603","images/flower4.png","","","memory_trial","3","maybe_new","","","","","","",""
"html-keyboard-response","124","384880","0.0-15.0-0.41","1868","2","""event"",""trial"",""time""
""fullscreenenter"",""1"",""1775""
","
","
","""event"",""trial"",""time""
""fullscreenenter"",""1"",""1775""
","
","","","","","","null","<div style=""font-size:60px;"">+</div>","null","","fixation","","","","","","","","",""
"memory-trial","125","387229","0.0-15.0-1.41","1868","2","""event"",""trial"",""time""
""fullscreenenter"",""1"",""1775""
","
","
","""event"",""trial"",""time""
""fullscreenenter"",""1"",""1775""
","
","","","","","","1344.4000000001397","images/table5.png","","","memory_trial","1","definitely_old","","","","","","",""
"html-keyboard-response","126","387731","0.0-15.0-0.42","1868","2","""event"",""trial"",""time""
""fullscreenenter"",""1"",""1775""
","
","
","""event"",""trial"",""time""
""fullscreenenter"",""1"",""1775""
","
","","","","","","null","<div style=""font-size:60px;"">+</div>","null","","fixation","","","","","","","","",""
"memory-trial","127","390247","0.0-15.0-1.42","1868","2","""event"",""trial"",""time""
""fullscreenenter"",""1"",""1775""
","
","
","""event"",""trial"",""time""
""fullscreenenter"",""1"",""1775""
","
","","","","","","1512.0999999998603","images/apple1.png","","","memory_trial","2","maybe_old","","","","","","",""
"html-keyboard-response","128","390749","0.0-15.0-0.43","1868","2","""event"",""trial"",""time""
""fullscreenenter"",""1"",""1775""
","
","
","""event"",""trial"",""time""
""fullscreenenter"",""1"",""1775""
","
","","","","","","null","<div style=""font-size:60px;"">+</div>","null","","fixation","","","","","","","","",""
"memory-trial","129","393328","0.0-15.0-1.43","1868","2","""event"",""trial"",""time""
""fullscreenenter"",""1"",""1775""
","
","
","""event"",""trial"",""time""
""fullscreenenter"",""1"",""1775""
","
","","","","","","1574","images/straw2.png","","","memory_trial","1","definitely_old","","","","","","",""
"html-keyboard-response","130","393830","0.0-15.0-0.44","1868","2","""event"",""trial"",""time""
""fullscreenenter"",""1"",""1775""
","
","
","""event"",""trial"",""time""
""fullscreenenter"",""1"",""1775""
","
","","","","","","null","<div style=""font-size:60px;"">+</div>","null","","fixation","","","","","","","","",""
"memory-trial","131","396197","0.0-15.0-1.44","1868","2","""event"",""trial"",""time""
""fullscreenenter"",""1"",""1775""
","
","
","""event"",""trial"",""time""
""fullscreenenter"",""1"",""1775""
","
","","","","","","1363.3000000000466","images/table2.png","","","memory_trial","4","definitely_new","","","","","","",""
"html-keyboard-response","132","396699","0.0-15.0-0.45","1868","2","""event"",""trial"",""time""
""fullscreenenter"",""1"",""1775""
","
","
","""event"",""trial"",""time""
""fullscreenenter"",""1"",""1775""
","
","","","","","","null","<div style=""font-size:60px;"">+</div>","null","","fixation","","","","","","","","",""
"memory-trial","133","399115","0.0-15.0-1.45","1868","2","""event"",""trial"",""time""
""fullscreenenter"",""1"",""1775""
","
","
","""event"",""trial"",""time""
""fullscreenenter"",""1"",""1775""
","
","","","","","","1412.4000000001397","images/truck1.png","","","memory_trial","3","maybe_new","","","","","","",""
"html-keyboard-response","134","399617","0.0-15.0-0.46","1868","2","""event"",""trial"",""time""
""fullscreenenter"",""1"",""1775""
","
","
","""event"",""trial"",""time""
""fullscreenenter"",""1"",""1775""
","
","","","","","","null","<div style=""font-size:60px;"">+</div>","null","","fixation","","","","","","","","",""
"memory-trial","135","401766","0.0-15.0-1.46","1868","2","""event"",""trial"",""time""
""fullscreenenter"",""1"",""1775""
","
","
","""event"",""trial"",""time""
""fullscreenenter"",""1"",""1775""
","
","","","","","","1144.6000000000931","images/train2.png","","","memory_trial","4","definitely_new","","","","","","",""
"html-button-response","136","404495","0.0-15.0-2.46-0.46","1868","2","""event"",""trial"",""time""
""fullscreenenter"",""1"",""1775""
","
","
","""event"",""trial"",""time""
""fullscreenenter"",""1"",""1775""
","
","","","","","","2726.0999999998603","<p> Take a break! </p><p> Click the button to continue. </p>","0","","break","","","","","","","","",""
"html-keyboard-response","137","404998","0.0-15.0-0.47","1868","2","""event"",""trial"",""time""
""fullscreenenter"",""1"",""1775""
","
","
","""event"",""trial"",""time""
""fullscreenenter"",""1"",""1775""
","
","","","","","","null","<div style=""font-size:60px;"">+</div>","null","","fixation","","","","","","","","",""
"memory-trial","138","407775","0.0-15.0-1.47","1868","2","""event"",""trial"",""time""
""fullscreenenter"",""1"",""1775""
","
","
","""event"",""trial"",""time""
""fullscreenenter"",""1"",""1775""
","
","","","","","","1770.8000000000466","images/feline5.png","","","memory_trial","3","maybe_new","","","","","","",""
"html-keyboard-response","139","408279","0.0-15.0-0.48","1868","2","""event"",""trial"",""time""
""fullscreenenter"",""1"",""1775""
","
","
","""event"",""trial"",""time""
""fullscreenenter"",""1"",""1775""
","
","","","","","","null","<div style=""font-size:60px;"">+</div>","null","","fixation","","","","","","","","",""
"memory-trial","140","410603","0.0-15.0-1.48","1868","2","""event"",""trial"",""time""
""fullscreenenter"",""1"",""1775""
","
","
","""event"",""trial"",""time""
""fullscreenenter"",""1"",""1775""
","
","","","","","","1319.3000000000466","images/rabbit2.png","","","memory_trial","2","maybe_old","","","","","","",""
"html-keyboard-response","141","411105","0.0-15.0-0.49","1868","2","""event"",""trial"",""time""
""fullscreenenter"",""1"",""1775""
","
","
","""event"",""trial"",""time""
""fullscreenenter"",""1"",""1775""
","
","","","","","","null","<div style=""font-size:60px;"">+</div>","null","","fixation","","","","","","","","",""
"memory-trial","142","414309","0.0-15.0-1.49","1868","2","""event"",""trial"",""time""
""fullscreenenter"",""1"",""1775""
","
","
","""event"",""trial"",""time""
""fullscreenenter"",""1"",""1775""
","
","","","","","","2198.9000000001397","images/apple5.png","","","memory_trial","3","maybe_new","","","","","","",""
"html-keyboard-response","143","414812","0.0-15.0-0.50","1868","2","""event"",""trial"",""time""
""fullscreenenter"",""1"",""1775""
","
","
","""event"",""trial"",""time""
""fullscreenenter"",""1"",""1775""
","
","","","","","","null","<div style=""font-size:60px;"">+</div>","null","","fixation","","","","","","","","",""
"memory-trial","144","417404","0.0-15.0-1.50","1868","2","""event"",""trial"",""time""
""fullscreenenter"",""1"",""1775""
","
","
","""event"",""trial"",""time""
""fullscreenenter"",""1"",""1775""
","
","","","","","","1586.8999999999069","images/banana1.png","","","memory_trial","4","definitely_new","","","","","","",""
"html-keyboard-response","145","417905","0.0-15.0-0.51","1868","2","""event"",""trial"",""time""
""fullscreenenter"",""1"",""1775""
","
","
","""event"",""trial"",""time""
""fullscreenenter"",""1"",""1775""
","
","","","","","","null","<div style=""font-size:60px;"">+</div>","null","","fixation","","","","","","","","",""
"memory-trial","146","420713","0.0-15.0-1.51","1868","2","""event"",""trial"",""time""
""fullscreenenter"",""1"",""1775""
","
","
","""event"",""trial"",""time""
""fullscreenenter"",""1"",""1775""
","
","","","","","","1802","images/table1.png","","","memory_trial","1","definitely_old","","","","","","",""
"html-keyboard-response","147","421215","0.0-15.0-0.52","1868","2","""event"",""trial"",""time""
""fullscreenenter"",""1"",""1775""
","
","
","""event"",""trial"",""time""
""fullscreenenter"",""1"",""1775""
","
","","","","","","null","<div style=""font-size:60px;"">+</div>","null","","fixation","","","","","","","","",""
"memory-trial","148","423953","0.0-15.0-1.52","1868","2","""event"",""trial"",""time""
""fullscreenenter"",""1"",""1775""
","
","
","""event"",""trial"",""time""
""fullscreenenter"",""1"",""1775""
","
","","","","","","1734","images/plane1.png","","","memory_trial","4","definitely_new","","","","","","",""
"html-keyboard-response","149","424455","0.0-15.0-0.53","1868","2","""event"",""trial"",""time""
""fullscreenenter"",""1"",""1775""
","
","
","""event"",""trial"",""time""
""fullscreenenter"",""1"",""1775""
","
","","","","","","null","<div style=""font-size:60px;"">+</div>","null","","fixation","","","","","","","","",""
"memory-trial","150","427305","0.0-15.0-1.53","1868","2","""event"",""trial"",""time""
""fullscreenenter"",""1"",""1775""
","
","
","""event"",""trial"",""time""
""fullscreenenter"",""1"",""1775""
","
","","","","","","1844.7000000001863","images/flower5.png","","","memory_trial","1","definitely_old","","","","","","",""
"html-keyboard-response","151","427807","0.0-15.0-0.54","1868","2","""event"",""trial"",""time""
""fullscreenenter"",""1"",""1775""
","
","
","""event"",""trial"",""time""
""fullscreenenter"",""1"",""1775""
","
","","","","","","null","<div style=""font-size:60px;"">+</div>","null","","fixation","","","","","","","","",""
"memory-trial","152","430295","0.0-15.0-1.54","1868","2","""event"",""trial"",""time""
""fullscreenenter"",""1"",""1775""
","
","
","""event"",""trial"",""time""
""fullscreenenter"",""1"",""1775""
","
","","","","","","1484.6999999999534","images/rodent2.png","","","memory_trial","3","maybe_new","","","","","","",""
"html-keyboard-response","153","430797","0.0-15.0-0.55","1868","2","""event"",""trial"",""time""
""fullscreenenter"",""1"",""1775""
","
","
","""event"",""trial"",""time""
""fullscreenenter"",""1"",""1775""
","
","","","","","","null","<div style=""font-size:60px;"">+</div>","null","","fixation","","","","","","","","",""
"memory-trial","154","433207","0.0-15.0-1.55","1868","2","""event"",""trial"",""time""
""fullscreenenter"",""1"",""1775""
","
","
","""event"",""trial"",""time""
""fullscreenenter"",""1"",""1775""
","
","","","","","","1398","images/train1.png","","","memory_trial","4","definitely_new","","","","","","",""
"html-keyboard-response","155","433709","0.0-15.0-0.56","1868","2","""event"",""trial"",""time""
""fullscreenenter"",""1"",""1775""
","
","
","""event"",""trial"",""time""
""fullscreenenter"",""1"",""1775""
","
","","","","","","null","<div style=""font-size:60px;"">+</div>","null","","fixation","","","","","","","","",""
"memory-trial","156","436361","0.0-15.0-1.56","1868","2","""event"",""trial"",""time""
""fullscreenenter"",""1"",""1775""
","
","
","""event"",""trial"",""time""
""fullscreenenter"",""1"",""1775""
","
","","","","","","1648.1999999999534","images/straw3.png","","","memory_trial","4","definitely_new","","","","","","",""
"html-keyboard-response","157","436863","0.0-15.0-0.57","1868","2","""event"",""trial"",""time""
""fullscreenenter"",""1"",""1775""
","
","
","""event"",""trial"",""time""
""fullscreenenter"",""1"",""1775""
","
","","","","","","null","<div style=""font-size:60px;"">+</div>","null","","fixation","","","","","","","","",""
"memory-trial","158","439865","0.0-15.0-1.57","1868","2","""event"",""trial"",""time""
""fullscreenenter"",""1"",""1775""
","
","
","""event"",""trial"",""time""
""fullscreenenter"",""1"",""1775""
","
","","","","","","1997.2999999998137","images/goat4.png","","","memory_trial","3","maybe_new","","","","","","",""
"html-keyboard-response","159","440367","0.0-15.0-0.58","1868","2","""event"",""trial"",""time""
""fullscreenenter"",""1"",""1775""
","
","
","""event"",""trial"",""time""
""fullscreenenter"",""1"",""1775""
","
","","","","","","null","<div style=""font-size:60px;"">+</div>","null","","fixation","","","","","","","","",""
"memory-trial","160","443064","0.0-15.0-1.58","1868","2","""event"",""trial"",""time""
""fullscreenenter"",""1"",""1775""
","
","
","""event"",""trial"",""time""
""fullscreenenter"",""1"",""1775""
","
","","","","","","1691.2999999998137","images/chair2.png","","","memory_trial","1","definitely_old","","","","","","",""
"html-keyboard-response","161","443566","0.0-15.0-0.59","1868","2","""event"",""trial"",""time""
""fullscreenenter"",""1"",""1775""
","
","
","""event"",""trial"",""time""
""fullscreenenter"",""1"",""1775""
","
","","","","","","null","<div style=""font-size:60px;"">+</div>","null","","fixation","","","","","","","","",""
"memory-trial","162","446174","0.0-15.0-1.59","1868","2","""event"",""trial"",""time""
""fullscreenenter"",""1"",""1775""
","
","
","""event"",""trial"",""time""
""fullscreenenter"",""1"",""1775""
","
","","","","","","1603.7000000001863","images/tree5.png","","","memory_trial","4","definitely_new","","","","","","",""
"html-keyboard-response","163","446676","0.0-15.0-0.60","1868","2","""event"",""trial"",""time""
""fullscreenenter"",""1"",""1775""
","
","
","""event"",""trial"",""time""
""fullscreenenter"",""1"",""1775""
","
","","","","","","null","<div style=""font-size:60px;"">+</div>","null","","fixation","","","","","","","","",""
"memory-trial","164","448934","0.0-15.0-1.60","1868","2","""event"",""trial"",""time""
""fullscreenenter"",""1"",""1775""
","
","
","""event"",""trial"",""time""
""fullscreenenter"",""1"",""1775""
","
","","","","","","1253.3000000000466","images/bed3.png","","","memory_trial","3","maybe_new","","","","","","",""
"html-keyboard-response","165","449436","0.0-15.0-0.61","1868","2","""event"",""trial"",""time""
""fullscreenenter"",""1"",""1775""
","
","
","""event"",""trial"",""time""
""fullscreenenter"",""1"",""1775""
","
","","","","","","null","<div style=""font-size:60px;"">+</div>","null","","fixation","","","","","","","","",""
"memory-trial","166","451640","0.0-15.0-1.61","1868","2","""event"",""trial"",""time""
""fullscreenenter"",""1"",""1775""
","
","
","""event"",""trial"",""time""
""fullscreenenter"",""1"",""1775""
","
","","","","","","1199.8000000000466","images/goat1.png","","","memory_trial","3","maybe_new","","","","","","",""
"html-keyboard-response","167","452142","0.0-15.0-0.62","1868","2","""event"",""trial"",""time""
""fullscreenenter"",""1"",""1775""
","
","
","""event"",""trial"",""time""
""fullscreenenter"",""1"",""1775""
","
","","","","","","null","<div style=""font-size:60px;"">+</div>","null","","fixation","","","","","","","","",""
"memory-trial","168","456709","0.0-15.0-1.62","1868","2","""event"",""trial"",""time""
""fullscreenenter"",""1"",""1775""
","
","
","""event"",""trial"",""time""
""fullscreenenter"",""1"",""1775""
","
","","","","","","3560","images/feline3.png","","","memory_trial","1","definitely_old","","","","","","",""
"html-keyboard-response","169","457212","0.0-15.0-0.63","1868","2","""event"",""trial"",""time""
""fullscreenenter"",""1"",""1775""
","
","
","""event"",""trial"",""time""
""fullscreenenter"",""1"",""1775""
","
","","","","","","null","<div style=""font-size:60px;"">+</div>","null","","fixation","","","","","","","","",""
"memory-trial","170","459261","0.0-15.0-1.63","1868","2","""event"",""trial"",""time""
""fullscreenenter"",""1"",""1775""
","
","
","""event"",""trial"",""time""
""fullscreenenter"",""1"",""1775""
","
","","","","","","1043.6999999999534","images/rodent5.png","","","memory_trial","4","definitely_new","","","","","","",""
"html-keyboard-response","171","459764","0.0-15.0-0.64","1868","2","""event"",""trial"",""time""
""fullscreenenter"",""1"",""1775""
","
","
","""event"",""trial"",""time""
""fullscreenenter"",""1"",""1775""
","
","","","","","","null","<div style=""font-size:60px;"">+</div>","null","","fixation","","","","","","","","",""
"memory-trial","172","461788","0.0-15.0-1.64","1868","2","""event"",""trial"",""time""
""fullscreenenter"",""1"",""1775""
","
","
","""event"",""trial"",""time""
""fullscreenenter"",""1"",""1775""
","
","","","","","","1018.5999999998603","images/truck3.png","","","memory_trial","4","definitely_new","","","","","","",""
"html-keyboard-response","173","462290","0.0-15.0-0.65","1868","2","""event"",""trial"",""time""
""fullscreenenter"",""1"",""1775""
","
","
","""event"",""trial"",""time""
""fullscreenenter"",""1"",""1775""
","
","","","","","","null","<div style=""font-size:60px;"">+</div>","null","","fixation","","","","","","","","",""
"memory-trial","174","464903","0.0-15.0-1.65","1868","2","""event"",""trial"",""time""
""fullscreenenter"",""1"",""1775""
","
","
","""event"",""trial"",""time""
""fullscreenenter"",""1"",""1775""
","
","","","","","","1608.2999999998137","images/banana3.png","","","memory_trial","3","maybe_new","","","","","","",""
"html-keyboard-response","175","465405","0.0-15.0-0.66","1868","2","""event"",""trial"",""time""
""fullscreenenter"",""1"",""1775""
","
","
","""event"",""trial"",""time""
""fullscreenenter"",""1"",""1775""
","
","","","","","","null","<div style=""font-size:60px;"">+</div>","null","","fixation","","","","","","","","",""
"memory-trial","176","468140","0.0-15.0-1.66","1868","2","""event"",""trial"",""time""
""fullscreenenter"",""1"",""1775""
","
","
","""event"",""trial"",""time""
""fullscreenenter"",""1"",""1775""
","
","","","","","","1730.4000000001397","images/bed4.png","","","memory_trial","1","definitely_old","","","","","","",""
"html-keyboard-response","177","468642","0.0-15.0-0.67","1868","2","""event"",""trial"",""time""
""fullscreenenter"",""1"",""1775""
","
","
","""event"",""trial"",""time""
""fullscreenenter"",""1"",""1775""
","
","","","","","","null","<div style=""font-size:60px;"">+</div>","null","","fixation","","","","","","","","",""
"memory-trial","178","472071","0.0-15.0-1.67","1868","2","""event"",""trial"",""time""
""fullscreenenter"",""1"",""1775""
","
","
","""event"",""trial"",""time""
""fullscreenenter"",""1"",""1775""
","
","","","","","","2424.399999999907","images/tree1.png","","","memory_trial","2","maybe_old","","","","","","",""
"html-keyboard-response","179","472573","0.0-15.0-0.68","1868","2","""event"",""trial"",""time""
""fullscreenenter"",""1"",""1775""
","
","
","""event"",""trial"",""time""
""fullscreenenter"",""1"",""1775""
","
","","","","","","null","<div style=""font-size:60px;"">+</div>","null","","fixation","","","","","","","","",""
"memory-trial","180","476678","0.0-15.0-1.68","1868","2","""event"",""trial"",""time""
""fullscreenenter"",""1"",""1775""
","
","
","""event"",""trial"",""time""
""fullscreenenter"",""1"",""1775""
","
","","","","","","3099.399999999907","images/orange5.png","","","memory_trial","4","definitely_new","","","","","","",""
"html-keyboard-response","181","477180","0.0-15.0-0.69","1868","2","""event"",""trial"",""time""
""fullscreenenter"",""1"",""1775""
","
","
","""event"",""trial"",""time""
""fullscreenenter"",""1"",""1775""
","
","","","","","","null","<div style=""font-size:60px;"">+</div>","null","","fixation","","","","","","","","",""
"memory-trial","182","479713","0.0-15.0-1.69","1868","2","""event"",""trial"",""time""
""fullscreenenter"",""1"",""1775""
","
","
","""event"",""trial"",""time""
""fullscreenenter"",""1"",""1775""
","
","","","","","","1527.4000000001397","images/apple3.png","","","memory_trial","4","definitely_new","","","","","","",""
"html-keyboard-response","183","480214","0.0-15.0-0.70","1868","2","""event"",""trial"",""time""
""fullscreenenter"",""1"",""1775""
","
","
","""event"",""trial"",""time""
""fullscreenenter"",""1"",""1775""
","
","","","","","","null","<div style=""font-size:60px;"">+</div>","null","","fixation","","","","","","","","",""
"memory-trial","184","483477","0.0-15.0-1.70","1868","2","""event"",""trial"",""time""
""fullscreenenter"",""1"",""1775""
","
","
","""event"",""trial"",""time""
""fullscreenenter"",""1"",""1775""
","
","","","","","","2257","images/sofa3.png","","","memory_trial","3","maybe_new","","","","","","",""
"html-keyboard-response","185","483979","0.0-15.0-0.71","1868","2","""event"",""trial"",""time""
""fullscreenenter"",""1"",""1775""
","
","
","""event"",""trial"",""time""
""fullscreenenter"",""1"",""1775""
","
","","","","","","null","<div style=""font-size:60px;"">+</div>","null","","fixation","","","","","","","","",""
"memory-trial","186","486650","0.0-15.0-1.71","1868","2","""event"",""trial"",""time""
""fullscreenenter"",""1"",""1775""
","
","
","""event"",""trial"",""time""
""fullscreenenter"",""1"",""1775""
","
","","","","","","1665.5999999998603","images/bush2.png","","","memory_trial","1","definitely_old","","","","","","",""
"html-keyboard-response","187","487152","0.0-15.0-0.72","1868","2","""event"",""trial"",""time""
""fullscreenenter"",""1"",""1775""
","
","
","""event"",""trial"",""time""
""fullscreenenter"",""1"",""1775""
","
","","","","","","null","<div style=""font-size:60px;"">+</div>","null","","fixation","","","","","","","","",""
"memory-trial","188","489323","0.0-15.0-1.72","1868","2","""event"",""trial"",""time""
""fullscreenenter"",""1"",""1775""
","
","
","""event"",""trial"",""time""
""fullscreenenter"",""1"",""1775""
","
","","","","","","1167.8999999999069","images/straw5.png","","","memory_trial","4","definitely_new","","","","","","",""
"html-keyboard-response","189","489826","0.0-15.0-0.73","1868","2","""event"",""trial"",""time""
""fullscreenenter"",""1"",""1775""
","
","
","""event"",""trial"",""time""
""fullscreenenter"",""1"",""1775""
","
","","","","","","null","<div style=""font-size:60px;"">+</div>","null","","fixation","","","","","","","","",""
"memory-trial","190","492853","0.0-15.0-1.73","1868","2","""event"",""trial"",""time""
""fullscreenenter"",""1"",""1775""
","
","
","""event"",""trial"",""time""
""fullscreenenter"",""1"",""1775""
","
","","","","","","2023.0999999998603","images/cow5.png","","","memory_trial","3","maybe_new","","","","","","",""
"html-keyboard-response","191","493355","0.0-15.0-0.74","1868","2","""event"",""trial"",""time""
""fullscreenenter"",""1"",""1775""
","
","
","""event"",""trial"",""time""
""fullscreenenter"",""1"",""1775""
","
","","","","","","null","<div style=""font-size:60px;"">+</div>","null","","fixation","","","","","","","","",""
"memory-trial","192","496087","0.0-15.0-1.74","1868","2","""event"",""trial"",""time""
""fullscreenenter"",""1"",""1775""
","
","
","""event"",""trial"",""time""
""fullscreenenter"",""1"",""1775""
","
","","","","","","1726.8000000000466","images/feline1.png","","","memory_trial","4","definitely_new","","","","","","",""
"html-keyboard-response","193","496590","0.0-15.0-0.75","1868","2","""event"",""trial"",""time""
""fullscreenenter"",""1"",""1775""
","
","
","""event"",""trial"",""time""
""fullscreenenter"",""1"",""1775""
","
","","","","","","null","<div style=""font-size:60px;"">+</div>","null","","fixation","","","","","","","","",""
"memory-trial","194","499177","0.0-15.0-1.75","1868","2","""event"",""trial"",""time""
""fullscreenenter"",""1"",""1775""
","
","
","""event"",""trial"",""time""
""fullscreenenter"",""1"",""1775""
","
","","","","","","1582.2999999998137","images/rodent1.png","","","memory_trial","3","maybe_new","","","","","","",""
"html-keyboard-response","195","499679","0.0-15.0-0.76","1868","2","""event"",""trial"",""time""
""fullscreenenter"",""1"",""1775""
","
","
","""event"",""trial"",""time""
""fullscreenenter"",""1"",""1775""
","
","","","","","","null","<div style=""font-size:60px;"">+</div>","null","","fixation","","","","","","","","",""
"memory-trial","196","502034","0.0-15.0-1.76","1868","2","""event"",""trial"",""time""
""fullscreenenter"",""1"",""1775""
","
","
","""event"",""trial"",""time""
""fullscreenenter"",""1"",""1775""
","
","","","","","","1351","images/boat1.png","","","memory_trial","2","maybe_old","","","","","","",""
"html-keyboard-response","197","502536","0.0-15.0-0.77","1868","2","""event"",""trial"",""time""
""fullscreenenter"",""1"",""1775""
","
","
","""event"",""trial"",""time""
""fullscreenenter"",""1"",""1775""
","
","","","","","","null","<div style=""font-size:60px;"">+</div>","null","","fixation","","","","","","","","",""
"memory-trial","198","505050","0.0-15.0-1.77","1868","2","""event"",""trial"",""time""
""fullscreenenter"",""1"",""1775""
","
","
","""event"",""trial"",""time""
""fullscreenenter"",""1"",""1775""
","
","","","","","","1508.5","images/orange2.png","","","memory_trial","3","maybe_new","","","","","","",""
"html-keyboard-response","199","505552","0.0-15.0-0.78","1868","2","""event"",""trial"",""time""
""fullscreenenter"",""1"",""1775""
","
","
","""event"",""trial"",""time""
""fullscreenenter"",""1"",""1775""
","
","","","","","","null","<div style=""font-size:60px;"">+</div>","null","","fixation","","","","","","","","",""
"memory-trial","200","508582","0.0-15.0-1.78","1868","2","""event"",""trial"",""time""
""fullscreenenter"",""1"",""1775""
","
","
","""event"",""trial"",""time""
""fullscreenenter"",""1"",""1775""
","
","","","","","","2025.3999999999069","images/flower2.png","","","memory_trial","3","maybe_new","","","","","","",""
"html-keyboard-response","201","509085","0.0-15.0-0.79","1868","2","""event"",""trial"",""time""
""fullscreenenter"",""1"",""1775""
","
","
","""event"",""trial"",""time""
""fullscreenenter"",""1"",""1775""
","
","","","","","","null","<div style=""font-size:60px;"">+</div>","null","","fixation","","","","","","","","",""
"memory-trial","202","513286","0.0-15.0-1.79","1868","2","""event"",""trial"",""time""
""fullscreenenter"",""1"",""1775""
","
","
","""event"",""trial"",""time""
""fullscreenenter"",""1"",""1775""
","
","","","","","","3196.6999999999534","images/dog5.png","","","memory_trial","4","definitely_new","","","","","","",""
"html-keyboard-response","203","513790","0.0-15.0-0.80","1868","2","""event"",""trial"",""time""
""fullscreenenter"",""1"",""1775""
","
","
","""event"",""trial"",""time""
""fullscreenenter"",""1"",""1775""
","
","","","","","","null","<div style=""font-size:60px;"">+</div>","null","","fixation","","","","","","","","",""
"memory-trial","204","516016","0.0-15.0-1.80","1868","2","""event"",""trial"",""time""
""fullscreenenter"",""1"",""1775""
","
","
","""event"",""trial"",""time""
""fullscreenenter"",""1"",""1775""
","
","","","","","","1220.0999999998603","images/rabbit4.png","","","memory_trial","3","maybe_new","","","","","","",""
"html-keyboard-response","205","516518","0.0-15.0-0.81","1868","2","""event"",""trial"",""time""
""fullscreenenter"",""1"",""1775""
","
","
","""event"",""trial"",""time""
""fullscreenenter"",""1"",""1775""
","
","","","","","","null","<div style=""font-size:60px;"">+</div>","null","","fixation","","","","","","","","",""
"memory-trial","206","518711","0.0-15.0-1.81","1868","2","""event"",""trial"",""time""
""fullscreenenter"",""1"",""1775""
","
","
","""event"",""trial"",""time""
""fullscreenenter"",""1"",""1775""
","
","","","","","","1188.7000000001863","images/dog1.png","","","memory_trial","1","definitely_old","","","","","","",""
"html-keyboard-response","207","519214","0.0-15.0-0.82","1868","2","""event"",""trial"",""time""
""fullscreenenter"",""1"",""1775""
","
","
","""event"",""trial"",""time""
""fullscreenenter"",""1"",""1775""
","
","","","","","","null","<div style=""font-size:60px;"">+</div>","null","","fixation","","","","","","","","",""
"memory-trial","208","521302","0.0-15.0-1.82","1868","2","""event"",""trial"",""time""
""fullscreenenter"",""1"",""1775""
","
","
","""event"",""trial"",""time""
""fullscreenenter"",""1"",""1775""
","
","","","","","","1083.3000000000466","images/flower3.png","","","memory_trial","1","definitely_old","","","","","","",""
"html-keyboard-response","209","521804","0.0-15.0-0.83","1868","2","""event"",""trial"",""time""
""fullscreenenter"",""1"",""1775""
","
","
","""event"",""trial"",""time""
""fullscreenenter"",""1"",""1775""
","
","","","","","","null","<div style=""font-size:60px;"">+</div>","null","","fixation","","","","","","","","",""
"memory-trial","210","524072","0.0-15.0-1.83","1868","2","""event"",""trial"",""time""
""fullscreenenter"",""1"",""1775""
","
","
","""event"",""trial"",""time""
""fullscreenenter"",""1"",""1775""
","
","","","","","","1264.3999999999069","images/bed2.png","","","memory_trial","2","maybe_old","","","","","","",""
"html-keyboard-response","211","524575","0.0-15.0-0.84","1868","2","""event"",""trial"",""time""
""fullscreenenter"",""1"",""1775""
","
","
","""event"",""trial"",""time""
""fullscreenenter"",""1"",""1775""
","
","","","","","","null","<div style=""font-size:60px;"">+</div>","null","","fixation","","","","","","","","",""
"memory-trial","212","528133","0.0-15.0-1.84","1868","2","""event"",""trial"",""time""
""fullscreenenter"",""1"",""1775""
","
","
","""event"",""trial"",""time""
""fullscreenenter"",""1"",""1775""
","
","","","","","","2552.1999999999534","images/apple2.png","","","memory_trial","4","definitely_new","","","","","","",""
"html-keyboard-response","213","528636","0.0-15.0-0.85","1868","2","""event"",""trial"",""time""
""fullscreenenter"",""1"",""1775""
","
","
","""event"",""trial"",""time""
""fullscreenenter"",""1"",""1775""
","
","","","","","","null","<div style=""font-size:60px;"">+</div>","null","","fixation","","","","","","","","",""
"memory-trial","214","531131","0.0-15.0-1.85","1868","2","""event"",""trial"",""time""
""fullscreenenter"",""1"",""1775""
","
","
","""event"",""trial"",""time""
""fullscreenenter"",""1"",""1775""
","
","","","","","","1490.5999999998603","images/banana4.png","","","memory_trial","2","maybe_old","","","","","","",""
"html-keyboard-response","215","531633","0.0-15.0-0.86","1868","2","""event"",""trial"",""time""
""fullscreenenter"",""1"",""1775""
","
","
","""event"",""trial"",""time""
""fullscreenenter"",""1"",""1775""
","
","","","","","","null","<div style=""font-size:60px;"">+</div>","null","","fixation","","","","","","","","",""
"memory-trial","216","534815","0.0-15.0-1.86","1868","2","""event"",""trial"",""time""
""fullscreenenter"",""1"",""1775""
","
","
","""event"",""trial"",""time""
""fullscreenenter"",""1"",""1775""
","
","","","","","","2178.1999999999534","images/sheep3.png","","","memory_trial","4","definitely_new","","","","","","",""
"html-keyboard-response","217","535317","0.0-15.0-0.87","1868","2","""event"",""trial"",""time""
""fullscreenenter"",""1"",""1775""
","
","
","""event"",""trial"",""time""
""fullscreenenter"",""1"",""1775""
","
","","","","","","null","<div style=""font-size:60px;"">+</div>","null","","fixation","","","","","","","","",""
"memory-trial","218","537770","0.0-15.0-1.87","1868","2","""event"",""trial"",""time""
""fullscreenenter"",""1"",""1775""
","
","
","""event"",""trial"",""time""
""fullscreenenter"",""1"",""1775""
","
","","","","","","1447.9000000001397","images/boat2.png","","","memory_trial","4","definitely_new","","","","","","",""
"html-keyboard-response","219","538273","0.0-15.0-0.88","1868","2","""event"",""trial"",""time""
""fullscreenenter"",""1"",""1775""
","
","
","""event"",""trial"",""time""
""fullscreenenter"",""1"",""1775""
","
","","","","","","null","<div style=""font-size:60px;"">+</div>","null","","fixation","","","","","","","","",""
"memory-trial","220","541052","0.0-15.0-1.88","1868","2","""event"",""trial"",""time""
""fullscreenenter"",""1"",""1775""
","
","
","""event"",""trial"",""time""
""fullscreenenter"",""1"",""1775""
","
","","","","","","1773.8999999999069","images/sheep2.png","","","memory_trial","2","maybe_old","","","","","","",""
"html-keyboard-response","221","541555","0.0-15.0-0.89","1868","2","""event"",""trial"",""time""
""fullscreenenter"",""1"",""1775""
","
","
","""event"",""trial"",""time""
""fullscreenenter"",""1"",""1775""
","
","","","","","","null","<div style=""font-size:60px;"">+</div>","null","","fixation","","","","","","","","",""
"memory-trial","222","544182","0.0-15.0-1.89","1868","2","""event"",""trial"",""time""
""fullscreenenter"",""1"",""1775""
","
","
","""event"",""trial"",""time""
""fullscreenenter"",""1"",""1775""
","
","","","","","","1623","images/sheep4.png","","","memory_trial","2","maybe_old","","","","","","",""
"html-keyboard-response","223","544685","0.0-15.0-0.90","1868","2","""event"",""trial"",""time""
""fullscreenenter"",""1"",""1775""
","
","
","""event"",""trial"",""time""
""fullscreenenter"",""1"",""1775""
","
","","","","","","null","<div style=""font-size:60px;"">+</div>","null","","fixation","","","","","","","","",""
"memory-trial","224","546825","0.0-15.0-1.90","1868","2","""event"",""trial"",""time""
""fullscreenenter"",""1"",""1775""
","
","
","""event"",""trial"",""time""
""fullscreenenter"",""1"",""1775""
","
","","","","","","1135.5","images/horse1.png","","","memory_trial","1","definitely_old","","","","","","",""
"html-keyboard-response","225","547327","0.0-15.0-0.91","1868","2","""event"",""trial"",""time""
""fullscreenenter"",""1"",""1775""
","
","
","""event"",""trial"",""time""
""fullscreenenter"",""1"",""1775""
","
","","","","","","null","<div style=""font-size:60px;"">+</div>","null","","fixation","","","","","","","","",""
"memory-trial","226","549231","0.0-15.0-1.91","1868","2","""event"",""trial"",""time""
""fullscreenenter"",""1"",""1775""
","
","
","""event"",""trial"",""time""
""fullscreenenter"",""1"",""1775""
","
","","","","","","898","images/chair1.png","","","memory_trial","1","definitely_old","","","","","","",""
"html-keyboard-response","227","549733","0.0-15.0-0.92","1868","2","""event"",""trial"",""time""
""fullscreenenter"",""1"",""1775""
","
","
","""event"",""trial"",""time""
""fullscreenenter"",""1"",""1775""
","
","","","","","","null","<div style=""font-size:60px;"">+</div>","null","","fixation","","","","","","","","",""
"memory-trial","228","552073","0.0-15.0-1.92","1868","2","""event"",""trial"",""time""
""fullscreenenter"",""1"",""1775""
","
","
","""event"",""trial"",""time""
""fullscreenenter"",""1"",""1775""
","
","","","","","","1334.8999999999069","images/orange4.png","","","memory_trial","4","definitely_new","","","","","","",""
"html-keyboard-response","229","552577","0.0-15.0-0.93","1868","2","""event"",""trial"",""time""
""fullscreenenter"",""1"",""1775""
","
","
","""event"",""trial"",""time""
""fullscreenenter"",""1"",""1775""
","
","","","","","","null","<div style=""font-size:60px;"">+</div>","null","","fixation","","","","","","","","",""
"memory-trial","230","556298","0.0-15.0-1.93","1868","2","""event"",""trial"",""time""
""fullscreenenter"",""1"",""1775""
","
","
","""event"",""trial"",""time""
""fullscreenenter"",""1"",""1775""
","
","","","","","","2716.7999999998137","images/rabbit3.png","","","memory_trial","2","maybe_old","","","","","","",""
"html-keyboard-response","231","556800","0.0-15.0-0.94","1868","2","""event"",""trial"",""time""
""fullscreenenter"",""1"",""1775""
","
","
","""event"",""trial"",""time""
""fullscreenenter"",""1"",""1775""
","
","","","","","","null","<div style=""font-size:60px;"">+</div>","null","","fixation","","","","","","","","",""
"memory-trial","232","558876","0.0-15.0-1.94","1868","2","""event"",""trial"",""time""
""fullscreenenter"",""1"",""1775""
","
","
","""event"",""trial"",""time""
""fullscreenenter"",""1"",""1775""
","
","","","","","","1071.3999999999069","images/bush3.png","","","memory_trial","4","definitely_new","","","","","","",""
"html-keyboard-response","233","559379","0.0-15.0-0.95","1868","2","""event"",""trial"",""time""
""fullscreenenter"",""1"",""1775""
","
","
","""event"",""trial"",""time""
""fullscreenenter"",""1"",""1775""
","
","","","","","","null","<div style=""font-size:60px;"">+</div>","null","","fixation","","","","","","","","",""
"memory-trial","234","561989","0.0-15.0-1.95","1868","2","""event"",""trial"",""time""
""fullscreenenter"",""1"",""1775""
","
","
","""event"",""trial"",""time""
""fullscreenenter"",""1"",""1775""
","
","","","","","","1606.1999999997206","images/sheep5.png","","","memory_trial","3","maybe_new","","","","","","",""
"html-keyboard-response","235","562492","0.0-15.0-0.96","1868","2","""event"",""trial"",""time""
""fullscreenenter"",""1"",""1775""
","
","
","""event"",""trial"",""time""
""fullscreenenter"",""1"",""1775""
","
","","","","","","null","<div style=""font-size:60px;"">+</div>","null","","fixation","","","","","","","","",""
"memory-trial","236","564630","0.0-15.0-1.96","1868","2","""event"",""trial"",""time""
""fullscreenenter"",""1"",""1775""
","
","
","""event"",""trial"",""time""
""fullscreenenter"",""1"",""1775""
","
","","","","","","1133","images/straw4.png","","","memory_trial","4","definitely_new","","","","","","",""
"html-keyboard-response","237","565133","0.0-15.0-0.97","1868","2","""event"",""trial"",""time""
""fullscreenenter"",""1"",""1775""
","
","
","""event"",""trial"",""time""
""fullscreenenter"",""1"",""1775""
","
","","","","","","null","<div style=""font-size:60px;"">+</div>","null","","fixation","","","","","","","","",""
"memory-trial","238","568166","0.0-15.0-1.97","1868","2","""event"",""trial"",""time""
""fullscreenenter"",""1"",""1775""
","
","
","""event"",""trial"",""time""
""fullscreenenter"",""1"",""1775""
","
","","","","","","2028.3999999999069","images/boat4.png","","","memory_trial","2","maybe_old","","","","","","",""
"html-keyboard-response","239","568669","0.0-15.0-0.98","1868","2","""event"",""trial"",""time""
""fullscreenenter"",""1"",""1775""
","
","
","""event"",""trial"",""time""
""fullscreenenter"",""1"",""1775""
","
","","","","","","null","<div style=""font-size:60px;"">+</div>","null","","fixation","","","","","","","","",""
"memory-trial","240","571380","0.0-15.0-1.98","1868","2","""event"",""trial"",""time""
""fullscreenenter"",""1"",""1775""
","
","
","""event"",""trial"",""time""
""fullscreenenter"",""1"",""1775""
","
","","","","","","1706.5","images/sofa2.png","","","memory_trial","3","maybe_new","","","","","","",""
"html-keyboard-response","241","571883","0.0-15.0-0.99","1868","2","""event"",""trial"",""time""
""fullscreenenter"",""1"",""1775""
","
","
","""event"",""trial"",""time""
""fullscreenenter"",""1"",""1775""
","
","","","","","","null","<div style=""font-size:60px;"">+</div>","null","","fixation","","","","","","","","",""
"memory-trial","242","576078","0.0-15.0-1.99","1868","2","""event"",""trial"",""time""
""fullscreenenter"",""1"",""1775""
","
","
","""event"",""trial"",""time""
""fullscreenenter"",""1"",""1775""
","
","","","","","","3189.899999999907","images/table3.png","","","memory_trial","3","maybe_new","","","","","","",""
"html-keyboard-response","243","576582","0.0-15.0-0.100","1868","2","""event"",""trial"",""time""
""fullscreenenter"",""1"",""1775""
","
","
","""event"",""trial"",""time""
""fullscreenenter"",""1"",""1775""
","
","","","","","","null","<div style=""font-size:60px;"">+</div>","null","","fixation","","","","","","","","",""
"memory-trial","244","579104","0.0-15.0-1.100","1868","2","""event"",""trial"",""time""
""fullscreenenter"",""1"",""1775""
","
","
","""event"",""trial"",""time""
""fullscreenenter"",""1"",""1775""
","
","","","","","","1517.6000000000931","images/dog2.png","","","memory_trial","3","maybe_new","","","","","","",""
"html-keyboard-response","245","579606","0.0-15.0-0.101","1868","2","""event"",""trial"",""time""
""fullscreenenter"",""1"",""1775""
","
","
","""event"",""trial"",""time""
""fullscreenenter"",""1"",""1775""
","
","","","","","","null","<div style=""font-size:60px;"">+</div>","null","","fixation","","","","","","","","",""
"memory-trial","246","583697","0.0-15.0-1.101","1868","2","""event"",""trial"",""time""
""fullscreenenter"",""1"",""1775""
","
","
","""event"",""trial"",""time""
""fullscreenenter"",""1"",""1775""
","
","","","","","","3086.3000000002794","images/sofa1.png","","","memory_trial","3","maybe_new","","","","","","",""
"html-button-response","247","587994","0.0-15.0-2.101-0.101","1868","2","""event"",""trial"",""time""
""fullscreenenter"",""1"",""1775""
","
","
","""event"",""trial"",""time""
""fullscreenenter"",""1"",""1775""
","
","","","","","","4294.399999999907","<p> Take a break! </p><p> Click the button to continue. </p>","0","","break","","","","","","","","",""
"html-keyboard-response","248","588498","0.0-15.0-0.102","1868","2","""event"",""trial"",""time""
""fullscreenenter"",""1"",""1775""
","
","
","""event"",""trial"",""time""
""fullscreenenter"",""1"",""1775""
","
","","","","","","null","<div style=""font-size:60px;"">+</div>","null","","fixation","","","","","","","","",""
"memory-trial","249","590840","0.0-15.0-1.102","1868","2","""event"",""trial"",""time""
""fullscreenenter"",""1"",""1775""
","
","
","""event"",""trial"",""time""
""fullscreenenter"",""1"",""1775""
","
","","","","","","1335.2000000001863","images/chair5.png","","","memory_trial","3","maybe_new","","","","","","",""
"html-keyboard-response","250","591343","0.0-15.0-0.103","1868","2","""event"",""trial"",""time""
""fullscreenenter"",""1"",""1775""
","
","
","""event"",""trial"",""time""
""fullscreenenter"",""1"",""1775""
","
","","","","","","null","<div style=""font-size:60px;"">+</div>","null","","fixation","","","","","","","","",""
"memory-trial","251","593386","0.0-15.0-1.103","1868","2","""event"",""trial"",""time""
""fullscreenenter"",""1"",""1775""
","
","
","""event"",""trial"",""time""
""fullscreenenter"",""1"",""1775""
","
","","","","","","1039","images/bush4.png","","","memory_trial","1","definitely_old","","","","","","",""
"html-keyboard-response","252","593888","0.0-15.0-0.104","1868","2","""event"",""trial"",""time""
""fullscreenenter"",""1"",""1775""
","
","
","""event"",""trial"",""time""
""fullscreenenter"",""1"",""1775""
","
","","","","","","null","<div style=""font-size:60px;"">+</div>","null","","fixation","","","","","","","","",""
"memory-trial","253","596272","0.0-15.0-1.104","1868","2","""event"",""trial"",""time""
""fullscreenenter"",""1"",""1775""
","
","
","""event"",""trial"",""time""
""fullscreenenter"",""1"",""1775""
","
","","","","","","1376.1999999997206","images/cactus4.png","","","memory_trial","3","maybe_new","","","","","","",""
"html-keyboard-response","254","596774","0.0-15.0-0.105","1868","2","""event"",""trial"",""time""
""fullscreenenter"",""1"",""1775""
","
","
","""event"",""trial"",""time""
""fullscreenenter"",""1"",""1775""
","
","","","","","","null","<div style=""font-size:60px;"">+</div>","null","","fixation","","","","","","","","",""
"memory-trial","255","598883","0.0-15.0-1.105","1868","2","""event"",""trial"",""time""
""fullscreenenter"",""1"",""1775""
","
","
","""event"",""trial"",""time""
""fullscreenenter"",""1"",""1775""
","
","","","","","","1104.8999999999069","images/sofa4.png","","","memory_trial","3","maybe_new","","","","","","",""
"html-keyboard-response","256","599385","0.0-15.0-0.106","1868","2","""event"",""trial"",""time""
""fullscreenenter"",""1"",""1775""
","
","
","""event"",""trial"",""time""
""fullscreenenter"",""1"",""1775""
","
","","","","","","null","<div style=""font-size:60px;"">+</div>","null","","fixation","","","","","","","","",""
"memory-trial","257","602554","0.0-15.0-1.106","1868","2","""event"",""trial"",""time""
""fullscreenenter"",""1"",""1775""
","
","
","""event"",""trial"",""time""
""fullscreenenter"",""1"",""1775""
","
","","","","","","2163.600000000093","images/tree2.png","","","memory_trial","2","maybe_old","","","","","","",""
"html-keyboard-response","258","603057","0.0-15.0-0.107","1868","2","""event"",""trial"",""time""
""fullscreenenter"",""1"",""1775""
","
","
","""event"",""trial"",""time""
""fullscreenenter"",""1"",""1775""
","
","","","","","","null","<div style=""font-size:60px;"">+</div>","null","","fixation","","","","","","","","",""
"memory-trial","259","605939","0.0-15.0-1.107","1868","2","""event"",""trial"",""time""
""fullscreenenter"",""1"",""1775""
","
","
","""event"",""trial"",""time""
""fullscreenenter"",""1"",""1775""
","
","","","","","","1876.1999999997206","images/plane5.png","","","memory_trial","3","maybe_new","","","","","","",""
"html-keyboard-response","260","606441","0.0-15.0-0.108","1868","2","""event"",""trial"",""time""
""fullscreenenter"",""1"",""1775""
","
","
","""event"",""trial"",""time""
""fullscreenenter"",""1"",""1775""
","
","","","","","","null","<div style=""font-size:60px;"">+</div>","null","","fixation","","","","","","","","",""
"memory-trial","261","608766","0.0-15.0-1.108","1868","2","""event"",""trial"",""time""
""fullscreenenter"",""1"",""1775""
","
","
","""event"",""trial"",""time""
""fullscreenenter"",""1"",""1775""
","
","","","","","","1319.1000000000931","images/horse5.png","","","memory_trial","4","definitely_new","","","","","","",""
"html-keyboard-response","262","609269","0.0-15.0-0.109","1868","2","""event"",""trial"",""time""
""fullscreenenter"",""1"",""1775""
","
","
","""event"",""trial"",""time""
""fullscreenenter"",""1"",""1775""
","
","","","","","","null","<div style=""font-size:60px;"">+</div>","null","","fixation","","","","","","","","",""
"memory-trial","263","612236","0.0-15.0-1.109","1868","2","""event"",""trial"",""time""
""fullscreenenter"",""1"",""1775""
","
","
","""event"",""trial"",""time""
""fullscreenenter"",""1"",""1775""
","
","","","","","","1962.7000000001863","images/bush1.png","","","memory_trial","3","maybe_new","","","","","","",""
"html-keyboard-response","264","612740","0.0-15.0-0.110","1868","2","""event"",""trial"",""time""
""fullscreenenter"",""1"",""1775""
","
","
","""event"",""trial"",""time""
""fullscreenenter"",""1"",""1775""
","
","","","","","","null","<div style=""font-size:60px;"">+</div>","null","","fixation","","","","","","","","",""
"memory-trial","265","615044","0.0-15.0-1.110","1868","2","""event"",""trial"",""time""
""fullscreenenter"",""1"",""1775""
","
","
","""event"",""trial"",""time""
""fullscreenenter"",""1"",""1775""
","
","","","","","","1299.5","images/rabbit1.png","","","memory_trial","2","maybe_old","","","","","","",""
"html-keyboard-response","266","615546","0.0-15.0-0.111","1868","2","""event"",""trial"",""time""
""fullscreenenter"",""1"",""1775""
","
","
","""event"",""trial"",""time""
""fullscreenenter"",""1"",""1775""
","
","","","","","","null","<div style=""font-size:60px;"">+</div>","null","","fixation","","","","","","","","",""
"memory-trial","267","618512","0.0-15.0-1.111","1868","2","""event"",""trial"",""time""
""fullscreenenter"",""1"",""1775""
","
","
","""event"",""trial"",""time""
""fullscreenenter"",""1"",""1775""
","
","","","","","","1960.7999999998137","images/dog4.png","","","memory_trial","4","definitely_new","","","","","","",""
"html-keyboard-response","268","619015","0.0-15.0-0.112","1868","2","""event"",""trial"",""time""
""fullscreenenter"",""1"",""1775""
","
","
","""event"",""trial"",""time""
""fullscreenenter"",""1"",""1775""
","
","","","","","","null","<div style=""font-size:60px;"">+</div>","null","","fixation","","","","","","","","",""
"memory-trial","269","621626","0.0-15.0-1.112","1868","2","""event"",""trial"",""time""
""fullscreenenter"",""1"",""1775""
","
","
","""event"",""trial"",""time""
""fullscreenenter"",""1"",""1775""
","
","","","","","","1604.6999999997206","images/cow2.png","","","memory_trial","2","maybe_old","","","","","","",""
"html-keyboard-response","270","622129","0.0-15.0-0.113","1868","2","""event"",""trial"",""time""
""fullscreenenter"",""1"",""1775""
","
","
","""event"",""trial"",""time""
""fullscreenenter"",""1"",""1775""
","
","","","","","","null","<div style=""font-size:60px;"">+</div>","null","","fixation","","","","","","","","",""
"memory-trial","271","624266","0.0-15.0-1.113","1868","2","""event"",""trial"",""time""
""fullscreenenter"",""1"",""1775""
","
","
","""event"",""trial"",""time""
""fullscreenenter"",""1"",""1775""
","
","","","","","","1132.5","images/goat3.png","","","memory_trial","3","maybe_new","","","","","","",""
"html-keyboard-response","272","624768","0.0-15.0-0.114","1868","2","""event"",""trial"",""time""
""fullscreenenter"",""1"",""1775""
","
","
","""event"",""trial"",""time""
""fullscreenenter"",""1"",""1775""
","
","","","","","","null","<div style=""font-size:60px;"">+</div>","null","","fixation","","","","","","","","",""
"memory-trial","273","627051","0.0-15.0-1.114","1868","2","""event"",""trial"",""time""
""fullscreenenter"",""1"",""1775""
","
","
","""event"",""trial"",""time""
""fullscreenenter"",""1"",""1775""
","
","","","","","","1278.8000000002794","images/tree4.png","","","memory_trial","4","definitely_new","","","","","","",""
"html-keyboard-response","274","627553","0.0-15.0-0.115","1868","2","""event"",""trial"",""time""
""fullscreenenter"",""1"",""1775""
","
","
","""event"",""trial"",""time""
""fullscreenenter"",""1"",""1775""
","
","","","","","","null","<div style=""font-size:60px;"">+</div>","null","","fixation","","","","","","","","",""
"memory-trial","275","629918","0.0-15.0-1.115","1868","2","""event"",""trial"",""time""
""fullscreenenter"",""1"",""1775""
","
","
","""event"",""trial"",""time""
""fullscreenenter"",""1"",""1775""
","
","","","","","","1361","images/plane3.png","","","memory_trial","4","definitely_new","","","","","","",""
"html-keyboard-response","276","630420","0.0-15.0-0.116","1868","2","""event"",""trial"",""time""
""fullscreenenter"",""1"",""1775""
","
","
","""event"",""trial"",""time""
""fullscreenenter"",""1"",""1775""
","
","","","","","","null","<div style=""font-size:60px;"">+</div>","null","","fixation","","","","","","","","",""
"memory-trial","277","632513","0.0-15.0-1.116","1868","2","""event"",""trial"",""time""
""fullscreenenter"",""1"",""1775""
","
","
","""event"",""trial"",""time""
""fullscreenenter"",""1"",""1775""
","
","","","","","","1087.6000000000931","images/cactus1.png","","","memory_trial","3","maybe_new","","","","","","",""
"html-keyboard-response","278","633016","0.0-15.0-0.117","1868","2","""event"",""trial"",""time""
""fullscreenenter"",""1"",""1775""
","
","
","""event"",""trial"",""time""
""fullscreenenter"",""1"",""1775""
","
","","","","","","null","<div style=""font-size:60px;"">+</div>","null","","fixation","","","","","","","","",""
"memory-trial","279","635787","0.0-15.0-1.117","1868","2","""event"",""trial"",""time""
""fullscreenenter"",""1"",""1775""
","
","
","""event"",""trial"",""time""
""fullscreenenter"",""1"",""1775""
","
","","","","","","1765.8999999999069","images/horse4.png","","","memory_trial","4","definitely_new","","","","","","",""
"html-keyboard-response","280","636289","0.0-15.0-0.118","1868","2","""event"",""trial"",""time""
""fullscreenenter"",""1"",""1775""
","
","
","""event"",""trial"",""time""
""fullscreenenter"",""1"",""1775""
","
","","","","","","null","<div style=""font-size:60px;"">+</div>","null","","fixation","","","","","","","","",""
"memory-trial","281","638752","0.0-15.0-1.118","1868","2","""event"",""trial"",""time""
""fullscreenenter"",""1"",""1775""
","
","
","""event"",""trial"",""time""
""fullscreenenter"",""1"",""1775""
","
","","","","","","1458.1999999997206","images/boat5.png","","","memory_trial","1","definitely_old","","","","","","",""
"html-keyboard-response","282","639255","0.0-15.0-0.119","1868","2","""event"",""trial"",""time""
""fullscreenenter"",""1"",""1775""
","
","
","""event"",""trial"",""time""
""fullscreenenter"",""1"",""1775""
","
","","","","","","null","<div style=""font-size:60px;"">+</div>","null","","fixation","","","","","","","","",""
"memory-trial","283","641568","0.0-15.0-1.119","1868","2","""event"",""trial"",""time""
""fullscreenenter"",""1"",""1775""
","
","
","""event"",""trial"",""time""
""fullscreenenter"",""1"",""1775""
","
","","","","","","1309.6000000000931","images/plane4.png","","","memory_trial","2","maybe_old","","","","","","",""
"preload","284","646507","0.0-16.0","1868","2","""event"",""trial"",""time""
""fullscreenenter"",""1"",""1775""
","
","
","""event"",""trial"",""time""
""fullscreenenter"",""1"",""1775""
","
","true","false","[]","[]","[]","","","","","","","","","","","","","",""
"learning-instructions","285","652900","0.0-17.0-0.0-0.0-0.0","1868","2","""event"",""trial"",""time""
""fullscreenenter"",""1"",""1775""
","
","
","""event"",""trial"",""time""
""fullscreenenter"",""1"",""1775""
","
","","","","","","2638.7999999998137","<p> We're now going to ask you to put fuel in your vehicles again. </p>","","0","instructions","","","","","","","","",""
"learning-instructions","286","675723","0.0-17.0-0.0-0.0-0.1","1868","2","""event"",""trial"",""time""
""fullscreenenter"",""1"",""1775""
","
","
","""event"",""trial"",""time""
""fullscreenenter"",""1"",""1775""
","
","","","","","","16778.69999999972","<p> On each trial, you will see a vehicle. Select the fuel that you think will make the vehicle start. </p>","","0","instructions","","","","","","","","",""
"learning-instructions","287","684171","0.0-17.0-0.0-0.0-0.2","1868","2","""event"",""trial"",""time""
""fullscreenenter"",""1"",""1775""
","
","
","""event"",""trial"",""time""
""fullscreenenter"",""1"",""1775""
","
","","","","","","1374.4000000003725","<p> To make your selection, think about what you learned last week. You will NOT receive any feedback about your choice. </p>","","0","instructions","","","","","","","","",""
"learning-instructions","288","692998","0.0-17.0-0.0-0.0-0.3","1868","2","""event"",""trial"",""time""
""fullscreenenter"",""1"",""1775""
","
","
","""event"",""trial"",""time""
""fullscreenenter"",""1"",""1775""
","
","","","","","","1380.7000000001863","<p> You should use the 1 key to select the fuel on the left, the 2 key to select the fuel in the middle, and the 3 key to select the fuel on the right. </p><br><div class=""choice-mem-instructions-grid""> <div class=""choice-mem-option""><img src=""images/vehicles_choice1.png"" class=""choice-mem-option-img"" stage=""instructions"" position=""0"" ><div class=""choice-mem-option-text""> Press ""1."" </div></div><div class=""choice-mem-option""><img src=""images/vehicles_choice2.png"" class=""choice-mem-option-img"" stage=""instructions"" position=""1"" ><div class=""choice-mem-option-text""> Press ""2."" </div></div><div class=""choice-mem-option""><img src=""images/vehicles_choice3.png"" class=""choice-mem-option-img"" stage=""instructions"" position=""2"" ><div class=""choice-mem-option-text""> Press ""3."" </div></div></div>","","0","instructions","","","","","","","","",""
"learning-instructions","289","700637","0.0-17.0-0.0-0.0-0.4","1868","2","""event"",""trial"",""time""
""fullscreenenter"",""1"",""1775""
","
","
","""event"",""trial"",""time""
""fullscreenenter"",""1"",""1775""
","
","","","","","","1371.8999999999069","<p> You will have 10 seconds to make each selection. Try to respond before time runs out! </p>","","0","instructions","","","","","","","","",""
"learning-instructions","290","703716","0.0-17.0-0.0-1.0","1868","2","""event"",""trial"",""time""
""fullscreenenter"",""1"",""1775""
","
","
","""event"",""trial"",""time""
""fullscreenenter"",""1"",""1775""
","
","","","","","","1018.5","<p> You are now ready to begin the game. </p>","","0","instructions","","","","","","","","",""
"html-keyboard-response","291","704319","0.0-17.0-0.0-2.0-0.0","1868","2","""event"",""trial"",""time""
""fullscreenenter"",""1"",""1775""
","
","
","""event"",""trial"",""time""
""fullscreenenter"",""1"",""1775""
","
","","","","","","null","<div style=""font-size:60px;"">+</div>","null","","fixation","","","","","","","","",""
"choice-memory-trial","292","707262","0.0-17.0-0.0-2.0-1.0","1868","2","""event"",""trial"",""time""
""fullscreenenter"",""1"",""1775""
","
","
","""event"",""trial"",""time""
""fullscreenenter"",""1"",""1775""
","
