"trial_type","trial_index","time_elapsed","internal_node_id","subject_id","task_version","interactions","blur_events","focus_events","fullscreenenter_events","fullscreenexit_events","success","timeout","failed_images","failed_audio","failed_video","rt","stimulus","response","button_pressed","task_part","key_press","answer","correct","left_choice","middle_choice","right_choice","choice_positions","option_selected","block"
"pavlovia","0","2","0.0-0.0","1914","2","""event"",""trial"",""time""
""fullscreenenter"",""1"",""7365""
","
","
","""event"",""trial"",""time""
""fullscreenenter"",""1"",""7365""
","
","","","","","","","","","","","","","","","","","","",""
"fullscreen","1","8353","0.0-1.0","1914","2","""event"",""trial"",""time""
""fullscreenenter"",""1"",""7365""
","
","
","""event"",""trial"",""time""
""fullscreenenter"",""1"",""7365""
","
","true","","","","","","","","","","","","","","","","","",""
"preload","2","10368","0.0-2.0","1914","2","""event"",""trial"",""time""
""fullscreenenter"",""1"",""7365""
","
","
","""event"",""trial"",""time""
""fullscreenenter"",""1"",""7365""
","
","true","false","[]","[]","[]","","","","","","","","","","","","","",""
"audio-keyboard-response","3","12658","0.0-3.0","1914","2","""event"",""trial"",""time""
""fullscreenenter"",""1"",""7365""
","
","
","""event"",""trial"",""time""
""fullscreenenter"",""1"",""7365""
","
","","","","","","2290.6666666666665","audio/beep_loop.wav"," ","","","","","","","","","","",""
"audio-button-response","4","16604","0.0-4.0","1914","2","""event"",""trial"",""time""
""fullscreenenter"",""1"",""7365""
","
","
","""event"",""trial"",""time""
""fullscreenenter"",""1"",""7365""
","
","","","","","","3949","audio/turtle.wav","3","","","","","","","","","","",""
"audio-button-response","5","19119","0.0-5.0","1914","2","""event"",""trial"",""time""
""fullscreenenter"",""1"",""7365""
","
","
","""event"",""trial"",""time""
""fullscreenenter"",""1"",""7365""
","
","","","","","","1509","audio/shark.wav","2","","","","","","","","","","",""
"preload","6","41969","0.0-6.0","1914","2","""event"",""trial"",""time""
""fullscreenenter"",""1"",""7365""
","
","
","""event"",""trial"",""time""
""fullscreenenter"",""1"",""7365""
","
","true","false","[]","[]","[]","","","","","","","","","","","","","",""
"learning-instructions","7","54221","0.0-7.0-0.0","1914","2","""event"",""trial"",""time""
""fullscreenenter"",""1"",""7365""
","
","
","""event"",""trial"",""time""
""fullscreenenter"",""1"",""7365""
","
","","","","","","7449.9000000059605","<p> Welcome back! </p><p> Last week, you had to make choices about lots of different items.  </p>","","0","instructions","","","","","","","","",""
"learning-instructions","8","64554","0.0-7.0-0.1","1914","2","""event"",""trial"",""time""
""fullscreenenter"",""1"",""7365""
","
","
","""event"",""trial"",""time""
""fullscreenenter"",""1"",""7365""
","
","","","","","","6032.5999999940395","<p> Today, we are going to ask you to try to remember all the items. </p>","","0","instructions","","","","","","","","",""
"learning-instructions","9","75775","0.0-7.0-0.2","1914","2","""event"",""trial"",""time""
""fullscreenenter"",""1"",""7365""
","
","
","""event"",""trial"",""time""
""fullscreenenter"",""1"",""7365""
","
","","","","","","1093.0999999940395","<p> On every trial, you will see an image. </p><p> The image may be an OLD image you saw during the games last week or it may be a NEW image that was not presented. </p>","","0","instructions","","","","","","","","",""
"learning-instructions","10","85832","0.0-7.0-0.3","1914","2","""event"",""trial"",""time""
""fullscreenenter"",""1"",""7365""
","
","
","""event"",""trial"",""time""
""fullscreenenter"",""1"",""7365""
","
","","","","","","1570.3999999910593","<p> You need to select whether the image is:  </p><p>  'Definitely old', 'Maybe old', 'Maybe new', or 'Definitely new.'  </p><div class=""mem-choice-instructions-grid""><div class=""choice-option"" id=""choice-option-1"" ><img src=""images/definitely_old_1.png"" id=""choice-option-img-1"" class=""choice-option-img"" stage=""1""></div><div class=""choice-option"" id=""choice-option-2"" ><img src=""images/maybe_old_1.png"" id=""choice-option-img-2"" class=""choice-option-img"" stage=""1""></div><div class=""choice-option"" id=""choice-option-3"" ><img src=""images/maybe_new_1.png"" id=""choice-option-img-3"" class=""choice-option-img"" stage=""1""></div><div class=""choice-option"" id=""choice-option-4"" > <img src=""images/definitely_new_1.png"" id=""choice-option-img-4"" class=""choice-option-img"" stage=""1""></div></div>","","0","instructions","","","","","","","","",""
"learning-instructions","11","94090","0.0-7.0-0.4","1914","2","""event"",""trial"",""time""
""fullscreenenter"",""1"",""7365""
","
","
","""event"",""trial"",""time""
""fullscreenenter"",""1"",""7365""
","
","","","","","","1558.8999999910593","<p> You should use the 1, 2, 3, and 4 keys to make your responses.  </p><div class=""mem-choice-instructions-grid""><div class=""choice-option"" id=""choice-option-1"" ><img src=""images/definitely_old.png"" id=""choice-option-img-1"" class=""choice-option-img"" stage=""1""></div><div class=""choice-option"" id=""choice-option-2"" ><img src=""images/maybe_old.png"" id=""choice-option-img-2"" class=""choice-option-img"" stage=""1""></div><div class=""choice-option"" id=""choice-option-3"" ><img src=""images/maybe_new.png"" id=""choice-option-img-3"" class=""choice-option-img"" stage=""1""></div><div class=""choice-option"" id=""choice-option-4"" > <img src=""images/definitely_new.png"" id=""choice-option-img-4"" class=""choice-option-img"" stage=""1""></div></div>","","0","instructions","","","","","","","","",""
"learning-instructions","12","102348","0.0-7.0-0.5","1914","2","""event"",""trial"",""time""
""fullscreenenter"",""1"",""7365""
","
","
","""event"",""trial"",""time""
""fullscreenenter"",""1"",""7365""
","
","","","","","","1497","<p> You will have 10 seconds to make each response.  </p><p>  Make sure to respond before time runs out! </p>","","0","instructions","","","","","","","","",""
"learning-instructions","13","110526","0.0-7.0-0.6","1914","2","""event"",""trial"",""time""
""fullscreenenter"",""1"",""7365""
","
","
","""event"",""trial"",""time""
""fullscreenenter"",""1"",""7365""
","
","","","","","","605.2999999970198","<p> Today, you will see each image ONCE only.  </p><p>  That means none of the images will repeat. </p>","","0","instructions","","","","","","","","",""
"learning-instructions","14","123736","0.0-7.0-0.7","1914","2","""event"",""trial"",""time""
""fullscreenenter"",""1"",""7365""
","
","
","""event"",""trial"",""time""
""fullscreenenter"",""1"",""7365""
","
","","","","","","544.7999999970198","<p> Before you play the real game, it is time to practice. </p><p>  Just like in the real game, some of the images in the practice will be ones you have seen before. </p><p>  Others will be entirely new. </p>","","0","instructions","","","","","","","","",""
"html-button-response","15","126258","0.0-8.0","1914","2","""event"",""trial"",""time""
""fullscreenenter"",""1"",""7365""
","
","
","""event"",""trial"",""time""
""fullscreenenter"",""1"",""7365""
","
","","","","","","2407.7999999970198","<p> Ready to practice? </p><p> Remember, use the 1, 2, 3, and 4 keys to make your responses. </p>","0","","instructions","","","","","","","","",""
"html-keyboard-response","16","126889","0.0-9.0-0.0","1914","2","""event"",""trial"",""time""
""fullscreenenter"",""1"",""7365""
","
","
","""event"",""trial"",""time""
""fullscreenenter"",""1"",""7365""
","
","","","","","","null","<div style=""font-size:60px;"">+</div>","null","","fixation","","","","","","","","",""
"memory-trial","17","131139","0.0-9.0-1.0","1914","2","""event"",""trial"",""time""
""fullscreenenter"",""1"",""7365""
","
","
","""event"",""trial"",""time""
""fullscreenenter"",""1"",""7365""
","
","","","","","","3230.9000000059605","images/ball4.png","","","practice","1","definitely_old","","","","","","",""
"html-keyboard-response","18","131649","0.0-9.0-0.1","1914","2","""event"",""trial"",""time""
""fullscreenenter"",""1"",""7365""
","
","
","""event"",""trial"",""time""
""fullscreenenter"",""1"",""7365""
","
","","","","","","null","<div style=""font-size:60px;"">+</div>","null","","fixation","","","","","","","","",""
"memory-trial","19","134179","0.0-9.0-1.1","1914","2","""event"",""trial"",""time""
""fullscreenenter"",""1"",""7365""
","
","
","""event"",""trial"",""time""
""fullscreenenter"",""1"",""7365""
","
","","","","","","1510.800000011921","images/ball2.png","","","practice","1","definitely_old","","","","","","",""
"html-keyboard-response","20","134699","0.0-9.0-0.2","1914","2","""event"",""trial"",""time""
""fullscreenenter"",""1"",""7365""
","
","
","""event"",""trial"",""time""
""fullscreenenter"",""1"",""7365""
","
","","","","","","null","<div style=""font-size:60px;"">+</div>","null","","fixation","","","","","","","","",""
"memory-trial","21","137109","0.0-9.0-1.2","1914","2","""event"",""trial"",""time""
""fullscreenenter"",""1"",""7365""
","
","
","""event"",""trial"",""time""
""fullscreenenter"",""1"",""7365""
","
","","","","","","1389.6000000089407","images/racket3.png","","","practice","1","definitely_old","","","","","","",""
"html-keyboard-response","22","137629","0.0-9.0-0.3","1914","2","""event"",""trial"",""time""
""fullscreenenter"",""1"",""7365""
","
","
","""event"",""trial"",""time""
""fullscreenenter"",""1"",""7365""
","
","","","","","","null","<div style=""font-size:60px;"">+</div>","null","","fixation","","","","","","","","",""
"memory-trial","23","139719","0.0-9.0-1.3","1914","2","""event"",""trial"",""time""
""fullscreenenter"",""1"",""7365""
","
","
","""event"",""trial"",""time""
""fullscreenenter"",""1"",""7365""
","
","","","","","","1083.4000000059605","images/racket1.png","","","practice","1","definitely_old","","","","","","",""
"html-keyboard-response","24","140239","0.0-9.0-0.4","1914","2","""event"",""trial"",""time""
""fullscreenenter"",""1"",""7365""
","
","
","""event"",""trial"",""time""
""fullscreenenter"",""1"",""7365""
","
","","","","","","null","<div style=""font-size:60px;"">+</div>","null","","fixation","","","","","","","","",""
"memory-trial","25","143269","0.0-9.0-1.4","1914","2","""event"",""trial"",""time""
""fullscreenenter"",""1"",""7365""
","
","
","""event"",""trial"",""time""
""fullscreenenter"",""1"",""7365""
","
","","","","","","2009.5999999940395","images/racket2.png","","","practice","4","definitely_new","","","","","","",""
"html-keyboard-response","26","143779","0.0-9.0-0.5","1914","2","""event"",""trial"",""time""
""fullscreenenter"",""1"",""7365""
","
","
","""event"",""trial"",""time""
""fullscreenenter"",""1"",""7365""
","
","","","","","","null","<div style=""font-size:60px;"">+</div>","null","","fixation","","","","","","","","",""
"memory-trial","27","146109","0.0-9.0-1.5","1914","2","""event"",""trial"",""time""
""fullscreenenter"",""1"",""7365""
","
","
","""event"",""trial"",""time""
""fullscreenenter"",""1"",""7365""
","
","","","","","","1317.3999999910593","images/racket4.png","","","practice","4","definitely_new","","","","","","",""
"html-keyboard-response","28","146619","0.0-9.0-0.6","1914","2","""event"",""trial"",""time""
""fullscreenenter"",""1"",""7365""
","
","
","""event"",""trial"",""time""
""fullscreenenter"",""1"",""7365""
","
","","","","","","null","<div style=""font-size:60px;"">+</div>","null","","fixation","","","","","","","","",""
"memory-trial","29","149259","0.0-9.0-1.6","1914","2","""event"",""trial"",""time""
""fullscreenenter"",""1"",""7365""
","
","
","""event"",""trial"",""time""
""fullscreenenter"",""1"",""7365""
","
","","","","","","1638","images/ball1.png","","","practice","1","definitely_old","","","","","","",""
"html-keyboard-response","30","149769","0.0-9.0-0.7","1914","2","""event"",""trial"",""time""
""fullscreenenter"",""1"",""7365""
","
","
","""event"",""trial"",""time""
""fullscreenenter"",""1"",""7365""
","
","","","","","","null","<div style=""font-size:60px;"">+</div>","null","","fixation","","","","","","","","",""
"memory-trial","31","152499","0.0-9.0-1.7","1914","2","""event"",""trial"",""time""
""fullscreenenter"",""1"",""7365""
","
","
","""event"",""trial"",""time""
""fullscreenenter"",""1"",""7365""
","
","","","","","","1719","images/ball3.png","","","practice","4","definitely_new","","","","","","",""
"learning-instructions","32","163590","0.0-10.0-0.0","1914","2","""event"",""trial"",""time""
""fullscreenenter"",""1"",""7365""
","
","
","""event"",""trial"",""time""
""fullscreenenter"",""1"",""7365""
","
","","","","","","3148.2000000029802","<p> Great! You have completed the practice. </p><p> Before you start, we're going to ask you a few questions about how the game works.  </p>","","0","instructions","","","","","","","","",""
"preload","33","172576","0.0-11.0","1914","2","""event"",""trial"",""time""
""fullscreenenter"",""1"",""7365""
","
","
","""event"",""trial"",""time""
""fullscreenenter"",""1"",""7365""
","
","true","false","[]","[]","[]","","","","","","","","","","","","","",""
"comp-q","34","252672","0.0-12.0-0.0","1914","2","""event"",""trial"",""time""
""fullscreenenter"",""1"",""7365""
","
","
","""event"",""trial"",""time""
""fullscreenenter"",""1"",""7365""
","
","","","","","","74270.59999999404","<p> <b> True or False? </b> </p><p> In this game, you will only see each image once. </p>","","0","comp_question","","","true","","","","","",""
"comp-q","35","259743","0.0-12.0-1.0","1914","2","""event"",""trial"",""time""
""fullscreenenter"",""1"",""7365""
","
","
","""event"",""trial"",""time""
""fullscreenenter"",""1"",""7365""
","
","","","","","","696.5","<p> <b> That's right! </b> You will see many different images <i> one time each </i> in this game. </p>","","0","comp_answer","","","","","","","","",""
"comp-q","36","266818","0.0-12.0-0.1","1914","2","""event"",""trial"",""time""
""fullscreenenter"",""1"",""7365""
","
","
","""event"",""trial"",""time""
""fullscreenenter"",""1"",""7365""
","
","","","","","","1282","<p> <b> True or False? </b> </p><p> You should use the mouse and click to make your response. </p>","","1","comp_question","","","true","","","","","",""
"comp-q","37","274392","0.0-12.0-1.1","1914","2","""event"",""trial"",""time""
""fullscreenenter"",""1"",""7365""
","
","
","""event"",""trial"",""time""
""fullscreenenter"",""1"",""7365""
","
","","","","","","226","<p><b> That's right! </b> You should use the '1', '2', '3', and '4' keys to make your response. </p>","","0","comp_answer","","","","","","","","",""
"comp-q","38","280722","0.0-12.0-0.2","1914","2","""event"",""trial"",""time""
""fullscreenenter"",""1"",""7365""
","
","
","""event"",""trial"",""time""
""fullscreenenter"",""1"",""7365""
","
","","","","","","336.20000000298023","<p> <b> True or False? </b> </p><p> You will have as much time as you want to make each choice. </p>","","1","comp_question","","","true","","","","","",""
"comp-q","39","287668","0.0-12.0-1.2","1914","2","""event"",""trial"",""time""
""fullscreenenter"",""1"",""7365""
","
","
","""event"",""trial"",""time""
""fullscreenenter"",""1"",""7365""
","
","","","","","","1562.0999999940395","<p> <b> That's right! </b> You will only have 10 seconds to make each choice. </p>","","0","comp_answer","","","","","","","","",""
"learning-instructions","40","298266","0.0-13.0","1914","2","""event"",""trial"",""time""
""fullscreenenter"",""1"",""7365""
","
","
","""event"",""trial"",""time""
""fullscreenenter"",""1"",""7365""
","
","","","","","","1930.2999999970198","<p> Great! You are now ready to begin the game. </p><p> Remember, use the 1, 2, 3, and 4 keys to make your responses. </p>","","0","instructions","","","","","","","","",""
"preload","41","336740","0.0-14.0","1914","2","""event"",""trial"",""time""
""fullscreenenter"",""1"",""7365""
","
","
","""event"",""trial"",""time""
""fullscreenenter"",""1"",""7365""
","
","true","false","[]","[]","[]","","","","","","","","","","","","","",""
"html-keyboard-response","42","337240","0.0-15.0-0.0","1914","2","""event"",""trial"",""time""
""fullscreenenter"",""1"",""7365""
","
","
","""event"",""trial"",""time""
""fullscreenenter"",""1"",""7365""
","
","","","","","","null","<div style=""font-size:60px;"">+</div>","null","","fixation","","","","","","","","",""
"memory-trial","43","340572","0.0-15.0-1.0","1914","2","""event"",""trial"",""time""
""fullscreenenter"",""1"",""7365""
","
","
","""event"",""trial"",""time""
""fullscreenenter"",""1"",""7365""
","
","","","","","","2329.7000000029802","images/train2.png","","","memory_trial","1","definitely_old","","","","","","",""
"html-keyboard-response","44","341073","0.0-15.0-0.1","1914","2","""event"",""trial"",""time""
""fullscreenenter"",""1"",""7365""
","
","
","""event"",""trial"",""time""
""fullscreenenter"",""1"",""7365""
","
","","","","","","null","<div style=""font-size:60px;"">+</div>","null","","fixation","","","","","","","","",""
"memory-trial","45","344234","0.0-15.0-1.1","1914","2","""event"",""trial"",""time""
""fullscreenenter"",""1"",""7365""
","
","
","""event"",""trial"",""time""
""fullscreenenter"",""1"",""7365""
","
","","","","","","2160.5","images/cow3.png","","","memory_trial","2","maybe_old","","","","","","",""
"html-keyboard-response","46","344737","0.0-15.0-0.2","1914","2","""event"",""trial"",""time""
""fullscreenenter"",""1"",""7365""
","
","
","""event"",""trial"",""time""
""fullscreenenter"",""1"",""7365""
","
","","","","","","null","<div style=""font-size:60px;"">+</div>","null","","fixation","","","","","","","","",""
"memory-trial","47","347362","0.0-15.0-1.2","1914","2","""event"",""trial"",""time""
""fullscreenenter"",""1"",""7365""
","
","
","""event"",""trial"",""time""
""fullscreenenter"",""1"",""7365""
","
","","","","","","1624","images/rodent1.png","","","memory_trial","4","definitely_new","","","","","","",""
"html-keyboard-response","48","347863","0.0-15.0-0.3","1914","2","""event"",""trial"",""time""
""fullscreenenter"",""1"",""7365""
","
","
","""event"",""trial"",""time""
""fullscreenenter"",""1"",""7365""
","
","","","","","","null","<div style=""font-size:60px;"">+</div>","null","","fixation","","","","","","","","",""
"memory-trial","49","350866","0.0-15.0-1.3","1914","2","""event"",""trial"",""time""
""fullscreenenter"",""1"",""7365""
","
","
","""event"",""trial"",""time""
""fullscreenenter"",""1"",""7365""
","
","","","","","","2001.3999999910593","images/chair2.png","","","memory_trial","2","maybe_old","","","","","","",""
"html-keyboard-response","50","351367","0.0-15.0-0.4","1914","2","""event"",""trial"",""time""
""fullscreenenter"",""1"",""7365""
","
","
","""event"",""trial"",""time""
""fullscreenenter"",""1"",""7365""
","
","","","","","","null","<div style=""font-size:60px;"">+</div>","null","","fixation","","","","","","","","",""
"memory-trial","51","353322","0.0-15.0-1.4","1914","2","""event"",""trial"",""time""
""fullscreenenter"",""1"",""7365""
","
","
","""event"",""trial"",""time""
""fullscreenenter"",""1"",""7365""
","
","","","","","","953.2000000029802","images/boat4.png","","","memory_trial","4","definitely_new","","","","","","",""
"html-keyboard-response","52","353823","0.0-15.0-0.5","1914","2","""event"",""trial"",""time""
""fullscreenenter"",""1"",""7365""
","
","
","""event"",""trial"",""time""
""fullscreenenter"",""1"",""7365""
","
","","","","","","null","<div style=""font-size:60px;"">+</div>","null","","fixation","","","","","","","","",""
"memory-trial","53","356242","0.0-15.0-1.5","1914","2","""event"",""trial"",""time""
""fullscreenenter"",""1"",""7365""
","
","
","""event"",""trial"",""time""
""fullscreenenter"",""1"",""7365""
","
","","","","","","1417.2999999970198","images/straw2.png","","","memory_trial","1","definitely_old","","","","","","",""
"html-keyboard-response","54","356743","0.0-15.0-0.6","1914","2","""event"",""trial"",""time""
""fullscreenenter"",""1"",""7365""
","
","
","""event"",""trial"",""time""
""fullscreenenter"",""1"",""7365""
","
","","","","","","null","<div style=""font-size:60px;"">+</div>","null","","fixation","","","","","","","","",""
"memory-trial","55","358874","0.0-15.0-1.6","1914","2","""event"",""trial"",""time""
""fullscreenenter"",""1"",""7365""
","
","
","""event"",""trial"",""time""
""fullscreenenter"",""1"",""7365""
","
","","","","","","1129.300000011921","images/plane5.png","","","memory_trial","1","definitely_old","","","","","","",""
"html-keyboard-response","56","359375","0.0-15.0-0.7","1914","2","""event"",""trial"",""time""
""fullscreenenter"",""1"",""7365""
","
","
","""event"",""trial"",""time""
""fullscreenenter"",""1"",""7365""
","
","","","","","","null","<div style=""font-size:60px;"">+</div>","null","","fixation","","","","","","","","",""
"memory-trial","57","362082","0.0-15.0-1.7","1914","2","""event"",""trial"",""time""
""fullscreenenter"",""1"",""7365""
","
","
","""event"",""trial"",""time""
""fullscreenenter"",""1"",""7365""
","
","","","","","","1705.7000000029802","images/truck1.png","","","memory_trial","2","maybe_old","","","","","","",""
"html-keyboard-response","58","362584","0.0-15.0-0.8","1914","2","""event"",""trial"",""time""
""fullscreenenter"",""1"",""7365""
","
","
","""event"",""trial"",""time""
""fullscreenenter"",""1"",""7365""
","
","","","","","","null","<div style=""font-size:60px;"">+</div>","null","","fixation","","","","","","","","",""
"memory-trial","59","365915","0.0-15.0-1.8","1914","2","""event"",""trial"",""time""
""fullscreenenter"",""1"",""7365""
","
","
","""event"",""trial"",""time""
""fullscreenenter"",""1"",""7365""
","
","","","","","","2329.2000000029802","images/tree3.png","","","memory_trial","4","definitely_new","","","","","","",""
"html-keyboard-response","60","366416","0.0-15.0-0.9","1914","2","""event"",""trial"",""time""
""fullscreenenter"",""1"",""7365""
","
","
","""event"",""trial"",""time""
""fullscreenenter"",""1"",""7365""
","
","","","","","","null","<div style=""font-size:60px;"">+</div>","null","","fixation","","","","","","","","",""
"memory-trial","61","368899","0.0-15.0-1.9","1914","2","""event"",""trial"",""time""
""fullscreenenter"",""1"",""7365""
","
","
","""event"",""trial"",""time""
""fullscreenenter"",""1"",""7365""
","
","","","","","","1480.7000000029802","images/truck2.png","","","memory_trial","2","maybe_old","","","","","","",""
"html-keyboard-response","62","369400","0.0-15.0-0.10","1914","2","""event"",""trial"",""time""
""fullscreenenter"",""1"",""7365""
","
","
","""event"",""trial"",""time""
""fullscreenenter"",""1"",""7365""
","
","","","","","","null","<div style=""font-size:60px;"">+</div>","null","","fixation","","","","","","","","",""
"memory-trial","63","371251","0.0-15.0-1.10","1914","2","""event"",""trial"",""time""
""fullscreenenter"",""1"",""7365""
","
","
","""event"",""trial"",""time""
""fullscreenenter"",""1"",""7365""
","
","","","","","","848.9000000059605","images/straw1.png","","","memory_trial","1","definitely_old","","","","","","",""
"html-keyboard-response","64","371752","0.0-15.0-0.11","1914","2","""event"",""trial"",""time""
""fullscreenenter"",""1"",""7365""
","
","
","""event"",""trial"",""time""
""fullscreenenter"",""1"",""7365""
","
","","","","","","null","<div style=""font-size:60px;"">+</div>","null","","fixation","","","","","","","","",""
"memory-trial","65","374482","0.0-15.0-1.11","1914","2","""event"",""trial"",""time""
""fullscreenenter"",""1"",""7365""
","
","
","""event"",""trial"",""time""
""fullscreenenter"",""1"",""7365""
","
","","","","","","1728.5","images/rabbit2.png","","","memory_trial","2","maybe_old","","","","","","",""
"html-keyboard-response","66","374993","0.0-15.0-0.12","1914","2","""event"",""trial"",""time""
""fullscreenenter"",""1"",""7365""
","
","
","""event"",""trial"",""time""
""fullscreenenter"",""1"",""7365""
","
","","","","","","null","<div style=""font-size:60px;"">+</div>","null","","fixation","","","","","","","","",""
"memory-trial","67","377266","0.0-15.0-1.12","1914","2","""event"",""trial"",""time""
""fullscreenenter"",""1"",""7365""
","
","
","""event"",""trial"",""time""
""fullscreenenter"",""1"",""7365""
","
","","","","","","1271.9000000059605","images/cactus4.png","","","memory_trial","1","definitely_old","","","","","","",""
"html-keyboard-response","68","377769","0.0-15.0-0.13","1914","2","""event"",""trial"",""time""
""fullscreenenter"",""1"",""7365""
","
","
","""event"",""trial"",""time""
""fullscreenenter"",""1"",""7365""
","
","","","","","","null","<div style=""font-size:60px;"">+</div>","null","","fixation","","","","","","","","",""
"memory-trial","69","379779","0.0-15.0-1.13","1914","2","""event"",""trial"",""time""
""fullscreenenter"",""1"",""7365""
","
","
","""event"",""trial"",""time""
""fullscreenenter"",""1"",""7365""
","
","","","","","","1007.8000000119209","images/goat4.png","","","memory_trial","2","maybe_old","","","","","","",""
"html-keyboard-response","70","380280","0.0-15.0-0.14","1914","2","""event"",""trial"",""time""
""fullscreenenter"",""1"",""7365""
","
","
","""event"",""trial"",""time""
""fullscreenenter"",""1"",""7365""
","
","","","","","","null","<div style=""font-size:60px;"">+</div>","null","","fixation","","","","","","","","",""
"memory-trial","71","382755","0.0-15.0-1.14","1914","2","""event"",""trial"",""time""
""fullscreenenter"",""1"",""7365""
","
","
","""event"",""trial"",""time""
""fullscreenenter"",""1"",""7365""
","
","","","","","","1473.3999999910593","images/boat5.png","","","memory_trial","2","maybe_old","","","","","","",""
"html-keyboard-response","72","383257","0.0-15.0-0.15","1914","2","""event"",""trial"",""time""
""fullscreenenter"",""1"",""7365""
","
","
","""event"",""trial"",""time""
""fullscreenenter"",""1"",""7365""
","
","","","","","","null","<div style=""font-size:60px;"">+</div>","null","","fixation","","","","","","","","",""
"memory-trial","73","385715","0.0-15.0-1.15","1914","2","""event"",""trial"",""time""
""fullscreenenter"",""1"",""7365""
","
","
","""event"",""trial"",""time""
""fullscreenenter"",""1"",""7365""
","
","","","","","","1455.800000011921","images/chair1.png","","","memory_trial","1","definitely_old","","","","","","",""
"html-keyboard-response","74","386218","0.0-15.0-0.16","1914","2","""event"",""trial"",""time""
""fullscreenenter"",""1"",""7365""
","
","
","""event"",""trial"",""time""
""fullscreenenter"",""1"",""7365""
","
","","","","","","null","<div style=""font-size:60px;"">+</div>","null","","fixation","","","","","","","","",""
"memory-trial","75","388410","0.0-15.0-1.16","1914","2","""event"",""trial"",""time""
""fullscreenenter"",""1"",""7365""
","
","
","""event"",""trial"",""time""
""fullscreenenter"",""1"",""7365""
","
","","","","","","1190.9000000059605","images/horse3.png","","","memory_trial","4","definitely_new","","","","","","",""
"html-keyboard-response","76","388911","0.0-15.0-0.17","1914","2","""event"",""trial"",""time""
""fullscreenenter"",""1"",""7365""
","
","
","""event"",""trial"",""time""
""fullscreenenter"",""1"",""7365""
","
","","","","","","null","<div style=""font-size:60px;"">+</div>","null","","fixation","","","","","","","","",""
"memory-trial","77","390019","0.0-15.0-1.17","1914","2","""event"",""trial"",""time""
""fullscreenenter"",""1"",""7365""
","
","
","""event"",""trial"",""time""
""fullscreenenter"",""1"",""7365""
","
","","","","","","105.90000000596046","images/rabbit3.png","","","memory_trial","1","definitely_old","","","","","","",""
"html-keyboard-response","78","390520","0.0-15.0-0.18","1914","2","""event"",""trial"",""time""
""fullscreenenter"",""1"",""7365""
","
","
","""event"",""trial"",""time""
""fullscreenenter"",""1"",""7365""
","
","","","","","","null","<div style=""font-size:60px;"">+</div>","null","","fixation","","","","","","","","",""
"memory-trial","79","392818","0.0-15.0-1.18","1914","2","""event"",""trial"",""time""
""fullscreenenter"",""1"",""7365""
","
","
","""event"",""trial"",""time""
""fullscreenenter"",""1"",""7365""
","
","","","","","","1296.5999999940395","images/cow5.png","","","memory_trial","2","maybe_old","","","","","","",""
"html-keyboard-response","80","393319","0.0-15.0-0.19","1914","2","""event"",""trial"",""time""
""fullscreenenter"",""1"",""7365""
","
","
","""event"",""trial"",""time""
""fullscreenenter"",""1"",""7365""
","
","","","","","","null","<div style=""font-size:60px;"">+</div>","null","","fixation","","","","","","","","",""
"memory-trial","81","395634","0.0-15.0-1.19","1914","2","""event"",""trial"",""time""
""fullscreenenter"",""1"",""7365""
","
","
","""event"",""trial"",""time""
""fullscreenenter"",""1"",""7365""
","
","","","","","","1313.3999999910593","images/bed4.png","","","memory_trial","1","definitely_old","","","","","","",""
"html-keyboard-response","82","396136","0.0-15.0-0.20","1914","2","""event"",""trial"",""time""
""fullscreenenter"",""1"",""7365""
","
","
","""event"",""trial"",""time""
""fullscreenenter"",""1"",""7365""
","
","","","","","","null","<div style=""font-size:60px;"">+</div>","null","","fixation","","","","","","","","",""
"memory-trial","83","398714","0.0-15.0-1.20","1914","2","""event"",""trial"",""time""
""fullscreenenter"",""1"",""7365""
","
","
","""event"",""trial"",""time""
""fullscreenenter"",""1"",""7365""
","
","","","","","","1577.5999999940395","images/orange3.png","","","memory_trial","2","maybe_old","","","","","","",""
"html-keyboard-response","84","399216","0.0-15.0-0.21","1914","2","""event"",""trial"",""time""
""fullscreenenter"",""1"",""7365""
","
","
","""event"",""trial"",""time""
""fullscreenenter"",""1"",""7365""
","
","","","","","","null","<div style=""font-size:60px;"">+</div>","null","","fixation","","","","","","","","",""
"memory-trial","85","401746","0.0-15.0-1.21","1914","2","""event"",""trial"",""time""
""fullscreenenter"",""1"",""7365""
","
","
","""event"",""trial"",""time""
""fullscreenenter"",""1"",""7365""
","
","","","","","","1529.2000000029802","images/sofa4.png","","","memory_trial","4","definitely_new","","","","","","",""
"html-keyboard-response","86","402247","0.0-15.0-0.22","1914","2","""event"",""trial"",""time""
""fullscreenenter"",""1"",""7365""
","
","
","""event"",""trial"",""time""
""fullscreenenter"",""1"",""7365""
","
","","","","","","null","<div style=""font-size:60px;"">+</div>","null","","fixation","","","","","","","","",""
"memory-trial","87","404387","0.0-15.0-1.22","1914","2","""event"",""trial"",""time""
""fullscreenenter"",""1"",""7365""
","
","
","""event"",""trial"",""time""
""fullscreenenter"",""1"",""7365""
","
","","","","","","1137.4000000059605","images/bush2.png","","","memory_trial","4","definitely_new","","","","","","",""
"html-keyboard-response","88","404888","0.0-15.0-0.23","1914","2","""event"",""trial"",""time""
""fullscreenenter"",""1"",""7365""
","
","
","""event"",""trial"",""time""
""fullscreenenter"",""1"",""7365""
","
","","","","","","null","<div style=""font-size:60px;"">+</div>","null","","fixation","","","","","","","","",""
"memory-trial","89","406868","0.0-15.0-1.23","1914","2","""event"",""trial"",""time""
""fullscreenenter"",""1"",""7365""
","
","
","""event"",""trial"",""time""
""fullscreenenter"",""1"",""7365""
","
","","","","","","976.7999999970198","images/sofa2.png","","","memory_trial","1","definitely_old","","","","","","",""
"html-keyboard-response","90","407368","0.0-15.0-0.24","1914","2","""event"",""trial"",""time""
""fullscreenenter"",""1"",""7365""
","
","
","""event"",""trial"",""time""
""fullscreenenter"",""1"",""7365""
","
","","","","","","null","<div style=""font-size:60px;"">+</div>","null","","fixation","","","","","","","","",""
"memory-trial","91","410268","0.0-15.0-1.24","1914","2","""event"",""trial"",""time""
""fullscreenenter"",""1"",""7365""
","
","
","""event"",""trial"",""time""
""fullscreenenter"",""1"",""7365""
","
","","","","","","1896.2999999970198","images/sheep5.png","","","memory_trial","2","maybe_old","","","","","","",""
"html-keyboard-response","92","410770","0.0-15.0-0.25","1914","2","""event"",""trial"",""time""
""fullscreenenter"",""1"",""7365""
","
","
","""event"",""trial"",""time""
""fullscreenenter"",""1"",""7365""
","
","","","","","","null","<div style=""font-size:60px;"">+</div>","null","","fixation","","","","","","","","",""
"memory-trial","93","412804","0.0-15.0-1.25","1914","2","""event"",""trial"",""time""
""fullscreenenter"",""1"",""7365""
","
","
","""event"",""trial"",""time""
""fullscreenenter"",""1"",""7365""
","
","","","","","","1031.5","images/truck5.png","","","memory_trial","4","definitely_new","","","","","","",""
"html-keyboard-response","94","413305","0.0-15.0-0.26","1914","2","""event"",""trial"",""time""
""fullscreenenter"",""1"",""7365""
","
","
","""event"",""trial"",""time""
""fullscreenenter"",""1"",""7365""
","
","","","","","","null","<div style=""font-size:60px;"">+</div>","null","","fixation","","","","","","","","",""
"memory-trial","95","415571","0.0-15.0-1.26","1914","2","""event"",""trial"",""time""
""fullscreenenter"",""1"",""7365""
","
","
","""event"",""trial"",""time""
""fullscreenenter"",""1"",""7365""
","
","","","","","","1256.199999988079","images/apple5.png","","","memory_trial","4","definitely_new","","","","","","",""
"html-keyboard-response","96","416072","0.0-15.0-0.27","1914","2","""event"",""trial"",""time""
""fullscreenenter"",""1"",""7365""
","
","
","""event"",""trial"",""time""
""fullscreenenter"",""1"",""7365""
","
","","","","","","null","<div style=""font-size:60px;"">+</div>","null","","fixation","","","","","","","","",""
"memory-trial","97","418162","0.0-15.0-1.27","1914","2","""event"",""trial"",""time""
""fullscreenenter"",""1"",""7365""
","
","
","""event"",""trial"",""time""
""fullscreenenter"",""1"",""7365""
","
","","","","","","1089.2000000029802","images/horse5.png","","","memory_trial","4","definitely_new","","","","","","",""
"html-keyboard-response","98","418663","0.0-15.0-0.28","1914","2","""event"",""trial"",""time""
""fullscreenenter"",""1"",""7365""
","
","
","""event"",""trial"",""time""
""fullscreenenter"",""1"",""7365""
","
","","","","","","null","<div style=""font-size:60px;"">+</div>","null","","fixation","","","","","","","","",""
"memory-trial","99","422115","0.0-15.0-1.28","1914","2","""event"",""trial"",""time""
""fullscreenenter"",""1"",""7365""
","
","
","""event"",""trial"",""time""
""fullscreenenter"",""1"",""7365""
","
","","","","","","2449.9000000059605","images/flower1.png","","","memory_trial","3","maybe_new","","","","","","",""
"html-keyboard-response","100","422615","0.0-15.0-0.29","1914","2","""event"",""trial"",""time""
""fullscreenenter"",""1"",""7365""
","
","
","""event"",""trial"",""time""
""fullscreenenter"",""1"",""7365""
","
","","","","","","null","<div style=""font-size:60px;"">+</div>","null","","fixation","","","","","","","","",""
"memory-trial","101","424794","0.0-15.0-1.29","1914","2","""event"",""trial"",""time""
""fullscreenenter"",""1"",""7365""
","
","
","""event"",""trial"",""time""
""fullscreenenter"",""1"",""7365""
","
","","","","","","1177.3999999910593","images/train5.png","","","memory_trial","4","definitely_new","","","","","","",""
"html-keyboard-response","102","425295","0.0-15.0-0.30","1914","2","""event"",""trial"",""time""
""fullscreenenter"",""1"",""7365""
","
","
","""event"",""trial"",""time""
""fullscreenenter"",""1"",""7365""
","
","","","","","","null","<div style=""font-size:60px;"">+</div>","null","","fixation","","","","","","","","",""
"memory-trial","103","427755","0.0-15.0-1.30","1914","2","""event"",""trial"",""time""
""fullscreenenter"",""1"",""7365""
","
","
","""event"",""trial"",""time""
""fullscreenenter"",""1"",""7365""
","
","","","","","","1458.2000000029802","images/plane4.png","","","memory_trial","1","definitely_old","","","","","","",""
"html-keyboard-response","104","428255","0.0-15.0-0.31","1914","2","""event"",""trial"",""time""
""fullscreenenter"",""1"",""7365""
","
","
","""event"",""trial"",""time""
""fullscreenenter"",""1"",""7365""
","
","","","","","","null","<div style=""font-size:60px;"">+</div>","null","","fixation","","","","","","","","",""
"memory-trial","105","430371","0.0-15.0-1.31","1914","2","""event"",""trial"",""time""
""fullscreenenter"",""1"",""7365""
","
","
","""event"",""trial"",""time""
""fullscreenenter"",""1"",""7365""
","
","","","","","","1105.699999988079","images/banana4.png","","","memory_trial","2","maybe_old","","","","","","",""
"html-keyboard-response","106","430873","0.0-15.0-0.32","1914","2","""event"",""trial"",""time""
""fullscreenenter"",""1"",""7365""
","
","
","""event"",""trial"",""time""
""fullscreenenter"",""1"",""7365""
","
","","","","","","null","<div style=""font-size:60px;"">+</div>","null","","fixation","","","","","","","","",""
"memory-trial","107","433171","0.0-15.0-1.32","1914","2","""event"",""trial"",""time""
""fullscreenenter"",""1"",""7365""
","
","
","""event"",""trial"",""time""
""fullscreenenter"",""1"",""7365""
","
","","","","","","1297.2999999970198","images/rodent4.png","","","memory_trial","4","definitely_new","","","","","","",""
"html-keyboard-response","108","433672","0.0-15.0-0.33","1914","2","""event"",""trial"",""time""
""fullscreenenter"",""1"",""7365""
","
","
","""event"",""trial"",""time""
""fullscreenenter"",""1"",""7365""
","
","","","","","","null","<div style=""font-size:60px;"">+</div>","null","","fixation","","","","","","","","",""
"memory-trial","109","435402","0.0-15.0-1.33","1914","2","""event"",""trial"",""time""
""fullscreenenter"",""1"",""7365""
","
","
","""event"",""trial"",""time""
""fullscreenenter"",""1"",""7365""
","
","","","","","","729","images/cow2.png","","","memory_trial","4","definitely_new","","","","","","",""
"html-keyboard-response","110","435904","0.0-15.0-0.34","1914","2","""event"",""trial"",""time""
""fullscreenenter"",""1"",""7365""
","
","
","""event"",""trial"",""time""
""fullscreenenter"",""1"",""7365""
","
","","","","","","null","<div style=""font-size:60px;"">+</div>","null","","fixation","","","","","","","","",""
"memory-trial","111","438136","0.0-15.0-1.34","1914","2","""event"",""trial"",""time""
""fullscreenenter"",""1"",""7365""
","
","
","""event"",""trial"",""time""
""fullscreenenter"",""1"",""7365""
","
","","","","","","1225.6000000089407","images/banana2.png","","","memory_trial","1","definitely_old","","","","","","",""
"html-keyboard-response","112","438638","0.0-15.0-0.35","1914","2","""event"",""trial"",""time""
""fullscreenenter"",""1"",""7365""
","
","
","""event"",""trial"",""time""
""fullscreenenter"",""1"",""7365""
","
","","","","","","null","<div style=""font-size:60px;"">+</div>","null","","fixation","","","","","","","","",""
"memory-trial","113","440899","0.0-15.0-1.35","1914","2","""event"",""trial"",""time""
""fullscreenenter"",""1"",""7365""
","
","
","""event"",""trial"",""time""
""fullscreenenter"",""1"",""7365""
","
","","","","","","1259","images/rodent5.png","","","memory_trial","4","definitely_new","","","","","","",""
"html-keyboard-response","114","441400","0.0-15.0-0.36","1914","2","""event"",""trial"",""time""
""fullscreenenter"",""1"",""7365""
","
","
","""event"",""trial"",""time""
""fullscreenenter"",""1"",""7365""
","
","","","","","","null","<div style=""font-size:60px;"">+</div>","null","","fixation","","","","","","","","",""
"memory-trial","115","443195","0.0-15.0-1.36","1914","2","""event"",""trial"",""time""
""fullscreenenter"",""1"",""7365""
","
","
","""event"",""trial"",""time""
""fullscreenenter"",""1"",""7365""
","
","","","","","","793","images/sheep1.png","","","memory_trial","4","definitely_new","","","","","","",""
"html-keyboard-response","116","443696","0.0-15.0-0.37","1914","2","""event"",""trial"",""time""
""fullscreenenter"",""1"",""7365""
","
","
","""event"",""trial"",""time""
""fullscreenenter"",""1"",""7365""
","
","","","","","","null","<div style=""font-size:60px;"">+</div>","null","","fixation","","","","","","","","",""
"memory-trial","117","445658","0.0-15.0-1.37","1914","2","""event"",""trial"",""time""
""fullscreenenter"",""1"",""7365""
","
","
","""event"",""trial"",""time""
""fullscreenenter"",""1"",""7365""
","
","","","","","","961.3999999910593","images/plane1.png","","","memory_trial","4","definitely_new","","","","","","",""
"html-keyboard-response","118","446159","0.0-15.0-0.38","1914","2","""event"",""trial"",""time""
""fullscreenenter"",""1"",""7365""
","
","
","""event"",""trial"",""time""
""fullscreenenter"",""1"",""7365""
","
","","","","","","null","<div style=""font-size:60px;"">+</div>","null","","fixation","","","","","","","","",""
"memory-trial","119","448396","0.0-15.0-1.38","1914","2","""event"",""trial"",""time""
""fullscreenenter"",""1"",""7365""
","
","
","""event"",""trial"",""time""
""fullscreenenter"",""1"",""7365""
","
","","","","","","1235.300000011921","images/chair4.png","","","memory_trial","4","definitely_new","","","","","","",""
"html-keyboard-response","120","448898","0.0-15.0-0.39","1914","2","""event"",""trial"",""time""
""fullscreenenter"",""1"",""7365""
","
","
","""event"",""trial"",""time""
""fullscreenenter"",""1"",""7365""
","
","","","","","","null","<div style=""font-size:60px;"">+</div>","null","","fixation","","","","","","","","",""
"memory-trial","121","450539","0.0-15.0-1.39","1914","2","""event"",""trial"",""time""
""fullscreenenter"",""1"",""7365""
","
","
","""event"",""trial"",""time""
""fullscreenenter"",""1"",""7365""
","
","","","","","","638.7000000029802","images/rodent2.png","","","memory_trial","4","definitely_new","","","","","","",""
"html-keyboard-response","122","451040","0.0-15.0-0.40","1914","2","""event"",""trial"",""time""
""fullscreenenter"",""1"",""7365""
","
","
","""event"",""trial"",""time""
""fullscreenenter"",""1"",""7365""
","
","","","","","","null","<div style=""font-size:60px;"">+</div>","null","","fixation","","","","","","","","",""
"memory-trial","123","452890","0.0-15.0-1.40","1914","2","""event"",""trial"",""time""
""fullscreenenter"",""1"",""7365""
","
","
","""event"",""trial"",""time""
""fullscreenenter"",""1"",""7365""
","
","","","","","","849.1999999880791","images/table1.png","","","memory_trial","4","definitely_new","","","","","","",""
"html-keyboard-response","124","453391","0.0-15.0-0.41","1914","2","""event"",""trial"",""time""
""fullscreenenter"",""1"",""7365""
","
","
","""event"",""trial"",""time""
""fullscreenenter"",""1"",""7365""
","
","","","","","","null","<div style=""font-size:60px;"">+</div>","null","","fixation","","","","","","","","",""
"memory-trial","125","455068","0.0-15.0-1.41","1914","2","""event"",""trial"",""time""
""fullscreenenter"",""1"",""7365""
","
","
","""event"",""trial"",""time""
""fullscreenenter"",""1"",""7365""
","
","","","","","","674.4000000059605","images/sheep4.png","","","memory_trial","4","definitely_new","","","","","","",""
"html-keyboard-response","126","455569","0.0-15.0-0.42","1914","2","""event"",""trial"",""time""
""fullscreenenter"",""1"",""7365""
","
","
","""event"",""trial"",""time""
""fullscreenenter"",""1"",""7365""
","
","","","","","","null","<div style=""font-size:60px;"">+</div>","null","","fixation","","","","","","","","",""
"memory-trial","127","457170","0.0-15.0-1.42","1914","2","""event"",""trial"",""time""
""fullscreenenter"",""1"",""7365""
","
","
","""event"",""trial"",""time""
""fullscreenenter"",""1"",""7365""
","
","","","","","","600.2999999970198","images/cow4.png","","","memory_trial","4","definitely_new","","","","","","",""
"html-keyboard-response","128","457671","0.0-15.0-0.43","1914","2","""event"",""trial"",""time""
""fullscreenenter"",""1"",""7365""
","
","
","""event"",""trial"",""time""
""fullscreenenter"",""1"",""7365""
","
","","","","","","null","<div style=""font-size:60px;"">+</div>","null","","fixation","","","","","","","","",""
"memory-trial","129","459659","0.0-15.0-1.43","1914","2","""event"",""trial"",""time""
""fullscreenenter"",""1"",""7365""
","
","
","""event"",""trial"",""time""
""fullscreenenter"",""1"",""7365""
","
","","","","","","986.1000000089407","images/straw5.png","","","memory_trial","1","definitely_old","","","","","","",""
"html-keyboard-response","130","460159","0.0-15.0-0.44","1914","2","""event"",""trial"",""time""
""fullscreenenter"",""1"",""7365""
","
","
","""event"",""trial"",""time""
""fullscreenenter"",""1"",""7365""
","
","","","","","","null","<div style=""font-size:60px;"">+</div>","null","","fixation","","","","","","","","",""
"memory-trial","131","462059","0.0-15.0-1.44","1914","2","""event"",""trial"",""time""
""fullscreenenter"",""1"",""7365""
","
","
","""event"",""trial"",""time""
""fullscreenenter"",""1"",""7365""
","
","","","","","","897.9000000059605","images/horse4.png","","","memory_trial","4","definitely_new","","","","","","",""
"html-keyboard-response","132","462560","0.0-15.0-0.45","1914","2","""event"",""trial"",""time""
""fullscreenenter"",""1"",""7365""
","
","
","""event"",""trial"",""time""
""fullscreenenter"",""1"",""7365""
","
","","","","","","null","<div style=""font-size:60px;"">+</div>","null","","fixation","","","","","","","","",""
"memory-trial","133","464507","0.0-15.0-1.45","1914","2","""event"",""trial"",""time""
""fullscreenenter"",""1"",""7365""
","
","
","""event"",""trial"",""time""
""fullscreenenter"",""1"",""7365""
","
","","","","","","945.0999999940395","images/feline5.png","","","memory_trial","4","definitely_new","","","","","","",""
"html-keyboard-response","134","465016","0.0-15.0-0.46","1914","2","""event"",""trial"",""time""
""fullscreenenter"",""1"",""7365""
","
","
","""event"",""trial"",""time""
""fullscreenenter"",""1"",""7365""
","
","","","","","","null","<div style=""font-size:60px;"">+</div>","null","","fixation","","","","","","","","",""
"memory-trial","135","468403","0.0-15.0-1.46","1914","2","""event"",""trial"",""time""
""fullscreenenter"",""1"",""7365""
","
","
","""event"",""trial"",""time""
""fullscreenenter"",""1"",""7365""
","
","","","","","","2384.6000000089407","images/table5.png","","","memory_trial","2","maybe_old","","","","","","",""
"html-button-response","136","472129","0.0-15.0-2.46-0.46","1914","2","""event"",""trial"",""time""
""fullscreenenter"",""1"",""7365""
","
","
","""event"",""trial"",""time""
""fullscreenenter"",""1"",""7365""
","
","","","","","","3725.5999999940395","<p> Take a break! </p><p> Click the button to continue. </p>","0","","break","","","","","","","","",""
"html-keyboard-response","137","472630","0.0-15.0-0.47","1914","2","""event"",""trial"",""time""
""fullscreenenter"",""1"",""7365""
","
","
","""event"",""trial"",""time""
""fullscreenenter"",""1"",""7365""
","
","","","","","","null","<div style=""font-size:60px;"">+</div>","null","","fixation","","","","","","","","",""
"memory-trial","138","475765","0.0-15.0-1.47","1914","2","""event"",""trial"",""time""
""fullscreenenter"",""1"",""7365""
","
","
","""event"",""trial"",""time""
""fullscreenenter"",""1"",""7365""
","
","","","","","","2132.0999999940395","images/tree1.png","","","memory_trial","2","maybe_old","","","","","","",""
"html-keyboard-response","139","476266","0.0-15.0-0.48","1914","2","""event"",""trial"",""time""
""fullscreenenter"",""1"",""7365""
","
","
","""event"",""trial"",""time""
""fullscreenenter"",""1"",""7365""
","
","","","","","","null","<div style=""font-size:60px;"">+</div>","null","","fixation","","","","","","","","",""
"memory-trial","140","478619","0.0-15.0-1.48","1914","2","""event"",""trial"",""time""
""fullscreenenter"",""1"",""7365""
","
","
","""event"",""trial"",""time""
""fullscreenenter"",""1"",""7365""
","
","","","","","","1351.2000000029802","images/bush1.png","","","memory_trial","4","definitely_new","","","","","","",""
"html-keyboard-response","141","479133","0.0-15.0-0.49","1914","2","""event"",""trial"",""time""
""fullscreenenter"",""1"",""7365""
","
","
","""event"",""trial"",""time""
""fullscreenenter"",""1"",""7365""
","
","","","","","","null","<div style=""font-size:60px;"">+</div>","null","","fixation","","","","","","","","",""
"memory-trial","142","481955","0.0-15.0-1.49","1914","2","""event"",""trial"",""time""
""fullscreenenter"",""1"",""7365""
","
","
","""event"",""trial"",""time""
""fullscreenenter"",""1"",""7365""
","
","","","","","","1820.5","images/bed1.png","","","memory_trial","4","definitely_new","","","","","","",""
"html-keyboard-response","143","482456","0.0-15.0-0.50","1914","2","""event"",""trial"",""time""
""fullscreenenter"",""1"",""7365""
","
","
","""event"",""trial"",""time""
""fullscreenenter"",""1"",""7365""
","
","","","","","","null","<div style=""font-size:60px;"">+</div>","null","","fixation","","","","","","","","",""
"memory-trial","144","484350","0.0-15.0-1.50","1914","2","""event"",""trial"",""time""
""fullscreenenter"",""1"",""7365""
","
","
","""event"",""trial"",""time""
""fullscreenenter"",""1"",""7365""
","
","","","","","","881.1999999880791","images/straw4.png","","","memory_trial","1","definitely_old","","","","","","",""
"html-keyboard-response","145","484851","0.0-15.0-0.51","1914","2","""event"",""trial"",""time""
""fullscreenenter"",""1"",""7365""
","
","
","""event"",""trial"",""time""
""fullscreenenter"",""1"",""7365""
","
","","","","","","null","<div style=""font-size:60px;"">+</div>","null","","fixation","","","","","","","","",""
"memory-trial","146","488003","0.0-15.0-1.51","1914","2","""event"",""trial"",""time""
""fullscreenenter"",""1"",""7365""
","
","
","""event"",""trial"",""time""
""fullscreenenter"",""1"",""7365""
","
","","","","","","2150.5999999940395","images/feline3.png","","","memory_trial","1","definitely_old","","","","","","",""
"html-keyboard-response","147","488504","0.0-15.0-0.52","1914","2","""event"",""trial"",""time""
""fullscreenenter"",""1"",""7365""
","
","
","""event"",""trial"",""time""
""fullscreenenter"",""1"",""7365""
","
","","","","","","null","<div style=""font-size:60px;"">+</div>","null","","fixation","","","","","","","","",""
"memory-trial","148","490763","0.0-15.0-1.52","1914","2","""event"",""trial"",""time""
""fullscreenenter"",""1"",""7365""
","
","
","""event"",""trial"",""time""
""fullscreenenter"",""1"",""7365""
","
","","","","","","1257.199999988079","images/orange2.png","","","memory_trial","2","maybe_old","","","","","","",""
"html-keyboard-response","149","491264","0.0-15.0-0.53","1914","2","""event"",""trial"",""time""
""fullscreenenter"",""1"",""7365""
","
","
","""event"",""trial"",""time""
""fullscreenenter"",""1"",""7365""
","
","","","","","","null","<div style=""font-size:60px;"">+</div>","null","","fixation","","","","","","","","",""
"memory-trial","150","493275","0.0-15.0-1.53","1914","2","""event"",""trial"",""time""
""fullscreenenter"",""1"",""7365""
","
","
","""event"",""trial"",""time""
""fullscreenenter"",""1"",""7365""
","
","","","","","","1009.2999999970198","images/rabbit4.png","","","memory_trial","3","maybe_new","","","","","","",""
"html-keyboard-response","151","493776","0.0-15.0-0.54","1914","2","""event"",""trial"",""time""
""fullscreenenter"",""1"",""7365""
","
","
","""event"",""trial"",""time""
""fullscreenenter"",""1"",""7365""
","
","","","","","","null","<div style=""font-size:60px;"">+</div>","null","","fixation","","","","","","","","",""
"memory-trial","152","495763","0.0-15.0-1.54","1914","2","""event"",""trial"",""time""
""fullscreenenter"",""1"",""7365""
","
","
","""event"",""trial"",""time""
""fullscreenenter"",""1"",""7365""
","
","","","","","","985.1000000089407","images/bed5.png","","","memory_trial","1","definitely_old","","","","","","",""
"html-keyboard-response","153","496264","0.0-15.0-0.55","1914","2","""event"",""trial"",""time""
""fullscreenenter"",""1"",""7365""
","
","
","""event"",""trial"",""time""
""fullscreenenter"",""1"",""7365""
","
","","","","","","null","<div style=""font-size:60px;"">+</div>","null","","fixation","","","","","","","","",""
"memory-trial","154","498371","0.0-15.0-1.55","1914","2","""event"",""trial"",""time""
""fullscreenenter"",""1"",""7365""
","
","
","""event"",""trial"",""time""
""fullscreenenter"",""1"",""7365""
","
","","","","","","1105.0999999940395","images/orange4.png","","","memory_trial","1","definitely_old","","","","","","",""
"html-keyboard-response","155","498872","0.0-15.0-0.56","1914","2","""event"",""trial"",""time""
""fullscreenenter"",""1"",""7365""
","
","
","""event"",""trial"",""time""
""fullscreenenter"",""1"",""7365""
","
","","","","","","null","<div style=""font-size:60px;"">+</div>","null","","fixation","","","","","","","","",""
"memory-trial","156","500787","0.0-15.0-1.56","1914","2","""event"",""trial"",""time""
""fullscreenenter"",""1"",""7365""
","
","
","""event"",""trial"",""time""
""fullscreenenter"",""1"",""7365""
","
","","","","","","913.2000000029802","images/apple2.png","","","memory_trial","4","definitely_new","","","","","","",""
"html-keyboard-response","157","501288","0.0-15.0-0.57","1914","2","""event"",""trial"",""time""
""fullscreenenter"",""1"",""7365""
","
","
","""event"",""trial"",""time""
""fullscreenenter"",""1"",""7365""
","
","","","","","","null","<div style=""font-size:60px;"">+</div>","null","","fixation","","","","","","","","",""
"memory-trial","158","504491","0.0-15.0-1.57","1914","2","""event"",""trial"",""time""
""fullscreenenter"",""1"",""7365""
","
","
","""event"",""trial"",""time""
""fullscreenenter"",""1"",""7365""
","
","","","","","","2201.3999999910593","images/bush4.png","","","memory_trial","1","definitely_old","","","","","","",""
"html-keyboard-response","159","504992","0.0-15.0-0.58","1914","2","""event"",""trial"",""time""
""fullscreenenter"",""1"",""7365""
","
","
","""event"",""trial"",""time""
""fullscreenenter"",""1"",""7365""
","
","","","","","","null","<div style=""font-size:60px;"">+</div>","null","","fixation","","","","","","","","",""
"memory-trial","160","506746","0.0-15.0-1.58","1914","2","""event"",""trial"",""time""
""fullscreenenter"",""1"",""7365""
","
","
","""event"",""trial"",""time""
""fullscreenenter"",""1"",""7365""
","
","","","","","","753.0999999940395","images/goat1.png","","","memory_trial","4","definitely_new","","","","","","",""
"html-keyboard-response","161","507248","0.0-15.0-0.59","1914","2","""event"",""trial"",""time""
""fullscreenenter"",""1"",""7365""
","
","
","""event"",""trial"",""time""
""fullscreenenter"",""1"",""7365""
","
","","","","","","null","<div style=""font-size:60px;"">+</div>","null","","fixation","","","","","","","","",""
"memory-trial","162","509555","0.0-15.0-1.59","1914","2","""event"",""trial"",""time""
""fullscreenenter"",""1"",""7365""
","
","
","""event"",""trial"",""time""
""fullscreenenter"",""1"",""7365""
","
","","","","","","1305.2999999970198","images/goat3.png","","","memory_trial","4","definitely_new","","","","","","",""
"html-keyboard-response","163","510056","0.0-15.0-0.60","1914","2","""event"",""trial"",""time""
""fullscreenenter"",""1"",""7365""
","
","
","""event"",""trial"",""time""
""fullscreenenter"",""1"",""7365""
","
","","","","","","null","<div style=""font-size:60px;"">+</div>","null","","fixation","","","","","","","","",""
"memory-trial","164","511992","0.0-15.0-1.60","1914","2","""event"",""trial"",""time""
""fullscreenenter"",""1"",""7365""
","
","
","""event"",""trial"",""time""
""fullscreenenter"",""1"",""7365""
","
","","","","","","929.5","images/sofa3.png","","","memory_trial","4","definitely_new","","","","","","",""
"html-keyboard-response","165","512494","0.0-15.0-0.61","1914","2","""event"",""trial"",""time""
""fullscreenenter"",""1"",""7365""
","
","
","""event"",""trial"",""time""
""fullscreenenter"",""1"",""7365""
","
","","","","","","null","<div style=""font-size:60px;"">+</div>","null","","fixation","","","","","","","","",""
"memory-trial","166","514411","0.0-15.0-1.61","1914","2","""event"",""trial"",""time""
""fullscreenenter"",""1"",""7365""
","
","
","""event"",""trial"",""time""
""fullscreenenter"",""1"",""7365""
","
","","","","","","915.5","images/tree4.png","","","memory_trial","4","definitely_new","","","","","","",""
"html-keyboard-response","167","514912","0.0-15.0-0.62","1914","2","""event"",""trial"",""time""
""fullscreenenter"",""1"",""7365""
","
","
","""event"",""trial"",""time""
""fullscreenenter"",""1"",""7365""
","
","","","","","","null","<div style=""font-size:60px;"">+</div>","null","","fixation","","","","","","","","",""
"memory-trial","168","516946","0.0-15.0-1.62","1914","2","""event"",""trial"",""time""
""fullscreenenter"",""1"",""7365""
","
","
","""event"",""trial"",""time""
""fullscreenenter"",""1"",""7365""
","
","","","","","","1033","images/banana5.png","","","memory_trial","1","definitely_old","","","","","","",""
"html-keyboard-response","169","517448","0.0-15.0-0.63","1914","2","""event"",""trial"",""time""
""fullscreenenter"",""1"",""7365""
","
","
","""event"",""trial"",""time""
""fullscreenenter"",""1"",""7365""
","
","","","","","","null","<div style=""font-size:60px;"">+</div>","null","","fixation","","","","","","","","",""
"memory-trial","170","519251","0.0-15.0-1.63","1914","2","""event"",""trial"",""time""
""fullscreenenter"",""1"",""7365""
","
","
","""event"",""trial"",""time""
""fullscreenenter"",""1"",""7365""
","
","","","","","","801.4000000059605","images/banana3.png","","","memory_trial","1","definitely_old","","","","","","",""
"html-keyboard-response","171","519751","0.0-15.0-0.64","1914","2","""event"",""trial"",""time""
""fullscreenenter"",""1"",""7365""
","
","
","""event"",""trial"",""time""
""fullscreenenter"",""1"",""7365""
","
","","","","","","null","<div style=""font-size:60px;"">+</div>","null","","fixation","","","","","","","","",""
"memory-trial","172","522795","0.0-15.0-1.64","1914","2","""event"",""trial"",""time""
""fullscreenenter"",""1"",""7365""
","
","
","""event"",""trial"",""time""
""fullscreenenter"",""1"",""7365""
","
","","","","","","2041.7000000029802","images/flower5.png","","","memory_trial","3","maybe_new","","","","","","",""
"html-keyboard-response","173","523297","0.0-15.0-0.65","1914","2","""event"",""trial"",""time""
""fullscreenenter"",""1"",""7365""
","
","
","""event"",""trial"",""time""
""fullscreenenter"",""1"",""7365""
","
","","","","","","null","<div style=""font-size:60px;"">+</div>","null","","fixation","","","","","","","","",""
"memory-trial","174","525922","0.0-15.0-1.65","1914","2","""event"",""trial"",""time""
""fullscreenenter"",""1"",""7365""
","
","
","""event"",""trial"",""time""
""fullscreenenter"",""1"",""7365""
","
","","","","","","1624.5999999940395","images/straw3.png","","","memory_trial","1","definitely_old","","","","","","",""
"html-keyboard-response","175","526424","0.0-15.0-0.66","1914","2","""event"",""trial"",""time""
""fullscreenenter"",""1"",""7365""
","
","
","""event"",""trial"",""time""
""fullscreenenter"",""1"",""7365""
","
","","","","","","null","<div style=""font-size:60px;"">+</div>","null","","fixation","","","","","","","","",""
"memory-trial","176","528379","0.0-15.0-1.66","1914","2","""event"",""trial"",""time""
""fullscreenenter"",""1"",""7365""
","
","
","""event"",""trial"",""time""
""fullscreenenter"",""1"",""7365""
","
","","","","","","953.4000000059605","images/bush3.png","","","memory_trial","4","definitely_new","","","","","","",""
"html-keyboard-response","177","528880","0.0-15.0-0.67","1914","2","""event"",""trial"",""time""
""fullscreenenter"",""1"",""7365""
","
","
","""event"",""trial"",""time""
""fullscreenenter"",""1"",""7365""
","
","","","","","","null","<div style=""font-size:60px;"">+</div>","null","","fixation","","","","","","","","",""
"memory-trial","178","530755","0.0-15.0-1.67","1914","2","""event"",""trial"",""time""
""fullscreenenter"",""1"",""7365""
","
","
","""event"",""trial"",""time""
""fullscreenenter"",""1"",""7365""
","
","","","","","","873.7999999970198","images/rabbit1.png","","","memory_trial","1","definitely_old","","","","","","",""
"html-keyboard-response","179","531256","0.0-15.0-0.68","1914","2","""event"",""trial"",""time""
""fullscreenenter"",""1"",""7365""
","
","
","""event"",""trial"",""time""
""fullscreenenter"",""1"",""7365""
","
","","","","","","null","<div style=""font-size:60px;"">+</div>","null","","fixation","","","","","","","","",""
"memory-trial","180","533427","0.0-15.0-1.68","1914","2","""event"",""trial"",""time""
""fullscreenenter"",""1"",""7365""
","
","
","""event"",""trial"",""time""
""fullscreenenter"",""1"",""7365""
","
","","","","","","1169.4000000059605","images/train4.png","","","memory_trial","1","definitely_old","","","","","","",""
"html-keyboard-response","181","533929","0.0-15.0-0.69","1914","2","""event"",""trial"",""time""
""fullscreenenter"",""1"",""7365""
","
","
","""event"",""trial"",""time""
""fullscreenenter"",""1"",""7365""
","
","","","","","","null","<div style=""font-size:60px;"">+</div>","null","","fixation","","","","","","","","",""
"memory-trial","182","537084","0.0-15.0-1.69","1914","2","""event"",""trial"",""time""
""fullscreenenter"",""1"",""7365""
","
","
","""event"",""trial"",""time""
""fullscreenenter"",""1"",""7365""
","
","","","","","","2152.6000000089407","images/truck3.png","","","memory_trial","2","maybe_old","","","","","","",""
"html-keyboard-response","183","537592","0.0-15.0-0.70","1914","2","""event"",""trial"",""time""
""fullscreenenter"",""1"",""7365""
","
","
","""event"",""trial"",""time""
""fullscreenenter"",""1"",""7365""
","
","","","","","","null","<div style=""font-size:60px;"">+</div>","null","","fixation","","","","","","","","",""
"memory-trial","184","539627","0.0-15.0-1.70","1914","2","""event"",""trial"",""time""
""fullscreenenter"",""1"",""7365""
","
","
","""event"",""trial"",""time""
""fullscreenenter"",""1"",""7365""
","
","","","","","","1033.7000000029802","images/table2.png","","","memory_trial","4","definitely_new","","","","","","",""
"html-keyboard-response","185","540128","0.0-15.0-0.71","1914","2","""event"",""trial"",""time""
""fullscreenenter"",""1"",""7365""
","
","
","""event"",""trial"",""time""
""fullscreenenter"",""1"",""7365""
","
","","","","","","null","<div style=""font-size:60px;"">+</div>","null","","fixation","","","","","","","","",""
"memory-trial","186","543482","0.0-15.0-1.71","1914","2","""event"",""trial"",""time""
""fullscreenenter"",""1"",""7365""
","
","
","""event"",""trial"",""time""
""fullscreenenter"",""1"",""7365""
","
","","","","","","2353.5","images/dog4.png","","","memory_trial","3","maybe_new","","","","","","",""
"html-keyboard-response","187","543983","0.0-15.0-0.72","1914","2","""event"",""trial"",""time""
""fullscreenenter"",""1"",""7365""
","
","
","""event"",""trial"",""time""
""fullscreenenter"",""1"",""7365""
","
","","","","","","null","<div style=""font-size:60px;"">+</div>","null","","fixation","","","","","","","","",""
"memory-trial","188","547041","0.0-15.0-1.72","1914","2","""event"",""trial"",""time""
""fullscreenenter"",""1"",""7365""
","
","
","""event"",""trial"",""time""
""fullscreenenter"",""1"",""7365""
","
","","","","","","2041.7999999970198","images/goat5.png","","","memory_trial","1","definitely_old","","","","","","",""
"html-keyboard-response","189","547542","0.0-15.0-0.73","1914","2","""event"",""trial"",""time""
""fullscreenenter"",""1"",""7365""
","
","
","""event"",""trial"",""time""
""fullscreenenter"",""1"",""7365""
","
","","","","","","null","<div style=""font-size:60px;"">+</div>","null","","fixation","","","","","","","","",""
"memory-trial","190","550252","0.0-15.0-1.73","1914","2","""event"",""trial"",""time""
""fullscreenenter"",""1"",""7365""
","
","
","""event"",""trial"",""time""
""fullscreenenter"",""1"",""7365""
","
","","","","","","1708.300000011921","images/boat3.png","","","memory_trial","3","maybe_new","","","","","","",""
"html-keyboard-response","191","550754","0.0-15.0-0.74","1914","2","""event"",""trial"",""time""
""fullscreenenter"",""1"",""7365""
","
","
","""event"",""trial"",""time""
""fullscreenenter"",""1"",""7365""
","
","","","","","","null","<div style=""font-size:60px;"">+</div>","null","","fixation","","","","","","","","",""
"memory-trial","192","552914","0.0-15.0-1.74","1914","2","""event"",""trial"",""time""
""fullscreenenter"",""1"",""7365""
","
","
","""event"",""trial"",""time""
""fullscreenenter"",""1"",""7365""
","
","","","","","","1159.9000000059605","images/apple1.png","","","memory_trial","4","definitely_new","","","","","","",""
"html-keyboard-response","193","553415","0.0-15.0-0.75","1914","2","""event"",""trial"",""time""
""fullscreenenter"",""1"",""7365""
","
","
","""event"",""trial"",""time""
""fullscreenenter"",""1"",""7365""
","
","","","","","","null","<div style=""font-size:60px;"">+</div>","null","","fixation","","","","","","","","",""
"memory-trial","194","555499","0.0-15.0-1.75","1914","2","""event"",""trial"",""time""
""fullscreenenter"",""1"",""7365""
","
","
","""event"",""trial"",""time""
""fullscreenenter"",""1"",""7365""
","
","","","","","","1082.2999999970198","images/orange1.png","","","memory_trial","1","definitely_old","","","","","","",""
"html-keyboard-response","195","556000","0.0-15.0-0.76","1914","2","""event"",""trial"",""time""
""fullscreenenter"",""1"",""7365""
","
","
","""event"",""trial"",""time""
""fullscreenenter"",""1"",""7365""
","
","","","","","","null","<div style=""font-size:60px;"">+</div>","null","","fixation","","","","","","","","",""
"memory-trial","196","559971","0.0-15.0-1.76","1914","2","""event"",""trial"",""time""
""fullscreenenter"",""1"",""7365""
","
","
","""event"",""trial"",""time""
""fullscreenenter"",""1"",""7365""
","
","","","","","","2969.2999999970198","images/banana1.png","","","memory_trial","2","maybe_old","","","","","","",""
"html-keyboard-response","197","560473","0.0-15.0-0.77","1914","2","""event"",""trial"",""time""
""fullscreenenter"",""1"",""7365""
","
","
","""event"",""trial"",""time""
""fullscreenenter"",""1"",""7365""
","
","","","","","","null","<div style=""font-size:60px;"">+</div>","null","","fixation","","","","","","","","",""
"memory-trial","198","562611","0.0-15.0-1.77","1914","2","""event"",""trial"",""time""
""fullscreenenter"",""1"",""7365""
","
","
","""event"",""trial"",""time""
""fullscreenenter"",""1"",""7365""
","
","","","","","","1135.7000000029802","images/feline2.png","","","memory_trial","4","definitely_new","","","","","","",""
"html-keyboard-response","199","563112","0.0-15.0-0.78","1914","2","""event"",""trial"",""time""
""fullscreenenter"",""1"",""7365""
","
","
","""event"",""trial"",""time""
""fullscreenenter"",""1"",""7365""
","
","","","","","","null","<div style=""font-size:60px;"">+</div>","null","","fixation","","","","","","","","",""
"memory-trial","200","564900","0.0-15.0-1.78","1914","2","""event"",""trial"",""time""
""fullscreenenter"",""1"",""7365""
","
","
","""event"",""trial"",""time""
""fullscreenenter"",""1"",""7365""
","
","","","","","","785.4000000059605","images/sheep3.png","","","memory_trial","4","definitely_new","","","","","","",""
"html-keyboard-response","201","565400","0.0-15.0-0.79","1914","2","""event"",""trial"",""time""
""fullscreenenter"",""1"",""7365""
","
","
","""event"",""trial"",""time""
""fullscreenenter"",""1"",""7365""
","
","","","","","","null","<div style=""font-size:60px;"">+</div>","null","","fixation","","","","","","","","",""
"memory-trial","202","567108","0.0-15.0-1.79","1914","2","""event"",""trial"",""time""
""fullscreenenter"",""1"",""7365""
","
","
","""event"",""trial"",""time""
""fullscreenenter"",""1"",""7365""
","
","","","","","","705","images/horse2.png","","","memory_trial","4","definitely_new","","","","","","",""
"html-keyboard-response","203","567609","0.0-15.0-0.80","1914","2","""event"",""trial"",""time""
""fullscreenenter"",""1"",""7365""
","
","
","""event"",""trial"",""time""
""fullscreenenter"",""1"",""7365""
","
","","","","","","null","<div style=""font-size:60px;"">+</div>","null","","fixation","","","","","","","","",""
"memory-trial","204","570570","0.0-15.0-1.80","1914","2","""event"",""trial"",""time""
""fullscreenenter"",""1"",""7365""
","
","
","""event"",""trial"",""time""
""fullscreenenter"",""1"",""7365""
","
","","","","","","1960.199999988079","images/dog2.png","","","memory_trial","1","definitely_old","","","","","","",""
"html-keyboard-response","205","571071","0.0-15.0-0.81","1914","2","""event"",""trial"",""time""
""fullscreenenter"",""1"",""7365""
","
","
","""event"",""trial"",""time""
""fullscreenenter"",""1"",""7365""
","
","","","","","","null","<div style=""font-size:60px;"">+</div>","null","","fixation","","","","","","","","",""
"memory-trial","206","573395","0.0-15.0-1.81","1914","2","""event"",""trial"",""time""
""fullscreenenter"",""1"",""7365""
","
","
","""event"",""trial"",""time""
""fullscreenenter"",""1"",""7365""
","
","","","","","","1322.1000000089407","images/horse1.png","","","memory_trial","4","definitely_new","","","","","","",""
"html-keyboard-response","207","573896","0.0-15.0-0.82","1914","2","""event"",""trial"",""time""
""fullscreenenter"",""1"",""7365""
","
","
","""event"",""trial"",""time""
""fullscreenenter"",""1"",""7365""
","
","","","","","","null","<div style=""font-size:60px;"">+</div>","null","","fixation","","","","","","","","",""
"memory-trial","208","576379","0.0-15.0-1.82","1914","2","""event"",""trial"",""time""
""fullscreenenter"",""1"",""7365""
","
","
","""event"",""trial"",""time""
""fullscreenenter"",""1"",""7365""
","
","","","","","","1480.7999999970198","images/plane2.png","","","memory_trial","2","maybe_old","","","","","","",""
"html-keyboard-response","209","576880","0.0-15.0-0.83","1914","2","""event"",""trial"",""time""
""fullscreenenter"",""1"",""7365""
","
","
","""event"",""trial"",""time""
""fullscreenenter"",""1"",""7365""
","
","","","","","","null","<div style=""font-size:60px;"">+</div>","null","","fixation","","","","","","","","",""
"memory-trial","210","578930","0.0-15.0-1.83","1914","2","""event"",""trial"",""time""
""fullscreenenter"",""1"",""7365""
","
","
","""event"",""trial"",""time""
""fullscreenenter"",""1"",""7365""
","
","","","","","","1049.2000000029802","images/cactus2.png","","","memory_trial","1","definitely_old","","","","","","",""
"html-keyboard-response","211","579432","0.0-15.0-0.84","1914","2","""event"",""trial"",""time""
""fullscreenenter"",""1"",""7365""
","
","
","""event"",""trial"",""time""
""fullscreenenter"",""1"",""7365""
","
","","","","","","null","<div style=""font-size:60px;"">+</div>","null","","fixation","","","","","","","","",""
"memory-trial","212","581706","0.0-15.0-1.84","1914","2","""event"",""trial"",""time""
""fullscreenenter"",""1"",""7365""
","
","
","""event"",""trial"",""time""
""fullscreenenter"",""1"",""7365""
","
","","","","","","1272.4000000059605","images/plane3.png","","","memory_trial","4","definitely_new","","","","","","",""
"html-keyboard-response","213","582207","0.0-15.0-0.85","1914","2","""event"",""trial"",""time""
""fullscreenenter"",""1"",""7365""
","
","
","""event"",""trial"",""time""
""fullscreenenter"",""1"",""7365""
","
","","","","","","null","<div style=""font-size:60px;"">+</div>","null","","fixation","","","","","","","","",""
"memory-trial","214","585018","0.0-15.0-1.85","1914","2","""event"",""trial"",""time""
""fullscreenenter"",""1"",""7365""
","
","
","""event"",""trial"",""time""
""fullscreenenter"",""1"",""7365""
","
","","","","","","1810.5","images/chair3.png","","","memory_trial","4","definitely_new","","","","","","",""
"html-keyboard-response","215","585519","0.0-15.0-0.86","1914","2","""event"",""trial"",""time""
""fullscreenenter"",""1"",""7365""
","
","
","""event"",""trial"",""time""
""fullscreenenter"",""1"",""7365""
","
","","","","","","null","<div style=""font-size:60px;"">+</div>","null","","fixation","","","","","","","","",""
"memory-trial","216","587226","0.0-15.0-1.86","1914","2","""event"",""trial"",""time""
""fullscreenenter"",""1"",""7365""
","
","
","""event"",""trial"",""time""
""fullscreenenter"",""1"",""7365""
","
","","","","","","705.5999999940395","images/apple4.png","","","memory_trial","4","definitely_new","","","","","","",""
"html-keyboard-response","217","587728","0.0-15.0-0.87","1914","2","""event"",""trial"",""time""
""fullscreenenter"",""1"",""7365""
","
","
","""event"",""trial"",""time""
""fullscreenenter"",""1"",""7365""
","
","","","","","","null","<div style=""font-size:60px;"">+</div>","null","","fixation","","","","","","","","",""
"memory-trial","218","589907","0.0-15.0-1.87","1914","2","""event"",""trial"",""time""
""fullscreenenter"",""1"",""7365""
","
","
","""event"",""trial"",""time""
""fullscreenenter"",""1"",""7365""
","
","","","","","","1177","images/sofa5.png","","","memory_trial","1","definitely_old","","","","","","",""
"html-keyboard-response","219","590408","0.0-15.0-0.88","1914","2","""event"",""trial"",""time""
""fullscreenenter"",""1"",""7365""
","
","
","""event"",""trial"",""time""
""fullscreenenter"",""1"",""7365""
","
","","","","","","null","<div style=""font-size:60px;"">+</div>","null","","fixation","","","","","","","","",""
"memory-trial","220","592939","0.0-15.0-1.88","1914","2","""event"",""trial"",""time""
""fullscreenenter"",""1"",""7365""
","
","
","""event"",""trial"",""time""
""fullscreenenter"",""1"",""7365""
","
","","","","","","1528.9000000059605","images/boat2.png","","","memory_trial","4","definitely_new","","","","","","",""
"html-keyboard-response","221","593440","0.0-15.0-0.89","1914","2","""event"",""trial"",""time""
""fullscreenenter"",""1"",""7365""
","
","
","""event"",""trial"",""time""
""fullscreenenter"",""1"",""7365""
","
","","","","","","null","<div style=""font-size:60px;"">+</div>","null","","fixation","","","","","","","","",""
"memory-trial","222","595291","0.0-15.0-1.89","1914","2","""event"",""trial"",""time""
""fullscreenenter"",""1"",""7365""
","
","
","""event"",""trial"",""time""
""fullscreenenter"",""1"",""7365""
","
","","","","","","849.3999999910593","images/bed3.png","","","memory_trial","4","definitely_new","","","","","","",""
"html-keyboard-response","223","595792","0.0-15.0-0.90","1914","2","""event"",""trial"",""time""
""fullscreenenter"",""1"",""7365""
","
","
","""event"",""trial"",""time""
""fullscreenenter"",""1"",""7365""
","
","","","","","","null","<div style=""font-size:60px;"">+</div>","null","","fixation","","","","","","","","",""
"memory-trial","224","597819","0.0-15.0-1.90","1914","2","""event"",""trial"",""time""
""fullscreenenter"",""1"",""7365""
","
","
","""event"",""trial"",""time""
""fullscreenenter"",""1"",""7365""
","
","","","","","","1024.9000000059605","images/table4.png","","","memory_trial","1","definitely_old","","","","","","",""
"html-keyboard-response","225","598320","0.0-15.0-0.91","1914","2","""event"",""trial"",""time""
""fullscreenenter"",""1"",""7365""
","
","
","""event"",""trial"",""time""
""fullscreenenter"",""1"",""7365""
","
","","","","","","null","<div style=""font-size:60px;"">+</div>","null","","fixation","","","","","","","","",""
"memory-trial","226","600635","0.0-15.0-1.91","1914","2","""event"",""trial"",""time""
""fullscreenenter"",""1"",""7365""
","
","
","""event"",""trial"",""time""
""fullscreenenter"",""1"",""7365""
","
","","","","","","1313.3999999910593","images/feline4.png","","","memory_trial","4","definitely_new","","","","","","",""
"html-keyboard-response","227","601136","0.0-15.0-0.92","1914","2","""event"",""trial"",""time""
""fullscreenenter"",""1"",""7365""
","
","
","""event"",""trial"",""time""
""fullscreenenter"",""1"",""7365""
","
","","","","","","null","<div style=""font-size:60px;"">+</div>","null","","fixation","","","","","","","","",""
"memory-trial","228","603522","0.0-15.0-1.92","1914","2","""event"",""trial"",""time""
""fullscreenenter"",""1"",""7365""
","
","
","""event"",""trial"",""time""
""fullscreenenter"",""1"",""7365""
","
","","","","","","1384.9000000059605","images/flower4.png","","","memory_trial","1","definitely_old","","","","","","",""
"html-keyboard-response","229","604023","0.0-15.0-0.93","1914","2","""event"",""trial"",""time""
""fullscreenenter"",""1"",""7365""
","
","
","""event"",""trial"",""time""
""fullscreenenter"",""1"",""7365""
","
","","","","","","null","<div style=""font-size:60px;"">+</div>","null","","fixation","","","","","","","","",""
"memory-trial","230","605811","0.0-15.0-1.93","1914","2","""event"",""trial"",""time""
""fullscreenenter"",""1"",""7365""
","
","
","""event"",""trial"",""time""
""fullscreenenter"",""1"",""7365""
","
","","","","","","786.0999999940395","images/tree5.png","","","memory_trial","4","definitely_new","","","","","","",""
"html-keyboard-response","231","606311","0.0-15.0-0.94","1914","2","""event"",""trial"",""time""
""fullscreenenter"",""1"",""7365""
","
","
","""event"",""trial"",""time""
""fullscreenenter"",""1"",""7365""
","
","","","","","","null","<div style=""font-size:60px;"">+</div>","null","","fixation","","","","","","","","",""
"memory-trial","232","608226","0.0-15.0-1.94","1914","2","""event"",""trial"",""time""
""fullscreenenter"",""1"",""7365""
","
","
","""event"",""trial"",""time""
""fullscreenenter"",""1"",""7365""
","
","","","","","","913","images/flower3.png","","","memory_trial","4","definitely_new","","","","","","",""
"html-keyboard-response","233","608727","0.0-15.0-0.95","1914","2","""event"",""trial"",""time""
""fullscreenenter"",""1"",""7365""
","
","
","""event"",""trial"",""time""
""fullscreenenter"",""1"",""7365""
","
","","","","","","null","<div style=""font-size:60px;"">+</div>","null","","fixation","","","","","","","","",""
"memory-trial","234","610603","0.0-15.0-1.95","1914","2","""event"",""trial"",""time""
""fullscreenenter"",""1"",""7365""
","
","
","""event"",""trial"",""time""
""fullscreenenter"",""1"",""7365""
","
","","","","","","873.7999999970198","images/bed2.png","","","memory_trial","4","definitely_new","","","","","","",""
"html-keyboard-response","235","611103","0.0-15.0-0.96","1914","2","""event"",""trial"",""time""
""fullscreenenter"",""1"",""7365""
","
","
","""event"",""trial"",""time""
""fullscreenenter"",""1"",""7365""
","
","","","","","","null","<div style=""font-size:60px;"">+</div>","null","","fixation","","","","","","","","",""
"memory-trial","236","612923","0.0-15.0-1.96","1914","2","""event"",""trial"",""time""
""fullscreenenter"",""1"",""7365""
","
","
","""event"",""trial"",""time""
""fullscreenenter"",""1"",""7365""
","
","","","","","","817.7999999970198","images/chair5.png","","","memory_trial","4","definitely_new","","","","","","",""
"html-keyboard-response","237","613424","0.0-15.0-0.97","1914","2","""event"",""trial"",""time""
""fullscreenenter"",""1"",""7365""
","
","
","""event"",""trial"",""time""
""fullscreenenter"",""1"",""7365""
","
","","","","","","null","<div style=""font-size:60px;"">+</div>","null","","fixation","","","","","","","","",""
"memory-trial","238","616012","0.0-15.0-1.97","1914","2","""event"",""trial"",""time""
""fullscreenenter"",""1"",""7365""
","
","
","""event"",""trial"",""time""
""fullscreenenter"",""1"",""7365""
","
","","","","","","1585.0999999940395","images/dog1.png","","","memory_trial","4","definitely_new","","","","","","",""
"html-keyboard-response","239","616512","0.0-15.0-0.98","1914","2","""event"",""trial"",""time""
""fullscreenenter"",""1"",""7365""
","
","
","""event"",""trial"",""time""
""fullscreenenter"",""1"",""7365""
","
","","","","","","null","<div style=""font-size:60px;"">+</div>","null","","fixation","","","","","","","","",""
"memory-trial","240","618531","0.0-15.0-1.98","1914","2","""event"",""trial"",""time""
""fullscreenenter"",""1"",""7365""
","
","
","""event"",""trial"",""time""
""fullscreenenter"",""1"",""7365""
","
","","","","","","1017.2000000029802","images/apple3.png","","","memory_trial","4","definitely_new","","","","","","",""
"html-keyboard-response","241","619033","0.0-15.0-0.99","1914","2","""event"",""trial"",""time""
""fullscreenenter"",""1"",""7365""
","
","
","""event"",""trial"",""time""
""fullscreenenter"",""1"",""7365""
","
","","","","","","null","<div style=""font-size:60px;"">+</div>","null","","fixation","","","","","","","","",""
"memory-trial","242","620715","0.0-15.0-1.99","1914","2","""event"",""trial"",""time""
""fullscreenenter"",""1"",""7365""
","
","
","""event"",""trial"",""time""
""fullscreenenter"",""1"",""7365""
","
","","","","","","680.3999999910593","images/sofa1.png","","","memory_trial","4","definitely_new","","","","","","",""
"html-keyboard-response","243","621216","0.0-15.0-0.100","1914","2","""event"",""trial"",""time""
""fullscreenenter"",""1"",""7365""
","
","
","""event"",""trial"",""time""
""fullscreenenter"",""1"",""7365""
","
","","","","","","null","<div style=""font-size:60px;"">+</div>","null","","fixation","","","","","","","","",""
"memory-trial","244","622915","0.0-15.0-1.100","1914","2","""event"",""trial"",""time""
""fullscreenenter"",""1"",""7365""
","
","
","""event"",""trial"",""time""
""fullscreenenter"",""1"",""7365""
","
","","","","","","697.6999999880791","images/train1.png","","","memory_trial","4","definitely_new","","","","","","",""
"html-keyboard-response","245","623416","0.0-15.0-0.101","1914","2","""event"",""trial"",""time""
""fullscreenenter"",""1"",""7365""
","
","
","""event"",""trial"",""time""
""fullscreenenter"",""1"",""7365""
","
","","","","","","null","<div style=""font-size:60px;"">+</div>","null","","fixation","","","","","","","","",""
"memory-trial","246","625524","0.0-15.0-1.101","1914","2","""event"",""trial"",""time""
""fullscreenenter"",""1"",""7365""
","
","
","""event"",""trial"",""time""
""fullscreenenter"",""1"",""7365""
","
","","","","","","1105.6000000089407","images/train3.png","","","memory_trial","4","definitely_new","","","","","","",""
"html-button-response","247","628664","0.0-15.0-2.101-0.101","1914","2","""event"",""trial"",""time""
""fullscreenenter"",""1"",""7365""
","
","
","""event"",""trial"",""time""
""fullscreenenter"",""1"",""7365""
","
","","","","","","3139.800000011921","<p> Take a break! </p><p> Click the button to continue. </p>","0","","break","","","","","","","","",""
"html-keyboard-response","248","629165","0.0-15.0-0.102","1914","2","""event"",""trial"",""time""
""fullscreenenter"",""1"",""7365""
","
","
","""event"",""trial"",""time""
""fullscreenenter"",""1"",""7365""
","
","","","","","","null","<div style=""font-size:60px;"">+</div>","null","","fixation","","","","","","","","",""
"memory-trial","249","631754","0.0-15.0-1.102","1914","2","""event"",""trial"",""time""
""fullscreenenter"",""1"",""7365""
","
","
","""event"",""trial"",""time""
""fullscreenenter"",""1"",""7365""
","
","","","","","","1587.7000000029802","images/table3.png","","","memory_trial","1","definitely_old","","","","","","",""
"html-keyboard-response","250","632256","0.0-15.0-0.103","1914","2","""event"",""trial"",""time""
""fullscreenenter"",""1"",""7365""
","
","
","""event"",""trial"",""time""
""fullscreenenter"",""1"",""7365""
","
","","","","","","null","<div style=""font-size:60px;"">+</div>","null","","fixation","","","","","","","","",""
"memory-trial","251","634962","0.0-15.0-1.103","1914","2","""event"",""trial"",""time""
""fullscreenenter"",""1"",""7365""
","
","
","""event"",""trial"",""time""
""fullscreenenter"",""1"",""7365""
","
","","","","","","1705.4000000059605","images/cactus1.png","","","memory_trial","3","maybe_new","","","","","","",""
"html-keyboard-response","252","635464","0.0-15.0-0.104","1914","2","""event"",""trial"",""time""
""fullscreenenter"",""1"",""7365""
","
","
","""event"",""trial"",""time""
""fullscreenenter"",""1"",""7365""
","
","","","","","","null","<div style=""font-size:60px;"">+</div>","null","","fixation","","","","","","","","",""
"memory-trial","253","638060","0.0-15.0-1.104","1914","2","""event"",""trial"",""time""
""fullscreenenter"",""1"",""7365""
","
","
","""event"",""trial"",""time""
""fullscreenenter"",""1"",""7365""
","
","","","","","","1593.3999999910593","images/cow1.png","","","memory_trial","2","maybe_old","","","","","","",""
"html-keyboard-response","254","638561","0.0-15.0-0.105","1914","2","""event"",""trial"",""time""
""fullscreenenter"",""1"",""7365""
","
","
","""event"",""trial"",""time""
""fullscreenenter"",""1"",""7365""
","
","","","","","","null","<div style=""font-size:60px;"">+</div>","null","","fixation","","","","","","","","",""
"memory-trial","255","641908","0.0-15.0-1.105","1914","2","""event"",""trial"",""time""
""fullscreenenter"",""1"",""7365""
","
","
","""event"",""trial"",""time""
""fullscreenenter"",""1"",""7365""
","
","","","","","","2345.7000000029802","images/dog3.png","","","memory_trial","4","definitely_new","","","","","","",""
"html-keyboard-response","256","642410","0.0-15.0-0.106","1914","2","""event"",""trial"",""time""
""fullscreenenter"",""1"",""7365""
","
","
","""event"",""trial"",""time""
""fullscreenenter"",""1"",""7365""
","
","","","","","","null","<div style=""font-size:60px;"">+</div>","null","","fixation","","","","","","","","",""
"memory-trial","257","644610","0.0-15.0-1.106","1914","2","""event"",""trial"",""time""
""fullscreenenter"",""1"",""7365""
","
","
","""event"",""trial"",""time""
""fullscreenenter"",""1"",""7365""
","
","","","","","","1199.5","images/flower2.png","","","memory_trial","4","definitely_new","","","","","","",""
"html-keyboard-response","258","645111","0.0-15.0-0.107","1914","2","""event"",""trial"",""time""
""fullscreenenter"",""1"",""7365""
","
","
","""event"",""trial"",""time""
""fullscreenenter"",""1"",""7365""
","
","","","","","","null","<div style=""font-size:60px;"">+</div>","null","","fixation","","","","","","","","",""
"memory-trial","259","647122","0.0-15.0-1.107","1914","2","""event"",""trial"",""time""
""fullscreenenter"",""1"",""7365""
","
","
","""event"",""trial"",""time""
""fullscreenenter"",""1"",""7365""
","
","","","","","","1009.9000000059605","images/cactus5.png","","","memory_trial","4","definitely_new","","","","","","",""
"html-keyboard-response","260","647623","0.0-15.0-0.108","1914","2","""event"",""trial"",""time""
""fullscreenenter"",""1"",""7365""
","
","
","""event"",""trial"",""time""
""fullscreenenter"",""1"",""7365""
","
","","","","","","null","<div style=""font-size:60px;"">+</div>","null","","fixation","","","","","","","","",""
"memory-trial","261","649547","0.0-15.0-1.108","1914","2","""event"",""trial"",""time""
""fullscreenenter"",""1"",""7365""
","
","
","""event"",""trial"",""time""
""fullscreenenter"",""1"",""7365""
","
","","","","","","921.9000000059605","images/orange5.png","","","memory_trial","1","definitely_old","","","","","","",""
"html-keyboard-response","262","650048","0.0-15.0-0.109","1914","2","""event"",""trial"",""time""
""fullscreenenter"",""1"",""7365""
","
","
","""event"",""trial"",""time""
""fullscreenenter"",""1"",""7365""
","
","","","","","","null","<div style=""font-size:60px;"">+</div>","null","","fixation","","","","","","","","",""
"memory-trial","263","651827","0.0-15.0-1.109","1914","2","""event"",""trial"",""time""
""fullscreenenter"",""1"",""7365""
","
","
","""event"",""trial"",""time""
""fullscreenenter"",""1"",""7365""
","
","","","","","","777.2000000029802","images/tree2.png","","","memory_trial","4","definitely_new","","","","","","",""
"html-keyboard-response","264","652328","0.0-15.0-0.110","1914","2","""event"",""trial"",""time""
""fullscreenenter"",""1"",""7365""
","
","
","""event"",""trial"",""time""
""fullscreenenter"",""1"",""7365""
","
","","","","","","null","<div style=""font-size:60px;"">+</div>","null","","fixation","","","","","","","","",""
"memory-trial","265","654283","0.0-15.0-1.110","1914","2","""event"",""trial"",""time""
""fullscreenenter"",""1"",""7365""
","
","
","""event"",""trial"",""time""
""fullscreenenter"",""1"",""7365""
","
","","","","","","953.3999999910593","images/cactus3.png","","","memory_trial","4","definitely_new","","","","","","",""
"html-keyboard-response","266","654784","0.0-15.0-0.111","1914","2","""event"",""trial"",""time""
""fullscreenenter"",""1"",""7365""
","
","
","""event"",""trial"",""time""
""fullscreenenter"",""1"",""7365""
","
","","","","","","null","<div style=""font-size:60px;"">+</div>","null","","fixation","","","","","","","","",""
"memory-trial","267","657243","0.0-15.0-1.111","1914","2","""event"",""trial"",""time""
""fullscreenenter"",""1"",""7365""
","
","
","""event"",""trial"",""time""
""fullscreenenter"",""1"",""7365""
","
","","","","","","1457.4000000059605","images/bush5.png","","","memory_trial","3","maybe_new","","","","","","",""
"html-keyboard-response","268","657745","0.0-15.0-0.112","1914","2","""event"",""trial"",""time""
""fullscreenenter"",""1"",""7365""
","
","
","""event"",""trial"",""time""
""fullscreenenter"",""1"",""7365""
","
","","","","","","null","<div style=""font-size:60px;"">+</div>","null","","fixation","","","","","","","","",""
"memory-trial","269","659522","0.0-15.0-1.112","1914","2","""event"",""trial"",""time""
""fullscreenenter"",""1"",""7365""
","
","
","""event"",""trial"",""time""
""fullscreenenter"",""1"",""7365""
","
","","","","","","776.3999999910593","images/truck4.png","","","memory_trial","4","definitely_new","","","","","","",""
"html-keyboard-response","270","660023","0.0-15.0-0.113","1914","2","""event"",""trial"",""time""
""fullscreenenter"",""1"",""7365""
","
","
","""event"",""trial"",""time""
""fullscreenenter"",""1"",""7365""
","
","","","","","","null","<div style=""font-size:60px;"">+</div>","null","","fixation","","","","","","","","",""
"memory-trial","271","661763","0.0-15.0-1.113","1914","2","""event"",""trial"",""time""
""fullscreenenter"",""1"",""7365""
","
","
","""event"",""trial"",""time""
""fullscreenenter"",""1"",""7365""
","
","","","","","","738.0999999940395","images/goat2.png","","","memory_trial","4","definitely_new","","","","","","",""
"html-keyboard-response","272","662264","0.0-15.0-0.114","1914","2","""event"",""trial"",""time""
""fullscreenenter"",""1"",""7365""
","
","
","""event"",""trial"",""time""
""fullscreenenter"",""1"",""7365""
","
","","","","","","null","<div style=""font-size:60px;"">+</div>","null","","fixation","","","","","","","","",""
"memory-trial","273","663851","0.0-15.0-1.114","1914","2","""event"",""trial"",""time""
""fullscreenenter"",""1"",""7365""
","
","
","""event"",""trial"",""time""
""fullscreenenter"",""1"",""7365""
","
","","","","","","585.3999999910593","images/sheep2.png","","","memory_trial","4","definitely_new","","","","","","",""
"html-keyboard-response","274","664353","0.0-15.0-0.115","1914","2","""event"",""trial"",""time""
""fullscreenenter"",""1"",""7365""
","
","
","""event"",""trial"",""time""
""fullscreenenter"",""1"",""7365""
","
","","","","","","null","<div style=""font-size:60px;"">+</div>","null","","fixation","","","","","","","","",""
"memory-trial","275","665979","0.0-15.0-1.115","1914","2","""event"",""trial"",""time""
""fullscreenenter"",""1"",""7365""
","
","
","""event"",""trial"",""time""
""fullscreenenter"",""1"",""7365""
","
","","","","","","624.5","images/rodent3.png","","","memory_trial","4","definitely_new","","","","","","",""
"html-keyboard-response","276","666481","0.0-15.0-0.116","1914","2","""event"",""trial"",""time""
""fullscreenenter"",""1"",""7365""
","
","
","""event"",""trial"",""time""
""fullscreenenter"",""1"",""7365""
","
","","","","","","null","<div style=""font-size:60px;"">+</div>","null","","fixation","","","","","","","","",""
"memory-trial","277","669203","0.0-15.0-1.116","1914","2","""event"",""trial"",""time""
""fullscreenenter"",""1"",""7365""
","
","
","""event"",""trial"",""time""
""fullscreenenter"",""1"",""7365""
","
","","","","","","1720.7000000029802","images/dog5.png","","","memory_trial","3","maybe_new","","","","","","",""
"html-keyboard-response","278","669704","0.0-15.0-0.117","1914","2","""event"",""trial"",""time""
""fullscreenenter"",""1"",""7365""
","
","
","""event"",""trial"",""time""
""fullscreenenter"",""1"",""7365""
","
","","","","","","null","<div style=""font-size:60px;"">+</div>","null","","fixation","","","","","","","","",""
"memory-trial","279","671914","0.0-15.0-1.117","1914","2","""event"",""trial"",""time""
""fullscreenenter"",""1"",""7365""
","
","
","""event"",""trial"",""time""
""fullscreenenter"",""1"",""7365""
","
","","","","","","1209.2000000029802","images/boat1.png","","","memory_trial","4","definitely_new","","","","","","",""
"html-keyboard-response","280","672416","0.0-15.0-0.118","1914","2","""event"",""trial"",""time""
""fullscreenenter"",""1"",""7365""
","
","
","""event"",""trial"",""time""
""fullscreenenter"",""1"",""7365""
","
","","","","","","null","<div style=""font-size:60px;"">+</div>","null","","fixation","","","","","","","","",""
"memory-trial","281","674947","0.0-15.0-1.118","1914","2","""event"",""trial"",""time""
""fullscreenenter"",""1"",""7365""
","
","
","""event"",""trial"",""time""
""fullscreenenter"",""1"",""7365""
","
","","","","","","1529.6000000089407","images/feline1.png","","","memory_trial","2","maybe_old","","","","","","",""
"html-keyboard-response","282","675449","0.0-15.0-0.119","1914","2","""event"",""trial"",""time""
""fullscreenenter"",""1"",""7365""
","
","
","""event"",""trial"",""time""
""fullscreenenter"",""1"",""7365""
","
","","","","","","null","<div style=""font-size:60px;"">+</div>","null","","fixation","","","","","","","","",""
"memory-trial","283","677531","0.0-15.0-1.119","1914","2","""event"",""trial"",""time""
""fullscreenenter"",""1"",""7365""
","
","
","""event"",""trial"",""time""
""fullscreenenter"",""1"",""7365""
","
","","","","","","1080.5","images/rabbit5.png","","","memory_trial","4","definitely_new","","","","","","",""
"preload","284","723500","0.0-16.0","1914","2","""event"",""trial"",""time""
""fullscreenenter"",""1"",""7365""
","
","
","""event"",""trial"",""time""
""fullscreenenter"",""1"",""7365""
","
","true","false","[]","[]","[]","","","","","","","","","","","","","",""
"learning-instructions","285","731304","0.0-17.0-0.0-0.0-0.0","1914","2","""event"",""trial"",""time""
""fullscreenenter"",""1"",""7365""
","
","
","""event"",""trial"",""time""
""fullscreenenter"",""1"",""7365""
","
","","","","","","3363.5","<p> We're now going to ask you to return your farm animals to barns again. </p>","","0","instructions","","","","","","","","",""
"learning-instructions","286","740126","0.0-17.0-0.0-0.0-0.1","1914","2","""event"",""trial"",""time""
""fullscreenenter"",""1"",""7365""
","
","
","""event"",""trial"",""time""
""fullscreenenter"",""1"",""7365""
","
","","","","","","3385.199999988079","<p> On each trial, you will see a farm animal. Select the barn where you think the animal belongs. </p>","","0","instructions","","","","","","","","",""
"learning-instructions","287","750890","0.0-17.0-0.0-0.0-0.2","1914","2","""event"",""trial"",""time""
""fullscreenenter"",""1"",""7365""
","
","
","""event"",""trial"",""time""
""fullscreenenter"",""1"",""7365""
","
","","","","","","3699.4000000059605","<p> To make your selection, think about what you learned last week. You will NOT receive any feedback about your choice. </p>","","0","instructions","","","","","","","","",""
"learning-instructions","288","759204","0.0-17.0-0.0-0.0-0.3","1914","2","""event"",""trial"",""time""
""fullscreenenter"",""1"",""7365""
","
","
","""event"",""trial"",""time""
""fullscreenenter"",""1"",""7365""
","
","","","","","","214.30000001192093","<p> You should use the 1 key to select the barn on the left, the 2 key to select the barn in the middle, and the 3 key to select the barn on the right. </p><br><div class=""choice-mem-instructions-grid""> <div class=""choice-mem-option""><img src=""images/animals_choice1.png"" class=""choice-mem-option-img"" stage=""instructions"" position=""0"" ><div class=""choice-mem-option-text""> Press ""1."" </div></div><div class=""choice-mem-option""><img src=""images/animals_choice2.png"" class=""choice-mem-option-img"" stage=""instructions"" position=""1"" ><div class=""choice-mem-option-text""> Press ""2."" </div></div><div class=""choice-mem-option""><img src=""images/animals_choice3.png"" class=""choice-mem-option-img"" stage=""instructions"" position=""2"" ><div class=""choice-mem-option-text""> Press ""3."" </div></div></div>","","0","instructions","","","","","","","","",""
"learning-instructions","289","766790","0.0-17.0-0.0-0.0-0.4","1914","2","""event"",""trial"",""time""
""fullscreenenter"",""1"",""7365""
","
","
","""event"",""trial"",""time""
""fullscreenenter"",""1"",""7365""
","
","","","","","","1320.2000000029802","<p> You will have 10 seconds to make each selection. Try to respond before time runs out! </p>","","0","instructions","","","","","","","","",""
"learning-instructions","290","771162","0.0-17.0-0.0-1.0","1914","2","""event"",""trial"",""time""
""fullscreenenter"",""1"",""7365""
","
","
","""event"",""trial"",""time""
""fullscreenenter"",""1"",""7365""
","
","","","","","","2301.9000000059605","<p> You are now ready to begin the game. </p>","","0","instructions","","","","","","","","",""
"html-keyboard-response","291","771788","0.0-17.0-0.0-2.0-0.0","1914","2","""event"",""trial"",""time""
""fullscreenenter"",""1"",""7365""
","
","
","""event"",""trial"",""time""
""fullscreenenter"",""1"",""7365""
","
","","","","","","null","<div style=""font-size:60px;"">+</div>","null","","fixation","","","","","","","","",""
"choice-memory-trial","292","774408","0.0-17.0-0.0-2.0-1.0","1914","2","""event"",""trial"",""time""
