"trial_type","trial_index","time_elapsed","internal_node_id","subject_id","task_version","interactions","blur_events","focus_events","fullscreenenter_events","fullscreenexit_events","success","timeout","failed_images","failed_audio","failed_video","rt","stimulus","response","button_pressed","task_part","key_press","answer","correct","left_choice","middle_choice","right_choice","choice_positions","option_selected","block"
"pavlovia","0","6","0.0-0.0","1689","2","""event"",""trial"",""time""
""fullscreenenter"",""1"",""8039""
","
","
","""event"",""trial"",""time""
""fullscreenenter"",""1"",""8039""
","
","","","","","","","","","","","","","","","","","","",""
"fullscreen","1","9009","0.0-1.0","1689","2","""event"",""trial"",""time""
""fullscreenenter"",""1"",""8039""
","
","
","""event"",""trial"",""time""
""fullscreenenter"",""1"",""8039""
","
","true","","","","","","","","","","","","","","","","","",""
"preload","2","10150","0.0-2.0","1689","2","""event"",""trial"",""time""
""fullscreenenter"",""1"",""8039""
","
","
","""event"",""trial"",""time""
""fullscreenenter"",""1"",""8039""
","
","true","false","[]","[]","[]","","","","","","","","","","","","","",""
"audio-keyboard-response","3","18848","0.0-3.0","1689","2","""event"",""trial"",""time""
""fullscreenenter"",""1"",""8039""
""fullscreenexit"",""4"",""19610""
""blur"",""4"",""19615""
""focus"",""4"",""31567""
","""event"",""trial"",""time""
""blur"",""4"",""19615""
","""event"",""trial"",""time""
""focus"",""4"",""31567""
","""event"",""trial"",""time""
""fullscreenenter"",""1"",""8039""
","""event"",""trial"",""time""
""fullscreenexit"",""4"",""19610""
","","","","","","8695.873015873016","audio/beep_loop.wav","f1","","","","","","","","","","",""
"audio-button-response","4","33381","0.0-4.0","1689","2","""event"",""trial"",""time""
""fullscreenenter"",""1"",""8039""
""fullscreenexit"",""4"",""19610""
""blur"",""4"",""19615""
""focus"",""4"",""31567""
","""event"",""trial"",""time""
""blur"",""4"",""19615""
","""event"",""trial"",""time""
""focus"",""4"",""31567""
","""event"",""trial"",""time""
""fullscreenenter"",""1"",""8039""
","""event"",""trial"",""time""
""fullscreenexit"",""4"",""19610""
","","","","","","14527","audio/turtle.wav","0","","","","","","","","","","",""
"audio-button-response","5","40122","0.0-5.0","1689","2","""event"",""trial"",""time""
""fullscreenenter"",""1"",""8039""
""fullscreenexit"",""4"",""19610""
""blur"",""4"",""19615""
""focus"",""4"",""31567""
","""event"",""trial"",""time""
""blur"",""4"",""19615""
","""event"",""trial"",""time""
""focus"",""4"",""31567""
","""event"",""trial"",""time""
""fullscreenenter"",""1"",""8039""
","""event"",""trial"",""time""
""fullscreenexit"",""4"",""19610""
","","","","","","5738","audio/shark.wav","2","","","","","","","","","","",""
"preload","6","51352","0.0-6.0","1689","2","""event"",""trial"",""time""
""fullscreenenter"",""1"",""8039""
""fullscreenexit"",""4"",""19610""
""blur"",""4"",""19615""
""focus"",""4"",""31567""
","""event"",""trial"",""time""
""blur"",""4"",""19615""
","""event"",""trial"",""time""
""focus"",""4"",""31567""
","""event"",""trial"",""time""
""fullscreenenter"",""1"",""8039""
","""event"",""trial"",""time""
""fullscreenexit"",""4"",""19610""
","true","false","[]","[]","[]","","","","","","","","","","","","","",""
"learning-instructions","7","58310","0.0-7.0-0.0","1689","2","""event"",""trial"",""time""
""fullscreenenter"",""1"",""8039""
""fullscreenexit"",""4"",""19610""
""blur"",""4"",""19615""
""focus"",""4"",""31567""
","""event"",""trial"",""time""
""blur"",""4"",""19615""
","""event"",""trial"",""time""
""focus"",""4"",""31567""
","""event"",""trial"",""time""
""fullscreenenter"",""1"",""8039""
","""event"",""trial"",""time""
""fullscreenexit"",""4"",""19610""
","","","","","","2149","<p> Welcome back! </p><p> Last week, you had to make choices about lots of different items.  </p>","","0","instructions","","","","","","","","",""
"learning-instructions","8","63684","0.0-7.0-0.1","1689","2","""event"",""trial"",""time""
""fullscreenenter"",""1"",""8039""
""fullscreenexit"",""4"",""19610""
""blur"",""4"",""19615""
""focus"",""4"",""31567""
","""event"",""trial"",""time""
""blur"",""4"",""19615""
","""event"",""trial"",""time""
""focus"",""4"",""31567""
","""event"",""trial"",""time""
""fullscreenenter"",""1"",""8039""
","""event"",""trial"",""time""
""fullscreenexit"",""4"",""19610""
","","","","","","1082","<p> Today, we are going to ask you to try to remember all the items. </p>","","0","instructions","","","","","","","","",""
"learning-instructions","9","75120","0.0-7.0-0.2","1689","2","""event"",""trial"",""time""
""fullscreenenter"",""1"",""8039""
""fullscreenexit"",""4"",""19610""
""blur"",""4"",""19615""
""focus"",""4"",""31567""
","""event"",""trial"",""time""
""blur"",""4"",""19615""
","""event"",""trial"",""time""
""focus"",""4"",""31567""
","""event"",""trial"",""time""
""fullscreenenter"",""1"",""8039""
","""event"",""trial"",""time""
""fullscreenexit"",""4"",""19610""
","","","","","","1305","<p> On every trial, you will see an image. </p><p> The image may be an OLD image you saw during the games last week or it may be a NEW image that was not presented. </p>","","0","instructions","","","","","","","","",""
"learning-instructions","10","89686","0.0-7.0-0.3","1689","2","""event"",""trial"",""time""
""fullscreenenter"",""1"",""8039""
""fullscreenexit"",""4"",""19610""
""blur"",""4"",""19615""
""focus"",""4"",""31567""
","""event"",""trial"",""time""
""blur"",""4"",""19615""
","""event"",""trial"",""time""
""focus"",""4"",""31567""
","""event"",""trial"",""time""
""fullscreenenter"",""1"",""8039""
","""event"",""trial"",""time""
""fullscreenexit"",""4"",""19610""
","","","","","","6070","<p> You need to select whether the image is:  </p><p>  'Definitely old', 'Maybe old', 'Maybe new', or 'Definitely new.'  </p><div class=""mem-choice-instructions-grid""><div class=""choice-option"" id=""choice-option-1"" ><img src=""images/definitely_old_1.png"" id=""choice-option-img-1"" class=""choice-option-img"" stage=""1""></div><div class=""choice-option"" id=""choice-option-2"" ><img src=""images/maybe_old_1.png"" id=""choice-option-img-2"" class=""choice-option-img"" stage=""1""></div><div class=""choice-option"" id=""choice-option-3"" ><img src=""images/maybe_new_1.png"" id=""choice-option-img-3"" class=""choice-option-img"" stage=""1""></div><div class=""choice-option"" id=""choice-option-4"" > <img src=""images/definitely_new_1.png"" id=""choice-option-img-4"" class=""choice-option-img"" stage=""1""></div></div>","","0","instructions","","","","","","","","",""
"learning-instructions","11","97524","0.0-7.0-0.4","1689","2","""event"",""trial"",""time""
""fullscreenenter"",""1"",""8039""
""fullscreenexit"",""4"",""19610""
""blur"",""4"",""19615""
""focus"",""4"",""31567""
","""event"",""trial"",""time""
""blur"",""4"",""19615""
","""event"",""trial"",""time""
""focus"",""4"",""31567""
","""event"",""trial"",""time""
""fullscreenenter"",""1"",""8039""
","""event"",""trial"",""time""
""fullscreenexit"",""4"",""19610""
","","","","","","1150","<p> You should use the 1, 2, 3, and 4 keys to make your responses.  </p><div class=""mem-choice-instructions-grid""><div class=""choice-option"" id=""choice-option-1"" ><img src=""images/definitely_old.png"" id=""choice-option-img-1"" class=""choice-option-img"" stage=""1""></div><div class=""choice-option"" id=""choice-option-2"" ><img src=""images/maybe_old.png"" id=""choice-option-img-2"" class=""choice-option-img"" stage=""1""></div><div class=""choice-option"" id=""choice-option-3"" ><img src=""images/maybe_new.png"" id=""choice-option-img-3"" class=""choice-option-img"" stage=""1""></div><div class=""choice-option"" id=""choice-option-4"" > <img src=""images/definitely_new.png"" id=""choice-option-img-4"" class=""choice-option-img"" stage=""1""></div></div>","","0","instructions","","","","","","","","",""
"learning-instructions","12","105224","0.0-7.0-0.5","1689","2","""event"",""trial"",""time""
""fullscreenenter"",""1"",""8039""
""fullscreenexit"",""4"",""19610""
""blur"",""4"",""19615""
""focus"",""4"",""31567""
","""event"",""trial"",""time""
""blur"",""4"",""19615""
","""event"",""trial"",""time""
""focus"",""4"",""31567""
","""event"",""trial"",""time""
""fullscreenenter"",""1"",""8039""
","""event"",""trial"",""time""
""fullscreenexit"",""4"",""19610""
","","","","","","954","<p> You will have 10 seconds to make each response.  </p><p>  Make sure to respond before time runs out! </p>","","0","instructions","","","","","","","","",""
"learning-instructions","13","113691","0.0-7.0-0.6","1689","2","""event"",""trial"",""time""
""fullscreenenter"",""1"",""8039""
""fullscreenexit"",""4"",""19610""
""blur"",""4"",""19615""
""focus"",""4"",""31567""
","""event"",""trial"",""time""
""blur"",""4"",""19615""
","""event"",""trial"",""time""
""focus"",""4"",""31567""
","""event"",""trial"",""time""
""fullscreenenter"",""1"",""8039""
","""event"",""trial"",""time""
""fullscreenexit"",""4"",""19610""
","","","","","","899","<p> Today, you will see each image ONCE only.  </p><p>  That means none of the images will repeat. </p>","","0","instructions","","","","","","","","",""
"learning-instructions","14","127530","0.0-7.0-0.7","1689","2","""event"",""trial"",""time""
""fullscreenenter"",""1"",""8039""
""fullscreenexit"",""4"",""19610""
""blur"",""4"",""19615""
""focus"",""4"",""31567""
","""event"",""trial"",""time""
""blur"",""4"",""19615""
","""event"",""trial"",""time""
""focus"",""4"",""31567""
","""event"",""trial"",""time""
""fullscreenenter"",""1"",""8039""
","""event"",""trial"",""time""
""fullscreenexit"",""4"",""19610""
","","","","","","1162","<p> Before you play the real game, it is time to practice. </p><p>  Just like in the real game, some of the images in the practice will be ones you have seen before. </p><p>  Others will be entirely new. </p>","","0","instructions","","","","","","","","",""
"html-button-response","15","128876","0.0-8.0","1689","2","""event"",""trial"",""time""
""fullscreenenter"",""1"",""8039""
""fullscreenexit"",""4"",""19610""
""blur"",""4"",""19615""
""focus"",""4"",""31567""
","""event"",""trial"",""time""
""blur"",""4"",""19615""
","""event"",""trial"",""time""
""focus"",""4"",""31567""
","""event"",""trial"",""time""
""fullscreenenter"",""1"",""8039""
","""event"",""trial"",""time""
""fullscreenexit"",""4"",""19610""
","","","","","","1236","<p> Ready to practice? </p><p> Remember, use the 1, 2, 3, and 4 keys to make your responses. </p>","0","","instructions","","","","","","","","",""
"html-keyboard-response","16","129477","0.0-9.0-0.0","1689","2","""event"",""trial"",""time""
""fullscreenenter"",""1"",""8039""
""fullscreenexit"",""4"",""19610""
""blur"",""4"",""19615""
""focus"",""4"",""31567""
","""event"",""trial"",""time""
""blur"",""4"",""19615""
","""event"",""trial"",""time""
""focus"",""4"",""31567""
","""event"",""trial"",""time""
""fullscreenenter"",""1"",""8039""
","""event"",""trial"",""time""
""fullscreenexit"",""4"",""19610""
","","","","","","null","<div style=""font-size:60px;"">+</div>","null","","fixation","","","","","","","","",""
"memory-trial","17","134487","0.0-9.0-1.0","1689","2","""event"",""trial"",""time""
""fullscreenenter"",""1"",""8039""
""fullscreenexit"",""4"",""19610""
""blur"",""4"",""19615""
""focus"",""4"",""31567""
","""event"",""trial"",""time""
""blur"",""4"",""19615""
","""event"",""trial"",""time""
""focus"",""4"",""31567""
","""event"",""trial"",""time""
""fullscreenenter"",""1"",""8039""
","""event"",""trial"",""time""
""fullscreenexit"",""4"",""19610""
","","","","","","3999","images/racket1.png","","","practice","3","maybe_new","","","","","","",""
"html-keyboard-response","18","134988","0.0-9.0-0.1","1689","2","""event"",""trial"",""time""
""fullscreenenter"",""1"",""8039""
""fullscreenexit"",""4"",""19610""
""blur"",""4"",""19615""
""focus"",""4"",""31567""
","""event"",""trial"",""time""
""blur"",""4"",""19615""
","""event"",""trial"",""time""
""focus"",""4"",""31567""
","""event"",""trial"",""time""
""fullscreenenter"",""1"",""8039""
","""event"",""trial"",""time""
""fullscreenexit"",""4"",""19610""
","","","","","","null","<div style=""font-size:60px;"">+</div>","null","","fixation","","","","","","","","",""
"memory-trial","19","139108","0.0-9.0-1.1","1689","2","""event"",""trial"",""time""
""fullscreenenter"",""1"",""8039""
""fullscreenexit"",""4"",""19610""
""blur"",""4"",""19615""
""focus"",""4"",""31567""
","""event"",""trial"",""time""
""blur"",""4"",""19615""
","""event"",""trial"",""time""
""focus"",""4"",""31567""
","""event"",""trial"",""time""
""fullscreenenter"",""1"",""8039""
","""event"",""trial"",""time""
""fullscreenexit"",""4"",""19610""
","","","","","","3119","images/racket3.png","","","practice","2","maybe_old","","","","","","",""
"html-keyboard-response","20","139608","0.0-9.0-0.2","1689","2","""event"",""trial"",""time""
""fullscreenenter"",""1"",""8039""
""fullscreenexit"",""4"",""19610""
""blur"",""4"",""19615""
""focus"",""4"",""31567""
","""event"",""trial"",""time""
""blur"",""4"",""19615""
","""event"",""trial"",""time""
""focus"",""4"",""31567""
","""event"",""trial"",""time""
""fullscreenenter"",""1"",""8039""
","""event"",""trial"",""time""
""fullscreenexit"",""4"",""19610""
","","","","","","null","<div style=""font-size:60px;"">+</div>","null","","fixation","","","","","","","","",""
"memory-trial","21","143259","0.0-9.0-1.2","1689","2","""event"",""trial"",""time""
""fullscreenenter"",""1"",""8039""
""fullscreenexit"",""4"",""19610""
""blur"",""4"",""19615""
""focus"",""4"",""31567""
","""event"",""trial"",""time""
""blur"",""4"",""19615""
","""event"",""trial"",""time""
""focus"",""4"",""31567""
","""event"",""trial"",""time""
""fullscreenenter"",""1"",""8039""
","""event"",""trial"",""time""
""fullscreenexit"",""4"",""19610""
","","","","","","2643","images/racket2.png","","","practice","1","definitely_old","","","","","","",""
"html-keyboard-response","22","143768","0.0-9.0-0.3","1689","2","""event"",""trial"",""time""
""fullscreenenter"",""1"",""8039""
""fullscreenexit"",""4"",""19610""
""blur"",""4"",""19615""
""focus"",""4"",""31567""
","""event"",""trial"",""time""
""blur"",""4"",""19615""
","""event"",""trial"",""time""
""focus"",""4"",""31567""
","""event"",""trial"",""time""
""fullscreenenter"",""1"",""8039""
","""event"",""trial"",""time""
""fullscreenexit"",""4"",""19610""
","","","","","","null","<div style=""font-size:60px;"">+</div>","null","","fixation","","","","","","","","",""
"memory-trial","23","146485","0.0-9.0-1.3","1689","2","""event"",""trial"",""time""
""fullscreenenter"",""1"",""8039""
""fullscreenexit"",""4"",""19610""
""blur"",""4"",""19615""
""focus"",""4"",""31567""
","""event"",""trial"",""time""
""blur"",""4"",""19615""
","""event"",""trial"",""time""
""focus"",""4"",""31567""
","""event"",""trial"",""time""
""fullscreenenter"",""1"",""8039""
","""event"",""trial"",""time""
""fullscreenexit"",""4"",""19610""
","","","","","","1710","images/ball4.png","","","practice","1","definitely_old","","","","","","",""
"html-keyboard-response","24","146988","0.0-9.0-0.4","1689","2","""event"",""trial"",""time""
""fullscreenenter"",""1"",""8039""
""fullscreenexit"",""4"",""19610""
""blur"",""4"",""19615""
""focus"",""4"",""31567""
","""event"",""trial"",""time""
""blur"",""4"",""19615""
","""event"",""trial"",""time""
""focus"",""4"",""31567""
","""event"",""trial"",""time""
""fullscreenenter"",""1"",""8039""
","""event"",""trial"",""time""
""fullscreenexit"",""4"",""19610""
","","","","","","null","<div style=""font-size:60px;"">+</div>","null","","fixation","","","","","","","","",""
"memory-trial","25","151109","0.0-9.0-1.4","1689","2","""event"",""trial"",""time""
""fullscreenenter"",""1"",""8039""
""fullscreenexit"",""4"",""19610""
""blur"",""4"",""19615""
""focus"",""4"",""31567""
","""event"",""trial"",""time""
""blur"",""4"",""19615""
","""event"",""trial"",""time""
""focus"",""4"",""31567""
","""event"",""trial"",""time""
""fullscreenenter"",""1"",""8039""
","""event"",""trial"",""time""
""fullscreenexit"",""4"",""19610""
","","","","","","3116","images/ball3.png","","","practice","1","definitely_old","","","","","","",""
"html-keyboard-response","26","151610","0.0-9.0-0.5","1689","2","""event"",""trial"",""time""
""fullscreenenter"",""1"",""8039""
""fullscreenexit"",""4"",""19610""
""blur"",""4"",""19615""
""focus"",""4"",""31567""
","""event"",""trial"",""time""
""blur"",""4"",""19615""
","""event"",""trial"",""time""
""focus"",""4"",""31567""
","""event"",""trial"",""time""
""fullscreenenter"",""1"",""8039""
","""event"",""trial"",""time""
""fullscreenexit"",""4"",""19610""
","","","","","","null","<div style=""font-size:60px;"">+</div>","null","","fixation","","","","","","","","",""
"memory-trial","27","154040","0.0-9.0-1.5","1689","2","""event"",""trial"",""time""
""fullscreenenter"",""1"",""8039""
""fullscreenexit"",""4"",""19610""
""blur"",""4"",""19615""
""focus"",""4"",""31567""
","""event"",""trial"",""time""
""blur"",""4"",""19615""
","""event"",""trial"",""time""
""focus"",""4"",""31567""
","""event"",""trial"",""time""
""fullscreenenter"",""1"",""8039""
","""event"",""trial"",""time""
""fullscreenexit"",""4"",""19610""
","","","","","","1421","images/ball2.png","","","practice","1","definitely_old","","","","","","",""
"html-keyboard-response","28","154540","0.0-9.0-0.6","1689","2","""event"",""trial"",""time""
""fullscreenenter"",""1"",""8039""
""fullscreenexit"",""4"",""19610""
""blur"",""4"",""19615""
""focus"",""4"",""31567""
","""event"",""trial"",""time""
""blur"",""4"",""19615""
","""event"",""trial"",""time""
""focus"",""4"",""31567""
","""event"",""trial"",""time""
""fullscreenenter"",""1"",""8039""
","""event"",""trial"",""time""
""fullscreenexit"",""4"",""19610""
","","","","","","null","<div style=""font-size:60px;"">+</div>","null","","fixation","","","","","","","","",""
"memory-trial","29","157671","0.0-9.0-1.6","1689","2","""event"",""trial"",""time""
""fullscreenenter"",""1"",""8039""
""fullscreenexit"",""4"",""19610""
""blur"",""4"",""19615""
""focus"",""4"",""31567""
","""event"",""trial"",""time""
""blur"",""4"",""19615""
","""event"",""trial"",""time""
""focus"",""4"",""31567""
","""event"",""trial"",""time""
""fullscreenenter"",""1"",""8039""
","""event"",""trial"",""time""
""fullscreenexit"",""4"",""19610""
","","","","","","2130","images/racket4.png","","","practice","2","maybe_old","","","","","","",""
"html-keyboard-response","30","158172","0.0-9.0-0.7","1689","2","""event"",""trial"",""time""
""fullscreenenter"",""1"",""8039""
""fullscreenexit"",""4"",""19610""
""blur"",""4"",""19615""
""focus"",""4"",""31567""
","""event"",""trial"",""time""
""blur"",""4"",""19615""
","""event"",""trial"",""time""
""focus"",""4"",""31567""
","""event"",""trial"",""time""
""fullscreenenter"",""1"",""8039""
","""event"",""trial"",""time""
""fullscreenexit"",""4"",""19610""
","","","","","","null","<div style=""font-size:60px;"">+</div>","null","","fixation","","","","","","","","",""
"memory-trial","31","160695","0.0-9.0-1.7","1689","2","""event"",""trial"",""time""
""fullscreenenter"",""1"",""8039""
""fullscreenexit"",""4"",""19610""
""blur"",""4"",""19615""
""focus"",""4"",""31567""
","""event"",""trial"",""time""
""blur"",""4"",""19615""
","""event"",""trial"",""time""
""focus"",""4"",""31567""
","""event"",""trial"",""time""
""fullscreenenter"",""1"",""8039""
","""event"",""trial"",""time""
""fullscreenexit"",""4"",""19610""
","","","","","","1520","images/ball1.png","","","practice","1","definitely_old","","","","","","",""
"learning-instructions","32","169854","0.0-10.0-0.0","1689","2","""event"",""trial"",""time""
""fullscreenenter"",""1"",""8039""
""fullscreenexit"",""4"",""19610""
""blur"",""4"",""19615""
""focus"",""4"",""31567""
""blur"",""33"",""175754""
","""event"",""trial"",""time""
""blur"",""4"",""19615""
""blur"",""33"",""175754""
","""event"",""trial"",""time""
""focus"",""4"",""31567""
","""event"",""trial"",""time""
""fullscreenenter"",""1"",""8039""
","""event"",""trial"",""time""
""fullscreenexit"",""4"",""19610""
","","","","","","1193","<p> Great! You have completed the practice. </p><p> Before you start, we're going to ask you a few questions about how the game works.  </p>","","0","instructions","","","","","","","","",""
"preload","33","176244","0.0-11.0","1689","2","""event"",""trial"",""time""
""fullscreenenter"",""1"",""8039""
""fullscreenexit"",""4"",""19610""
""blur"",""4"",""19615""
""focus"",""4"",""31567""
""blur"",""33"",""175754""
""focus"",""34"",""181435""
","""event"",""trial"",""time""
""blur"",""4"",""19615""
""blur"",""33"",""175754""
","""event"",""trial"",""time""
""focus"",""4"",""31567""
""focus"",""34"",""181435""
","""event"",""trial"",""time""
""fullscreenenter"",""1"",""8039""
","""event"",""trial"",""time""
""fullscreenexit"",""4"",""19610""
","true","false","[]","[]","[]","","","","","","","","","","","","","",""
"comp-q","34","183271","0.0-12.0-0.0","1689","2","""event"",""trial"",""time""
""fullscreenenter"",""1"",""8039""
""fullscreenexit"",""4"",""19610""
""blur"",""4"",""19615""
""focus"",""4"",""31567""
""blur"",""33"",""175754""
""focus"",""34"",""181435""
","""event"",""trial"",""time""
""blur"",""4"",""19615""
""blur"",""33"",""175754""
","""event"",""trial"",""time""
""focus"",""4"",""31567""
""focus"",""34"",""181435""
","""event"",""trial"",""time""
""fullscreenenter"",""1"",""8039""
","""event"",""trial"",""time""
""fullscreenexit"",""4"",""19610""
","","","","","","1199","<p> <b> True or False? </b> </p><p> In this game, you will only see each image once. </p>","","0","comp_question","","","true","","","","","",""
"comp-q","35","190506","0.0-12.0-1.0","1689","2","""event"",""trial"",""time""
""fullscreenenter"",""1"",""8039""
""fullscreenexit"",""4"",""19610""
""blur"",""4"",""19615""
""focus"",""4"",""31567""
""blur"",""33"",""175754""
""focus"",""34"",""181435""
","""event"",""trial"",""time""
""blur"",""4"",""19615""
""blur"",""33"",""175754""
","""event"",""trial"",""time""
""focus"",""4"",""31567""
""focus"",""34"",""181435""
","""event"",""trial"",""time""
""fullscreenenter"",""1"",""8039""
","""event"",""trial"",""time""
""fullscreenexit"",""4"",""19610""
","","","","","","902","<p> <b> That's right! </b> You will see many different images <i> one time each </i> in this game. </p>","","0","comp_answer","","","","","","","","",""
"comp-q","36","197487","0.0-12.0-0.1","1689","2","""event"",""trial"",""time""
""fullscreenenter"",""1"",""8039""
""fullscreenexit"",""4"",""19610""
""blur"",""4"",""19615""
""focus"",""4"",""31567""
""blur"",""33"",""175754""
""focus"",""34"",""181435""
","""event"",""trial"",""time""
""blur"",""4"",""19615""
""blur"",""33"",""175754""
","""event"",""trial"",""time""
""focus"",""4"",""31567""
""focus"",""34"",""181435""
","""event"",""trial"",""time""
""fullscreenenter"",""1"",""8039""
","""event"",""trial"",""time""
""fullscreenexit"",""4"",""19610""
","","","","","","1178","<p> <b> True or False? </b> </p><p> You should use the mouse and click to make your response. </p>","","1","comp_question","","","true","","","","","",""
"comp-q","37","206142","0.0-12.0-1.1","1689","2","""event"",""trial"",""time""
""fullscreenenter"",""1"",""8039""
""fullscreenexit"",""4"",""19610""
""blur"",""4"",""19615""
""focus"",""4"",""31567""
""blur"",""33"",""175754""
""focus"",""34"",""181435""
","""event"",""trial"",""time""
""blur"",""4"",""19615""
""blur"",""33"",""175754""
","""event"",""trial"",""time""
""focus"",""4"",""31567""
""focus"",""34"",""181435""
","""event"",""trial"",""time""
""fullscreenenter"",""1"",""8039""
","""event"",""trial"",""time""
""fullscreenexit"",""4"",""19610""
","","","","","","1319","<p><b> That's right! </b> You should use the '1', '2', '3', and '4' keys to make your response. </p>","","0","comp_answer","","","","","","","","",""
"comp-q","38","213338","0.0-12.0-0.2","1689","2","""event"",""trial"",""time""
""fullscreenenter"",""1"",""8039""
""fullscreenexit"",""4"",""19610""
""blur"",""4"",""19615""
""focus"",""4"",""31567""
""blur"",""33"",""175754""
""focus"",""34"",""181435""
","""event"",""trial"",""time""
""blur"",""4"",""19615""
""blur"",""33"",""175754""
","""event"",""trial"",""time""
""focus"",""4"",""31567""
""focus"",""34"",""181435""
","""event"",""trial"",""time""
""fullscreenenter"",""1"",""8039""
","""event"",""trial"",""time""
""fullscreenexit"",""4"",""19610""
","","","","","","1206","<p> <b> True or False? </b> </p><p> You will have as much time as you want to make each choice. </p>","","1","comp_question","","","true","","","","","",""
"comp-q","39","219888","0.0-12.0-1.2","1689","2","""event"",""trial"",""time""
""fullscreenenter"",""1"",""8039""
""fullscreenexit"",""4"",""19610""
""blur"",""4"",""19615""
""focus"",""4"",""31567""
""blur"",""33"",""175754""
""focus"",""34"",""181435""
","""event"",""trial"",""time""
""blur"",""4"",""19615""
""blur"",""33"",""175754""
","""event"",""trial"",""time""
""focus"",""4"",""31567""
""focus"",""34"",""181435""
","""event"",""trial"",""time""
""fullscreenenter"",""1"",""8039""
","""event"",""trial"",""time""
""fullscreenexit"",""4"",""19610""
","","","","","","1163","<p> <b> That's right! </b> You will only have 10 seconds to make each choice. </p>","","0","comp_answer","","","","","","","","",""
"learning-instructions","40","232600","0.0-13.0","1689","2","""event"",""trial"",""time""
""fullscreenenter"",""1"",""8039""
""fullscreenexit"",""4"",""19610""
""blur"",""4"",""19615""
""focus"",""4"",""31567""
""blur"",""33"",""175754""
""focus"",""34"",""181435""
","""event"",""trial"",""time""
""blur"",""4"",""19615""
""blur"",""33"",""175754""
","""event"",""trial"",""time""
""focus"",""4"",""31567""
""focus"",""34"",""181435""
","""event"",""trial"",""time""
""fullscreenenter"",""1"",""8039""
","""event"",""trial"",""time""
""fullscreenexit"",""4"",""19610""
","","","","","","4042","<p> Great! You are now ready to begin the game. </p><p> Remember, use the 1, 2, 3, and 4 keys to make your responses. </p>","","0","instructions","","","","","","","","",""
"preload","41","251518","0.0-14.0","1689","2","""event"",""trial"",""time""
""fullscreenenter"",""1"",""8039""
""fullscreenexit"",""4"",""19610""
""blur"",""4"",""19615""
""focus"",""4"",""31567""
""blur"",""33"",""175754""
""focus"",""34"",""181435""
","""event"",""trial"",""time""
""blur"",""4"",""19615""
""blur"",""33"",""175754""
","""event"",""trial"",""time""
""focus"",""4"",""31567""
""focus"",""34"",""181435""
","""event"",""trial"",""time""
""fullscreenenter"",""1"",""8039""
","""event"",""trial"",""time""
""fullscreenexit"",""4"",""19610""
","true","false","[]","[]","[]","","","","","","","","","","","","","",""
"html-keyboard-response","42","252018","0.0-15.0-0.0","1689","2","""event"",""trial"",""time""
""fullscreenenter"",""1"",""8039""
""fullscreenexit"",""4"",""19610""
""blur"",""4"",""19615""
""focus"",""4"",""31567""
""blur"",""33"",""175754""
""focus"",""34"",""181435""
","""event"",""trial"",""time""
""blur"",""4"",""19615""
""blur"",""33"",""175754""
","""event"",""trial"",""time""
""focus"",""4"",""31567""
""focus"",""34"",""181435""
","""event"",""trial"",""time""
""fullscreenenter"",""1"",""8039""
","""event"",""trial"",""time""
""fullscreenexit"",""4"",""19610""
","","","","","","null","<div style=""font-size:60px;"">+</div>","null","","fixation","","","","","","","","",""
"memory-trial","43","256085","0.0-15.0-1.0","1689","2","""event"",""trial"",""time""
""fullscreenenter"",""1"",""8039""
""fullscreenexit"",""4"",""19610""
""blur"",""4"",""19615""
""focus"",""4"",""31567""
""blur"",""33"",""175754""
""focus"",""34"",""181435""
","""event"",""trial"",""time""
""blur"",""4"",""19615""
""blur"",""33"",""175754""
","""event"",""trial"",""time""
""focus"",""4"",""31567""
""focus"",""34"",""181435""
","""event"",""trial"",""time""
""fullscreenenter"",""1"",""8039""
","""event"",""trial"",""time""
""fullscreenexit"",""4"",""19610""
","","","","","","3059","images/straw2.png","","","memory_trial","2","maybe_old","","","","","","",""
"html-keyboard-response","44","256585","0.0-15.0-0.1","1689","2","""event"",""trial"",""time""
""fullscreenenter"",""1"",""8039""
""fullscreenexit"",""4"",""19610""
""blur"",""4"",""19615""
""focus"",""4"",""31567""
""blur"",""33"",""175754""
""focus"",""34"",""181435""
","""event"",""trial"",""time""
""blur"",""4"",""19615""
""blur"",""33"",""175754""
","""event"",""trial"",""time""
""focus"",""4"",""31567""
""focus"",""34"",""181435""
","""event"",""trial"",""time""
""fullscreenenter"",""1"",""8039""
","""event"",""trial"",""time""
""fullscreenexit"",""4"",""19610""
","","","","","","null","<div style=""font-size:60px;"">+</div>","null","","fixation","","","","","","","","",""
"memory-trial","45","261598","0.0-15.0-1.1","1689","2","""event"",""trial"",""time""
""fullscreenenter"",""1"",""8039""
""fullscreenexit"",""4"",""19610""
""blur"",""4"",""19615""
""focus"",""4"",""31567""
""blur"",""33"",""175754""
""focus"",""34"",""181435""
","""event"",""trial"",""time""
""blur"",""4"",""19615""
""blur"",""33"",""175754""
","""event"",""trial"",""time""
""focus"",""4"",""31567""
""focus"",""34"",""181435""
","""event"",""trial"",""time""
""fullscreenenter"",""1"",""8039""
","""event"",""trial"",""time""
""fullscreenexit"",""4"",""19610""
","","","","","","4012","images/horse1.png","","","memory_trial","2","maybe_old","","","","","","",""
"html-keyboard-response","46","262099","0.0-15.0-0.2","1689","2","""event"",""trial"",""time""
""fullscreenenter"",""1"",""8039""
""fullscreenexit"",""4"",""19610""
""blur"",""4"",""19615""
""focus"",""4"",""31567""
""blur"",""33"",""175754""
""focus"",""34"",""181435""
","""event"",""trial"",""time""
""blur"",""4"",""19615""
""blur"",""33"",""175754""
","""event"",""trial"",""time""
""focus"",""4"",""31567""
""focus"",""34"",""181435""
","""event"",""trial"",""time""
""fullscreenenter"",""1"",""8039""
","""event"",""trial"",""time""
""fullscreenexit"",""4"",""19610""
","","","","","","null","<div style=""font-size:60px;"">+</div>","null","","fixation","","","","","","","","",""
"memory-trial","47","264878","0.0-15.0-1.2","1689","2","""event"",""trial"",""time""
""fullscreenenter"",""1"",""8039""
""fullscreenexit"",""4"",""19610""
""blur"",""4"",""19615""
""focus"",""4"",""31567""
""blur"",""33"",""175754""
""focus"",""34"",""181435""
","""event"",""trial"",""time""
""blur"",""4"",""19615""
""blur"",""33"",""175754""
","""event"",""trial"",""time""
""focus"",""4"",""31567""
""focus"",""34"",""181435""
","""event"",""trial"",""time""
""fullscreenenter"",""1"",""8039""
","""event"",""trial"",""time""
""fullscreenexit"",""4"",""19610""
","","","","","","1777","images/truck1.png","","","memory_trial","1","definitely_old","","","","","","",""
"html-keyboard-response","48","265378","0.0-15.0-0.3","1689","2","""event"",""trial"",""time""
""fullscreenenter"",""1"",""8039""
""fullscreenexit"",""4"",""19610""
""blur"",""4"",""19615""
""focus"",""4"",""31567""
""blur"",""33"",""175754""
""focus"",""34"",""181435""
","""event"",""trial"",""time""
""blur"",""4"",""19615""
""blur"",""33"",""175754""
","""event"",""trial"",""time""
""focus"",""4"",""31567""
""focus"",""34"",""181435""
","""event"",""trial"",""time""
""fullscreenenter"",""1"",""8039""
","""event"",""trial"",""time""
""fullscreenexit"",""4"",""19610""
","","","","","","null","<div style=""font-size:60px;"">+</div>","null","","fixation","","","","","","","","",""
"memory-trial","49","268653","0.0-15.0-1.3","1689","2","""event"",""trial"",""time""
""fullscreenenter"",""1"",""8039""
""fullscreenexit"",""4"",""19610""
""blur"",""4"",""19615""
""focus"",""4"",""31567""
""blur"",""33"",""175754""
""focus"",""34"",""181435""
","""event"",""trial"",""time""
""blur"",""4"",""19615""
""blur"",""33"",""175754""
","""event"",""trial"",""time""
""focus"",""4"",""31567""
""focus"",""34"",""181435""
","""event"",""trial"",""time""
""fullscreenenter"",""1"",""8039""
","""event"",""trial"",""time""
""fullscreenexit"",""4"",""19610""
","","","","","","2274","images/table2.png","","","memory_trial","1","definitely_old","","","","","","",""
"html-keyboard-response","50","269154","0.0-15.0-0.4","1689","2","""event"",""trial"",""time""
""fullscreenenter"",""1"",""8039""
""fullscreenexit"",""4"",""19610""
""blur"",""4"",""19615""
""focus"",""4"",""31567""
""blur"",""33"",""175754""
""focus"",""34"",""181435""
","""event"",""trial"",""time""
""blur"",""4"",""19615""
""blur"",""33"",""175754""
","""event"",""trial"",""time""
""focus"",""4"",""31567""
""focus"",""34"",""181435""
","""event"",""trial"",""time""
""fullscreenenter"",""1"",""8039""
","""event"",""trial"",""time""
""fullscreenexit"",""4"",""19610""
","","","","","","null","<div style=""font-size:60px;"">+</div>","null","","fixation","","","","","","","","",""
"memory-trial","51","272606","0.0-15.0-1.4","1689","2","""event"",""trial"",""time""
""fullscreenenter"",""1"",""8039""
""fullscreenexit"",""4"",""19610""
""blur"",""4"",""19615""
""focus"",""4"",""31567""
""blur"",""33"",""175754""
""focus"",""34"",""181435""
","""event"",""trial"",""time""
""blur"",""4"",""19615""
""blur"",""33"",""175754""
","""event"",""trial"",""time""
""focus"",""4"",""31567""
""focus"",""34"",""181435""
","""event"",""trial"",""time""
""fullscreenenter"",""1"",""8039""
","""event"",""trial"",""time""
""fullscreenexit"",""4"",""19610""
","","","","","","2450","images/banana1.png","","","memory_trial","2","maybe_old","","","","","","",""
"html-keyboard-response","52","273106","0.0-15.0-0.5","1689","2","""event"",""trial"",""time""
""fullscreenenter"",""1"",""8039""
""fullscreenexit"",""4"",""19610""
""blur"",""4"",""19615""
""focus"",""4"",""31567""
""blur"",""33"",""175754""
""focus"",""34"",""181435""
","""event"",""trial"",""time""
""blur"",""4"",""19615""
""blur"",""33"",""175754""
","""event"",""trial"",""time""
""focus"",""4"",""31567""
""focus"",""34"",""181435""
","""event"",""trial"",""time""
""fullscreenenter"",""1"",""8039""
","""event"",""trial"",""time""
""fullscreenexit"",""4"",""19610""
","","","","","","null","<div style=""font-size:60px;"">+</div>","null","","fixation","","","","","","","","",""
"memory-trial","53","276046","0.0-15.0-1.5","1689","2","""event"",""trial"",""time""
""fullscreenenter"",""1"",""8039""
""fullscreenexit"",""4"",""19610""
""blur"",""4"",""19615""
""focus"",""4"",""31567""
""blur"",""33"",""175754""
""focus"",""34"",""181435""
","""event"",""trial"",""time""
""blur"",""4"",""19615""
""blur"",""33"",""175754""
","""event"",""trial"",""time""
""focus"",""4"",""31567""
""focus"",""34"",""181435""
","""event"",""trial"",""time""
""fullscreenenter"",""1"",""8039""
","""event"",""trial"",""time""
""fullscreenexit"",""4"",""19610""
","","","","","","1938","images/sofa2.png","","","memory_trial","4","definitely_new","","","","","","",""
"html-keyboard-response","54","276547","0.0-15.0-0.6","1689","2","""event"",""trial"",""time""
""fullscreenenter"",""1"",""8039""
""fullscreenexit"",""4"",""19610""
""blur"",""4"",""19615""
""focus"",""4"",""31567""
""blur"",""33"",""175754""
""focus"",""34"",""181435""
","""event"",""trial"",""time""
""blur"",""4"",""19615""
""blur"",""33"",""175754""
","""event"",""trial"",""time""
""focus"",""4"",""31567""
""focus"",""34"",""181435""
","""event"",""trial"",""time""
""fullscreenenter"",""1"",""8039""
","""event"",""trial"",""time""
""fullscreenexit"",""4"",""19610""
","","","","","","null","<div style=""font-size:60px;"">+</div>","null","","fixation","","","","","","","","",""
"memory-trial","55","279429","0.0-15.0-1.6","1689","2","""event"",""trial"",""time""
""fullscreenenter"",""1"",""8039""
""fullscreenexit"",""4"",""19610""
""blur"",""4"",""19615""
""focus"",""4"",""31567""
""blur"",""33"",""175754""
""focus"",""34"",""181435""
","""event"",""trial"",""time""
""blur"",""4"",""19615""
""blur"",""33"",""175754""
","""event"",""trial"",""time""
""focus"",""4"",""31567""
""focus"",""34"",""181435""
","""event"",""trial"",""time""
""fullscreenenter"",""1"",""8039""
","""event"",""trial"",""time""
""fullscreenexit"",""4"",""19610""
","","","","","","1880","images/dog2.png","","","memory_trial","4","definitely_new","","","","","","",""
"html-keyboard-response","56","279929","0.0-15.0-0.7","1689","2","""event"",""trial"",""time""
""fullscreenenter"",""1"",""8039""
""fullscreenexit"",""4"",""19610""
""blur"",""4"",""19615""
""focus"",""4"",""31567""
""blur"",""33"",""175754""
""focus"",""34"",""181435""
","""event"",""trial"",""time""
""blur"",""4"",""19615""
""blur"",""33"",""175754""
","""event"",""trial"",""time""
""focus"",""4"",""31567""
""focus"",""34"",""181435""
","""event"",""trial"",""time""
""fullscreenenter"",""1"",""8039""
","""event"",""trial"",""time""
""fullscreenexit"",""4"",""19610""
","","","","","","null","<div style=""font-size:60px;"">+</div>","null","","fixation","","","","","","","","",""
"memory-trial","57","282253","0.0-15.0-1.7","1689","2","""event"",""trial"",""time""
""fullscreenenter"",""1"",""8039""
""fullscreenexit"",""4"",""19610""
""blur"",""4"",""19615""
""focus"",""4"",""31567""
""blur"",""33"",""175754""
""focus"",""34"",""181435""
","""event"",""trial"",""time""
""blur"",""4"",""19615""
""blur"",""33"",""175754""
","""event"",""trial"",""time""
""focus"",""4"",""31567""
""focus"",""34"",""181435""
","""event"",""trial"",""time""
""fullscreenenter"",""1"",""8039""
","""event"",""trial"",""time""
""fullscreenexit"",""4"",""19610""
","","","","","","1323","images/bush3.png","","","memory_trial","1","definitely_old","","","","","","",""
"html-keyboard-response","58","282754","0.0-15.0-0.8","1689","2","""event"",""trial"",""time""
""fullscreenenter"",""1"",""8039""
""fullscreenexit"",""4"",""19610""
""blur"",""4"",""19615""
""focus"",""4"",""31567""
""blur"",""33"",""175754""
""focus"",""34"",""181435""
","""event"",""trial"",""time""
""blur"",""4"",""19615""
""blur"",""33"",""175754""
","""event"",""trial"",""time""
""focus"",""4"",""31567""
""focus"",""34"",""181435""
","""event"",""trial"",""time""
""fullscreenenter"",""1"",""8039""
","""event"",""trial"",""time""
""fullscreenexit"",""4"",""19610""
","","","","","","null","<div style=""font-size:60px;"">+</div>","null","","fixation","","","","","","","","",""
"memory-trial","59","286238","0.0-15.0-1.8","1689","2","""event"",""trial"",""time""
""fullscreenenter"",""1"",""8039""
""fullscreenexit"",""4"",""19610""
""blur"",""4"",""19615""
""focus"",""4"",""31567""
""blur"",""33"",""175754""
""focus"",""34"",""181435""
","""event"",""trial"",""time""
""blur"",""4"",""19615""
""blur"",""33"",""175754""
","""event"",""trial"",""time""
""focus"",""4"",""31567""
""focus"",""34"",""181435""
","""event"",""trial"",""time""
""fullscreenenter"",""1"",""8039""
","""event"",""trial"",""time""
""fullscreenexit"",""4"",""19610""
","","","","","","2482","images/bed4.png","","","memory_trial","3","maybe_new","","","","","","",""
"html-keyboard-response","60","286739","0.0-15.0-0.9","1689","2","""event"",""trial"",""time""
""fullscreenenter"",""1"",""8039""
""fullscreenexit"",""4"",""19610""
""blur"",""4"",""19615""
""focus"",""4"",""31567""
""blur"",""33"",""175754""
""focus"",""34"",""181435""
","""event"",""trial"",""time""
""blur"",""4"",""19615""
""blur"",""33"",""175754""
","""event"",""trial"",""time""
""focus"",""4"",""31567""
""focus"",""34"",""181435""
","""event"",""trial"",""time""
""fullscreenenter"",""1"",""8039""
","""event"",""trial"",""time""
""fullscreenexit"",""4"",""19610""
","","","","","","null","<div style=""font-size:60px;"">+</div>","null","","fixation","","","","","","","","",""
"memory-trial","61","290398","0.0-15.0-1.9","1689","2","""event"",""trial"",""time""
""fullscreenenter"",""1"",""8039""
""fullscreenexit"",""4"",""19610""
""blur"",""4"",""19615""
""focus"",""4"",""31567""
""blur"",""33"",""175754""
""focus"",""34"",""181435""
","""event"",""trial"",""time""
""blur"",""4"",""19615""
""blur"",""33"",""175754""
","""event"",""trial"",""time""
""focus"",""4"",""31567""
""focus"",""34"",""181435""
","""event"",""trial"",""time""
""fullscreenenter"",""1"",""8039""
","""event"",""trial"",""time""
""fullscreenexit"",""4"",""19610""
","","","","","","2657","images/orange3.png","","","memory_trial","3","maybe_new","","","","","","",""
"html-keyboard-response","62","290899","0.0-15.0-0.10","1689","2","""event"",""trial"",""time""
""fullscreenenter"",""1"",""8039""
""fullscreenexit"",""4"",""19610""
""blur"",""4"",""19615""
""focus"",""4"",""31567""
""blur"",""33"",""175754""
""focus"",""34"",""181435""
","""event"",""trial"",""time""
""blur"",""4"",""19615""
""blur"",""33"",""175754""
","""event"",""trial"",""time""
""focus"",""4"",""31567""
""focus"",""34"",""181435""
","""event"",""trial"",""time""
""fullscreenenter"",""1"",""8039""
","""event"",""trial"",""time""
""fullscreenexit"",""4"",""19610""
","","","","","","null","<div style=""font-size:60px;"">+</div>","null","","fixation","","","","","","","","",""
"memory-trial","63","293982","0.0-15.0-1.10","1689","2","""event"",""trial"",""time""
""fullscreenenter"",""1"",""8039""
""fullscreenexit"",""4"",""19610""
""blur"",""4"",""19615""
""focus"",""4"",""31567""
""blur"",""33"",""175754""
""focus"",""34"",""181435""
","""event"",""trial"",""time""
""blur"",""4"",""19615""
""blur"",""33"",""175754""
","""event"",""trial"",""time""
""focus"",""4"",""31567""
""focus"",""34"",""181435""
","""event"",""trial"",""time""
""fullscreenenter"",""1"",""8039""
","""event"",""trial"",""time""
""fullscreenexit"",""4"",""19610""
","","","","","","2080","images/straw5.png","","","memory_trial","4","definitely_new","","","","","","",""
"html-keyboard-response","64","294482","0.0-15.0-0.11","1689","2","""event"",""trial"",""time""
""fullscreenenter"",""1"",""8039""
""fullscreenexit"",""4"",""19610""
""blur"",""4"",""19615""
""focus"",""4"",""31567""
""blur"",""33"",""175754""
""focus"",""34"",""181435""
","""event"",""trial"",""time""
""blur"",""4"",""19615""
""blur"",""33"",""175754""
","""event"",""trial"",""time""
""focus"",""4"",""31567""
""focus"",""34"",""181435""
","""event"",""trial"",""time""
""fullscreenenter"",""1"",""8039""
","""event"",""trial"",""time""
""fullscreenexit"",""4"",""19610""
","","","","","","null","<div style=""font-size:60px;"">+</div>","null","","fixation","","","","","","","","",""
"memory-trial","65","297334","0.0-15.0-1.11","1689","2","""event"",""trial"",""time""
""fullscreenenter"",""1"",""8039""
""fullscreenexit"",""4"",""19610""
""blur"",""4"",""19615""
""focus"",""4"",""31567""
""blur"",""33"",""175754""
""focus"",""34"",""181435""
","""event"",""trial"",""time""
""blur"",""4"",""19615""
""blur"",""33"",""175754""
","""event"",""trial"",""time""
""focus"",""4"",""31567""
""focus"",""34"",""181435""
","""event"",""trial"",""time""
""fullscreenenter"",""1"",""8039""
","""event"",""trial"",""time""
""fullscreenexit"",""4"",""19610""
","","","","","","1850","images/cactus3.png","","","memory_trial","2","maybe_old","","","","","","",""
"html-keyboard-response","66","297834","0.0-15.0-0.12","1689","2","""event"",""trial"",""time""
""fullscreenenter"",""1"",""8039""
""fullscreenexit"",""4"",""19610""
""blur"",""4"",""19615""
""focus"",""4"",""31567""
""blur"",""33"",""175754""
""focus"",""34"",""181435""
","""event"",""trial"",""time""
""blur"",""4"",""19615""
""blur"",""33"",""175754""
","""event"",""trial"",""time""
""focus"",""4"",""31567""
""focus"",""34"",""181435""
","""event"",""trial"",""time""
""fullscreenenter"",""1"",""8039""
","""event"",""trial"",""time""
""fullscreenexit"",""4"",""19610""
","","","","","","null","<div style=""font-size:60px;"">+</div>","null","","fixation","","","","","","","","",""
"memory-trial","67","304846","0.0-15.0-1.12","1689","2","""event"",""trial"",""time""
""fullscreenenter"",""1"",""8039""
""fullscreenexit"",""4"",""19610""
""blur"",""4"",""19615""
""focus"",""4"",""31567""
""blur"",""33"",""175754""
""focus"",""34"",""181435""
","""event"",""trial"",""time""
""blur"",""4"",""19615""
""blur"",""33"",""175754""
","""event"",""trial"",""time""
""focus"",""4"",""31567""
""focus"",""34"",""181435""
","""event"",""trial"",""time""
""fullscreenenter"",""1"",""8039""
","""event"",""trial"",""time""
""fullscreenexit"",""4"",""19610""
","","","","","","6010","images/feline5.png","","","memory_trial","2","maybe_old","","","","","","",""
"html-keyboard-response","68","305347","0.0-15.0-0.13","1689","2","""event"",""trial"",""time""
""fullscreenenter"",""1"",""8039""
""fullscreenexit"",""4"",""19610""
""blur"",""4"",""19615""
""focus"",""4"",""31567""
""blur"",""33"",""175754""
""focus"",""34"",""181435""
","""event"",""trial"",""time""
""blur"",""4"",""19615""
""blur"",""33"",""175754""
","""event"",""trial"",""time""
""focus"",""4"",""31567""
""focus"",""34"",""181435""
","""event"",""trial"",""time""
""fullscreenenter"",""1"",""8039""
","""event"",""trial"",""time""
""fullscreenexit"",""4"",""19610""
","","","","","","null","<div style=""font-size:60px;"">+</div>","null","","fixation","","","","","","","","",""
"memory-trial","69","307487","0.0-15.0-1.13","1689","2","""event"",""trial"",""time""
""fullscreenenter"",""1"",""8039""
""fullscreenexit"",""4"",""19610""
""blur"",""4"",""19615""
""focus"",""4"",""31567""
""blur"",""33"",""175754""
""focus"",""34"",""181435""
","""event"",""trial"",""time""
""blur"",""4"",""19615""
""blur"",""33"",""175754""
","""event"",""trial"",""time""
""focus"",""4"",""31567""
""focus"",""34"",""181435""
","""event"",""trial"",""time""
""fullscreenenter"",""1"",""8039""
","""event"",""trial"",""time""
""fullscreenexit"",""4"",""19610""
","","","","","","1138","images/sofa4.png","","","memory_trial","1","definitely_old","","","","","","",""
"html-keyboard-response","70","307987","0.0-15.0-0.14","1689","2","""event"",""trial"",""time""
""fullscreenenter"",""1"",""8039""
""fullscreenexit"",""4"",""19610""
""blur"",""4"",""19615""
""focus"",""4"",""31567""
""blur"",""33"",""175754""
""focus"",""34"",""181435""
","""event"",""trial"",""time""
""blur"",""4"",""19615""
""blur"",""33"",""175754""
","""event"",""trial"",""time""
""focus"",""4"",""31567""
""focus"",""34"",""181435""
","""event"",""trial"",""time""
""fullscreenenter"",""1"",""8039""
","""event"",""trial"",""time""
""fullscreenexit"",""4"",""19610""
","","","","","","null","<div style=""font-size:60px;"">+</div>","null","","fixation","","","","","","","","",""
"memory-trial","71","310695","0.0-15.0-1.14","1689","2","""event"",""trial"",""time""
""fullscreenenter"",""1"",""8039""
""fullscreenexit"",""4"",""19610""
""blur"",""4"",""19615""
""focus"",""4"",""31567""
""blur"",""33"",""175754""
""focus"",""34"",""181435""
","""event"",""trial"",""time""
""blur"",""4"",""19615""
""blur"",""33"",""175754""
","""event"",""trial"",""time""
""focus"",""4"",""31567""
""focus"",""34"",""181435""
","""event"",""trial"",""time""
""fullscreenenter"",""1"",""8039""
","""event"",""trial"",""time""
""fullscreenexit"",""4"",""19610""
","","","","","","1707","images/apple1.png","","","memory_trial","1","definitely_old","","","","","","",""
"html-keyboard-response","72","311196","0.0-15.0-0.15","1689","2","""event"",""trial"",""time""
""fullscreenenter"",""1"",""8039""
""fullscreenexit"",""4"",""19610""
""blur"",""4"",""19615""
""focus"",""4"",""31567""
""blur"",""33"",""175754""
""focus"",""34"",""181435""
","""event"",""trial"",""time""
""blur"",""4"",""19615""
""blur"",""33"",""175754""
","""event"",""trial"",""time""
""focus"",""4"",""31567""
""focus"",""34"",""181435""
","""event"",""trial"",""time""
""fullscreenenter"",""1"",""8039""
","""event"",""trial"",""time""
""fullscreenexit"",""4"",""19610""
","","","","","","null","<div style=""font-size:60px;"">+</div>","null","","fixation","","","","","","","","",""
"memory-trial","73","313735","0.0-15.0-1.15","1689","2","""event"",""trial"",""time""
""fullscreenenter"",""1"",""8039""
""fullscreenexit"",""4"",""19610""
""blur"",""4"",""19615""
""focus"",""4"",""31567""
""blur"",""33"",""175754""
""focus"",""34"",""181435""
","""event"",""trial"",""time""
""blur"",""4"",""19615""
""blur"",""33"",""175754""
","""event"",""trial"",""time""
""focus"",""4"",""31567""
""focus"",""34"",""181435""
","""event"",""trial"",""time""
""fullscreenenter"",""1"",""8039""
","""event"",""trial"",""time""
""fullscreenexit"",""4"",""19610""
","","","","","","1536","images/tree5.png","","","memory_trial","4","definitely_new","","","","","","",""
"html-keyboard-response","74","314235","0.0-15.0-0.16","1689","2","""event"",""trial"",""time""
""fullscreenenter"",""1"",""8039""
""fullscreenexit"",""4"",""19610""
""blur"",""4"",""19615""
""focus"",""4"",""31567""
""blur"",""33"",""175754""
""focus"",""34"",""181435""
","""event"",""trial"",""time""
""blur"",""4"",""19615""
""blur"",""33"",""175754""
","""event"",""trial"",""time""
""focus"",""4"",""31567""
""focus"",""34"",""181435""
","""event"",""trial"",""time""
""fullscreenenter"",""1"",""8039""
","""event"",""trial"",""time""
""fullscreenexit"",""4"",""19610""
","","","","","","null","<div style=""font-size:60px;"">+</div>","null","","fixation","","","","","","","","",""
"memory-trial","75","316294","0.0-15.0-1.16","1689","2","""event"",""trial"",""time""
""fullscreenenter"",""1"",""8039""
""fullscreenexit"",""4"",""19610""
""blur"",""4"",""19615""
""focus"",""4"",""31567""
""blur"",""33"",""175754""
""focus"",""34"",""181435""
","""event"",""trial"",""time""
""blur"",""4"",""19615""
""blur"",""33"",""175754""
","""event"",""trial"",""time""
""focus"",""4"",""31567""
""focus"",""34"",""181435""
","""event"",""trial"",""time""
""fullscreenenter"",""1"",""8039""
","""event"",""trial"",""time""
""fullscreenexit"",""4"",""19610""
","","","","","","1057","images/boat4.png","","","memory_trial","4","definitely_new","","","","","","",""
"html-keyboard-response","76","316794","0.0-15.0-0.17","1689","2","""event"",""trial"",""time""
""fullscreenenter"",""1"",""8039""
""fullscreenexit"",""4"",""19610""
""blur"",""4"",""19615""
""focus"",""4"",""31567""
""blur"",""33"",""175754""
""focus"",""34"",""181435""
","""event"",""trial"",""time""
""blur"",""4"",""19615""
""blur"",""33"",""175754""
","""event"",""trial"",""time""
""focus"",""4"",""31567""
""focus"",""34"",""181435""
","""event"",""trial"",""time""
""fullscreenenter"",""1"",""8039""
","""event"",""trial"",""time""
""fullscreenexit"",""4"",""19610""
","","","","","","null","<div style=""font-size:60px;"">+</div>","null","","fixation","","","","","","","","",""
"memory-trial","77","319759","0.0-15.0-1.17","1689","2","""event"",""trial"",""time""
""fullscreenenter"",""1"",""8039""
""fullscreenexit"",""4"",""19610""
""blur"",""4"",""19615""
""focus"",""4"",""31567""
""blur"",""33"",""175754""
""focus"",""34"",""181435""
","""event"",""trial"",""time""
""blur"",""4"",""19615""
""blur"",""33"",""175754""
","""event"",""trial"",""time""
""focus"",""4"",""31567""
""focus"",""34"",""181435""
","""event"",""trial"",""time""
""fullscreenenter"",""1"",""8039""
","""event"",""trial"",""time""
""fullscreenexit"",""4"",""19610""
","","","","","","1964","images/truck2.png","","","memory_trial","3","maybe_new","","","","","","",""
"html-keyboard-response","78","320259","0.0-15.0-0.18","1689","2","""event"",""trial"",""time""
""fullscreenenter"",""1"",""8039""
""fullscreenexit"",""4"",""19610""
""blur"",""4"",""19615""
""focus"",""4"",""31567""
""blur"",""33"",""175754""
""focus"",""34"",""181435""
","""event"",""trial"",""time""
""blur"",""4"",""19615""
""blur"",""33"",""175754""
","""event"",""trial"",""time""
""focus"",""4"",""31567""
""focus"",""34"",""181435""
","""event"",""trial"",""time""
""fullscreenenter"",""1"",""8039""
","""event"",""trial"",""time""
""fullscreenexit"",""4"",""19610""
","","","","","","null","<div style=""font-size:60px;"">+</div>","null","","fixation","","","","","","","","",""
"memory-trial","79","322614","0.0-15.0-1.18","1689","2","""event"",""trial"",""time""
""fullscreenenter"",""1"",""8039""
""fullscreenexit"",""4"",""19610""
""blur"",""4"",""19615""
""focus"",""4"",""31567""
""blur"",""33"",""175754""
""focus"",""34"",""181435""
","""event"",""trial"",""time""
""blur"",""4"",""19615""
""blur"",""33"",""175754""
","""event"",""trial"",""time""
""focus"",""4"",""31567""
""focus"",""34"",""181435""
","""event"",""trial"",""time""
""fullscreenenter"",""1"",""8039""
","""event"",""trial"",""time""
""fullscreenexit"",""4"",""19610""
","","","","","","1353","images/plane1.png","","","memory_trial","1","definitely_old","","","","","","",""
"html-keyboard-response","80","323114","0.0-15.0-0.19","1689","2","""event"",""trial"",""time""
""fullscreenenter"",""1"",""8039""
""fullscreenexit"",""4"",""19610""
""blur"",""4"",""19615""
""focus"",""4"",""31567""
""blur"",""33"",""175754""
""focus"",""34"",""181435""
","""event"",""trial"",""time""
""blur"",""4"",""19615""
""blur"",""33"",""175754""
","""event"",""trial"",""time""
""focus"",""4"",""31567""
""focus"",""34"",""181435""
","""event"",""trial"",""time""
""fullscreenenter"",""1"",""8039""
","""event"",""trial"",""time""
""fullscreenexit"",""4"",""19610""
","","","","","","null","<div style=""font-size:60px;"">+</div>","null","","fixation","","","","","","","","",""
"memory-trial","81","326623","0.0-15.0-1.19","1689","2","""event"",""trial"",""time""
""fullscreenenter"",""1"",""8039""
""fullscreenexit"",""4"",""19610""
""blur"",""4"",""19615""
""focus"",""4"",""31567""
""blur"",""33"",""175754""
""focus"",""34"",""181435""
","""event"",""trial"",""time""
""blur"",""4"",""19615""
""blur"",""33"",""175754""
","""event"",""trial"",""time""
""focus"",""4"",""31567""
""focus"",""34"",""181435""
","""event"",""trial"",""time""
""fullscreenenter"",""1"",""8039""
","""event"",""trial"",""time""
""fullscreenexit"",""4"",""19610""
","","","","","","2508","images/straw4.png","","","memory_trial","1","definitely_old","","","","","","",""
"html-keyboard-response","82","327123","0.0-15.0-0.20","1689","2","""event"",""trial"",""time""
""fullscreenenter"",""1"",""8039""
""fullscreenexit"",""4"",""19610""
""blur"",""4"",""19615""
""focus"",""4"",""31567""
""blur"",""33"",""175754""
""focus"",""34"",""181435""
","""event"",""trial"",""time""
""blur"",""4"",""19615""
""blur"",""33"",""175754""
","""event"",""trial"",""time""
""focus"",""4"",""31567""
""focus"",""34"",""181435""
","""event"",""trial"",""time""
""fullscreenenter"",""1"",""8039""
","""event"",""trial"",""time""
""fullscreenexit"",""4"",""19610""
","","","","","","null","<div style=""font-size:60px;"">+</div>","null","","fixation","","","","","","","","",""
"memory-trial","83","329495","0.0-15.0-1.20","1689","2","""event"",""trial"",""time""
""fullscreenenter"",""1"",""8039""
""fullscreenexit"",""4"",""19610""
""blur"",""4"",""19615""
""focus"",""4"",""31567""
""blur"",""33"",""175754""
""focus"",""34"",""181435""
","""event"",""trial"",""time""
""blur"",""4"",""19615""
""blur"",""33"",""175754""
","""event"",""trial"",""time""
""focus"",""4"",""31567""
""focus"",""34"",""181435""
","""event"",""trial"",""time""
""fullscreenenter"",""1"",""8039""
","""event"",""trial"",""time""
""fullscreenexit"",""4"",""19610""
","","","","","","1369","images/flower4.png","","","memory_trial","2","maybe_old","","","","","","",""
"html-keyboard-response","84","329996","0.0-15.0-0.21","1689","2","""event"",""trial"",""time""
""fullscreenenter"",""1"",""8039""
""fullscreenexit"",""4"",""19610""
""blur"",""4"",""19615""
""focus"",""4"",""31567""
""blur"",""33"",""175754""
""focus"",""34"",""181435""
","""event"",""trial"",""time""
""blur"",""4"",""19615""
""blur"",""33"",""175754""
","""event"",""trial"",""time""
""focus"",""4"",""31567""
""focus"",""34"",""181435""
","""event"",""trial"",""time""
""fullscreenenter"",""1"",""8039""
","""event"",""trial"",""time""
""fullscreenexit"",""4"",""19610""
","","","","","","null","<div style=""font-size:60px;"">+</div>","null","","fixation","","","","","","","","",""
"memory-trial","85","333951","0.0-15.0-1.21","1689","2","""event"",""trial"",""time""
""fullscreenenter"",""1"",""8039""
""fullscreenexit"",""4"",""19610""
""blur"",""4"",""19615""
""focus"",""4"",""31567""
""blur"",""33"",""175754""
""focus"",""34"",""181435""
","""event"",""trial"",""time""
""blur"",""4"",""19615""
""blur"",""33"",""175754""
","""event"",""trial"",""time""
""focus"",""4"",""31567""
""focus"",""34"",""181435""
","""event"",""trial"",""time""
""fullscreenenter"",""1"",""8039""
","""event"",""trial"",""time""
""fullscreenexit"",""4"",""19610""
","","","","","","2954","images/rabbit4.png","","","memory_trial","4","definitely_new","","","","","","",""
"html-keyboard-response","86","334452","0.0-15.0-0.22","1689","2","""event"",""trial"",""time""
""fullscreenenter"",""1"",""8039""
""fullscreenexit"",""4"",""19610""
""blur"",""4"",""19615""
""focus"",""4"",""31567""
""blur"",""33"",""175754""
""focus"",""34"",""181435""
","""event"",""trial"",""time""
""blur"",""4"",""19615""
""blur"",""33"",""175754""
","""event"",""trial"",""time""
""focus"",""4"",""31567""
""focus"",""34"",""181435""
","""event"",""trial"",""time""
""fullscreenenter"",""1"",""8039""
","""event"",""trial"",""time""
""fullscreenexit"",""4"",""19610""
","","","","","","null","<div style=""font-size:60px;"">+</div>","null","","fixation","","","","","","","","",""
"memory-trial","87","336694","0.0-15.0-1.22","1689","2","""event"",""trial"",""time""
""fullscreenenter"",""1"",""8039""
""fullscreenexit"",""4"",""19610""
""blur"",""4"",""19615""
""focus"",""4"",""31567""
""blur"",""33"",""175754""
""focus"",""34"",""181435""
","""event"",""trial"",""time""
""blur"",""4"",""19615""
""blur"",""33"",""175754""
","""event"",""trial"",""time""
""focus"",""4"",""31567""
""focus"",""34"",""181435""
","""event"",""trial"",""time""
""fullscreenenter"",""1"",""8039""
","""event"",""trial"",""time""
""fullscreenexit"",""4"",""19610""
","","","","","","1240","images/boat1.png","","","memory_trial","4","definitely_new","","","","","","",""
"html-keyboard-response","88","337195","0.0-15.0-0.23","1689","2","""event"",""trial"",""time""
""fullscreenenter"",""1"",""8039""
""fullscreenexit"",""4"",""19610""
""blur"",""4"",""19615""
""focus"",""4"",""31567""
""blur"",""33"",""175754""
""focus"",""34"",""181435""
","""event"",""trial"",""time""
""blur"",""4"",""19615""
""blur"",""33"",""175754""
","""event"",""trial"",""time""
""focus"",""4"",""31567""
""focus"",""34"",""181435""
","""event"",""trial"",""time""
""fullscreenenter"",""1"",""8039""
","""event"",""trial"",""time""
""fullscreenexit"",""4"",""19610""
","","","","","","null","<div style=""font-size:60px;"">+</div>","null","","fixation","","","","","","","","",""
"memory-trial","89","339431","0.0-15.0-1.23","1689","2","""event"",""trial"",""time""
""fullscreenenter"",""1"",""8039""
""fullscreenexit"",""4"",""19610""
""blur"",""4"",""19615""
""focus"",""4"",""31567""
""blur"",""33"",""175754""
""focus"",""34"",""181435""
","""event"",""trial"",""time""
""blur"",""4"",""19615""
""blur"",""33"",""175754""
","""event"",""trial"",""time""
""focus"",""4"",""31567""
""focus"",""34"",""181435""
","""event"",""trial"",""time""
""fullscreenenter"",""1"",""8039""
","""event"",""trial"",""time""
""fullscreenexit"",""4"",""19610""
","","","","","","1234","images/flower5.png","","","memory_trial","4","definitely_new","","","","","","",""
"html-keyboard-response","90","339931","0.0-15.0-0.24","1689","2","""event"",""trial"",""time""
""fullscreenenter"",""1"",""8039""
""fullscreenexit"",""4"",""19610""
""blur"",""4"",""19615""
""focus"",""4"",""31567""
""blur"",""33"",""175754""
""focus"",""34"",""181435""
","""event"",""trial"",""time""
""blur"",""4"",""19615""
""blur"",""33"",""175754""
","""event"",""trial"",""time""
""focus"",""4"",""31567""
""focus"",""34"",""181435""
","""event"",""trial"",""time""
""fullscreenenter"",""1"",""8039""
","""event"",""trial"",""time""
""fullscreenexit"",""4"",""19610""
","","","","","","null","<div style=""font-size:60px;"">+</div>","null","","fixation","","","","","","","","",""
"memory-trial","91","341959","0.0-15.0-1.24","1689","2","""event"",""trial"",""time""
""fullscreenenter"",""1"",""8039""
""fullscreenexit"",""4"",""19610""
""blur"",""4"",""19615""
""focus"",""4"",""31567""
""blur"",""33"",""175754""
""focus"",""34"",""181435""
","""event"",""trial"",""time""
""blur"",""4"",""19615""
""blur"",""33"",""175754""
","""event"",""trial"",""time""
""focus"",""4"",""31567""
""focus"",""34"",""181435""
","""event"",""trial"",""time""
""fullscreenenter"",""1"",""8039""
","""event"",""trial"",""time""
""fullscreenexit"",""4"",""19610""
","","","","","","1027","images/goat5.png","","","memory_trial","1","definitely_old","","","","","","",""
"html-keyboard-response","92","342459","0.0-15.0-0.25","1689","2","""event"",""trial"",""time""
""fullscreenenter"",""1"",""8039""
""fullscreenexit"",""4"",""19610""
""blur"",""4"",""19615""
""focus"",""4"",""31567""
""blur"",""33"",""175754""
""focus"",""34"",""181435""
","""event"",""trial"",""time""
""blur"",""4"",""19615""
""blur"",""33"",""175754""
","""event"",""trial"",""time""
""focus"",""4"",""31567""
""focus"",""34"",""181435""
","""event"",""trial"",""time""
""fullscreenenter"",""1"",""8039""
","""event"",""trial"",""time""
""fullscreenexit"",""4"",""19610""
","","","","","","null","<div style=""font-size:60px;"">+</div>","null","","fixation","","","","","","","","",""
"memory-trial","93","344935","0.0-15.0-1.25","1689","2","""event"",""trial"",""time""
""fullscreenenter"",""1"",""8039""
""fullscreenexit"",""4"",""19610""
""blur"",""4"",""19615""
""focus"",""4"",""31567""
""blur"",""33"",""175754""
""focus"",""34"",""181435""
","""event"",""trial"",""time""
""blur"",""4"",""19615""
""blur"",""33"",""175754""
","""event"",""trial"",""time""
""focus"",""4"",""31567""
""focus"",""34"",""181435""
","""event"",""trial"",""time""
""fullscreenenter"",""1"",""8039""
","""event"",""trial"",""time""
""fullscreenexit"",""4"",""19610""
","","","","","","1474","images/flower2.png","","","memory_trial","2","maybe_old","","","","","","",""
"html-keyboard-response","94","345435","0.0-15.0-0.26","1689","2","""event"",""trial"",""time""
""fullscreenenter"",""1"",""8039""
""fullscreenexit"",""4"",""19610""
""blur"",""4"",""19615""
""focus"",""4"",""31567""
""blur"",""33"",""175754""
""focus"",""34"",""181435""
","""event"",""trial"",""time""
""blur"",""4"",""19615""
""blur"",""33"",""175754""
","""event"",""trial"",""time""
""focus"",""4"",""31567""
""focus"",""34"",""181435""
","""event"",""trial"",""time""
""fullscreenenter"",""1"",""8039""
","""event"",""trial"",""time""
""fullscreenexit"",""4"",""19610""
","","","","","","null","<div style=""font-size:60px;"">+</div>","null","","fixation","","","","","","","","",""
"memory-trial","95","347455","0.0-15.0-1.26","1689","2","""event"",""trial"",""time""
""fullscreenenter"",""1"",""8039""
""fullscreenexit"",""4"",""19610""
""blur"",""4"",""19615""
""focus"",""4"",""31567""
""blur"",""33"",""175754""
""focus"",""34"",""181435""
","""event"",""trial"",""time""
""blur"",""4"",""19615""
""blur"",""33"",""175754""
","""event"",""trial"",""time""
""focus"",""4"",""31567""
""focus"",""34"",""181435""
","""event"",""trial"",""time""
""fullscreenenter"",""1"",""8039""
","""event"",""trial"",""time""
""fullscreenexit"",""4"",""19610""
","","","","","","1018","images/cactus1.png","","","memory_trial","1","definitely_old","","","","","","",""
"html-keyboard-response","96","347955","0.0-15.0-0.27","1689","2","""event"",""trial"",""time""
""fullscreenenter"",""1"",""8039""
""fullscreenexit"",""4"",""19610""
""blur"",""4"",""19615""
""focus"",""4"",""31567""
""blur"",""33"",""175754""
""focus"",""34"",""181435""
","""event"",""trial"",""time""
""blur"",""4"",""19615""
""blur"",""33"",""175754""
","""event"",""trial"",""time""
""focus"",""4"",""31567""
""focus"",""34"",""181435""
","""event"",""trial"",""time""
""fullscreenenter"",""1"",""8039""
","""event"",""trial"",""time""
""fullscreenexit"",""4"",""19610""
","","","","","","null","<div style=""font-size:60px;"">+</div>","null","","fixation","","","","","","","","",""
"memory-trial","97","350038","0.0-15.0-1.27","1689","2","""event"",""trial"",""time""
""fullscreenenter"",""1"",""8039""
""fullscreenexit"",""4"",""19610""
""blur"",""4"",""19615""
""focus"",""4"",""31567""
""blur"",""33"",""175754""
""focus"",""34"",""181435""
","""event"",""trial"",""time""
""blur"",""4"",""19615""
""blur"",""33"",""175754""
","""event"",""trial"",""time""
""focus"",""4"",""31567""
""focus"",""34"",""181435""
","""event"",""trial"",""time""
""fullscreenenter"",""1"",""8039""
","""event"",""trial"",""time""
""fullscreenexit"",""4"",""19610""
","","","","","","1082","images/table1.png","","","memory_trial","1","definitely_old","","","","","","",""
"html-keyboard-response","98","350538","0.0-15.0-0.28","1689","2","""event"",""trial"",""time""
""fullscreenenter"",""1"",""8039""
""fullscreenexit"",""4"",""19610""
""blur"",""4"",""19615""
""focus"",""4"",""31567""
""blur"",""33"",""175754""
""focus"",""34"",""181435""
","""event"",""trial"",""time""
""blur"",""4"",""19615""
""blur"",""33"",""175754""
","""event"",""trial"",""time""
""focus"",""4"",""31567""
""focus"",""34"",""181435""
","""event"",""trial"",""time""
""fullscreenenter"",""1"",""8039""
","""event"",""trial"",""time""
""fullscreenexit"",""4"",""19610""
","","","","","","null","<div style=""font-size:60px;"">+</div>","null","","fixation","","","","","","","","",""
"memory-trial","99","353398","0.0-15.0-1.28","1689","2","""event"",""trial"",""time""
""fullscreenenter"",""1"",""8039""
""fullscreenexit"",""4"",""19610""
""blur"",""4"",""19615""
""focus"",""4"",""31567""
""blur"",""33"",""175754""
""focus"",""34"",""181435""
","""event"",""trial"",""time""
""blur"",""4"",""19615""
""blur"",""33"",""175754""
","""event"",""trial"",""time""
""focus"",""4"",""31567""
""focus"",""34"",""181435""
","""event"",""trial"",""time""
""fullscreenenter"",""1"",""8039""
","""event"",""trial"",""time""
""fullscreenexit"",""4"",""19610""
","","","","","","1858","images/banana5.png","","","memory_trial","1","definitely_old","","","","","","",""
"html-keyboard-response","100","353898","0.0-15.0-0.29","1689","2","""event"",""trial"",""time""
""fullscreenenter"",""1"",""8039""
""fullscreenexit"",""4"",""19610""
""blur"",""4"",""19615""
""focus"",""4"",""31567""
""blur"",""33"",""175754""
""focus"",""34"",""181435""
","""event"",""trial"",""time""
""blur"",""4"",""19615""
""blur"",""33"",""175754""
","""event"",""trial"",""time""
""focus"",""4"",""31567""
""focus"",""34"",""181435""
","""event"",""trial"",""time""
""fullscreenenter"",""1"",""8039""
","""event"",""trial"",""time""
""fullscreenexit"",""4"",""19610""
","","","","","","null","<div style=""font-size:60px;"">+</div>","null","","fixation","","","","","","","","",""
"memory-trial","101","356623","0.0-15.0-1.29","1689","2","""event"",""trial"",""time""
""fullscreenenter"",""1"",""8039""
""fullscreenexit"",""4"",""19610""
""blur"",""4"",""19615""
""focus"",""4"",""31567""
""blur"",""33"",""175754""
""focus"",""34"",""181435""
","""event"",""trial"",""time""
""blur"",""4"",""19615""
""blur"",""33"",""175754""
","""event"",""trial"",""time""
""focus"",""4"",""31567""
""focus"",""34"",""181435""
","""event"",""trial"",""time""
""fullscreenenter"",""1"",""8039""
","""event"",""trial"",""time""
""fullscreenexit"",""4"",""19610""
","","","","","","1724","images/bed3.png","","","memory_trial","4","definitely_new","","","","","","",""
"html-keyboard-response","102","357124","0.0-15.0-0.30","1689","2","""event"",""trial"",""time""
""fullscreenenter"",""1"",""8039""
""fullscreenexit"",""4"",""19610""
""blur"",""4"",""19615""
""focus"",""4"",""31567""
""blur"",""33"",""175754""
""focus"",""34"",""181435""
","""event"",""trial"",""time""
""blur"",""4"",""19615""
""blur"",""33"",""175754""
","""event"",""trial"",""time""
""focus"",""4"",""31567""
""focus"",""34"",""181435""
","""event"",""trial"",""time""
""fullscreenenter"",""1"",""8039""
","""event"",""trial"",""time""
""fullscreenexit"",""4"",""19610""
","","","","","","null","<div style=""font-size:60px;"">+</div>","null","","fixation","","","","","","","","",""
"memory-trial","103","360055","0.0-15.0-1.30","1689","2","""event"",""trial"",""time""
""fullscreenenter"",""1"",""8039""
""fullscreenexit"",""4"",""19610""
""blur"",""4"",""19615""
""focus"",""4"",""31567""
""blur"",""33"",""175754""
""focus"",""34"",""181435""
","""event"",""trial"",""time""
""blur"",""4"",""19615""
""blur"",""33"",""175754""
","""event"",""trial"",""time""
""focus"",""4"",""31567""
""focus"",""34"",""181435""
","""event"",""trial"",""time""
""fullscreenenter"",""1"",""8039""
","""event"",""trial"",""time""
""fullscreenexit"",""4"",""19610""
","","","","","","1929","images/cow2.png","","","memory_trial","2","maybe_old","","","","","","",""
"html-keyboard-response","104","360555","0.0-15.0-0.31","1689","2","""event"",""trial"",""time""
""fullscreenenter"",""1"",""8039""
""fullscreenexit"",""4"",""19610""
""blur"",""4"",""19615""
""focus"",""4"",""31567""
""blur"",""33"",""175754""
""focus"",""34"",""181435""
","""event"",""trial"",""time""
""blur"",""4"",""19615""
""blur"",""33"",""175754""
","""event"",""trial"",""time""
""focus"",""4"",""31567""
""focus"",""34"",""181435""
","""event"",""trial"",""time""
""fullscreenenter"",""1"",""8039""
","""event"",""trial"",""time""
""fullscreenexit"",""4"",""19610""
","","","","","","null","<div style=""font-size:60px;"">+</div>","null","","fixation","","","","","","","","",""
"memory-trial","105","363623","0.0-15.0-1.31","1689","2","""event"",""trial"",""time""
""fullscreenenter"",""1"",""8039""
""fullscreenexit"",""4"",""19610""
""blur"",""4"",""19615""
""focus"",""4"",""31567""
""blur"",""33"",""175754""
""focus"",""34"",""181435""
","""event"",""trial"",""time""
""blur"",""4"",""19615""
""blur"",""33"",""175754""
","""event"",""trial"",""time""
""focus"",""4"",""31567""
""focus"",""34"",""181435""
","""event"",""trial"",""time""
""fullscreenenter"",""1"",""8039""
","""event"",""trial"",""time""
""fullscreenexit"",""4"",""19610""
","","","","","","2066","images/rodent4.png","","","memory_trial","1","definitely_old","","","","","","",""
"html-keyboard-response","106","364123","0.0-15.0-0.32","1689","2","""event"",""trial"",""time""
""fullscreenenter"",""1"",""8039""
""fullscreenexit"",""4"",""19610""
""blur"",""4"",""19615""
""focus"",""4"",""31567""
""blur"",""33"",""175754""
""focus"",""34"",""181435""
","""event"",""trial"",""time""
""blur"",""4"",""19615""
""blur"",""33"",""175754""
","""event"",""trial"",""time""
""focus"",""4"",""31567""
""focus"",""34"",""181435""
","""event"",""trial"",""time""
""fullscreenenter"",""1"",""8039""
","""event"",""trial"",""time""
""fullscreenexit"",""4"",""19610""
","","","","","","null","<div style=""font-size:60px;"">+</div>","null","","fixation","","","","","","","","",""
"memory-trial","107","366558","0.0-15.0-1.32","1689","2","""event"",""trial"",""time""
""fullscreenenter"",""1"",""8039""
""fullscreenexit"",""4"",""19610""
""blur"",""4"",""19615""
""focus"",""4"",""31567""
""blur"",""33"",""175754""
""focus"",""34"",""181435""
","""event"",""trial"",""time""
""blur"",""4"",""19615""
""blur"",""33"",""175754""
","""event"",""trial"",""time""
""focus"",""4"",""31567""
""focus"",""34"",""181435""
","""event"",""trial"",""time""
""fullscreenenter"",""1"",""8039""
","""event"",""trial"",""time""
""fullscreenexit"",""4"",""19610""
","","","","","","1433","images/goat4.png","","","memory_trial","2","maybe_old","","","","","","",""
"html-keyboard-response","108","367058","0.0-15.0-0.33","1689","2","""event"",""trial"",""time""
""fullscreenenter"",""1"",""8039""
""fullscreenexit"",""4"",""19610""
""blur"",""4"",""19615""
""focus"",""4"",""31567""
""blur"",""33"",""175754""
""focus"",""34"",""181435""
","""event"",""trial"",""time""
""blur"",""4"",""19615""
""blur"",""33"",""175754""
","""event"",""trial"",""time""
""focus"",""4"",""31567""
""focus"",""34"",""181435""
","""event"",""trial"",""time""
""fullscreenenter"",""1"",""8039""
","""event"",""trial"",""time""
""fullscreenexit"",""4"",""19610""
","","","","","","null","<div style=""font-size:60px;"">+</div>","null","","fixation","","","","","","","","",""
"memory-trial","109","369895","0.0-15.0-1.33","1689","2","""event"",""trial"",""time""
""fullscreenenter"",""1"",""8039""
""fullscreenexit"",""4"",""19610""
""blur"",""4"",""19615""
""focus"",""4"",""31567""
""blur"",""33"",""175754""
""focus"",""34"",""181435""
","""event"",""trial"",""time""
""blur"",""4"",""19615""
""blur"",""33"",""175754""
","""event"",""trial"",""time""
""focus"",""4"",""31567""
""focus"",""34"",""181435""
","""event"",""trial"",""time""
""fullscreenenter"",""1"",""8039""
","""event"",""trial"",""time""
""fullscreenexit"",""4"",""19610""
","","","","","","1836","images/rabbit5.png","","","memory_trial","4","definitely_new","","","","","","",""
"html-keyboard-response","110","370395","0.0-15.0-0.34","1689","2","""event"",""trial"",""time""
""fullscreenenter"",""1"",""8039""
""fullscreenexit"",""4"",""19610""
""blur"",""4"",""19615""
""focus"",""4"",""31567""
""blur"",""33"",""175754""
""focus"",""34"",""181435""
","""event"",""trial"",""time""
""blur"",""4"",""19615""
""blur"",""33"",""175754""
","""event"",""trial"",""time""
""focus"",""4"",""31567""
""focus"",""34"",""181435""
","""event"",""trial"",""time""
""fullscreenenter"",""1"",""8039""
","""event"",""trial"",""time""
""fullscreenexit"",""4"",""19610""
","","","","","","null","<div style=""font-size:60px;"">+</div>","null","","fixation","","","","","","","","",""
"memory-trial","111","372726","0.0-15.0-1.34","1689","2","""event"",""trial"",""time""
""fullscreenenter"",""1"",""8039""
""fullscreenexit"",""4"",""19610""
""blur"",""4"",""19615""
""focus"",""4"",""31567""
""blur"",""33"",""175754""
""focus"",""34"",""181435""
","""event"",""trial"",""time""
""blur"",""4"",""19615""
""blur"",""33"",""175754""
","""event"",""trial"",""time""
""focus"",""4"",""31567""
""focus"",""34"",""181435""
","""event"",""trial"",""time""
""fullscreenenter"",""1"",""8039""
","""event"",""trial"",""time""
""fullscreenexit"",""4"",""19610""
","","","","","","1329","images/banana4.png","","","memory_trial","3","maybe_new","","","","","","",""
"html-keyboard-response","112","373226","0.0-15.0-0.35","1689","2","""event"",""trial"",""time""
""fullscreenenter"",""1"",""8039""
""fullscreenexit"",""4"",""19610""
""blur"",""4"",""19615""
""focus"",""4"",""31567""
""blur"",""33"",""175754""
""focus"",""34"",""181435""
","""event"",""trial"",""time""
""blur"",""4"",""19615""
""blur"",""33"",""175754""
","""event"",""trial"",""time""
""focus"",""4"",""31567""
""focus"",""34"",""181435""
","""event"",""trial"",""time""
""fullscreenenter"",""1"",""8039""
","""event"",""trial"",""time""
""fullscreenexit"",""4"",""19610""
","","","","","","null","<div style=""font-size:60px;"">+</div>","null","","fixation","","","","","","","","",""
"memory-trial","113","376223","0.0-15.0-1.35","1689","2","""event"",""trial"",""time""
""fullscreenenter"",""1"",""8039""
""fullscreenexit"",""4"",""19610""
""blur"",""4"",""19615""
""focus"",""4"",""31567""
""blur"",""33"",""175754""
""focus"",""34"",""181435""
","""event"",""trial"",""time""
""blur"",""4"",""19615""
""blur"",""33"",""175754""
","""event"",""trial"",""time""
""focus"",""4"",""31567""
""focus"",""34"",""181435""
","""event"",""trial"",""time""
""fullscreenenter"",""1"",""8039""
","""event"",""trial"",""time""
""fullscreenexit"",""4"",""19610""
","","","","","","1996","images/sheep3.png","","","memory_trial","4","definitely_new","","","","","","",""
"html-keyboard-response","114","376724","0.0-15.0-0.36","1689","2","""event"",""trial"",""time""
""fullscreenenter"",""1"",""8039""
""fullscreenexit"",""4"",""19610""
""blur"",""4"",""19615""
""focus"",""4"",""31567""
""blur"",""33"",""175754""
""focus"",""34"",""181435""
","""event"",""trial"",""time""
""blur"",""4"",""19615""
""blur"",""33"",""175754""
","""event"",""trial"",""time""
""focus"",""4"",""31567""
""focus"",""34"",""181435""
","""event"",""trial"",""time""
""fullscreenenter"",""1"",""8039""
","""event"",""trial"",""time""
""fullscreenexit"",""4"",""19610""
","","","","","","null","<div style=""font-size:60px;"">+</div>","null","","fixation","","","","","","","","",""
"memory-trial","115","379055","0.0-15.0-1.36","1689","2","""event"",""trial"",""time""
""fullscreenenter"",""1"",""8039""
""fullscreenexit"",""4"",""19610""
""blur"",""4"",""19615""
""focus"",""4"",""31567""
""blur"",""33"",""175754""
""focus"",""34"",""181435""
","""event"",""trial"",""time""
""blur"",""4"",""19615""
""blur"",""33"",""175754""
","""event"",""trial"",""time""
""focus"",""4"",""31567""
""focus"",""34"",""181435""
","""event"",""trial"",""time""
""fullscreenenter"",""1"",""8039""
","""event"",""trial"",""time""
""fullscreenexit"",""4"",""19610""
","","","","","","1329","images/flower1.png","","","memory_trial","4","definitely_new","","","","","","",""
"html-keyboard-response","116","379555","0.0-15.0-0.37","1689","2","""event"",""trial"",""time""
""fullscreenenter"",""1"",""8039""
""fullscreenexit"",""4"",""19610""
""blur"",""4"",""19615""
""focus"",""4"",""31567""
""blur"",""33"",""175754""
""focus"",""34"",""181435""
","""event"",""trial"",""time""
""blur"",""4"",""19615""
""blur"",""33"",""175754""
","""event"",""trial"",""time""
""focus"",""4"",""31567""
""focus"",""34"",""181435""
","""event"",""trial"",""time""
""fullscreenenter"",""1"",""8039""
","""event"",""trial"",""time""
""fullscreenexit"",""4"",""19610""
","","","","","","null","<div style=""font-size:60px;"">+</div>","null","","fixation","","","","","","","","",""
"memory-trial","117","382455","0.0-15.0-1.37","1689","2","""event"",""trial"",""time""
""fullscreenenter"",""1"",""8039""
""fullscreenexit"",""4"",""19610""
""blur"",""4"",""19615""
""focus"",""4"",""31567""
""blur"",""33"",""175754""
""focus"",""34"",""181435""
","""event"",""trial"",""time""
""blur"",""4"",""19615""
""blur"",""33"",""175754""
","""event"",""trial"",""time""
""focus"",""4"",""31567""
""focus"",""34"",""181435""
","""event"",""trial"",""time""
""fullscreenenter"",""1"",""8039""
","""event"",""trial"",""time""
""fullscreenexit"",""4"",""19610""
","","","","","","1899","images/cactus2.png","","","memory_trial","1","definitely_old","","","","","","",""
"html-keyboard-response","118","382956","0.0-15.0-0.38","1689","2","""event"",""trial"",""time""
""fullscreenenter"",""1"",""8039""
""fullscreenexit"",""4"",""19610""
""blur"",""4"",""19615""
""focus"",""4"",""31567""
""blur"",""33"",""175754""
""focus"",""34"",""181435""
","""event"",""trial"",""time""
""blur"",""4"",""19615""
""blur"",""33"",""175754""
","""event"",""trial"",""time""
""focus"",""4"",""31567""
""focus"",""34"",""181435""
","""event"",""trial"",""time""
""fullscreenenter"",""1"",""8039""
","""event"",""trial"",""time""
""fullscreenexit"",""4"",""19610""
","","","","","","null","<div style=""font-size:60px;"">+</div>","null","","fixation","","","","","","","","",""
"memory-trial","119","385118","0.0-15.0-1.38","1689","2","""event"",""trial"",""time""
""fullscreenenter"",""1"",""8039""
""fullscreenexit"",""4"",""19610""
""blur"",""4"",""19615""
""focus"",""4"",""31567""
""blur"",""33"",""175754""
""focus"",""34"",""181435""
","""event"",""trial"",""time""
""blur"",""4"",""19615""
""blur"",""33"",""175754""
","""event"",""trial"",""time""
""focus"",""4"",""31567""
""focus"",""34"",""181435""
","""event"",""trial"",""time""
""fullscreenenter"",""1"",""8039""
","""event"",""trial"",""time""
""fullscreenexit"",""4"",""19610""
","","","","","","1160","images/table5.png","","","memory_trial","4","definitely_new","","","","","","",""
"html-keyboard-response","120","385618","0.0-15.0-0.39","1689","2","""event"",""trial"",""time""
""fullscreenenter"",""1"",""8039""
""fullscreenexit"",""4"",""19610""
""blur"",""4"",""19615""
""focus"",""4"",""31567""
""blur"",""33"",""175754""
""focus"",""34"",""181435""
","""event"",""trial"",""time""
""blur"",""4"",""19615""
""blur"",""33"",""175754""
","""event"",""trial"",""time""
""focus"",""4"",""31567""
""focus"",""34"",""181435""
","""event"",""trial"",""time""
""fullscreenenter"",""1"",""8039""
","""event"",""trial"",""time""
""fullscreenexit"",""4"",""19610""
","","","","","","null","<div style=""font-size:60px;"">+</div>","null","","fixation","","","","","","","","",""
"memory-trial","121","388294","0.0-15.0-1.39","1689","2","""event"",""trial"",""time""
""fullscreenenter"",""1"",""8039""
""fullscreenexit"",""4"",""19610""
""blur"",""4"",""19615""
""focus"",""4"",""31567""
""blur"",""33"",""175754""
""focus"",""34"",""181435""
","""event"",""trial"",""time""
""blur"",""4"",""19615""
""blur"",""33"",""175754""
","""event"",""trial"",""time""
""focus"",""4"",""31567""
""focus"",""34"",""181435""
","""event"",""trial"",""time""
""fullscreenenter"",""1"",""8039""
","""event"",""trial"",""time""
""fullscreenexit"",""4"",""19610""
","","","","","","1675","images/rabbit2.png","","","memory_trial","4","definitely_new","","","","","","",""
"html-keyboard-response","122","388795","0.0-15.0-0.40","1689","2","""event"",""trial"",""time""
""fullscreenenter"",""1"",""8039""
""fullscreenexit"",""4"",""19610""
""blur"",""4"",""19615""
""focus"",""4"",""31567""
""blur"",""33"",""175754""
""focus"",""34"",""181435""
","""event"",""trial"",""time""
""blur"",""4"",""19615""
""blur"",""33"",""175754""
","""event"",""trial"",""time""
""focus"",""4"",""31567""
""focus"",""34"",""181435""
","""event"",""trial"",""time""
""fullscreenenter"",""1"",""8039""
","""event"",""trial"",""time""
""fullscreenexit"",""4"",""19610""
","","","","","","null","<div style=""font-size:60px;"">+</div>","null","","fixation","","","","","","","","",""
"memory-trial","123","391374","0.0-15.0-1.40","1689","2","""event"",""trial"",""time""
""fullscreenenter"",""1"",""8039""
""fullscreenexit"",""4"",""19610""
""blur"",""4"",""19615""
""focus"",""4"",""31567""
""blur"",""33"",""175754""
""focus"",""34"",""181435""
","""event"",""trial"",""time""
""blur"",""4"",""19615""
""blur"",""33"",""175754""
","""event"",""trial"",""time""
""focus"",""4"",""31567""
""focus"",""34"",""181435""
","""event"",""trial"",""time""
""fullscreenenter"",""1"",""8039""
","""event"",""trial"",""time""
""fullscreenexit"",""4"",""19610""
","","","","","","1577","images/feline4.png","","","memory_trial","4","definitely_new","","","","","","",""
"html-keyboard-response","124","391875","0.0-15.0-0.41","1689","2","""event"",""trial"",""time""
""fullscreenenter"",""1"",""8039""
""fullscreenexit"",""4"",""19610""
""blur"",""4"",""19615""
""focus"",""4"",""31567""
""blur"",""33"",""175754""
""focus"",""34"",""181435""
","""event"",""trial"",""time""
""blur"",""4"",""19615""
""blur"",""33"",""175754""
","""event"",""trial"",""time""
""focus"",""4"",""31567""
""focus"",""34"",""181435""
","""event"",""trial"",""time""
""fullscreenenter"",""1"",""8039""
","""event"",""trial"",""time""
""fullscreenexit"",""4"",""19610""
","","","","","","null","<div style=""font-size:60px;"">+</div>","null","","fixation","","","","","","","","",""
"memory-trial","125","394807","0.0-15.0-1.41","1689","2","""event"",""trial"",""time""
""fullscreenenter"",""1"",""8039""
""fullscreenexit"",""4"",""19610""
""blur"",""4"",""19615""
""focus"",""4"",""31567""
""blur"",""33"",""175754""
""focus"",""34"",""181435""
","""event"",""trial"",""time""
""blur"",""4"",""19615""
""blur"",""33"",""175754""
","""event"",""trial"",""time""
""focus"",""4"",""31567""
""focus"",""34"",""181435""
","""event"",""trial"",""time""
""fullscreenenter"",""1"",""8039""
","""event"",""trial"",""time""
""fullscreenexit"",""4"",""19610""
","","","","","","1931","images/cactus4.png","","","memory_trial","3","maybe_new","","","","","","",""
"html-keyboard-response","126","395308","0.0-15.0-0.42","1689","2","""event"",""trial"",""time""
""fullscreenenter"",""1"",""8039""
""fullscreenexit"",""4"",""19610""
""blur"",""4"",""19615""
""focus"",""4"",""31567""
""blur"",""33"",""175754""
""focus"",""34"",""181435""
","""event"",""trial"",""time""
""blur"",""4"",""19615""
""blur"",""33"",""175754""
","""event"",""trial"",""time""
""focus"",""4"",""31567""
""focus"",""34"",""181435""
","""event"",""trial"",""time""
""fullscreenenter"",""1"",""8039""
","""event"",""trial"",""time""
""fullscreenexit"",""4"",""19610""
","","","","","","null","<div style=""font-size:60px;"">+</div>","null","","fixation","","","","","","","","",""
"memory-trial","127","397335","0.0-15.0-1.42","1689","2","""event"",""trial"",""time""
""fullscreenenter"",""1"",""8039""
""fullscreenexit"",""4"",""19610""
""blur"",""4"",""19615""
""focus"",""4"",""31567""
""blur"",""33"",""175754""
""focus"",""34"",""181435""
","""event"",""trial"",""time""
""blur"",""4"",""19615""
""blur"",""33"",""175754""
","""event"",""trial"",""time""
""focus"",""4"",""31567""
""focus"",""34"",""181435""
","""event"",""trial"",""time""
""fullscreenenter"",""1"",""8039""
","""event"",""trial"",""time""
""fullscreenexit"",""4"",""19610""
","","","","","","1025","images/plane4.png","","","memory_trial","4","definitely_new","","","","","","",""
"html-keyboard-response","128","397835","0.0-15.0-0.43","1689","2","""event"",""trial"",""time""
""fullscreenenter"",""1"",""8039""
""fullscreenexit"",""4"",""19610""
""blur"",""4"",""19615""
""focus"",""4"",""31567""
""blur"",""33"",""175754""
""focus"",""34"",""181435""
","""event"",""trial"",""time""
""blur"",""4"",""19615""
""blur"",""33"",""175754""
","""event"",""trial"",""time""
""focus"",""4"",""31567""
""focus"",""34"",""181435""
","""event"",""trial"",""time""
""fullscreenenter"",""1"",""8039""
","""event"",""trial"",""time""
""fullscreenexit"",""4"",""19610""
","","","","","","null","<div style=""font-size:60px;"">+</div>","null","","fixation","","","","","","","","",""
"memory-trial","129","399903","0.0-15.0-1.43","1689","2","""event"",""trial"",""time""
""fullscreenenter"",""1"",""8039""
""fullscreenexit"",""4"",""19610""
""blur"",""4"",""19615""
""focus"",""4"",""31567""
""blur"",""33"",""175754""
""focus"",""34"",""181435""
","""event"",""trial"",""time""
""blur"",""4"",""19615""
""blur"",""33"",""175754""
","""event"",""trial"",""time""
""focus"",""4"",""31567""
""focus"",""34"",""181435""
","""event"",""trial"",""time""
""fullscreenenter"",""1"",""8039""
","""event"",""trial"",""time""
""fullscreenexit"",""4"",""19610""
","","","","","","1066","images/banana2.png","","","memory_trial","4","definitely_new","","","","","","",""
"html-keyboard-response","130","400403","0.0-15.0-0.44","1689","2","""event"",""trial"",""time""
""fullscreenenter"",""1"",""8039""
""fullscreenexit"",""4"",""19610""
""blur"",""4"",""19615""
""focus"",""4"",""31567""
""blur"",""33"",""175754""
""focus"",""34"",""181435""
","""event"",""trial"",""time""
""blur"",""4"",""19615""
""blur"",""33"",""175754""
","""event"",""trial"",""time""
""focus"",""4"",""31567""
""focus"",""34"",""181435""
","""event"",""trial"",""time""
""fullscreenenter"",""1"",""8039""
","""event"",""trial"",""time""
""fullscreenexit"",""4"",""19610""
","","","","","","null","<div style=""font-size:60px;"">+</div>","null","","fixation","","","","","","","","",""
"memory-trial","131","403622","0.0-15.0-1.44","1689","2","""event"",""trial"",""time""
""fullscreenenter"",""1"",""8039""
""fullscreenexit"",""4"",""19610""
""blur"",""4"",""19615""
""focus"",""4"",""31567""
""blur"",""33"",""175754""
""focus"",""34"",""181435""
","""event"",""trial"",""time""
""blur"",""4"",""19615""
""blur"",""33"",""175754""
","""event"",""trial"",""time""
""focus"",""4"",""31567""
""focus"",""34"",""181435""
","""event"",""trial"",""time""
""fullscreenenter"",""1"",""8039""
","""event"",""trial"",""time""
""fullscreenexit"",""4"",""19610""
","","","","","","2217","images/truck5.png","","","memory_trial","2","maybe_old","","","","","","",""
"html-keyboard-response","132","404122","0.0-15.0-0.45","1689","2","""event"",""trial"",""time""
""fullscreenenter"",""1"",""8039""
""fullscreenexit"",""4"",""19610""
""blur"",""4"",""19615""
""focus"",""4"",""31567""
""blur"",""33"",""175754""
""focus"",""34"",""181435""
","""event"",""trial"",""time""
""blur"",""4"",""19615""
""blur"",""33"",""175754""
","""event"",""trial"",""time""
""focus"",""4"",""31567""
""focus"",""34"",""181435""
","""event"",""trial"",""time""
""fullscreenenter"",""1"",""8039""
","""event"",""trial"",""time""
""fullscreenexit"",""4"",""19610""
","","","","","","null","<div style=""font-size:60px;"">+</div>","null","","fixation","","","","","","","","",""
"memory-trial","133","406823","0.0-15.0-1.45","1689","2","""event"",""trial"",""time""
""fullscreenenter"",""1"",""8039""
""fullscreenexit"",""4"",""19610""
""blur"",""4"",""19615""
""focus"",""4"",""31567""
""blur"",""33"",""175754""
""focus"",""34"",""181435""
","""event"",""trial"",""time""
""blur"",""4"",""19615""
""blur"",""33"",""175754""
","""event"",""trial"",""time""
""focus"",""4"",""31567""
""focus"",""34"",""181435""
","""event"",""trial"",""time""
""fullscreenenter"",""1"",""8039""
","""event"",""trial"",""time""
""fullscreenexit"",""4"",""19610""
","","","","","","1699","images/sheep5.png","","","memory_trial","4","definitely_new","","","","","","",""
"html-keyboard-response","134","407323","0.0-15.0-0.46","1689","2","""event"",""trial"",""time""
""fullscreenenter"",""1"",""8039""
""fullscreenexit"",""4"",""19610""
""blur"",""4"",""19615""
""focus"",""4"",""31567""
""blur"",""33"",""175754""
""focus"",""34"",""181435""
","""event"",""trial"",""time""
""blur"",""4"",""19615""
""blur"",""33"",""175754""
","""event"",""trial"",""time""
""focus"",""4"",""31567""
""focus"",""34"",""181435""
","""event"",""trial"",""time""
""fullscreenenter"",""1"",""8039""
","""event"",""trial"",""time""
""fullscreenexit"",""4"",""19610""
","","","","","","null","<div style=""font-size:60px;"">+</div>","null","","fixation","","","","","","","","",""
"memory-trial","135","409598","0.0-15.0-1.46","1689","2","""event"",""trial"",""time""
""fullscreenenter"",""1"",""8039""
""fullscreenexit"",""4"",""19610""
""blur"",""4"",""19615""
""focus"",""4"",""31567""
""blur"",""33"",""175754""
""focus"",""34"",""181435""
","""event"",""trial"",""time""
""blur"",""4"",""19615""
""blur"",""33"",""175754""
","""event"",""trial"",""time""
""focus"",""4"",""31567""
""focus"",""34"",""181435""
","""event"",""trial"",""time""
""fullscreenenter"",""1"",""8039""
","""event"",""trial"",""time""
""fullscreenexit"",""4"",""19610""
","","","","","","1274","images/dog5.png","","","memory_trial","1","definitely_old","","","","","","",""
"html-button-response","136","413310","0.0-15.0-2.46-0.46","1689","2","""event"",""trial"",""time""
""fullscreenenter"",""1"",""8039""
""fullscreenexit"",""4"",""19610""
""blur"",""4"",""19615""
""focus"",""4"",""31567""
""blur"",""33"",""175754""
""focus"",""34"",""181435""
","""event"",""trial"",""time""
""blur"",""4"",""19615""
""blur"",""33"",""175754""
","""event"",""trial"",""time""
""focus"",""4"",""31567""
""focus"",""34"",""181435""
","""event"",""trial"",""time""
""fullscreenenter"",""1"",""8039""
","""event"",""trial"",""time""
""fullscreenexit"",""4"",""19610""
","","","","","","3711","<p> Take a break! </p><p> Click the button to continue. </p>","0","","break","","","","","","","","",""
"html-keyboard-response","137","413811","0.0-15.0-0.47","1689","2","""event"",""trial"",""time""
""fullscreenenter"",""1"",""8039""
""fullscreenexit"",""4"",""19610""
""blur"",""4"",""19615""
""focus"",""4"",""31567""
""blur"",""33"",""175754""
""focus"",""34"",""181435""
","""event"",""trial"",""time""
""blur"",""4"",""19615""
""blur"",""33"",""175754""
","""event"",""trial"",""time""
""focus"",""4"",""31567""
""focus"",""34"",""181435""
","""event"",""trial"",""time""
""fullscreenenter"",""1"",""8039""
","""event"",""trial"",""time""
""fullscreenexit"",""4"",""19610""
","","","","","","null","<div style=""font-size:60px;"">+</div>","null","","fixation","","","","","","","","",""
"memory-trial","138","416735","0.0-15.0-1.47","1689","2","""event"",""trial"",""time""
""fullscreenenter"",""1"",""8039""
""fullscreenexit"",""4"",""19610""
""blur"",""4"",""19615""
""focus"",""4"",""31567""
""blur"",""33"",""175754""
""focus"",""34"",""181435""
","""event"",""trial"",""time""
""blur"",""4"",""19615""
""blur"",""33"",""175754""
","""event"",""trial"",""time""
""focus"",""4"",""31567""
""focus"",""34"",""181435""
","""event"",""trial"",""time""
""fullscreenenter"",""1"",""8039""
","""event"",""trial"",""time""
""fullscreenexit"",""4"",""19610""
","","","","","","1922","images/straw1.png","","","memory_trial","4","definitely_new","","","","","","",""
"html-keyboard-response","139","417236","0.0-15.0-0.48","1689","2","""event"",""trial"",""time""
""fullscreenenter"",""1"",""8039""
""fullscreenexit"",""4"",""19610""
""blur"",""4"",""19615""
""focus"",""4"",""31567""
""blur"",""33"",""175754""
""focus"",""34"",""181435""
","""event"",""trial"",""time""
""blur"",""4"",""19615""
""blur"",""33"",""175754""
","""event"",""trial"",""time""
""focus"",""4"",""31567""
""focus"",""34"",""181435""
","""event"",""trial"",""time""
""fullscreenenter"",""1"",""8039""
","""event"",""trial"",""time""
""fullscreenexit"",""4"",""19610""
","","","","","","null","<div style=""font-size:60px;"">+</div>","null","","fixation","","","","","","","","",""
"memory-trial","140","419223","0.0-15.0-1.48","1689","2","""event"",""trial"",""time""
""fullscreenenter"",""1"",""8039""
""fullscreenexit"",""4"",""19610""
""blur"",""4"",""19615""
""focus"",""4"",""31567""
""blur"",""33"",""175754""
""focus"",""34"",""181435""
","""event"",""trial"",""time""
""blur"",""4"",""19615""
""blur"",""33"",""175754""
","""event"",""trial"",""time""
""focus"",""4"",""31567""
""focus"",""34"",""181435""
","""event"",""trial"",""time""
""fullscreenenter"",""1"",""8039""
","""event"",""trial"",""time""
""fullscreenexit"",""4"",""19610""
","","","","","","985","images/train5.png","","","memory_trial","4","definitely_new","","","","","","",""
"html-keyboard-response","141","419723","0.0-15.0-0.49","1689","2","""event"",""trial"",""time""
""fullscreenenter"",""1"",""8039""
""fullscreenexit"",""4"",""19610""
""blur"",""4"",""19615""
""focus"",""4"",""31567""
""blur"",""33"",""175754""
""focus"",""34"",""181435""
","""event"",""trial"",""time""
""blur"",""4"",""19615""
""blur"",""33"",""175754""
","""event"",""trial"",""time""
""focus"",""4"",""31567""
""focus"",""34"",""181435""
","""event"",""trial"",""time""
""fullscreenenter"",""1"",""8039""
","""event"",""trial"",""time""
""fullscreenexit"",""4"",""19610""
","","","","","","null","<div style=""font-size:60px;"">+</div>","null","","fixation","","","","","","","","",""
"memory-trial","142","421934","0.0-15.0-1.49","1689","2","""event"",""trial"",""time""
""fullscreenenter"",""1"",""8039""
""fullscreenexit"",""4"",""19610""
""blur"",""4"",""19615""
""focus"",""4"",""31567""
""blur"",""33"",""175754""
""focus"",""34"",""181435""
","""event"",""trial"",""time""
""blur"",""4"",""19615""
""blur"",""33"",""175754""
","""event"",""trial"",""time""
""focus"",""4"",""31567""
""focus"",""34"",""181435""
","""event"",""trial"",""time""
""fullscreenenter"",""1"",""8039""
","""event"",""trial"",""time""
""fullscreenexit"",""4"",""19610""
","","","","","","1210","images/feline2.png","","","memory_trial","1","definitely_old","","","","","","",""
"html-keyboard-response","143","422434","0.0-15.0-0.50","1689","2","""event"",""trial"",""time""
""fullscreenenter"",""1"",""8039""
""fullscreenexit"",""4"",""19610""
""blur"",""4"",""19615""
""focus"",""4"",""31567""
""blur"",""33"",""175754""
""focus"",""34"",""181435""
","""event"",""trial"",""time""
""blur"",""4"",""19615""
""blur"",""33"",""175754""
","""event"",""trial"",""time""
""focus"",""4"",""31567""
""focus"",""34"",""181435""
","""event"",""trial"",""time""
""fullscreenenter"",""1"",""8039""
","""event"",""trial"",""time""
""fullscreenexit"",""4"",""19610""
","","","","","","null","<div style=""font-size:60px;"">+</div>","null","","fixation","","","","","","","","",""
"memory-trial","144","424350","0.0-15.0-1.50","1689","2","""event"",""trial"",""time""
""fullscreenenter"",""1"",""8039""
""fullscreenexit"",""4"",""19610""
""blur"",""4"",""19615""
""focus"",""4"",""31567""
""blur"",""33"",""175754""
""focus"",""34"",""181435""
","""event"",""trial"",""time""
""blur"",""4"",""19615""
""blur"",""33"",""175754""
","""event"",""trial"",""time""
""focus"",""4"",""31567""
""focus"",""34"",""181435""
","""event"",""trial"",""time""
""fullscreenenter"",""1"",""8039""
","""event"",""trial"",""time""
""fullscreenexit"",""4"",""19610""
","","","","","","914","images/bed5.png","","","memory_trial","4","definitely_new","","","","","","",""
"html-keyboard-response","145","424850","0.0-15.0-0.51","1689","2","""event"",""trial"",""time""
""fullscreenenter"",""1"",""8039""
""fullscreenexit"",""4"",""19610""
""blur"",""4"",""19615""
""focus"",""4"",""31567""
""blur"",""33"",""175754""
""focus"",""34"",""181435""
","""event"",""trial"",""time""
""blur"",""4"",""19615""
""blur"",""33"",""175754""
","""event"",""trial"",""time""
""focus"",""4"",""31567""
""focus"",""34"",""181435""
","""event"",""trial"",""time""
""fullscreenenter"",""1"",""8039""
","""event"",""trial"",""time""
