"trial_type","trial_index","time_elapsed","internal_node_id","subject_id","task_version","interactions","blur_events","focus_events","fullscreenenter_events","fullscreenexit_events","success","timeout","failed_images","failed_audio","failed_video","rt","stimulus","response","button_pressed","task_part","key_press","answer","correct","left_choice","middle_choice","right_choice","choice_positions","option_selected","block"
"pavlovia","0","10","0.0-0.0","2013","2","""event"",""trial"",""time""
""fullscreenenter"",""1"",""7342""
","
","
","""event"",""trial"",""time""
""fullscreenenter"",""1"",""7342""
","
","","","","","","","","","","","","","","","","","","",""
"fullscreen","1","8201","0.0-1.0","2013","2","""event"",""trial"",""time""
""fullscreenenter"",""1"",""7342""
","
","
","""event"",""trial"",""time""
""fullscreenenter"",""1"",""7342""
","
","true","","","","","","","","","","","","","","","","","",""
"preload","2","8873","0.0-2.0","2013","2","""event"",""trial"",""time""
""fullscreenenter"",""1"",""7342""
","
","
","""event"",""trial"",""time""
""fullscreenenter"",""1"",""7342""
","
","true","false","[]","[]","[]","","","","","","","","","","","","","",""
"audio-keyboard-response","3","18308","0.0-3.0","2013","2","""event"",""trial"",""time""
""fullscreenenter"",""1"",""7342""
","
","
","""event"",""trial"",""time""
""fullscreenenter"",""1"",""7342""
","
","","","","","","9429.333333333332","audio/beep_loop.wav"," ","","","","","","","","","","",""
"audio-button-response","4","20558","0.0-4.0","2013","2","""event"",""trial"",""time""
""fullscreenenter"",""1"",""7342""
","
","
","""event"",""trial"",""time""
""fullscreenenter"",""1"",""7342""
","
","","","","","","2251","audio/turtle.wav","3","","","","","","","","","","",""
"audio-button-response","5","23348","0.0-5.0","2013","2","""event"",""trial"",""time""
""fullscreenenter"",""1"",""7342""
","
","
","""event"",""trial"",""time""
""fullscreenenter"",""1"",""7342""
","
","","","","","","1771","audio/shark.wav","2","","","","","","","","","","",""
"preload","6","29358","0.0-6.0","2013","2","""event"",""trial"",""time""
""fullscreenenter"",""1"",""7342""
","
","
","""event"",""trial"",""time""
""fullscreenenter"",""1"",""7342""
","
","true","false","[]","[]","[]","","","","","","","","","","","","","",""
"learning-instructions","7","42072","0.0-7.0-0.0","2013","2","""event"",""trial"",""time""
""fullscreenenter"",""1"",""7342""
","
","
","""event"",""trial"",""time""
""fullscreenenter"",""1"",""7342""
","
","","","","","","7900","<p> Welcome back! </p><p> Last week, you had to make choices about lots of different items.  </p>","","0","instructions","","","","","","","","",""
"learning-instructions","8","50091","0.0-7.0-0.1","2013","2","""event"",""trial"",""time""
""fullscreenenter"",""1"",""7342""
","
","
","""event"",""trial"",""time""
""fullscreenenter"",""1"",""7342""
","
","","","","","","3709.699999809265","<p> Today, we are going to ask you to try to remember all the items. </p>","","0","instructions","","","","","","","","",""
"learning-instructions","9","66420","0.0-7.0-0.2","2013","2","""event"",""trial"",""time""
""fullscreenenter"",""1"",""7342""
","
","
","""event"",""trial"",""time""
""fullscreenenter"",""1"",""7342""
","
","","","","","","6198.599999904633","<p> On every trial, you will see an image. </p><p> The image may be an OLD image you saw during the games last week or it may be a NEW image that was not presented. </p>","","0","instructions","","","","","","","","",""
"learning-instructions","10","76998","0.0-7.0-0.3","2013","2","""event"",""trial"",""time""
""fullscreenenter"",""1"",""7342""
","
","
","""event"",""trial"",""time""
""fullscreenenter"",""1"",""7342""
","
","","","","","","2084.100000143051","<p> You need to select whether the image is:  </p><p>  'Definitely old', 'Maybe old', 'Maybe new', or 'Definitely new.'  </p><div class=""mem-choice-instructions-grid""><div class=""choice-option"" id=""choice-option-1"" ><img src=""images/definitely_old_1.png"" id=""choice-option-img-1"" class=""choice-option-img"" stage=""1""></div><div class=""choice-option"" id=""choice-option-2"" ><img src=""images/maybe_old_1.png"" id=""choice-option-img-2"" class=""choice-option-img"" stage=""1""></div><div class=""choice-option"" id=""choice-option-3"" ><img src=""images/maybe_new_1.png"" id=""choice-option-img-3"" class=""choice-option-img"" stage=""1""></div><div class=""choice-option"" id=""choice-option-4"" > <img src=""images/definitely_new_1.png"" id=""choice-option-img-4"" class=""choice-option-img"" stage=""1""></div></div>","","0","instructions","","","","","","","","",""
"learning-instructions","11","88627","0.0-7.0-0.4","2013","2","""event"",""trial"",""time""
""fullscreenenter"",""1"",""7342""
","
","
","""event"",""trial"",""time""
""fullscreenenter"",""1"",""7342""
","
","","","","","","4932.799999952316","<p> You should use the 1, 2, 3, and 4 keys to make your responses.  </p><div class=""mem-choice-instructions-grid""><div class=""choice-option"" id=""choice-option-1"" ><img src=""images/definitely_old.png"" id=""choice-option-img-1"" class=""choice-option-img"" stage=""1""></div><div class=""choice-option"" id=""choice-option-2"" ><img src=""images/maybe_old.png"" id=""choice-option-img-2"" class=""choice-option-img"" stage=""1""></div><div class=""choice-option"" id=""choice-option-3"" ><img src=""images/maybe_new.png"" id=""choice-option-img-3"" class=""choice-option-img"" stage=""1""></div><div class=""choice-option"" id=""choice-option-4"" > <img src=""images/definitely_new.png"" id=""choice-option-img-4"" class=""choice-option-img"" stage=""1""></div></div>","","0","instructions","","","","","","","","",""
"learning-instructions","12","99321","0.0-7.0-0.5","2013","2","""event"",""trial"",""time""
""fullscreenenter"",""1"",""7342""
","
","
","""event"",""trial"",""time""
""fullscreenenter"",""1"",""7342""
","
","","","","","","3927.5999999046326","<p> You will have 10 seconds to make each response.  </p><p>  Make sure to respond before time runs out! </p>","","0","instructions","","","","","","","","",""
"learning-instructions","13","107790","0.0-7.0-0.6","2013","2","""event"",""trial"",""time""
""fullscreenenter"",""1"",""7342""
","
","
","""event"",""trial"",""time""
""fullscreenenter"",""1"",""7342""
","
","","","","","","876.3999998569489","<p> Today, you will see each image ONCE only.  </p><p>  That means none of the images will repeat. </p>","","0","instructions","","","","","","","","",""
"learning-instructions","14","121608","0.0-7.0-0.7","2013","2","""event"",""trial"",""time""
""fullscreenenter"",""1"",""7342""
","
","
","""event"",""trial"",""time""
""fullscreenenter"",""1"",""7342""
","
","","","","","","1144.1000001430511","<p> Before you play the real game, it is time to practice. </p><p>  Just like in the real game, some of the images in the practice will be ones you have seen before. </p><p>  Others will be entirely new. </p>","","0","instructions","","","","","","","","",""
"html-button-response","15","123371","0.0-8.0","2013","2","""event"",""trial"",""time""
""fullscreenenter"",""1"",""7342""
","
","
","""event"",""trial"",""time""
""fullscreenenter"",""1"",""7342""
","
","","","","","","1655.3999998569489","<p> Ready to practice? </p><p> Remember, use the 1, 2, 3, and 4 keys to make your responses. </p>","0","","instructions","","","","","","","","",""
"html-keyboard-response","16","123992","0.0-9.0-0.0","2013","2","""event"",""trial"",""time""
""fullscreenenter"",""1"",""7342""
","
","
","""event"",""trial"",""time""
""fullscreenenter"",""1"",""7342""
","
","","","","","","null","<div style=""font-size:60px;"">+</div>","null","","fixation","","","","","","","","",""
"memory-trial","17","125092","0.0-9.0-1.0","2013","2","""event"",""trial"",""time""
""fullscreenenter"",""1"",""7342""
","
","
","""event"",""trial"",""time""
""fullscreenenter"",""1"",""7342""
","
","","","","","","82.10000014305115","images/racket3.png","","","practice","2","maybe_old","","","","","","",""
"html-keyboard-response","18","125611","0.0-9.0-0.1","2013","2","""event"",""trial"",""time""
""fullscreenenter"",""1"",""7342""
","
","
","""event"",""trial"",""time""
""fullscreenenter"",""1"",""7342""
","
","","","","","","null","<div style=""font-size:60px;"">+</div>","null","","fixation","","","","","","","","",""
"memory-trial","19","128088","0.0-9.0-1.1","2013","2","""event"",""trial"",""time""
""fullscreenenter"",""1"",""7342""
","
","
","""event"",""trial"",""time""
""fullscreenenter"",""1"",""7342""
","
","","","","","","1464.9000000953674","images/ball4.png","","","practice","2","maybe_old","","","","","","",""
"html-keyboard-response","20","128596","0.0-9.0-0.2","2013","2","""event"",""trial"",""time""
""fullscreenenter"",""1"",""7342""
","
","
","""event"",""trial"",""time""
""fullscreenenter"",""1"",""7342""
","
","","","","","","null","<div style=""font-size:60px;"">+</div>","null","","fixation","","","","","","","","",""
"memory-trial","21","131121","0.0-9.0-1.2","2013","2","""event"",""trial"",""time""
""fullscreenenter"",""1"",""7342""
","
","
","""event"",""trial"",""time""
""fullscreenenter"",""1"",""7342""
","
","","","","","","1502.3999998569489","images/racket2.png","","","practice","3","maybe_new","","","","","","",""
"html-keyboard-response","22","131631","0.0-9.0-0.3","2013","2","""event"",""trial"",""time""
""fullscreenenter"",""1"",""7342""
","
","
","""event"",""trial"",""time""
""fullscreenenter"",""1"",""7342""
","
","","","","","","null","<div style=""font-size:60px;"">+</div>","null","","fixation","","","","","","","","",""
"memory-trial","23","133942","0.0-9.0-1.3","2013","2","""event"",""trial"",""time""
""fullscreenenter"",""1"",""7342""
","
","
","""event"",""trial"",""time""
""fullscreenenter"",""1"",""7342""
","
","","","","","","1299.7000000476837","images/ball3.png","","","practice","4","definitely_new","","","","","","",""
"html-keyboard-response","24","134461","0.0-9.0-0.4","2013","2","""event"",""trial"",""time""
""fullscreenenter"",""1"",""7342""
","
","
","""event"",""trial"",""time""
""fullscreenenter"",""1"",""7342""
","
","","","","","","null","<div style=""font-size:60px;"">+</div>","null","","fixation","","","","","","","","",""
"memory-trial","25","136572","0.0-9.0-1.4","2013","2","""event"",""trial"",""time""
""fullscreenenter"",""1"",""7342""
","
","
","""event"",""trial"",""time""
""fullscreenenter"",""1"",""7342""
","
","","","","","","1103.8000001907349","images/racket1.png","","","practice","2","maybe_old","","","","","","",""
"html-keyboard-response","26","137082","0.0-9.0-0.5","2013","2","""event"",""trial"",""time""
""fullscreenenter"",""1"",""7342""
","
","
","""event"",""trial"",""time""
""fullscreenenter"",""1"",""7342""
","
","","","","","","null","<div style=""font-size:60px;"">+</div>","null","","fixation","","","","","","","","",""
"memory-trial","27","140047","0.0-9.0-1.5","2013","2","""event"",""trial"",""time""
""fullscreenenter"",""1"",""7342""
","
","
","""event"",""trial"",""time""
""fullscreenenter"",""1"",""7342""
","
","","","","","","1962.4000000953674","images/ball2.png","","","practice","1","definitely_old","","","","","","",""
"html-keyboard-response","28","140561","0.0-9.0-0.6","2013","2","""event"",""trial"",""time""
""fullscreenenter"",""1"",""7342""
","
","
","""event"",""trial"",""time""
""fullscreenenter"",""1"",""7342""
","
","","","","","","null","<div style=""font-size:60px;"">+</div>","null","","fixation","","","","","","","","",""
"memory-trial","29","143192","0.0-9.0-1.6","2013","2","""event"",""trial"",""time""
""fullscreenenter"",""1"",""7342""
","
","
","""event"",""trial"",""time""
""fullscreenenter"",""1"",""7342""
","
","","","","","","1627.1999998092651","images/racket4.png","","","practice","2","maybe_old","","","","","","",""
"html-keyboard-response","30","143697","0.0-9.0-0.7","2013","2","""event"",""trial"",""time""
""fullscreenenter"",""1"",""7342""
","
","
","""event"",""trial"",""time""
""fullscreenenter"",""1"",""7342""
","
","","","","","","null","<div style=""font-size:60px;"">+</div>","null","","fixation","","","","","","","","",""
"memory-trial","31","146292","0.0-9.0-1.7","2013","2","""event"",""trial"",""time""
""fullscreenenter"",""1"",""7342""
","
","
","""event"",""trial"",""time""
""fullscreenenter"",""1"",""7342""
","
","","","","","","1573.7999999523163","images/ball1.png","","","practice","3","maybe_new","","","","","","",""
"learning-instructions","32","159346","0.0-10.0-0.0","2013","2","""event"",""trial"",""time""
""fullscreenenter"",""1"",""7342""
","
","
","""event"",""trial"",""time""
""fullscreenenter"",""1"",""7342""
","
","","","","","","5102.5","<p> Great! You have completed the practice. </p><p> Before you start, we're going to ask you a few questions about how the game works.  </p>","","0","instructions","","","","","","","","",""
"preload","33","161486","0.0-11.0","2013","2","""event"",""trial"",""time""
""fullscreenenter"",""1"",""7342""
","
","
","""event"",""trial"",""time""
""fullscreenenter"",""1"",""7342""
","
","true","false","[]","[]","[]","","","","","","","","","","","","","",""
"comp-q","34","168210","0.0-12.0-0.0","2013","2","""event"",""trial"",""time""
""fullscreenenter"",""1"",""7342""
","
","
","""event"",""trial"",""time""
""fullscreenenter"",""1"",""7342""
","
","","","","","","896.4000000953674","<p> <b> True or False? </b> </p><p> In this game, you will only see each image once. </p>","","0","comp_question","","","true","","","","","",""
"comp-q","35","176541","0.0-12.0-1.0","2013","2","""event"",""trial"",""time""
""fullscreenenter"",""1"",""7342""
","
","
","""event"",""trial"",""time""
""fullscreenenter"",""1"",""7342""
","
","","","","","","1988.0999999046326","<p> <b> That's right! </b> You will see many different images <i> one time each </i> in this game. </p>","","0","comp_answer","","","","","","","","",""
"comp-q","36","183694","0.0-12.0-0.1","2013","2","""event"",""trial"",""time""
""fullscreenenter"",""1"",""7342""
","
","
","""event"",""trial"",""time""
""fullscreenenter"",""1"",""7342""
","
","","","","","","1350.5","<p> <b> True or False? </b> </p><p> You should use the mouse and click to make your response. </p>","","1","comp_question","","","true","","","","","",""
"comp-q","37","193655","0.0-12.0-1.1","2013","2","""event"",""trial"",""time""
""fullscreenenter"",""1"",""7342""
","
","
","""event"",""trial"",""time""
""fullscreenenter"",""1"",""7342""
","
","","","","","","2591.7999999523163","<p><b> That's right! </b> You should use the '1', '2', '3', and '4' keys to make your response. </p>","","0","comp_answer","","","","","","","","",""
"comp-q","38","200720","0.0-12.0-0.2","2013","2","""event"",""trial"",""time""
""fullscreenenter"",""1"",""7342""
","
","
","""event"",""trial"",""time""
""fullscreenenter"",""1"",""7342""
","
","","","","","","1066.7999999523163","<p> <b> True or False? </b> </p><p> You will have as much time as you want to make each choice. </p>","","1","comp_question","","","true","","","","","",""
"comp-q","39","207593","0.0-12.0-1.2","2013","2","""event"",""trial"",""time""
""fullscreenenter"",""1"",""7342""
","
","
","""event"",""trial"",""time""
""fullscreenenter"",""1"",""7342""
","
","","","","","","1479.7000000476837","<p> <b> That's right! </b> You will only have 10 seconds to make each choice. </p>","","0","comp_answer","","","","","","","","",""
"learning-instructions","40","217724","0.0-13.0","2013","2","""event"",""trial"",""time""
""fullscreenenter"",""1"",""7342""
","
","
","""event"",""trial"",""time""
""fullscreenenter"",""1"",""7342""
","
","","","","","","1450.3999998569489","<p> Great! You are now ready to begin the game. </p><p> Remember, use the 1, 2, 3, and 4 keys to make your responses. </p>","","0","instructions","","","","","","","","",""
"preload","41","222988","0.0-14.0","2013","2","""event"",""trial"",""time""
""fullscreenenter"",""1"",""7342""
","
","
","""event"",""trial"",""time""
""fullscreenenter"",""1"",""7342""
","
","true","false","[]","[]","[]","","","","","","","","","","","","","",""
"html-keyboard-response","42","223491","0.0-15.0-0.0","2013","2","""event"",""trial"",""time""
""fullscreenenter"",""1"",""7342""
","
","
","""event"",""trial"",""time""
""fullscreenenter"",""1"",""7342""
","
","","","","","","null","<div style=""font-size:60px;"">+</div>","null","","fixation","","","","","","","","",""
"memory-trial","43","226145","0.0-15.0-1.0","2013","2","""event"",""trial"",""time""
""fullscreenenter"",""1"",""7342""
","
","
","""event"",""trial"",""time""
""fullscreenenter"",""1"",""7342""
","
","","","","","","1636","images/cow5.png","","","memory_trial","1","definitely_old","","","","","","",""
"html-keyboard-response","44","226651","0.0-15.0-0.1","2013","2","""event"",""trial"",""time""
""fullscreenenter"",""1"",""7342""
","
","
","""event"",""trial"",""time""
""fullscreenenter"",""1"",""7342""
","
","","","","","","null","<div style=""font-size:60px;"">+</div>","null","","fixation","","","","","","","","",""
"memory-trial","45","229001","0.0-15.0-1.1","2013","2","""event"",""trial"",""time""
""fullscreenenter"",""1"",""7342""
","
","
","""event"",""trial"",""time""
""fullscreenenter"",""1"",""7342""
","
","","","","","","1327.3999998569489","images/rodent1.png","","","memory_trial","1","definitely_old","","","","","","",""
"html-keyboard-response","46","229504","0.0-15.0-0.2","2013","2","""event"",""trial"",""time""
""fullscreenenter"",""1"",""7342""
","
","
","""event"",""trial"",""time""
""fullscreenenter"",""1"",""7342""
","
","","","","","","null","<div style=""font-size:60px;"">+</div>","null","","fixation","","","","","","","","",""
"memory-trial","47","232176","0.0-15.0-1.2","2013","2","""event"",""trial"",""time""
""fullscreenenter"",""1"",""7342""
","
","
","""event"",""trial"",""time""
""fullscreenenter"",""1"",""7342""
","
","","","","","","1662","images/sheep2.png","","","memory_trial","2","maybe_old","","","","","","",""
"html-keyboard-response","48","232691","0.0-15.0-0.3","2013","2","""event"",""trial"",""time""
""fullscreenenter"",""1"",""7342""
","
","
","""event"",""trial"",""time""
""fullscreenenter"",""1"",""7342""
","
","","","","","","null","<div style=""font-size:60px;"">+</div>","null","","fixation","","","","","","","","",""
"memory-trial","49","235206","0.0-15.0-1.3","2013","2","""event"",""trial"",""time""
""fullscreenenter"",""1"",""7342""
","
","
","""event"",""trial"",""time""
""fullscreenenter"",""1"",""7342""
","
","","","","","","1499.8999998569489","images/apple1.png","","","memory_trial","1","definitely_old","","","","","","",""
"html-keyboard-response","50","235721","0.0-15.0-0.4","2013","2","""event"",""trial"",""time""
""fullscreenenter"",""1"",""7342""
","
","
","""event"",""trial"",""time""
""fullscreenenter"",""1"",""7342""
","
","","","","","","null","<div style=""font-size:60px;"">+</div>","null","","fixation","","","","","","","","",""
"memory-trial","51","238036","0.0-15.0-1.4","2013","2","""event"",""trial"",""time""
""fullscreenenter"",""1"",""7342""
","
","
","""event"",""trial"",""time""
""fullscreenenter"",""1"",""7342""
","
","","","","","","1293.9000000953674","images/horse2.png","","","memory_trial","1","definitely_old","","","","","","",""
"html-keyboard-response","52","238551","0.0-15.0-0.5","2013","2","""event"",""trial"",""time""
""fullscreenenter"",""1"",""7342""
","
","
","""event"",""trial"",""time""
""fullscreenenter"",""1"",""7342""
","
","","","","","","null","<div style=""font-size:60px;"">+</div>","null","","fixation","","","","","","","","",""
"memory-trial","53","240816","0.0-15.0-1.5","2013","2","""event"",""trial"",""time""
""fullscreenenter"",""1"",""7342""
","
","
","""event"",""trial"",""time""
""fullscreenenter"",""1"",""7342""
","
","","","","","","1254.5","images/bush4.png","","","memory_trial","4","definitely_new","","","","","","",""
"html-keyboard-response","54","241333","0.0-15.0-0.6","2013","2","""event"",""trial"",""time""
""fullscreenenter"",""1"",""7342""
","
","
","""event"",""trial"",""time""
""fullscreenenter"",""1"",""7342""
","
","","","","","","null","<div style=""font-size:60px;"">+</div>","null","","fixation","","","","","","","","",""
"memory-trial","55","243736","0.0-15.0-1.6","2013","2","""event"",""trial"",""time""
""fullscreenenter"",""1"",""7342""
","
","
","""event"",""trial"",""time""
""fullscreenenter"",""1"",""7342""
","
","","","","","","1389.5999999046326","images/flower1.png","","","memory_trial","2","maybe_old","","","","","","",""
"html-keyboard-response","56","244241","0.0-15.0-0.7","2013","2","""event"",""trial"",""time""
""fullscreenenter"",""1"",""7342""
","
","
","""event"",""trial"",""time""
""fullscreenenter"",""1"",""7342""
","
","","","","","","null","<div style=""font-size:60px;"">+</div>","null","","fixation","","","","","","","","",""
"memory-trial","57","246901","0.0-15.0-1.7","2013","2","""event"",""trial"",""time""
""fullscreenenter"",""1"",""7342""
","
","
","""event"",""trial"",""time""
""fullscreenenter"",""1"",""7342""
","
","","","","","","1647","images/horse1.png","","","memory_trial","2","maybe_old","","","","","","",""
"html-keyboard-response","58","247409","0.0-15.0-0.8","2013","2","""event"",""trial"",""time""
""fullscreenenter"",""1"",""7342""
","
","
","""event"",""trial"",""time""
""fullscreenenter"",""1"",""7342""
","
","","","","","","null","<div style=""font-size:60px;"">+</div>","null","","fixation","","","","","","","","",""
"memory-trial","59","249846","0.0-15.0-1.8","2013","2","""event"",""trial"",""time""
""fullscreenenter"",""1"",""7342""
","
","
","""event"",""trial"",""time""
""fullscreenenter"",""1"",""7342""
","
","","","","","","1429.5","images/orange2.png","","","memory_trial","3","maybe_new","","","","","","",""
"html-keyboard-response","60","250364","0.0-15.0-0.9","2013","2","""event"",""trial"",""time""
""fullscreenenter"",""1"",""7342""
","
","
","""event"",""trial"",""time""
""fullscreenenter"",""1"",""7342""
","
","","","","","","null","<div style=""font-size:60px;"">+</div>","null","","fixation","","","","","","","","",""
"memory-trial","61","252580","0.0-15.0-1.9","2013","2","""event"",""trial"",""time""
""fullscreenenter"",""1"",""7342""
","
","
","""event"",""trial"",""time""
""fullscreenenter"",""1"",""7342""
","
","","","","","","1210","images/sofa3.png","","","memory_trial","4","definitely_new","","","","","","",""
"html-keyboard-response","62","253082","0.0-15.0-0.10","2013","2","""event"",""trial"",""time""
""fullscreenenter"",""1"",""7342""
","
","
","""event"",""trial"",""time""
""fullscreenenter"",""1"",""7342""
","
","","","","","","null","<div style=""font-size:60px;"">+</div>","null","","fixation","","","","","","","","",""
"memory-trial","63","255441","0.0-15.0-1.10","2013","2","""event"",""trial"",""time""
""fullscreenenter"",""1"",""7342""
","
","
","""event"",""trial"",""time""
""fullscreenenter"",""1"",""7342""
","
","","","","","","1346.8999998569489","images/cow2.png","","","memory_trial","2","maybe_old","","","","","","",""
"html-keyboard-response","64","255945","0.0-15.0-0.11","2013","2","""event"",""trial"",""time""
""fullscreenenter"",""1"",""7342""
","
","
","""event"",""trial"",""time""
""fullscreenenter"",""1"",""7342""
","
","","","","","","null","<div style=""font-size:60px;"">+</div>","null","","fixation","","","","","","","","",""
"memory-trial","65","258175","0.0-15.0-1.11","2013","2","""event"",""trial"",""time""
""fullscreenenter"",""1"",""7342""
","
","
","""event"",""trial"",""time""
""fullscreenenter"",""1"",""7342""
","
","","","","","","1223.1000001430511","images/cactus5.png","","","memory_trial","2","maybe_old","","","","","","",""
"html-keyboard-response","66","258684","0.0-15.0-0.12","2013","2","""event"",""trial"",""time""
""fullscreenenter"",""1"",""7342""
","
","
","""event"",""trial"",""time""
""fullscreenenter"",""1"",""7342""
","
","","","","","","null","<div style=""font-size:60px;"">+</div>","null","","fixation","","","","","","","","",""
"memory-trial","67","261085","0.0-15.0-1.12","2013","2","""event"",""trial"",""time""
""fullscreenenter"",""1"",""7342""
","
","
","""event"",""trial"",""time""
""fullscreenenter"",""1"",""7342""
","
","","","","","","1382.4000000953674","images/feline1.png","","","memory_trial","3","maybe_new","","","","","","",""
"html-keyboard-response","68","261599","0.0-15.0-0.13","2013","2","""event"",""trial"",""time""
""fullscreenenter"",""1"",""7342""
","
","
","""event"",""trial"",""time""
""fullscreenenter"",""1"",""7342""
","
","","","","","","null","<div style=""font-size:60px;"">+</div>","null","","fixation","","","","","","","","",""
"memory-trial","69","263904","0.0-15.0-1.13","2013","2","""event"",""trial"",""time""
""fullscreenenter"",""1"",""7342""
","
","
","""event"",""trial"",""time""
""fullscreenenter"",""1"",""7342""
","
","","","","","","1292.5","images/bed1.png","","","memory_trial","1","definitely_old","","","","","","",""
"html-keyboard-response","70","264418","0.0-15.0-0.14","2013","2","""event"",""trial"",""time""
""fullscreenenter"",""1"",""7342""
","
","
","""event"",""trial"",""time""
""fullscreenenter"",""1"",""7342""
","
","","","","","","null","<div style=""font-size:60px;"">+</div>","null","","fixation","","","","","","","","",""
"memory-trial","71","266743","0.0-15.0-1.14","2013","2","""event"",""trial"",""time""
""fullscreenenter"",""1"",""7342""
","
","
","""event"",""trial"",""time""
""fullscreenenter"",""1"",""7342""
","
","","","","","","1317.5","images/table1.png","","","memory_trial","4","definitely_new","","","","","","",""
"html-keyboard-response","72","267252","0.0-15.0-0.15","2013","2","""event"",""trial"",""time""
""fullscreenenter"",""1"",""7342""
","
","
","""event"",""trial"",""time""
""fullscreenenter"",""1"",""7342""
","
","","","","","","null","<div style=""font-size:60px;"">+</div>","null","","fixation","","","","","","","","",""
"memory-trial","73","269423","0.0-15.0-1.15","2013","2","""event"",""trial"",""time""
""fullscreenenter"",""1"",""7342""
","
","
","""event"",""trial"",""time""
""fullscreenenter"",""1"",""7342""
","
","","","","","","1162.7999999523163","images/rabbit1.png","","","memory_trial","4","definitely_new","","","","","","",""
"html-keyboard-response","74","269927","0.0-15.0-0.16","2013","2","""event"",""trial"",""time""
""fullscreenenter"",""1"",""7342""
","
","
","""event"",""trial"",""time""
""fullscreenenter"",""1"",""7342""
","
","","","","","","null","<div style=""font-size:60px;"">+</div>","null","","fixation","","","","","","","","",""
"memory-trial","75","271997","0.0-15.0-1.16","2013","2","""event"",""trial"",""time""
""fullscreenenter"",""1"",""7342""
","
","
","""event"",""trial"",""time""
""fullscreenenter"",""1"",""7342""
","
","","","","","","1066.9000000953674","images/train3.png","","","memory_trial","2","maybe_old","","","","","","",""
"html-keyboard-response","76","272512","0.0-15.0-0.17","2013","2","""event"",""trial"",""time""
""fullscreenenter"",""1"",""7342""
","
","
","""event"",""trial"",""time""
""fullscreenenter"",""1"",""7342""
","
","","","","","","null","<div style=""font-size:60px;"">+</div>","null","","fixation","","","","","","","","",""
"memory-trial","77","274309","0.0-15.0-1.17","2013","2","""event"",""trial"",""time""
""fullscreenenter"",""1"",""7342""
","
","
","""event"",""trial"",""time""
""fullscreenenter"",""1"",""7342""
","
","","","","","","791.6000001430511","images/table4.png","","","memory_trial","1","definitely_old","","","","","","",""
"html-keyboard-response","78","274816","0.0-15.0-0.18","2013","2","""event"",""trial"",""time""
""fullscreenenter"",""1"",""7342""
","
","
","""event"",""trial"",""time""
""fullscreenenter"",""1"",""7342""
","
","","","","","","null","<div style=""font-size:60px;"">+</div>","null","","fixation","","","","","","","","",""
"memory-trial","79","277303","0.0-15.0-1.18","2013","2","""event"",""trial"",""time""
""fullscreenenter"",""1"",""7342""
","
","
","""event"",""trial"",""time""
""fullscreenenter"",""1"",""7342""
","
","","","","","","1484.3000001907349","images/goat4.png","","","memory_trial","4","definitely_new","","","","","","",""
"html-keyboard-response","80","277805","0.0-15.0-0.19","2013","2","""event"",""trial"",""time""
""fullscreenenter"",""1"",""7342""
","
","
","""event"",""trial"",""time""
""fullscreenenter"",""1"",""7342""
","
","","","","","","null","<div style=""font-size:60px;"">+</div>","null","","fixation","","","","","","","","",""
"memory-trial","81","279955","0.0-15.0-1.19","2013","2","""event"",""trial"",""time""
""fullscreenenter"",""1"",""7342""
","
","
","""event"",""trial"",""time""
""fullscreenenter"",""1"",""7342""
","
","","","","","","1135.6000001430511","images/dog2.png","","","memory_trial","1","definitely_old","","","","","","",""
"html-keyboard-response","82","280457","0.0-15.0-0.20","2013","2","""event"",""trial"",""time""
""fullscreenenter"",""1"",""7342""
","
","
","""event"",""trial"",""time""
""fullscreenenter"",""1"",""7342""
","
","","","","","","null","<div style=""font-size:60px;"">+</div>","null","","fixation","","","","","","","","",""
"memory-trial","83","282467","0.0-15.0-1.20","2013","2","""event"",""trial"",""time""
""fullscreenenter"",""1"",""7342""
","
","
","""event"",""trial"",""time""
""fullscreenenter"",""1"",""7342""
","
","","","","","","1004","images/orange3.png","","","memory_trial","2","maybe_old","","","","","","",""
"html-keyboard-response","84","282970","0.0-15.0-0.21","2013","2","""event"",""trial"",""time""
""fullscreenenter"",""1"",""7342""
","
","
","""event"",""trial"",""time""
""fullscreenenter"",""1"",""7342""
","
","","","","","","null","<div style=""font-size:60px;"">+</div>","null","","fixation","","","","","","","","",""
"memory-trial","85","285370","0.0-15.0-1.21","2013","2","""event"",""trial"",""time""
""fullscreenenter"",""1"",""7342""
","
","
","""event"",""trial"",""time""
""fullscreenenter"",""1"",""7342""
","
","","","","","","1391","images/feline3.png","","","memory_trial","1","definitely_old","","","","","","",""
"html-keyboard-response","86","285879","0.0-15.0-0.22","2013","2","""event"",""trial"",""time""
""fullscreenenter"",""1"",""7342""
","
","
","""event"",""trial"",""time""
""fullscreenenter"",""1"",""7342""
","
","","","","","","null","<div style=""font-size:60px;"">+</div>","null","","fixation","","","","","","","","",""
"memory-trial","87","288065","0.0-15.0-1.22","2013","2","""event"",""trial"",""time""
""fullscreenenter"",""1"",""7342""
","
","
","""event"",""trial"",""time""
""fullscreenenter"",""1"",""7342""
","
","","","","","","1176.1000001430511","images/bush2.png","","","memory_trial","2","maybe_old","","","","","","",""
"html-keyboard-response","88","288568","0.0-15.0-0.23","2013","2","""event"",""trial"",""time""
""fullscreenenter"",""1"",""7342""
","
","
","""event"",""trial"",""time""
""fullscreenenter"",""1"",""7342""
","
","","","","","","null","<div style=""font-size:60px;"">+</div>","null","","fixation","","","","","","","","",""
"memory-trial","89","291034","0.0-15.0-1.23","2013","2","""event"",""trial"",""time""
""fullscreenenter"",""1"",""7342""
","
","
","""event"",""trial"",""time""
""fullscreenenter"",""1"",""7342""
","
","","","","","","1456.5","images/rodent5.png","","","memory_trial","1","definitely_old","","","","","","",""
"html-keyboard-response","90","291548","0.0-15.0-0.24","2013","2","""event"",""trial"",""time""
""fullscreenenter"",""1"",""7342""
","
","
","""event"",""trial"",""time""
""fullscreenenter"",""1"",""7342""
","
","","","","","","null","<div style=""font-size:60px;"">+</div>","null","","fixation","","","","","","","","",""
"memory-trial","91","293608","0.0-15.0-1.24","2013","2","""event"",""trial"",""time""
""fullscreenenter"",""1"",""7342""
","
","
","""event"",""trial"",""time""
""fullscreenenter"",""1"",""7342""
","
","","","","","","1047.4000000953674","images/straw4.png","","","memory_trial","1","definitely_old","","","","","","",""
"html-keyboard-response","92","294118","0.0-15.0-0.25","2013","2","""event"",""trial"",""time""
""fullscreenenter"",""1"",""7342""
","
","
","""event"",""trial"",""time""
""fullscreenenter"",""1"",""7342""
","
","","","","","","null","<div style=""font-size:60px;"">+</div>","null","","fixation","","","","","","","","",""
"memory-trial","93","296562","0.0-15.0-1.25","2013","2","""event"",""trial"",""time""
""fullscreenenter"",""1"",""7342""
","
","
","""event"",""trial"",""time""
""fullscreenenter"",""1"",""7342""
","
","","","","","","1435.5","images/bed5.png","","","memory_trial","3","maybe_new","","","","","","",""
"html-keyboard-response","94","297077","0.0-15.0-0.26","2013","2","""event"",""trial"",""time""
""fullscreenenter"",""1"",""7342""
","
","
","""event"",""trial"",""time""
""fullscreenenter"",""1"",""7342""
","
","","","","","","null","<div style=""font-size:60px;"">+</div>","null","","fixation","","","","","","","","",""
"memory-trial","95","299148","0.0-15.0-1.26","2013","2","""event"",""trial"",""time""
""fullscreenenter"",""1"",""7342""
","
","
","""event"",""trial"",""time""
""fullscreenenter"",""1"",""7342""
","
","","","","","","1066.2999999523163","images/banana2.png","","","memory_trial","4","definitely_new","","","","","","",""
"html-keyboard-response","96","299653","0.0-15.0-0.27","2013","2","""event"",""trial"",""time""
""fullscreenenter"",""1"",""7342""
","
","
","""event"",""trial"",""time""
""fullscreenenter"",""1"",""7342""
","
","","","","","","null","<div style=""font-size:60px;"">+</div>","null","","fixation","","","","","","","","",""
"memory-trial","97","301586","0.0-15.0-1.27","2013","2","""event"",""trial"",""time""
""fullscreenenter"",""1"",""7342""
","
","
","""event"",""trial"",""time""
""fullscreenenter"",""1"",""7342""
","
","","","","","","927.1000001430511","images/cactus4.png","","","memory_trial","1","definitely_old","","","","","","",""
"html-keyboard-response","98","302101","0.0-15.0-0.28","2013","2","""event"",""trial"",""time""
""fullscreenenter"",""1"",""7342""
","
","
","""event"",""trial"",""time""
""fullscreenenter"",""1"",""7342""
","
","","","","","","null","<div style=""font-size:60px;"">+</div>","null","","fixation","","","","","","","","",""
"memory-trial","99","304378","0.0-15.0-1.28","2013","2","""event"",""trial"",""time""
""fullscreenenter"",""1"",""7342""
","
","
","""event"",""trial"",""time""
""fullscreenenter"",""1"",""7342""
","
","","","","","","1269.8000001907349","images/cow1.png","","","memory_trial","1","definitely_old","","","","","","",""
"html-keyboard-response","100","304885","0.0-15.0-0.29","2013","2","""event"",""trial"",""time""
""fullscreenenter"",""1"",""7342""
","
","
","""event"",""trial"",""time""
""fullscreenenter"",""1"",""7342""
","
","","","","","","null","<div style=""font-size:60px;"">+</div>","null","","fixation","","","","","","","","",""
"memory-trial","101","307353","0.0-15.0-1.29","2013","2","""event"",""trial"",""time""
""fullscreenenter"",""1"",""7342""
","
","
","""event"",""trial"",""time""
""fullscreenenter"",""1"",""7342""
","
","","","","","","1462.9000000953674","images/straw5.png","","","memory_trial","2","maybe_old","","","","","","",""
"html-keyboard-response","102","307855","0.0-15.0-0.30","2013","2","""event"",""trial"",""time""
""fullscreenenter"",""1"",""7342""
","
","
","""event"",""trial"",""time""
""fullscreenenter"",""1"",""7342""
","
","","","","","","null","<div style=""font-size:60px;"">+</div>","null","","fixation","","","","","","","","",""
"memory-trial","103","310024","0.0-15.0-1.30","2013","2","""event"",""trial"",""time""
""fullscreenenter"",""1"",""7342""
","
","
","""event"",""trial"",""time""
""fullscreenenter"",""1"",""7342""
","
","","","","","","1153.8999998569489","images/flower5.png","","","memory_trial","4","definitely_new","","","","","","",""
"html-keyboard-response","104","310541","0.0-15.0-0.31","2013","2","""event"",""trial"",""time""
""fullscreenenter"",""1"",""7342""
","
","
","""event"",""trial"",""time""
""fullscreenenter"",""1"",""7342""
","
","","","","","","null","<div style=""font-size:60px;"">+</div>","null","","fixation","","","","","","","","",""
"memory-trial","105","312588","0.0-15.0-1.31","2013","2","""event"",""trial"",""time""
""fullscreenenter"",""1"",""7342""
","
","
","""event"",""trial"",""time""
""fullscreenenter"",""1"",""7342""
","
","","","","","","1038.0999999046326","images/truck4.png","","","memory_trial","4","definitely_new","","","","","","",""
"html-keyboard-response","106","313095","0.0-15.0-0.32","2013","2","""event"",""trial"",""time""
""fullscreenenter"",""1"",""7342""
","
","
","""event"",""trial"",""time""
""fullscreenenter"",""1"",""7342""
","
","","","","","","null","<div style=""font-size:60px;"">+</div>","null","","fixation","","","","","","","","",""
"memory-trial","107","315171","0.0-15.0-1.32","2013","2","""event"",""trial"",""time""
""fullscreenenter"",""1"",""7342""
","
","
","""event"",""trial"",""time""
""fullscreenenter"",""1"",""7342""
","
","","","","","","1068.1000001430511","images/sofa2.png","","","memory_trial","2","maybe_old","","","","","","",""
"html-keyboard-response","108","315685","0.0-15.0-0.33","2013","2","""event"",""trial"",""time""
""fullscreenenter"",""1"",""7342""
","
","
","""event"",""trial"",""time""
""fullscreenenter"",""1"",""7342""
","
","","","","","","null","<div style=""font-size:60px;"">+</div>","null","","fixation","","","","","","","","",""
"memory-trial","109","318545","0.0-15.0-1.33","2013","2","""event"",""trial"",""time""
""fullscreenenter"",""1"",""7342""
","
","
","""event"",""trial"",""time""
""fullscreenenter"",""1"",""7342""
","
","","","","","","1850.7999999523163","images/goat1.png","","","memory_trial","3","maybe_new","","","","","","",""
"html-keyboard-response","110","319059","0.0-15.0-0.34","2013","2","""event"",""trial"",""time""
""fullscreenenter"",""1"",""7342""
","
","
","""event"",""trial"",""time""
""fullscreenenter"",""1"",""7342""
","
","","","","","","null","<div style=""font-size:60px;"">+</div>","null","","fixation","","","","","","","","",""
"memory-trial","111","321328","0.0-15.0-1.34","2013","2","""event"",""trial"",""time""
""fullscreenenter"",""1"",""7342""
","
","
","""event"",""trial"",""time""
""fullscreenenter"",""1"",""7342""
","
","","","","","","1252.7999999523163","images/flower2.png","","","memory_trial","4","definitely_new","","","","","","",""
"html-keyboard-response","112","321837","0.0-15.0-0.35","2013","2","""event"",""trial"",""time""
""fullscreenenter"",""1"",""7342""
","
","
","""event"",""trial"",""time""
""fullscreenenter"",""1"",""7342""
","
","","","","","","null","<div style=""font-size:60px;"">+</div>","null","","fixation","","","","","","","","",""
"memory-trial","113","323624","0.0-15.0-1.35","2013","2","""event"",""trial"",""time""
""fullscreenenter"",""1"",""7342""
","
","
","""event"",""trial"",""time""
""fullscreenenter"",""1"",""7342""
","
","","","","","","772.5999999046326","images/orange5.png","","","memory_trial","1","definitely_old","","","","","","",""
"html-keyboard-response","114","324132","0.0-15.0-0.36","2013","2","""event"",""trial"",""time""
""fullscreenenter"",""1"",""7342""
","
","
","""event"",""trial"",""time""
""fullscreenenter"",""1"",""7342""
","
","","","","","","null","<div style=""font-size:60px;"">+</div>","null","","fixation","","","","","","","","",""
"memory-trial","115","327314","0.0-15.0-1.36","2013","2","""event"",""trial"",""time""
""fullscreenenter"",""1"",""7342""
","
","
","""event"",""trial"",""time""
""fullscreenenter"",""1"",""7342""
","
","","","","","","2171.2999999523163","images/rodent3.png","","","memory_trial","2","maybe_old","","","","","","",""
"html-keyboard-response","116","327821","0.0-15.0-0.37","2013","2","""event"",""trial"",""time""
""fullscreenenter"",""1"",""7342""
","
","
","""event"",""trial"",""time""
""fullscreenenter"",""1"",""7342""
","
","","","","","","null","<div style=""font-size:60px;"">+</div>","null","","fixation","","","","","","","","",""
"memory-trial","117","329717","0.0-15.0-1.37","2013","2","""event"",""trial"",""time""
""fullscreenenter"",""1"",""7342""
","
","
","""event"",""trial"",""time""
""fullscreenenter"",""1"",""7342""
","
","","","","","","884.5","images/truck2.png","","","memory_trial","3","maybe_new","","","","","","",""
"html-keyboard-response","118","330222","0.0-15.0-0.38","2013","2","""event"",""trial"",""time""
""fullscreenenter"",""1"",""7342""
","
","
","""event"",""trial"",""time""
""fullscreenenter"",""1"",""7342""
","
","","","","","","null","<div style=""font-size:60px;"">+</div>","null","","fixation","","","","","","","","",""
"memory-trial","119","333017","0.0-15.0-1.38","2013","2","""event"",""trial"",""time""
""fullscreenenter"",""1"",""7342""
","
","
","""event"",""trial"",""time""
""fullscreenenter"",""1"",""7342""
","
","","","","","","1787.9000000953674","images/plane5.png","","","memory_trial","1","definitely_old","","","","","","",""
"html-keyboard-response","120","333528","0.0-15.0-0.39","2013","2","""event"",""trial"",""time""
""fullscreenenter"",""1"",""7342""
","
","
","""event"",""trial"",""time""
""fullscreenenter"",""1"",""7342""
","
","","","","","","null","<div style=""font-size:60px;"">+</div>","null","","fixation","","","","","","","","",""
"memory-trial","121","336769","0.0-15.0-1.39","2013","2","""event"",""trial"",""time""
""fullscreenenter"",""1"",""7342""
","
","
","""event"",""trial"",""time""
""fullscreenenter"",""1"",""7342""
","
","","","","","","2236.0999999046326","images/cactus2.png","","","memory_trial","2","maybe_old","","","","","","",""
"html-keyboard-response","122","337284","0.0-15.0-0.40","2013","2","""event"",""trial"",""time""
""fullscreenenter"",""1"",""7342""
","
","
","""event"",""trial"",""time""
""fullscreenenter"",""1"",""7342""
","
","","","","","","null","<div style=""font-size:60px;"">+</div>","null","","fixation","","","","","","","","",""
"memory-trial","123","339633","0.0-15.0-1.40","2013","2","""event"",""trial"",""time""
""fullscreenenter"",""1"",""7342""
","
","
","""event"",""trial"",""time""
""fullscreenenter"",""1"",""7342""
","
","","","","","","1345.1000001430511","images/feline4.png","","","memory_trial","3","maybe_new","","","","","","",""
"html-keyboard-response","124","340137","0.0-15.0-0.41","2013","2","""event"",""trial"",""time""
""fullscreenenter"",""1"",""7342""
","
","
","""event"",""trial"",""time""
""fullscreenenter"",""1"",""7342""
","
","","","","","","null","<div style=""font-size:60px;"">+</div>","null","","fixation","","","","","","","","",""
"memory-trial","125","342182","0.0-15.0-1.41","2013","2","""event"",""trial"",""time""
""fullscreenenter"",""1"",""7342""
","
","
","""event"",""trial"",""time""
""fullscreenenter"",""1"",""7342""
","
","","","","","","1035.9000000953674","images/boat2.png","","","memory_trial","2","maybe_old","","","","","","",""
"html-keyboard-response","126","342689","0.0-15.0-0.42","2013","2","""event"",""trial"",""time""
""fullscreenenter"",""1"",""7342""
","
","
","""event"",""trial"",""time""
""fullscreenenter"",""1"",""7342""
","
","","","","","","null","<div style=""font-size:60px;"">+</div>","null","","fixation","","","","","","","","",""
"memory-trial","127","344776","0.0-15.0-1.42","2013","2","""event"",""trial"",""time""
""fullscreenenter"",""1"",""7342""
","
","
","""event"",""trial"",""time""
""fullscreenenter"",""1"",""7342""
","
","","","","","","1079.2999999523163","images/tree5.png","","","memory_trial","1","definitely_old","","","","","","",""
"html-keyboard-response","128","345287","0.0-15.0-0.43","2013","2","""event"",""trial"",""time""
""fullscreenenter"",""1"",""7342""
","
","
","""event"",""trial"",""time""
""fullscreenenter"",""1"",""7342""
","
","","","","","","null","<div style=""font-size:60px;"">+</div>","null","","fixation","","","","","","","","",""
"memory-trial","129","347248","0.0-15.0-1.43","2013","2","""event"",""trial"",""time""
""fullscreenenter"",""1"",""7342""
","
","
","""event"",""trial"",""time""
""fullscreenenter"",""1"",""7342""
","
","","","","","","955.8999998569489","images/table5.png","","","memory_trial","1","definitely_old","","","","","","",""
"html-keyboard-response","130","347755","0.0-15.0-0.44","2013","2","""event"",""trial"",""time""
""fullscreenenter"",""1"",""7342""
","
","
","""event"",""trial"",""time""
""fullscreenenter"",""1"",""7342""
","
","","","","","","null","<div style=""font-size:60px;"">+</div>","null","","fixation","","","","","","","","",""
"memory-trial","131","349683","0.0-15.0-1.44","2013","2","""event"",""trial"",""time""
""fullscreenenter"",""1"",""7342""
","
","
","""event"",""trial"",""time""
""fullscreenenter"",""1"",""7342""
","
","","","","","","910.6999998092651","images/flower3.png","","","memory_trial","2","maybe_old","","","","","","",""
"html-keyboard-response","132","350188","0.0-15.0-0.45","2013","2","""event"",""trial"",""time""
""fullscreenenter"",""1"",""7342""
","
","
","""event"",""trial"",""time""
""fullscreenenter"",""1"",""7342""
","
","","","","","","null","<div style=""font-size:60px;"">+</div>","null","","fixation","","","","","","","","",""
"memory-trial","133","352380","0.0-15.0-1.45","2013","2","""event"",""trial"",""time""
""fullscreenenter"",""1"",""7342""
","
","
","""event"",""trial"",""time""
""fullscreenenter"",""1"",""7342""
","
","","","","","","1183.9000000953674","images/sheep1.png","","","memory_trial","2","maybe_old","","","","","","",""
"html-keyboard-response","134","352883","0.0-15.0-0.46","2013","2","""event"",""trial"",""time""
""fullscreenenter"",""1"",""7342""
","
","
","""event"",""trial"",""time""
""fullscreenenter"",""1"",""7342""
","
","","","","","","null","<div style=""font-size:60px;"">+</div>","null","","fixation","","","","","","","","",""
"memory-trial","135","355444","0.0-15.0-1.46","2013","2","""event"",""trial"",""time""
""fullscreenenter"",""1"",""7342""
","
","
","""event"",""trial"",""time""
""fullscreenenter"",""1"",""7342""
","
","","","","","","1554","images/boat3.png","","","memory_trial","3","maybe_new","","","","","","",""
"html-button-response","136","362984","0.0-15.0-2.46-0.46","2013","2","""event"",""trial"",""time""
""fullscreenenter"",""1"",""7342""
","
","
","""event"",""trial"",""time""
""fullscreenenter"",""1"",""7342""
","
","","","","","","7539.099999904633","<p> Take a break! </p><p> Click the button to continue. </p>","0","","break","","","","","","","","",""
"html-keyboard-response","137","363487","0.0-15.0-0.47","2013","2","""event"",""trial"",""time""
""fullscreenenter"",""1"",""7342""
","
","
","""event"",""trial"",""time""
""fullscreenenter"",""1"",""7342""
","
","","","","","","null","<div style=""font-size:60px;"">+</div>","null","","fixation","","","","","","","","",""
"memory-trial","138","367020","0.0-15.0-1.47","2013","2","""event"",""trial"",""time""
""fullscreenenter"",""1"",""7342""
","
","
","""event"",""trial"",""time""
""fullscreenenter"",""1"",""7342""
","
","","","","","","2524.5","images/bush3.png","","","memory_trial","4","definitely_new","","","","","","",""
"html-keyboard-response","139","367526","0.0-15.0-0.48","2013","2","""event"",""trial"",""time""
""fullscreenenter"",""1"",""7342""
","
","
","""event"",""trial"",""time""
""fullscreenenter"",""1"",""7342""
","
","","","","","","null","<div style=""font-size:60px;"">+</div>","null","","fixation","","","","","","","","",""
"memory-trial","140","369600","0.0-15.0-1.48","2013","2","""event"",""trial"",""time""
""fullscreenenter"",""1"",""7342""
","
","
","""event"",""trial"",""time""
""fullscreenenter"",""1"",""7342""
","
","","","","","","1068.3999998569489","images/tree2.png","","","memory_trial","2","maybe_old","","","","","","",""
"html-keyboard-response","141","370105","0.0-15.0-0.49","2013","2","""event"",""trial"",""time""
""fullscreenenter"",""1"",""7342""
","
","
","""event"",""trial"",""time""
""fullscreenenter"",""1"",""7342""
","
","","","","","","null","<div style=""font-size:60px;"">+</div>","null","","fixation","","","","","","","","",""
"memory-trial","142","372285","0.0-15.0-1.49","2013","2","""event"",""trial"",""time""
""fullscreenenter"",""1"",""7342""
","
","
","""event"",""trial"",""time""
""fullscreenenter"",""1"",""7342""
","
","","","","","","1175.7000000476837","images/rabbit4.png","","","memory_trial","2","maybe_old","","","","","","",""
"html-keyboard-response","143","372792","0.0-15.0-0.50","2013","2","""event"",""trial"",""time""
""fullscreenenter"",""1"",""7342""
","
","
","""event"",""trial"",""time""
""fullscreenenter"",""1"",""7342""
","
","","","","","","null","<div style=""font-size:60px;"">+</div>","null","","fixation","","","","","","","","",""
"memory-trial","144","374990","0.0-15.0-1.50","2013","2","""event"",""trial"",""time""
""fullscreenenter"",""1"",""7342""
","
","
","""event"",""trial"",""time""
""fullscreenenter"",""1"",""7342""
","
","","","","","","1180.4000000953674","images/plane2.png","","","memory_trial","4","definitely_new","","","","","","",""
"html-keyboard-response","145","375496","0.0-15.0-0.51","2013","2","""event"",""trial"",""time""
""fullscreenenter"",""1"",""7342""
","
","
","""event"",""trial"",""time""
""fullscreenenter"",""1"",""7342""
","
","","","","","","null","<div style=""font-size:60px;"">+</div>","null","","fixation","","","","","","","","",""
"memory-trial","146","377756","0.0-15.0-1.51","2013","2","""event"",""trial"",""time""
""fullscreenenter"",""1"",""7342""
","
","
","""event"",""trial"",""time""
""fullscreenenter"",""1"",""7342""
","
","","","","","","1258.2999999523163","images/rabbit5.png","","","memory_trial","3","maybe_new","","","","","","",""
"html-keyboard-response","147","378266","0.0-15.0-0.52","2013","2","""event"",""trial"",""time""
""fullscreenenter"",""1"",""7342""
","
","
","""event"",""trial"",""time""
""fullscreenenter"",""1"",""7342""
","
","","","","","","null","<div style=""font-size:60px;"">+</div>","null","","fixation","","","","","","","","",""
"memory-trial","148","380616","0.0-15.0-1.52","2013","2","""event"",""trial"",""time""
""fullscreenenter"",""1"",""7342""
","
","
","""event"",""trial"",""time""
""fullscreenenter"",""1"",""7342""
","
","","","","","","1339.9000000953674","images/apple4.png","","","memory_trial","3","maybe_new","","","","","","",""
"html-keyboard-response","149","381118","0.0-15.0-0.53","2013","2","""event"",""trial"",""time""
""fullscreenenter"",""1"",""7342""
","
","
","""event"",""trial"",""time""
""fullscreenenter"",""1"",""7342""
","
","","","","","","null","<div style=""font-size:60px;"">+</div>","null","","fixation","","","","","","","","",""
"memory-trial","150","383219","0.0-15.0-1.53","2013","2","""event"",""trial"",""time""
""fullscreenenter"",""1"",""7342""
","
","
","""event"",""trial"",""time""
""fullscreenenter"",""1"",""7342""
","
","","","","","","1090.5","images/horse3.png","","","memory_trial","1","definitely_old","","","","","","",""
"html-keyboard-response","151","383726","0.0-15.0-0.54","2013","2","""event"",""trial"",""time""
""fullscreenenter"",""1"",""7342""
","
","
","""event"",""trial"",""time""
""fullscreenenter"",""1"",""7342""
","
","","","","","","null","<div style=""font-size:60px;"">+</div>","null","","fixation","","","","","","","","",""
"memory-trial","152","385909","0.0-15.0-1.54","2013","2","""event"",""trial"",""time""
""fullscreenenter"",""1"",""7342""
","
","
","""event"",""trial"",""time""
""fullscreenenter"",""1"",""7342""
","
","","","","","","1179","images/table3.png","","","memory_trial","4","definitely_new","","","","","","",""
"html-keyboard-response","153","386417","0.0-15.0-0.55","2013","2","""event"",""trial"",""time""
""fullscreenenter"",""1"",""7342""
","
","
","""event"",""trial"",""time""
""fullscreenenter"",""1"",""7342""
","
","","","","","","null","<div style=""font-size:60px;"">+</div>","null","","fixation","","","","","","","","",""
"memory-trial","154","388292","0.0-15.0-1.55","2013","2","""event"",""trial"",""time""
""fullscreenenter"",""1"",""7342""
","
","
","""event"",""trial"",""time""
""fullscreenenter"",""1"",""7342""
","
","","","","","","868.6000001430511","images/chair3.png","","","memory_trial","2","maybe_old","","","","","","",""
"html-keyboard-response","155","388794","0.0-15.0-0.56","2013","2","""event"",""trial"",""time""
""fullscreenenter"",""1"",""7342""
","
","
","""event"",""trial"",""time""
""fullscreenenter"",""1"",""7342""
","
","","","","","","null","<div style=""font-size:60px;"">+</div>","null","","fixation","","","","","","","","",""
"memory-trial","156","390803","0.0-15.0-1.56","2013","2","""event"",""trial"",""time""
""fullscreenenter"",""1"",""7342""
","
","
","""event"",""trial"",""time""
""fullscreenenter"",""1"",""7342""
","
","","","","","","1001.7999999523163","images/sofa5.png","","","memory_trial","3","maybe_new","","","","","","",""
"html-keyboard-response","157","391309","0.0-15.0-0.57","2013","2","""event"",""trial"",""time""
""fullscreenenter"",""1"",""7342""
","
","
","""event"",""trial"",""time""
""fullscreenenter"",""1"",""7342""
","
","","","","","","null","<div style=""font-size:60px;"">+</div>","null","","fixation","","","","","","","","",""
"memory-trial","158","394137","0.0-15.0-1.57","2013","2","""event"",""trial"",""time""
""fullscreenenter"",""1"",""7342""
","
","
","""event"",""trial"",""time""
""fullscreenenter"",""1"",""7342""
","
","","","","","","1825.1000001430511","images/apple3.png","","","memory_trial","3","maybe_new","","","","","","",""
"html-keyboard-response","159","394652","0.0-15.0-0.58","2013","2","""event"",""trial"",""time""
""fullscreenenter"",""1"",""7342""
","
","
","""event"",""trial"",""time""
""fullscreenenter"",""1"",""7342""
","
","","","","","","null","<div style=""font-size:60px;"">+</div>","null","","fixation","","","","","","","","",""
"memory-trial","160","398063","0.0-15.0-1.58","2013","2","""event"",""trial"",""time""
""fullscreenenter"",""1"",""7342""
","
","
","""event"",""trial"",""time""
""fullscreenenter"",""1"",""7342""
","
","","","","","","2401.2999999523163","images/goat2.png","","","memory_trial","2","maybe_old","","","","","","",""
"html-keyboard-response","161","398566","0.0-15.0-0.59","2013","2","""event"",""trial"",""time""
""fullscreenenter"",""1"",""7342""
","
","
","""event"",""trial"",""time""
""fullscreenenter"",""1"",""7342""
","
","","","","","","null","<div style=""font-size:60px;"">+</div>","null","","fixation","","","","","","","","",""
"memory-trial","162","400860","0.0-15.0-1.59","2013","2","""event"",""trial"",""time""
""fullscreenenter"",""1"",""7342""
","
","
","""event"",""trial"",""time""
""fullscreenenter"",""1"",""7342""
","
","","","","","","1289.7999999523163","images/table2.png","","","memory_trial","4","definitely_new","","","","","","",""
"html-keyboard-response","163","401363","0.0-15.0-0.60","2013","2","""event"",""trial"",""time""
""fullscreenenter"",""1"",""7342""
","
","
","""event"",""trial"",""time""
""fullscreenenter"",""1"",""7342""
","
","","","","","","null","<div style=""font-size:60px;"">+</div>","null","","fixation","","","","","","","","",""
"memory-trial","164","403112","0.0-15.0-1.60","2013","2","""event"",""trial"",""time""
""fullscreenenter"",""1"",""7342""
","
","
","""event"",""trial"",""time""
""fullscreenenter"",""1"",""7342""
","
","","","","","","746.9000000953674","images/cactus1.png","","","memory_trial","1","definitely_old","","","","","","",""
"html-keyboard-response","165","403625","0.0-15.0-0.61","2013","2","""event"",""trial"",""time""
""fullscreenenter"",""1"",""7342""
","
","
","""event"",""trial"",""time""
""fullscreenenter"",""1"",""7342""
","
","","","","","","null","<div style=""font-size:60px;"">+</div>","null","","fixation","","","","","","","","",""
"memory-trial","166","405372","0.0-15.0-1.61","2013","2","""event"",""trial"",""time""
""fullscreenenter"",""1"",""7342""
","
","
","""event"",""trial"",""time""
""fullscreenenter"",""1"",""7342""
","
","","","","","","733.2999999523163","images/sheep5.png","","","memory_trial","2","maybe_old","","","","","","",""
"html-keyboard-response","167","405880","0.0-15.0-0.62","2013","2","""event"",""trial"",""time""
""fullscreenenter"",""1"",""7342""
","
","
","""event"",""trial"",""time""
""fullscreenenter"",""1"",""7342""
","
","","","","","","null","<div style=""font-size:60px;"">+</div>","null","","fixation","","","","","","","","",""
"memory-trial","168","408099","0.0-15.0-1.62","2013","2","""event"",""trial"",""time""
""fullscreenenter"",""1"",""7342""
","
","
","""event"",""trial"",""time""
""fullscreenenter"",""1"",""7342""
","
","","","","","","1210.8999998569489","images/straw3.png","","","memory_trial","3","maybe_new","","","","","","",""
"html-keyboard-response","169","408605","0.0-15.0-0.63","2013","2","""event"",""trial"",""time""
""fullscreenenter"",""1"",""7342""
","
","
","""event"",""trial"",""time""
""fullscreenenter"",""1"",""7342""
","
","","","","","","null","<div style=""font-size:60px;"">+</div>","null","","fixation","","","","","","","","",""
"memory-trial","170","410532","0.0-15.0-1.63","2013","2","""event"",""trial"",""time""
""fullscreenenter"",""1"",""7342""
","
","
","""event"",""trial"",""time""
""fullscreenenter"",""1"",""7342""
","
","","","","","","911.3999998569489","images/straw2.png","","","memory_trial","3","maybe_new","","","","","","",""
"html-keyboard-response","171","411038","0.0-15.0-0.64","2013","2","""event"",""trial"",""time""
""fullscreenenter"",""1"",""7342""
","
","
","""event"",""trial"",""time""
""fullscreenenter"",""1"",""7342""
","
","","","","","","null","<div style=""font-size:60px;"">+</div>","null","","fixation","","","","","","","","",""
"memory-trial","172","414541","0.0-15.0-1.64","2013","2","""event"",""trial"",""time""
""fullscreenenter"",""1"",""7342""
","
","
","""event"",""trial"",""time""
""fullscreenenter"",""1"",""7342""
","
","","","","","","2494.0999999046326","images/orange1.png","","","memory_trial","2","maybe_old","","","","","","",""
"html-keyboard-response","173","415058","0.0-15.0-0.65","2013","2","""event"",""trial"",""time""
""fullscreenenter"",""1"",""7342""
","
","
","""event"",""trial"",""time""
""fullscreenenter"",""1"",""7342""
","
","","","","","","null","<div style=""font-size:60px;"">+</div>","null","","fixation","","","","","","","","",""
"memory-trial","174","417940","0.0-15.0-1.65","2013","2","""event"",""trial"",""time""
""fullscreenenter"",""1"",""7342""
","
","
","""event"",""trial"",""time""
""fullscreenenter"",""1"",""7342""
","
","","","","","","1870.3999998569489","images/cow3.png","","","memory_trial","1","definitely_old","","","","","","",""
"html-keyboard-response","175","418447","0.0-15.0-0.66","2013","2","""event"",""trial"",""time""
""fullscreenenter"",""1"",""7342""
","
","
","""event"",""trial"",""time""
""fullscreenenter"",""1"",""7342""
","
","","","","","","null","<div style=""font-size:60px;"">+</div>","null","","fixation","","","","","","","","",""
"memory-trial","176","420623","0.0-15.0-1.66","2013","2","""event"",""trial"",""time""
""fullscreenenter"",""1"",""7342""
","
","
","""event"",""trial"",""time""
""fullscreenenter"",""1"",""7342""
","
","","","","","","1168.5","images/horse4.png","","","memory_trial","1","definitely_old","","","","","","",""
"html-keyboard-response","177","421130","0.0-15.0-0.67","2013","2","""event"",""trial"",""time""
""fullscreenenter"",""1"",""7342""
","
","
","""event"",""trial"",""time""
""fullscreenenter"",""1"",""7342""
","
","","","","","","null","<div style=""font-size:60px;"">+</div>","null","","fixation","","","","","","","","",""
"memory-trial","178","423644","0.0-15.0-1.67","2013","2","""event"",""trial"",""time""
""fullscreenenter"",""1"",""7342""
","
","
","""event"",""trial"",""time""
""fullscreenenter"",""1"",""7342""
","
","","","","","","1510.7000000476837","images/boat1.png","","","memory_trial","1","definitely_old","","","","","","",""
"html-keyboard-response","179","424157","0.0-15.0-0.68","2013","2","""event"",""trial"",""time""
""fullscreenenter"",""1"",""7342""
","
","
","""event"",""trial"",""time""
""fullscreenenter"",""1"",""7342""
","
","","","","","","null","<div style=""font-size:60px;"">+</div>","null","","fixation","","","","","","","","",""
"memory-trial","180","426191","0.0-15.0-1.68","2013","2","""event"",""trial"",""time""
""fullscreenenter"",""1"",""7342""
","
","
","""event"",""trial"",""time""
""fullscreenenter"",""1"",""7342""
","
","","","","","","1030.2000000476837","images/sheep4.png","","","memory_trial","1","definitely_old","","","","","","",""
"html-keyboard-response","181","426698","0.0-15.0-0.69","2013","2","""event"",""trial"",""time""
""fullscreenenter"",""1"",""7342""
","
","
","""event"",""trial"",""time""
""fullscreenenter"",""1"",""7342""
","
","","","","","","null","<div style=""font-size:60px;"">+</div>","null","","fixation","","","","","","","","",""
"memory-trial","182","430046","0.0-15.0-1.69","2013","2","""event"",""trial"",""time""
""fullscreenenter"",""1"",""7342""
","
","
","""event"",""trial"",""time""
""fullscreenenter"",""1"",""7342""
","
","","","","","","2341.4000000953674","images/rodent4.png","","","memory_trial","1","definitely_old","","","","","","",""
"html-keyboard-response","183","430552","0.0-15.0-0.70","2013","2","""event"",""trial"",""time""
""fullscreenenter"",""1"",""7342""
","
","
","""event"",""trial"",""time""
""fullscreenenter"",""1"",""7342""
","
","","","","","","null","<div style=""font-size:60px;"">+</div>","null","","fixation","","","","","","","","",""
"memory-trial","184","433122","0.0-15.0-1.70","2013","2","""event"",""trial"",""time""
""fullscreenenter"",""1"",""7342""
","
","
","""event"",""trial"",""time""
""fullscreenenter"",""1"",""7342""
","
","","","","","","1562.3999998569489","images/boat5.png","","","memory_trial","1","definitely_old","","","","","","",""
"html-keyboard-response","185","433628","0.0-15.0-0.71","2013","2","""event"",""trial"",""time""
""fullscreenenter"",""1"",""7342""
","
","
","""event"",""trial"",""time""
""fullscreenenter"",""1"",""7342""
","
","","","","","","null","<div style=""font-size:60px;"">+</div>","null","","fixation","","","","","","","","",""
"memory-trial","186","436137","0.0-15.0-1.71","2013","2","""event"",""trial"",""time""
""fullscreenenter"",""1"",""7342""
","
","
","""event"",""trial"",""time""
""fullscreenenter"",""1"",""7342""
","
","","","","","","1490.2000000476837","images/rabbit3.png","","","memory_trial","2","maybe_old","","","","","","",""
"html-keyboard-response","187","436647","0.0-15.0-0.72","2013","2","""event"",""trial"",""time""
""fullscreenenter"",""1"",""7342""
","
","
","""event"",""trial"",""time""
""fullscreenenter"",""1"",""7342""
","
","","","","","","null","<div style=""font-size:60px;"">+</div>","null","","fixation","","","","","","","","",""
"memory-trial","188","438892","0.0-15.0-1.72","2013","2","""event"",""trial"",""time""
""fullscreenenter"",""1"",""7342""
","
","
","""event"",""trial"",""time""
""fullscreenenter"",""1"",""7342""
","
","","","","","","1236.9000000953674","images/bed4.png","","","memory_trial","2","maybe_old","","","","","","",""
"html-keyboard-response","189","439395","0.0-15.0-0.73","2013","2","""event"",""trial"",""time""
""fullscreenenter"",""1"",""7342""
","
","
","""event"",""trial"",""time""
""fullscreenenter"",""1"",""7342""
","
","","","","","","null","<div style=""font-size:60px;"">+</div>","null","","fixation","","","","","","","","",""
"memory-trial","190","441349","0.0-15.0-1.73","2013","2","""event"",""trial"",""time""
""fullscreenenter"",""1"",""7342""
","
","
","""event"",""trial"",""time""
""fullscreenenter"",""1"",""7342""
","
","","","","","","948.5","images/sofa4.png","","","memory_trial","4","definitely_new","","","","","","",""
"html-keyboard-response","191","441853","0.0-15.0-0.74","2013","2","""event"",""trial"",""time""
""fullscreenenter"",""1"",""7342""
","
","
","""event"",""trial"",""time""
""fullscreenenter"",""1"",""7342""
","
","","","","","","null","<div style=""font-size:60px;"">+</div>","null","","fixation","","","","","","","","",""
"memory-trial","192","443974","0.0-15.0-1.74","2013","2","""event"",""trial"",""time""
""fullscreenenter"",""1"",""7342""
","
","
","""event"",""trial"",""time""
""fullscreenenter"",""1"",""7342""
","
","","","","","","1114.5","images/goat5.png","","","memory_trial","4","definitely_new","","","","","","",""
"html-keyboard-response","193","444480","0.0-15.0-0.75","2013","2","""event"",""trial"",""time""
""fullscreenenter"",""1"",""7342""
","
","
","""event"",""trial"",""time""
""fullscreenenter"",""1"",""7342""
","
","","","","","","null","<div style=""font-size:60px;"">+</div>","null","","fixation","","","","","","","","",""
"memory-trial","194","446509","0.0-15.0-1.75","2013","2","""event"",""trial"",""time""
""fullscreenenter"",""1"",""7342""
","
","
","""event"",""trial"",""time""
""fullscreenenter"",""1"",""7342""
","
","","","","","","1019.8000001907349","images/truck1.png","","","memory_trial","4","definitely_new","","","","","","",""
"html-keyboard-response","195","447017","0.0-15.0-0.76","2013","2","""event"",""trial"",""time""
""fullscreenenter"",""1"",""7342""
","
","
","""event"",""trial"",""time""
""fullscreenenter"",""1"",""7342""
","
","","","","","","null","<div style=""font-size:60px;"">+</div>","null","","fixation","","","","","","","","",""
"memory-trial","196","449072","0.0-15.0-1.76","2013","2","""event"",""trial"",""time""
""fullscreenenter"",""1"",""7342""
","
","
","""event"",""trial"",""time""
""fullscreenenter"",""1"",""7342""
","
","","","","","","1047.9000000953674","images/truck5.png","","","memory_trial","3","maybe_new","","","","","","",""
"html-keyboard-response","197","449575","0.0-15.0-0.77","2013","2","""event"",""trial"",""time""
""fullscreenenter"",""1"",""7342""
","
","
","""event"",""trial"",""time""
""fullscreenenter"",""1"",""7342""
","
","","","","","","null","<div style=""font-size:60px;"">+</div>","null","","fixation","","","","","","","","",""
"memory-trial","198","451756","0.0-15.0-1.77","2013","2","""event"",""trial"",""time""
""fullscreenenter"",""1"",""7342""
","
","
","""event"",""trial"",""time""
""fullscreenenter"",""1"",""7342""
","
","","","","","","1177.7999999523163","images/banana4.png","","","memory_trial","4","definitely_new","","","","","","",""
"html-keyboard-response","199","452267","0.0-15.0-0.78","2013","2","""event"",""trial"",""time""
""fullscreenenter"",""1"",""7342""
","
","
","""event"",""trial"",""time""
""fullscreenenter"",""1"",""7342""
","
","","","","","","null","<div style=""font-size:60px;"">+</div>","null","","fixation","","","","","","","","",""
"memory-trial","200","454526","0.0-15.0-1.78","2013","2","""event"",""trial"",""time""
""fullscreenenter"",""1"",""7342""
","
","
","""event"",""trial"",""time""
""fullscreenenter"",""1"",""7342""
","
","","","","","","1255.2999999523163","images/bush5.png","","","memory_trial","3","maybe_new","","","","","","",""
"html-keyboard-response","201","455033","0.0-15.0-0.79","2013","2","""event"",""trial"",""time""
""fullscreenenter"",""1"",""7342""
","
","
","""event"",""trial"",""time""
""fullscreenenter"",""1"",""7342""
","
","","","","","","null","<div style=""font-size:60px;"">+</div>","null","","fixation","","","","","","","","",""
"memory-trial","202","457028","0.0-15.0-1.79","2013","2","""event"",""trial"",""time""
""fullscreenenter"",""1"",""7342""
","
","
","""event"",""trial"",""time""
""fullscreenenter"",""1"",""7342""
","
","","","","","","990.7000000476837","images/train4.png","","","memory_trial","3","maybe_new","","","","","","",""
"html-keyboard-response","203","457536","0.0-15.0-0.80","2013","2","""event"",""trial"",""time""
""fullscreenenter"",""1"",""7342""
","
","
","""event"",""trial"",""time""
""fullscreenenter"",""1"",""7342""
","
","","","","","","null","<div style=""font-size:60px;"">+</div>","null","","fixation","","","","","","","","",""
"memory-trial","204","459287","0.0-15.0-1.80","2013","2","""event"",""trial"",""time""
""fullscreenenter"",""1"",""7342""
","
","
","""event"",""trial"",""time""
""fullscreenenter"",""1"",""7342""
","
","","","","","","735.9000000953674","images/bed2.png","","","memory_trial","2","maybe_old","","","","","","",""
"html-keyboard-response","205","459790","0.0-15.0-0.81","2013","2","""event"",""trial"",""time""
""fullscreenenter"",""1"",""7342""
","
","
","""event"",""trial"",""time""
""fullscreenenter"",""1"",""7342""
","
","","","","","","null","<div style=""font-size:60px;"">+</div>","null","","fixation","","","","","","","","",""
"memory-trial","206","461669","0.0-15.0-1.81","2013","2","""event"",""trial"",""time""
""fullscreenenter"",""1"",""7342""
","
","
","""event"",""trial"",""time""
""fullscreenenter"",""1"",""7342""
","
","","","","","","868.8999998569489","images/orange4.png","","","memory_trial","2","maybe_old","","","","","","",""
"html-keyboard-response","207","462177","0.0-15.0-0.82","2013","2","""event"",""trial"",""time""
""fullscreenenter"",""1"",""7342""
","
","
","""event"",""trial"",""time""
""fullscreenenter"",""1"",""7342""
","
","","","","","","null","<div style=""font-size:60px;"">+</div>","null","","fixation","","","","","","","","",""
"memory-trial","208","463916","0.0-15.0-1.82","2013","2","""event"",""trial"",""time""
""fullscreenenter"",""1"",""7342""
","
","
","""event"",""trial"",""time""
""fullscreenenter"",""1"",""7342""
","
","","","","","","733.2999999523163","images/feline2.png","","","memory_trial","2","maybe_old","","","","","","",""
"html-keyboard-response","209","464423","0.0-15.0-0.83","2013","2","""event"",""trial"",""time""
""fullscreenenter"",""1"",""7342""
","
","
","""event"",""trial"",""time""
""fullscreenenter"",""1"",""7342""
","
","","","","","","null","<div style=""font-size:60px;"">+</div>","null","","fixation","","","","","","","","",""
"memory-trial","210","467706","0.0-15.0-1.83","2013","2","""event"",""trial"",""time""
""fullscreenenter"",""1"",""7342""
","
","
","""event"",""trial"",""time""
""fullscreenenter"",""1"",""7342""
","
","","","","","","2271.2999999523163","images/banana1.png","","","memory_trial","3","maybe_new","","","","","","",""
"html-keyboard-response","211","468221","0.0-15.0-0.84","2013","2","""event"",""trial"",""time""
""fullscreenenter"",""1"",""7342""
","
","
","""event"",""trial"",""time""
""fullscreenenter"",""1"",""7342""
","
","","","","","","null","<div style=""font-size:60px;"">+</div>","null","","fixation","","","","","","","","",""
"memory-trial","212","470176","0.0-15.0-1.84","2013","2","""event"",""trial"",""time""
""fullscreenenter"",""1"",""7342""
","
","
","""event"",""trial"",""time""
""fullscreenenter"",""1"",""7342""
","
","","","","","","938.5999999046326","images/tree4.png","","","memory_trial","4","definitely_new","","","","","","",""
"html-keyboard-response","213","470681","0.0-15.0-0.85","2013","2","""event"",""trial"",""time""
""fullscreenenter"",""1"",""7342""
","
","
","""event"",""trial"",""time""
""fullscreenenter"",""1"",""7342""
","
","","","","","","null","<div style=""font-size:60px;"">+</div>","null","","fixation","","","","","","","","",""
"memory-trial","214","472689","0.0-15.0-1.85","2013","2","""event"",""trial"",""time""
""fullscreenenter"",""1"",""7342""
","
","
","""event"",""trial"",""time""
""fullscreenenter"",""1"",""7342""
","
","","","","","","1001.9000000953674","images/bush1.png","","","memory_trial","4","definitely_new","","","","","","",""
"html-keyboard-response","215","473193","0.0-15.0-0.86","2013","2","""event"",""trial"",""time""
""fullscreenenter"",""1"",""7342""
","
","
","""event"",""trial"",""time""
""fullscreenenter"",""1"",""7342""
","
","","","","","","null","<div style=""font-size:60px;"">+</div>","null","","fixation","","","","","","","","",""
"memory-trial","216","475113","0.0-15.0-1.86","2013","2","""event"",""trial"",""time""
""fullscreenenter"",""1"",""7342""
","
","
","""event"",""trial"",""time""
""fullscreenenter"",""1"",""7342""
","
","","","","","","903","images/chair2.png","","","memory_trial","2","maybe_old","","","","","","",""
"html-keyboard-response","217","475617","0.0-15.0-0.87","2013","2","""event"",""trial"",""time""
""fullscreenenter"",""1"",""7342""
","
","
","""event"",""trial"",""time""
""fullscreenenter"",""1"",""7342""
","
","","","","","","null","<div style=""font-size:60px;"">+</div>","null","","fixation","","","","","","","","",""
"memory-trial","218","477475","0.0-15.0-1.87","2013","2","""event"",""trial"",""time""
""fullscreenenter"",""1"",""7342""
","
","
","""event"",""trial"",""time""
""fullscreenenter"",""1"",""7342""
","
","","","","","","842.5","images/banana3.png","","","memory_trial","2","maybe_old","","","","","","",""
"html-keyboard-response","219","477977","0.0-15.0-0.88","2013","2","""event"",""trial"",""time""
""fullscreenenter"",""1"",""7342""
","
","
","""event"",""trial"",""time""
""fullscreenenter"",""1"",""7342""
","
","","","","","","null","<div style=""font-size:60px;"">+</div>","null","","fixation","","","","","","","","",""
"memory-trial","220","479712","0.0-15.0-1.88","2013","2","""event"",""trial"",""time""
""fullscreenenter"",""1"",""7342""
","
","
","""event"",""trial"",""time""
""fullscreenenter"",""1"",""7342""
","
","","","","","","725.4000000953674","images/dog4.png","","","memory_trial","1","definitely_old","","","","","","",""
"html-keyboard-response","221","480225","0.0-15.0-0.89","2013","2","""event"",""trial"",""time""
""fullscreenenter"",""1"",""7342""
","
","
","""event"",""trial"",""time""
""fullscreenenter"",""1"",""7342""
","
","","","","","","null","<div style=""font-size:60px;"">+</div>","null","","fixation","","","","","","","","",""
"memory-trial","222","482267","0.0-15.0-1.89","2013","2","""event"",""trial"",""time""
""fullscreenenter"",""1"",""7342""
","
","
","""event"",""trial"",""time""
""fullscreenenter"",""1"",""7342""
","
","","","","","","1028","images/apple2.png","","","memory_trial","2","maybe_old","","","","","","",""
"html-keyboard-response","223","482773","0.0-15.0-0.90","2013","2","""event"",""trial"",""time""
""fullscreenenter"",""1"",""7342""
","
","
","""event"",""trial"",""time""
""fullscreenenter"",""1"",""7342""
","
","","","","","","null","<div style=""font-size:60px;"">+</div>","null","","fixation","","","","","","","","",""
"memory-trial","224","484903","0.0-15.0-1.90","2013","2","""event"",""trial"",""time""
""fullscreenenter"",""1"",""7342""
","
","
","""event"",""trial"",""time""
""fullscreenenter"",""1"",""7342""
","
","","","","","","1119.7999999523163","images/sofa1.png","","","memory_trial","3","maybe_new","","","","","","",""
"html-keyboard-response","225","485407","0.0-15.0-0.91","2013","2","""event"",""trial"",""time""
""fullscreenenter"",""1"",""7342""
","
","
","""event"",""trial"",""time""
""fullscreenenter"",""1"",""7342""
","
","","","","","","null","<div style=""font-size:60px;"">+</div>","null","","fixation","","","","","","","","",""
"memory-trial","226","487247","0.0-15.0-1.91","2013","2","""event"",""trial"",""time""
""fullscreenenter"",""1"",""7342""
","
","
","""event"",""trial"",""time""
""fullscreenenter"",""1"",""7342""
","
","","","","","","830","images/truck3.png","","","memory_trial","4","definitely_new","","","","","","",""
"html-keyboard-response","227","487764","0.0-15.0-0.92","2013","2","""event"",""trial"",""time""
""fullscreenenter"",""1"",""7342""
","
","
","""event"",""trial"",""time""
""fullscreenenter"",""1"",""7342""
","
","","","","","","null","<div style=""font-size:60px;"">+</div>","null","","fixation","","","","","","","","",""
"memory-trial","228","490406","0.0-15.0-1.92","2013","2","""event"",""trial"",""time""
""fullscreenenter"",""1"",""7342""
","
","
","""event"",""trial"",""time""
""fullscreenenter"",""1"",""7342""
","
","","","","","","1626.1000001430511","images/goat3.png","","","memory_trial","2","maybe_old","","","","","","",""
"html-keyboard-response","229","490914","0.0-15.0-0.93","2013","2","""event"",""trial"",""time""
""fullscreenenter"",""1"",""7342""
","
","
","""event"",""trial"",""time""
""fullscreenenter"",""1"",""7342""
","
","","","","","","null","<div style=""font-size:60px;"">+</div>","null","","fixation","","","","","","","","",""
"memory-trial","230","493010","0.0-15.0-1.93","2013","2","""event"",""trial"",""time""
""fullscreenenter"",""1"",""7342""
","
","
","""event"",""trial"",""time""
""fullscreenenter"",""1"",""7342""
","
","","","","","","1086","images/flower4.png","","","memory_trial","1","definitely_old","","","","","","",""
"html-keyboard-response","231","493526","0.0-15.0-0.94","2013","2","""event"",""trial"",""time""
""fullscreenenter"",""1"",""7342""
","
","
","""event"",""trial"",""time""
""fullscreenenter"",""1"",""7342""
","
","","","","","","null","<div style=""font-size:60px;"">+</div>","null","","fixation","","","","","","","","",""
"memory-trial","232","495500","0.0-15.0-1.94","2013","2","""event"",""trial"",""time""
""fullscreenenter"",""1"",""7342""
","
","
","""event"",""trial"",""time""
""fullscreenenter"",""1"",""7342""
","
","","","","","","962.8999998569489","images/apple5.png","","","memory_trial","2","maybe_old","","","","","","",""
"html-keyboard-response","233","496003","0.0-15.0-0.95","2013","2","""event"",""trial"",""time""
""fullscreenenter"",""1"",""7342""
","
","
","""event"",""trial"",""time""
""fullscreenenter"",""1"",""7342""
","
","","","","","","null","<div style=""font-size:60px;"">+</div>","null","","fixation","","","","","","","","",""
"memory-trial","234","498075","0.0-15.0-1.95","2013","2","""event"",""trial"",""time""
""fullscreenenter"",""1"",""7342""
","
","
","""event"",""trial"",""time""
""fullscreenenter"",""1"",""7342""
","
","","","","","","1069.0999999046326","images/train1.png","","","memory_trial","3","maybe_new","","","","","","",""
"html-keyboard-response","235","498582","0.0-15.0-0.96","2013","2","""event"",""trial"",""time""
""fullscreenenter"",""1"",""7342""
","
","
","""event"",""trial"",""time""
""fullscreenenter"",""1"",""7342""
","
","","","","","","null","<div style=""font-size:60px;"">+</div>","null","","fixation","","","","","","","","",""
"memory-trial","236","500495","0.0-15.0-1.96","2013","2","""event"",""trial"",""time""
""fullscreenenter"",""1"",""7342""
","
","
","""event"",""trial"",""time""
""fullscreenenter"",""1"",""7342""
","
","","","","","","904.2000000476837","images/plane4.png","","","memory_trial","1","definitely_old","","","","","","",""
"html-keyboard-response","237","501002","0.0-15.0-0.97","2013","2","""event"",""trial"",""time""
""fullscreenenter"",""1"",""7342""
","
","
","""event"",""trial"",""time""
""fullscreenenter"",""1"",""7342""
","
","","","","","","null","<div style=""font-size:60px;"">+</div>","null","","fixation","","","","","","","","",""
"memory-trial","238","502903","0.0-15.0-1.97","2013","2","""event"",""trial"",""time""
""fullscreenenter"",""1"",""7342""
","
","
","""event"",""trial"",""time""
""fullscreenenter"",""1"",""7342""
","
","","","","","","891.5999999046326","images/dog5.png","","","memory_trial","2","maybe_old","","","","","","",""
"html-keyboard-response","239","503404","0.0-15.0-0.98","2013","2","""event"",""trial"",""time""
""fullscreenenter"",""1"",""7342""
","
","
","""event"",""trial"",""time""
""fullscreenenter"",""1"",""7342""
","
","","","","","","null","<div style=""font-size:60px;"">+</div>","null","","fixation","","","","","","","","",""
"memory-trial","240","506010","0.0-15.0-1.98","2013","2","""event"",""trial"",""time""
""fullscreenenter"",""1"",""7342""
","
","
","""event"",""trial"",""time""
""fullscreenenter"",""1"",""7342""
","
","","","","","","1601.8999998569489","images/cow4.png","","","memory_trial","2","maybe_old","","","","","","",""
"html-keyboard-response","241","506520","0.0-15.0-0.99","2013","2","""event"",""trial"",""time""
""fullscreenenter"",""1"",""7342""
","
","
","""event"",""trial"",""time""
""fullscreenenter"",""1"",""7342""
","
","","","","","","null","<div style=""font-size:60px;"">+</div>","null","","fixation","","","","","","","","",""
"memory-trial","242","508552","0.0-15.0-1.99","2013","2","""event"",""trial"",""time""
""fullscreenenter"",""1"",""7342""
","
","
","""event"",""trial"",""time""
""fullscreenenter"",""1"",""7342""
","
","","","","","","1021.9000000953674","images/banana5.png","","","memory_trial","4","definitely_new","","","","","","",""
"html-keyboard-response","243","509063","0.0-15.0-0.100","2013","2","""event"",""trial"",""time""
""fullscreenenter"",""1"",""7342""
","
","
","""event"",""trial"",""time""
""fullscreenenter"",""1"",""7342""
","
","","","","","","null","<div style=""font-size:60px;"">+</div>","null","","fixation","","","","","","","","",""
"memory-trial","244","511689","0.0-15.0-1.100","2013","2","""event"",""trial"",""time""
""fullscreenenter"",""1"",""7342""
","
","
","""event"",""trial"",""time""
""fullscreenenter"",""1"",""7342""
","
","","","","","","1618","images/cactus3.png","","","memory_trial","3","maybe_new","","","","","","",""
"html-keyboard-response","245","512203","0.0-15.0-0.101","2013","2","""event"",""trial"",""time""
""fullscreenenter"",""1"",""7342""
","
","
","""event"",""trial"",""time""
""fullscreenenter"",""1"",""7342""
","
","","","","","","null","<div style=""font-size:60px;"">+</div>","null","","fixation","","","","","","","","",""
"memory-trial","246","514252","0.0-15.0-1.101","2013","2","""event"",""trial"",""time""
""fullscreenenter"",""1"",""7342""
","
","
","""event"",""trial"",""time""
""fullscreenenter"",""1"",""7342""
","
","","","","","","1036.4000000953674","images/horse5.png","","","memory_trial","4","definitely_new","","","","","","",""
"html-button-response","247","536989","0.0-15.0-2.101-0.101","2013","2","""event"",""trial"",""time""
""fullscreenenter"",""1"",""7342""
","
","
","""event"",""trial"",""time""
""fullscreenenter"",""1"",""7342""
","
","","","","","","22735.599999904633","<p> Take a break! </p><p> Click the button to continue. </p>","0","","break","","","","","","","","",""
"html-keyboard-response","248","537493","0.0-15.0-0.102","2013","2","""event"",""trial"",""time""
""fullscreenenter"",""1"",""7342""
","
","
","""event"",""trial"",""time""
""fullscreenenter"",""1"",""7342""
","
","","","","","","null","<div style=""font-size:60px;"">+</div>","null","","fixation","","","","","","","","",""
"memory-trial","249","541516","0.0-15.0-1.102","2013","2","""event"",""trial"",""time""
""fullscreenenter"",""1"",""7342""
","
","
","""event"",""trial"",""time""
""fullscreenenter"",""1"",""7342""
","
","","","","","","3007.7999999523163","images/chair1.png","","","memory_trial","2","maybe_old","","","","","","",""
"html-keyboard-response","250","542018","0.0-15.0-0.103","2013","2","""event"",""trial"",""time""
""fullscreenenter"",""1"",""7342""
","
","
","""event"",""trial"",""time""
""fullscreenenter"",""1"",""7342""
","
","","","","","","null","<div style=""font-size:60px;"">+</div>","null","","fixation","","","","","","","","",""
"memory-trial","251","545170","0.0-15.0-1.103","2013","2","""event"",""trial"",""time""
""fullscreenenter"",""1"",""7342""
","
","
","""event"",""trial"",""time""
""fullscreenenter"",""1"",""7342""
","
","","","","","","2144.4000000953674","images/tree1.png","","","memory_trial","3","maybe_new","","","","","","",""
"html-keyboard-response","252","545674","0.0-15.0-0.104","2013","2","""event"",""trial"",""time""
""fullscreenenter"",""1"",""7342""
","
","
","""event"",""trial"",""time""
""fullscreenenter"",""1"",""7342""
","
","","","","","","null","<div style=""font-size:60px;"">+</div>","null","","fixation","","","","","","","","",""
"memory-trial","253","548352","0.0-15.0-1.104","2013","2","""event"",""trial"",""time""
""fullscreenenter"",""1"",""7342""
","
","
","""event"",""trial"",""time""
""fullscreenenter"",""1"",""7342""
","
","","","","","","1667.5999999046326","images/train2.png","","","memory_trial","3","maybe_new","","","","","","",""
"html-keyboard-response","254","548865","0.0-15.0-0.105","2013","2","""event"",""trial"",""time""
""fullscreenenter"",""1"",""7342""
","
","
","""event"",""trial"",""time""
""fullscreenenter"",""1"",""7342""
","
","","","","","","null","<div style=""font-size:60px;"">+</div>","null","","fixation","","","","","","","","",""
"memory-trial","255","550920","0.0-15.0-1.105","2013","2","""event"",""trial"",""time""
""fullscreenenter"",""1"",""7342""
","
","
","""event"",""trial"",""time""
""fullscreenenter"",""1"",""7342""
","
","","","","","","1042.5","images/feline5.png","","","memory_trial","2","maybe_old","","","","","","",""
"html-keyboard-response","256","551428","0.0-15.0-0.106","2013","2","""event"",""trial"",""time""
""fullscreenenter"",""1"",""7342""
","
","
","""event"",""trial"",""time""
""fullscreenenter"",""1"",""7342""
","
","","","","","","null","<div style=""font-size:60px;"">+</div>","null","","fixation","","","","","","","","",""
"memory-trial","257","553647","0.0-15.0-1.106","2013","2","""event"",""trial"",""time""
""fullscreenenter"",""1"",""7342""
","
","
","""event"",""trial"",""time""
""fullscreenenter"",""1"",""7342""
","
","","","","","","1212.2000000476837","images/dog1.png","","","memory_trial","3","maybe_new","","","","","","",""
"html-keyboard-response","258","554156","0.0-15.0-0.107","2013","2","""event"",""trial"",""time""
""fullscreenenter"",""1"",""7342""
","
","
","""event"",""trial"",""time""
""fullscreenenter"",""1"",""7342""
","
","","","","","","null","<div style=""font-size:60px;"">+</div>","null","","fixation","","","","","","","","",""
"memory-trial","259","556590","0.0-15.0-1.107","2013","2","""event"",""trial"",""time""
""fullscreenenter"",""1"",""7342""
","
","
","""event"",""trial"",""time""
""fullscreenenter"",""1"",""7342""
","
","","","","","","1424","images/boat4.png","","","memory_trial","3","maybe_new","","","","","","",""
"html-keyboard-response","260","557099","0.0-15.0-0.108","2013","2","""event"",""trial"",""time""
""fullscreenenter"",""1"",""7342""
","
","
","""event"",""trial"",""time""
""fullscreenenter"",""1"",""7342""
","
","","","","","","null","<div style=""font-size:60px;"">+</div>","null","","fixation","","","","","","","","",""
"memory-trial","261","559220","0.0-15.0-1.108","2013","2","""event"",""trial"",""time""
""fullscreenenter"",""1"",""7342""
","
","
","""event"",""trial"",""time""
""fullscreenenter"",""1"",""7342""
","
","","","","","","1113.7999999523163","images/dog3.png","","","memory_trial","1","definitely_old","","","","","","",""
"html-keyboard-response","262","559726","0.0-15.0-0.109","2013","2","""event"",""trial"",""time""
""fullscreenenter"",""1"",""7342""
","
","
","""event"",""trial"",""time""
""fullscreenenter"",""1"",""7342""
","
","","","","","","null","<div style=""font-size:60px;"">+</div>","null","","fixation","","","","","","","","",""
"memory-trial","263","563586","0.0-15.0-1.109","2013","2","""event"",""trial"",""time""
""fullscreenenter"",""1"",""7342""
","
","
","""event"",""trial"",""time""
""fullscreenenter"",""1"",""7342""
","
","","","","","","2852.7999999523163","images/tree3.png","","","memory_trial","2","maybe_old","","","","","","",""
"html-keyboard-response","264","564093","0.0-15.0-0.110","2013","2","""event"",""trial"",""time""
""fullscreenenter"",""1"",""7342""
","
","
","""event"",""trial"",""time""
""fullscreenenter"",""1"",""7342""
","
","","","","","","null","<div style=""font-size:60px;"">+</div>","null","","fixation","","","","","","","","",""
"memory-trial","265","566687","0.0-15.0-1.110","2013","2","""event"",""trial"",""time""
""fullscreenenter"",""1"",""7342""
","
","
","""event"",""trial"",""time""
""fullscreenenter"",""1"",""7342""
","
","","","","","","1588.7000000476837","images/bed3.png","","","memory_trial","4","definitely_new","","","","","","",""
"html-keyboard-response","266","567191","0.0-15.0-0.111","2013","2","""event"",""trial"",""time""
""fullscreenenter"",""1"",""7342""
","
","
","""event"",""trial"",""time""
""fullscreenenter"",""1"",""7342""
","
","","","","","","null","<div style=""font-size:60px;"">+</div>","null","","fixation","","","","","","","","",""
"memory-trial","267","570695","0.0-15.0-1.111","2013","2","""event"",""trial"",""time""
""fullscreenenter"",""1"",""7342""
","
","
","""event"",""trial"",""time""
""fullscreenenter"",""1"",""7342""
","
","","","","","","2496.300000190735","images/rodent2.png","","","memory_trial","3","maybe_new","","","","","","",""
"html-keyboard-response","268","571202","0.0-15.0-0.112","2013","2","""event"",""trial"",""time""
""fullscreenenter"",""1"",""7342""
","
","
","""event"",""trial"",""time""
""fullscreenenter"",""1"",""7342""
","
","","","","","","null","<div style=""font-size:60px;"">+</div>","null","","fixation","","","","","","","","",""
"memory-trial","269","573335","0.0-15.0-1.112","2013","2","""event"",""trial"",""time""
""fullscreenenter"",""1"",""7342""
","
","
","""event"",""trial"",""time""
""fullscreenenter"",""1"",""7342""
","
","","","","","","1126.2999999523163","images/chair5.png","","","memory_trial","2","maybe_old","","","","","","",""
"html-keyboard-response","270","573837","0.0-15.0-0.113","2013","2","""event"",""trial"",""time""
""fullscreenenter"",""1"",""7342""
","
","
","""event"",""trial"",""time""
""fullscreenenter"",""1"",""7342""
","
","","","","","","null","<div style=""font-size:60px;"">+</div>","null","","fixation","","","","","","","","",""
"memory-trial","271","579210","0.0-15.0-1.113","2013","2","""event"",""trial"",""time""
""fullscreenenter"",""1"",""7342""
","
","
","""event"",""trial"",""time""
""fullscreenenter"",""1"",""7342""
","
","","","","","","4370.099999904633","images/rabbit2.png","","","memory_trial","2","maybe_old","","","","","","",""
"html-keyboard-response","272","579717","0.0-15.0-0.114","2013","2","""event"",""trial"",""time""
""fullscreenenter"",""1"",""7342""
","
","
","""event"",""trial"",""time""
""fullscreenenter"",""1"",""7342""
","
","","","","","","null","<div style=""font-size:60px;"">+</div>","null","","fixation","","","","","","","","",""
"memory-trial","273","583730","0.0-15.0-1.114","2013","2","""event"",""trial"",""time""
""fullscreenenter"",""1"",""7342""
","
","
","""event"",""trial"",""time""
""fullscreenenter"",""1"",""7342""
","
","","","","","","3002.5","images/sheep3.png","","","memory_trial","1","definitely_old","","","","","","",""
"html-keyboard-response","274","584234","0.0-15.0-0.115","2013","2","""event"",""trial"",""time""
""fullscreenenter"",""1"",""7342""
","
","
","""event"",""trial"",""time""
""fullscreenenter"",""1"",""7342""
","
","","","","","","null","<div style=""font-size:60px;"">+</div>","null","","fixation","","","","","","","","",""
"memory-trial","275","588098","0.0-15.0-1.115","2013","2","""event"",""trial"",""time""
""fullscreenenter"",""1"",""7342""
","
","
","""event"",""trial"",""time""
""fullscreenenter"",""1"",""7342""
","
","","","","","","2858.7999999523163","images/plane1.png","","","memory_trial","2","maybe_old","","","","","","",""
"html-keyboard-response","276","588606","0.0-15.0-0.116","2013","2","""event"",""trial"",""time""
""fullscreenenter"",""1"",""7342""
","
","
","""event"",""trial"",""time""
""fullscreenenter"",""1"",""7342""
","
","","","","","","null","<div style=""font-size:60px;"">+</div>","null","","fixation","","","","","","","","",""
"memory-trial","277","593940","0.0-15.0-1.116","2013","2","""event"",""trial"",""time""
""fullscreenenter"",""1"",""7342""
","
","
","""event"",""trial"",""time""
""fullscreenenter"",""1"",""7342""
","
","","","","","","4320.599999904633","images/train5.png","","","memory_trial","3","maybe_new","","","","","","",""
"html-keyboard-response","278","594445","0.0-15.0-0.117","2013","2","""event"",""trial"",""time""
""fullscreenenter"",""1"",""7342""
","
","
","""event"",""trial"",""time""
""fullscreenenter"",""1"",""7342""
","
","","","","","","null","<div style=""font-size:60px;"">+</div>","null","","fixation","","","","","","","","",""
"memory-trial","279","596955","0.0-15.0-1.117","2013","2","""event"",""trial"",""time""
""fullscreenenter"",""1"",""7342""
","
","
","""event"",""trial"",""time""
""fullscreenenter"",""1"",""7342""
","
","","","","","","1495","images/plane3.png","","","memory_trial","2","maybe_old","","","","","","",""
"html-keyboard-response","280","597463","0.0-15.0-0.118","2013","2","""event"",""trial"",""time""
""fullscreenenter"",""1"",""7342""
","
","
","""event"",""trial"",""time""
""fullscreenenter"",""1"",""7342""
","
","","","","","","null","<div style=""font-size:60px;"">+</div>","null","","fixation","","","","","","","","",""
"memory-trial","281","606933","0.0-15.0-1.118","2013","2","""event"",""trial"",""time""
""fullscreenenter"",""1"",""7342""
","
","
","""event"",""trial"",""time""
""fullscreenenter"",""1"",""7342""
","
","","","","","","8467.200000047684","images/chair4.png","","","memory_trial","2","maybe_old","","","","","","",""
"html-keyboard-response","282","607449","0.0-15.0-0.119","2013","2","""event"",""trial"",""time""
""fullscreenenter"",""1"",""7342""
","
","
","""event"",""trial"",""time""
""fullscreenenter"",""1"",""7342""
","
","","","","","","null","<div style=""font-size:60px;"">+</div>","null","","fixation","","","","","","","","",""
"memory-trial","283","609935","0.0-15.0-1.119","2013","2","""event"",""trial"",""time""
""fullscreenenter"",""1"",""7342""
","
","
","""event"",""trial"",""time""
""fullscreenenter"",""1"",""7342""
","
","","","","","","1480.4000000953674","images/straw1.png","","","memory_trial","2","maybe_old","","","","","","",""
"preload","284","625922","0.0-16.0","2013","2","""event"",""trial"",""time""
""fullscreenenter"",""1"",""7342""
","
","
","""event"",""trial"",""time""
""fullscreenenter"",""1"",""7342""
","
","true","false","[]","[]","[]","","","","","","","","","","","","","",""
"learning-instructions","285","636935","0.0-17.0-0.0-0.0-0.0","2013","2","""event"",""trial"",""time""
""fullscreenenter"",""1"",""7342""
","
","
","""event"",""trial"",""time""
""fullscreenenter"",""1"",""7342""
","
","","","","","","7533.700000047684","<p> We're now going to ask you to buy fruit again. </p>","","0","instructions","","","","","","","","",""
"learning-instructions","286","643916","0.0-17.0-0.0-0.0-0.1","2013","2","""event"",""trial"",""time""
""fullscreenenter"",""1"",""7342""
","
","
","""event"",""trial"",""time""
""fullscreenenter"",""1"",""7342""
","
","","","","","","2113.7999999523163","<p> On each trial, you will see a fruit. Select the store where you think you can buy the fruit. </p>","","0","instructions","","","","","","","","",""
"learning-instructions","287","652024","0.0-17.0-0.0-0.0-0.2","2013","2","""event"",""trial"",""time""
""fullscreenenter"",""1"",""7342""
","
","
","""event"",""trial"",""time""
""fullscreenenter"",""1"",""7342""
","
","","","","","","1042.2000000476837","<p> To make your selection, think about what you learned last week. You will NOT receive any feedback about your choice. </p>","","0","instructions","","","","","","","","",""
"learning-instructions","288","662309","0.0-17.0-0.0-0.0-0.3","2013","2","""event"",""trial"",""time""
""fullscreenenter"",""1"",""7342""
","
","
","""event"",""trial"",""time""
""fullscreenenter"",""1"",""7342""
","
","","","","","","2686.5","<p> You should use the 1 key to select the store on the left, the 2 key to select the store in the middle, and the 3 key to select the store on the right. </p><br><div class=""choice-mem-instructions-grid""> <div class=""choice-mem-option""><img src=""images/fruit_choice1.png"" class=""choice-mem-option-img"" stage=""instructions"" position=""0"" ><div class=""choice-mem-option-text""> Press ""1."" </div></div><div class=""choice-mem-option""><img src=""images/fruit_choice2.png"" class=""choice-mem-option-img"" stage=""instructions"" position=""1"" ><div class=""choice-mem-option-text""> Press ""2."" </div></div><div class=""choice-mem-option""><img src=""images/fruit_choice3.png"" class=""choice-mem-option-img"" stage=""instructions"" position=""2"" ><div class=""choice-mem-option-text""> Press ""3."" </div></div></div>","","0","instructions","","","","","","","","",""
"learning-instructions","289","669433","0.0-17.0-0.0-0.0-0.4","2013","2","""event"",""trial"",""time""
""fullscreenenter"",""1"",""7342""
","
","
","""event"",""trial"",""time""
""fullscreenenter"",""1"",""7342""
","
","","","","","","851.1000001430511","<p> You will have 10 seconds to make each selection. Try to respond before time runs out! </p>","","0","instructions","","","","","","","","",""
"learning-instructions","290","673279","0.0-17.0-0.0-1.0","2013","2","""event"",""trial"",""time""
""fullscreenenter"",""1"",""7342""
","
","
","""event"",""trial"",""time""
""fullscreenenter"",""1"",""7342""
","
","","","","","","1787.1000001430511","<p> You are now ready to begin the game. </p>","","0","instructions","","","","","","","","",""
"html-keyboard-response","291","673890","0.0-17.0-0.0-2.0-0.0","2013","2","""event"",""trial"",""time""
""fullscreenenter"",""1"",""7342""
","
","
","""event"",""trial"",""time""
""fullscreenenter"",""1"",""7342""
","
","","","","","","null","<div style=""font-size:60px;"">+</div>","null","","fixation","","","","","","","","",""
"choice-memory-trial","292","676935","0.0-17.0-0.0-2.0-1.0","2013","2","""event"",""trial"",""time""
""fullscreenenter"",""1"",""7342""
","
","
","""event"",""trial"",""time""
""fullscreenenter"",""1"",""7342""
","
","","","","","","2035.2000000476837","images/banana4.png","","","choice_memory_trial","1","","","images/fruit_choice3.png","images/fruit_choice1.png","images/fruit_choice2.png","[2,0,1]","images/fruit_choice3.png","fruit"
