"trial_type","trial_index","time_elapsed","internal_node_id","subject_id","task_version","interactions","blur_events","focus_events","fullscreenenter_events","fullscreenexit_events","success","timeout","failed_images","failed_audio","failed_video","rt","stimulus","response","button_pressed","task_part","key_press","answer","correct","left_choice","middle_choice","right_choice","choice_positions","option_selected","block"
"pavlovia","0","7","0.0-0.0","1688","2","""event"",""trial"",""time""
""fullscreenenter"",""1"",""3268""
","
","
","""event"",""trial"",""time""
""fullscreenenter"",""1"",""3268""
","
","","","","","","","","","","","","","","","","","","",""
"fullscreen","1","4253","0.0-1.0","1688","2","""event"",""trial"",""time""
""fullscreenenter"",""1"",""3268""
","
","
","""event"",""trial"",""time""
""fullscreenenter"",""1"",""3268""
","
","true","","","","","","","","","","","","","","","","","",""
"preload","2","4925","0.0-2.0","1688","2","""event"",""trial"",""time""
""fullscreenenter"",""1"",""3268""
","
","
","""event"",""trial"",""time""
""fullscreenenter"",""1"",""3268""
","
","true","false","[]","[]","[]","","","","","","","","","","","","","",""
"audio-keyboard-response","3","6800","0.0-3.0","1688","2","""event"",""trial"",""time""
""fullscreenenter"",""1"",""3268""
","
","
","""event"",""trial"",""time""
""fullscreenenter"",""1"",""3268""
","
","","","","","","1872","audio/beep_loop.wav"," ","","","","","","","","","","",""
"audio-button-response","4","9167","0.0-4.0","1688","2","""event"",""trial"",""time""
""fullscreenenter"",""1"",""3268""
","
","
","""event"",""trial"",""time""
""fullscreenenter"",""1"",""3268""
","
","","","","","","2363","audio/turtle.wav","3","","","","","","","","","","",""
"audio-button-response","5","12131","0.0-5.0","1688","2","""event"",""trial"",""time""
""fullscreenenter"",""1"",""3268""
","
","
","""event"",""trial"",""time""
""fullscreenenter"",""1"",""3268""
","
","","","","","","1952","audio/shark.wav","2","","","","","","","","","","",""
"preload","6","14728","0.0-6.0","1688","2","""event"",""trial"",""time""
""fullscreenenter"",""1"",""3268""
","
","
","""event"",""trial"",""time""
""fullscreenenter"",""1"",""3268""
","
","true","false","[]","[]","[]","","","","","","","","","","","","","",""
"learning-instructions","7","21685","0.0-7.0-0.0","1688","2","""event"",""trial"",""time""
""fullscreenenter"",""1"",""3268""
","
","
","""event"",""trial"",""time""
""fullscreenenter"",""1"",""3268""
","
","","","","","","2149","<p> Welcome back! </p><p> Last week, you had to make choices about lots of different items.  </p>","","0","instructions","","","","","","","","",""
"learning-instructions","8","27281","0.0-7.0-0.1","1688","2","""event"",""trial"",""time""
""fullscreenenter"",""1"",""3268""
","
","
","""event"",""trial"",""time""
""fullscreenenter"",""1"",""3268""
","
","","","","","","1294.5","<p> Today, we are going to ask you to try to remember all the items. </p>","","0","instructions","","","","","","","","",""
"learning-instructions","9","38929","0.0-7.0-0.2","1688","2","""event"",""trial"",""time""
""fullscreenenter"",""1"",""3268""
","
","
","""event"",""trial"",""time""
""fullscreenenter"",""1"",""3268""
","
","","","","","","1514.800000011921","<p> On every trial, you will see an image. </p><p> The image may be an OLD image you saw during the games last week or it may be a NEW image that was not presented. </p>","","0","instructions","","","","","","","","",""
"learning-instructions","10","48851","0.0-7.0-0.3","1688","2","""event"",""trial"",""time""
""fullscreenenter"",""1"",""3268""
","
","
","""event"",""trial"",""time""
""fullscreenenter"",""1"",""3268""
","
","","","","","","1425.9000000059605","<p> You need to select whether the image is:  </p><p>  'Definitely old', 'Maybe old', 'Maybe new', or 'Definitely new.'  </p><div class=""mem-choice-instructions-grid""><div class=""choice-option"" id=""choice-option-1"" ><img src=""images/definitely_old_1.png"" id=""choice-option-img-1"" class=""choice-option-img"" stage=""1""></div><div class=""choice-option"" id=""choice-option-2"" ><img src=""images/maybe_old_1.png"" id=""choice-option-img-2"" class=""choice-option-img"" stage=""1""></div><div class=""choice-option"" id=""choice-option-3"" ><img src=""images/maybe_new_1.png"" id=""choice-option-img-3"" class=""choice-option-img"" stage=""1""></div><div class=""choice-option"" id=""choice-option-4"" > <img src=""images/definitely_new_1.png"" id=""choice-option-img-4"" class=""choice-option-img"" stage=""1""></div></div>","","0","instructions","","","","","","","","",""
"learning-instructions","11","59598","0.0-7.0-0.4","1688","2","""event"",""trial"",""time""
""fullscreenenter"",""1"",""3268""
","
","
","""event"",""trial"",""time""
""fullscreenenter"",""1"",""3268""
","
","","","","","","4054.800000011921","<p> You should use the 1, 2, 3, and 4 keys to make your responses.  </p><div class=""mem-choice-instructions-grid""><div class=""choice-option"" id=""choice-option-1"" ><img src=""images/definitely_old.png"" id=""choice-option-img-1"" class=""choice-option-img"" stage=""1""></div><div class=""choice-option"" id=""choice-option-2"" ><img src=""images/maybe_old.png"" id=""choice-option-img-2"" class=""choice-option-img"" stage=""1""></div><div class=""choice-option"" id=""choice-option-3"" ><img src=""images/maybe_new.png"" id=""choice-option-img-3"" class=""choice-option-img"" stage=""1""></div><div class=""choice-option"" id=""choice-option-4"" > <img src=""images/definitely_new.png"" id=""choice-option-img-4"" class=""choice-option-img"" stage=""1""></div></div>","","0","instructions","","","","","","","","",""
"learning-instructions","12","67526","0.0-7.0-0.5","1688","2","""event"",""trial"",""time""
""fullscreenenter"",""1"",""3268""
","
","
","""event"",""trial"",""time""
""fullscreenenter"",""1"",""3268""
","
","","","","","","1169.1000000238419","<p> You will have 10 seconds to make each response.  </p><p>  Make sure to respond before time runs out! </p>","","0","instructions","","","","","","","","",""
"learning-instructions","13","76539","0.0-7.0-0.6","1688","2","""event"",""trial"",""time""
""fullscreenenter"",""1"",""3268""
","
","
","""event"",""trial"",""time""
""fullscreenenter"",""1"",""3268""
","
","","","","","","1430","<p> Today, you will see each image ONCE only.  </p><p>  That means none of the images will repeat. </p>","","0","instructions","","","","","","","","",""
"learning-instructions","14","90144","0.0-7.0-0.7","1688","2","""event"",""trial"",""time""
""fullscreenenter"",""1"",""3268""
","
","
","""event"",""trial"",""time""
""fullscreenenter"",""1"",""3268""
","
","","","","","","933.9000000059605","<p> Before you play the real game, it is time to practice. </p><p>  Just like in the real game, some of the images in the practice will be ones you have seen before. </p><p>  Others will be entirely new. </p>","","0","instructions","","","","","","","","",""
"html-button-response","15","91841","0.0-8.0","1688","2","""event"",""trial"",""time""
""fullscreenenter"",""1"",""3268""
","
","
","""event"",""trial"",""time""
""fullscreenenter"",""1"",""3268""
","
","","","","","","1589.5999999940395","<p> Ready to practice? </p><p> Remember, use the 1, 2, 3, and 4 keys to make your responses. </p>","0","","instructions","","","","","","","","",""
"html-keyboard-response","16","92446","0.0-9.0-0.0","1688","2","""event"",""trial"",""time""
""fullscreenenter"",""1"",""3268""
","
","
","""event"",""trial"",""time""
""fullscreenenter"",""1"",""3268""
","
","","","","","","null","<div style=""font-size:60px;"">+</div>","null","","fixation","","","","","","","","",""
"memory-trial","17","98681","0.0-9.0-1.0","1688","2","""event"",""trial"",""time""
""fullscreenenter"",""1"",""3268""
","
","
","""event"",""trial"",""time""
""fullscreenenter"",""1"",""3268""
","
","","","","","","5223.199999988079","images/ball1.png","","","practice","1","definitely_old","","","","","","",""
"html-keyboard-response","18","99187","0.0-9.0-0.1","1688","2","""event"",""trial"",""time""
""fullscreenenter"",""1"",""3268""
","
","
","""event"",""trial"",""time""
""fullscreenenter"",""1"",""3268""
","
","","","","","","null","<div style=""font-size:60px;"">+</div>","null","","fixation","","","","","","","","",""
"memory-trial","19","101920","0.0-9.0-1.1","1688","2","""event"",""trial"",""time""
""fullscreenenter"",""1"",""3268""
","
","
","""event"",""trial"",""time""
""fullscreenenter"",""1"",""3268""
","
","","","","","","1728.5","images/racket4.png","","","practice","1","definitely_old","","","","","","",""
"html-keyboard-response","20","102426","0.0-9.0-0.2","1688","2","""event"",""trial"",""time""
""fullscreenenter"",""1"",""3268""
","
","
","""event"",""trial"",""time""
""fullscreenenter"",""1"",""3268""
","
","","","","","","null","<div style=""font-size:60px;"">+</div>","null","","fixation","","","","","","","","",""
"memory-trial","21","104875","0.0-9.0-1.2","1688","2","""event"",""trial"",""time""
""fullscreenenter"",""1"",""3268""
","
","
","""event"",""trial"",""time""
""fullscreenenter"",""1"",""3268""
","
","","","","","","1441","images/ball2.png","","","practice","1","definitely_old","","","","","","",""
"html-keyboard-response","22","105379","0.0-9.0-0.3","1688","2","""event"",""trial"",""time""
""fullscreenenter"",""1"",""3268""
","
","
","""event"",""trial"",""time""
""fullscreenenter"",""1"",""3268""
","
","","","","","","null","<div style=""font-size:60px;"">+</div>","null","","fixation","","","","","","","","",""
"memory-trial","23","107627","0.0-9.0-1.3","1688","2","""event"",""trial"",""time""
""fullscreenenter"",""1"",""3268""
","
","
","""event"",""trial"",""time""
""fullscreenenter"",""1"",""3268""
","
","","","","","","1240.5","images/ball4.png","","","practice","1","definitely_old","","","","","","",""
"html-keyboard-response","24","108130","0.0-9.0-0.4","1688","2","""event"",""trial"",""time""
""fullscreenenter"",""1"",""3268""
","
","
","""event"",""trial"",""time""
""fullscreenenter"",""1"",""3268""
","
","","","","","","null","<div style=""font-size:60px;"">+</div>","null","","fixation","","","","","","","","",""
"memory-trial","25","111155","0.0-9.0-1.4","1688","2","""event"",""trial"",""time""
""fullscreenenter"",""1"",""3268""
","
","
","""event"",""trial"",""time""
""fullscreenenter"",""1"",""3268""
","
","","","","","","2016.699999988079","images/racket2.png","","","practice","2","maybe_old","","","","","","",""
"html-keyboard-response","26","111661","0.0-9.0-0.5","1688","2","""event"",""trial"",""time""
""fullscreenenter"",""1"",""3268""
","
","
","""event"",""trial"",""time""
""fullscreenenter"",""1"",""3268""
","
","","","","","","null","<div style=""font-size:60px;"">+</div>","null","","fixation","","","","","","","","",""
"memory-trial","27","113969","0.0-9.0-1.5","1688","2","""event"",""trial"",""time""
""fullscreenenter"",""1"",""3268""
","
","
","""event"",""trial"",""time""
""fullscreenenter"",""1"",""3268""
","
","","","","","","1300.0999999940395","images/racket1.png","","","practice","2","maybe_old","","","","","","",""
"html-keyboard-response","28","114472","0.0-9.0-0.6","1688","2","""event"",""trial"",""time""
""fullscreenenter"",""1"",""3268""
","
","
","""event"",""trial"",""time""
""fullscreenenter"",""1"",""3268""
","
","","","","","","null","<div style=""font-size:60px;"">+</div>","null","","fixation","","","","","","","","",""
"memory-trial","29","118162","0.0-9.0-1.6","1688","2","""event"",""trial"",""time""
""fullscreenenter"",""1"",""3268""
","
","
","""event"",""trial"",""time""
""fullscreenenter"",""1"",""3268""
","
","","","","","","2683.7999999821186","images/ball3.png","","","practice","3","maybe_new","","","","","","",""
"html-keyboard-response","30","118669","0.0-9.0-0.7","1688","2","""event"",""trial"",""time""
""fullscreenenter"",""1"",""3268""
","
","
","""event"",""trial"",""time""
""fullscreenenter"",""1"",""3268""
","
","","","","","","null","<div style=""font-size:60px;"">+</div>","null","","fixation","","","","","","","","",""
"memory-trial","31","121973","0.0-9.0-1.7","1688","2","""event"",""trial"",""time""
""fullscreenenter"",""1"",""3268""
","
","
","""event"",""trial"",""time""
""fullscreenenter"",""1"",""3268""
","
","","","","","","2300.0999999940395","images/racket3.png","","","practice","2","maybe_old","","","","","","",""
"learning-instructions","32","137728","0.0-10.0-0.0","1688","2","""event"",""trial"",""time""
""fullscreenenter"",""1"",""3268""
","
","
","""event"",""trial"",""time""
""fullscreenenter"",""1"",""3268""
","
","","","","","","7761.299999982119","<p> Great! You have completed the practice. </p><p> Before you start, we're going to ask you a few questions about how the game works.  </p>","","0","instructions","","","","","","","","",""
"preload","33","139883","0.0-11.0","1688","2","""event"",""trial"",""time""
""fullscreenenter"",""1"",""3268""
","
","
","""event"",""trial"",""time""
""fullscreenenter"",""1"",""3268""
","
","true","false","[]","[]","[]","","","","","","","","","","","","","",""
"comp-q","34","147065","0.0-12.0-0.0","1688","2","""event"",""trial"",""time""
""fullscreenenter"",""1"",""3268""
","
","
","""event"",""trial"",""time""
""fullscreenenter"",""1"",""3268""
","
","","","","","","1348.5999999940395","<p> <b> True or False? </b> </p><p> In this game, you will only see each image once. </p>","","0","comp_question","","","true","","","","","",""
"comp-q","35","155296","0.0-12.0-1.0","1688","2","""event"",""trial"",""time""
""fullscreenenter"",""1"",""3268""
","
","
","""event"",""trial"",""time""
""fullscreenenter"",""1"",""3268""
","
","","","","","","1895.5999999940395","<p> <b> That's right! </b> You will see many different images <i> one time each </i> in this game. </p>","","0","comp_answer","","","","","","","","",""
"comp-q","36","162478","0.0-12.0-0.1","1688","2","""event"",""trial"",""time""
""fullscreenenter"",""1"",""3268""
","
","
","""event"",""trial"",""time""
""fullscreenenter"",""1"",""3268""
","
","","","","","","1381.0999999940395","<p> <b> True or False? </b> </p><p> You should use the mouse and click to make your response. </p>","","1","comp_question","","","true","","","","","",""
"comp-q","37","170785","0.0-12.0-1.1","1688","2","""event"",""trial"",""time""
""fullscreenenter"",""1"",""3268""
","
","
","""event"",""trial"",""time""
""fullscreenenter"",""1"",""3268""
","
","","","","","","963.8999999761581","<p><b> That's right! </b> You should use the '1', '2', '3', and '4' keys to make your response. </p>","","0","comp_answer","","","","","","","","",""
"comp-q","38","178390","0.0-12.0-0.2","1688","2","""event"",""trial"",""time""
""fullscreenenter"",""1"",""3268""
","
","
","""event"",""trial"",""time""
""fullscreenenter"",""1"",""3268""
","
","","","","","","1608.5","<p> <b> True or False? </b> </p><p> You will have as much time as you want to make each choice. </p>","","1","comp_question","","","true","","","","","",""
"comp-q","39","184930","0.0-12.0-1.2","1688","2","""event"",""trial"",""time""
""fullscreenenter"",""1"",""3268""
","
","
","""event"",""trial"",""time""
""fullscreenenter"",""1"",""3268""
","
","","","","","","1151.2999999821186","<p> <b> That's right! </b> You will only have 10 seconds to make each choice. </p>","","0","comp_answer","","","","","","","","",""
"learning-instructions","40","195103","0.0-13.0","1688","2","""event"",""trial"",""time""
""fullscreenenter"",""1"",""3268""
","
","
","""event"",""trial"",""time""
""fullscreenenter"",""1"",""3268""
","
","","","","","","1506.800000011921","<p> Great! You are now ready to begin the game. </p><p> Remember, use the 1, 2, 3, and 4 keys to make your responses. </p>","","0","instructions","","","","","","","","",""
"preload","41","198055","0.0-14.0","1688","2","""event"",""trial"",""time""
""fullscreenenter"",""1"",""3268""
","
","
","""event"",""trial"",""time""
""fullscreenenter"",""1"",""3268""
","
","true","false","[]","[]","[]","","","","","","","","","","","","","",""
"html-keyboard-response","42","198556","0.0-15.0-0.0","1688","2","""event"",""trial"",""time""
""fullscreenenter"",""1"",""3268""
","
","
","""event"",""trial"",""time""
""fullscreenenter"",""1"",""3268""
","
","","","","","","null","<div style=""font-size:60px;"">+</div>","null","","fixation","","","","","","","","",""
"memory-trial","43","201330","0.0-15.0-1.0","1688","2","""event"",""trial"",""time""
""fullscreenenter"",""1"",""3268""
","
","
","""event"",""trial"",""time""
""fullscreenenter"",""1"",""3268""
","
","","","","","","1766","images/train2.png","","","memory_trial","1","definitely_old","","","","","","",""
"html-keyboard-response","44","201832","0.0-15.0-0.1","1688","2","""event"",""trial"",""time""
""fullscreenenter"",""1"",""3268""
","
","
","""event"",""trial"",""time""
""fullscreenenter"",""1"",""3268""
","
","","","","","","null","<div style=""font-size:60px;"">+</div>","null","","fixation","","","","","","","","",""
"memory-trial","45","204297","0.0-15.0-1.1","1688","2","""event"",""trial"",""time""
""fullscreenenter"",""1"",""3268""
","
","
","""event"",""trial"",""time""
""fullscreenenter"",""1"",""3268""
","
","","","","","","1463.4000000059605","images/chair1.png","","","memory_trial","1","definitely_old","","","","","","",""
"html-keyboard-response","46","204798","0.0-15.0-0.2","1688","2","""event"",""trial"",""time""
""fullscreenenter"",""1"",""3268""
","
","
","""event"",""trial"",""time""
""fullscreenenter"",""1"",""3268""
","
","","","","","","null","<div style=""font-size:60px;"">+</div>","null","","fixation","","","","","","","","",""
"memory-trial","47","207701","0.0-15.0-1.2","1688","2","""event"",""trial"",""time""
""fullscreenenter"",""1"",""3268""
","
","
","""event"",""trial"",""time""
""fullscreenenter"",""1"",""3268""
","
","","","","","","1898.7999999821186","images/banana2.png","","","memory_trial","4","definitely_new","","","","","","",""
"html-keyboard-response","48","208206","0.0-15.0-0.3","1688","2","""event"",""trial"",""time""
""fullscreenenter"",""1"",""3268""
","
","
","""event"",""trial"",""time""
""fullscreenenter"",""1"",""3268""
","
","","","","","","null","<div style=""font-size:60px;"">+</div>","null","","fixation","","","","","","","","",""
"memory-trial","49","210414","0.0-15.0-1.3","1688","2","""event"",""trial"",""time""
""fullscreenenter"",""1"",""3268""
","
","
","""event"",""trial"",""time""
""fullscreenenter"",""1"",""3268""
","
","","","","","","1202.5","images/apple2.png","","","memory_trial","4","definitely_new","","","","","","",""
"html-keyboard-response","50","210917","0.0-15.0-0.4","1688","2","""event"",""trial"",""time""
""fullscreenenter"",""1"",""3268""
","
","
","""event"",""trial"",""time""
""fullscreenenter"",""1"",""3268""
","
","","","","","","null","<div style=""font-size:60px;"">+</div>","null","","fixation","","","","","","","","",""
"memory-trial","51","214099","0.0-15.0-1.4","1688","2","""event"",""trial"",""time""
""fullscreenenter"",""1"",""3268""
","
","
","""event"",""trial"",""time""
""fullscreenenter"",""1"",""3268""
","
","","","","","","2176.800000011921","images/truck4.png","","","memory_trial","3","maybe_new","","","","","","",""
"html-keyboard-response","52","214601","0.0-15.0-0.5","1688","2","""event"",""trial"",""time""
""fullscreenenter"",""1"",""3268""
","
","
","""event"",""trial"",""time""
""fullscreenenter"",""1"",""3268""
","
","","","","","","null","<div style=""font-size:60px;"">+</div>","null","","fixation","","","","","","","","",""
"memory-trial","53","217497","0.0-15.0-1.5","1688","2","""event"",""trial"",""time""
""fullscreenenter"",""1"",""3268""
","
","
","""event"",""trial"",""time""
""fullscreenenter"",""1"",""3268""
","
","","","","","","1891.300000011921","images/train4.png","","","memory_trial","1","definitely_old","","","","","","",""
"html-keyboard-response","54","217998","0.0-15.0-0.6","1688","2","""event"",""trial"",""time""
""fullscreenenter"",""1"",""3268""
","
","
","""event"",""trial"",""time""
""fullscreenenter"",""1"",""3268""
","
","","","","","","null","<div style=""font-size:60px;"">+</div>","null","","fixation","","","","","","","","",""
"memory-trial","55","221149","0.0-15.0-1.6","1688","2","""event"",""trial"",""time""
""fullscreenenter"",""1"",""3268""
","
","
","""event"",""trial"",""time""
""fullscreenenter"",""1"",""3268""
","
","","","","","","2148","images/cactus1.png","","","memory_trial","2","maybe_old","","","","","","",""
"html-keyboard-response","56","221651","0.0-15.0-0.7","1688","2","""event"",""trial"",""time""
""fullscreenenter"",""1"",""3268""
","
","
","""event"",""trial"",""time""
""fullscreenenter"",""1"",""3268""
","
","","","","","","null","<div style=""font-size:60px;"">+</div>","null","","fixation","","","","","","","","",""
"memory-trial","57","224432","0.0-15.0-1.7","1688","2","""event"",""trial"",""time""
""fullscreenenter"",""1"",""3268""
","
","
","""event"",""trial"",""time""
""fullscreenenter"",""1"",""3268""
","
","","","","","","1775.9000000059605","images/rodent4.png","","","memory_trial","4","definitely_new","","","","","","",""
"html-keyboard-response","58","224937","0.0-15.0-0.8","1688","2","""event"",""trial"",""time""
""fullscreenenter"",""1"",""3268""
","
","
","""event"",""trial"",""time""
""fullscreenenter"",""1"",""3268""
","
","","","","","","null","<div style=""font-size:60px;"">+</div>","null","","fixation","","","","","","","","",""
"memory-trial","59","228164","0.0-15.0-1.8","1688","2","""event"",""trial"",""time""
""fullscreenenter"",""1"",""3268""
","
","
","""event"",""trial"",""time""
""fullscreenenter"",""1"",""3268""
","
","","","","","","2224.199999988079","images/flower1.png","","","memory_trial","2","maybe_old","","","","","","",""
"html-keyboard-response","60","228671","0.0-15.0-0.9","1688","2","""event"",""trial"",""time""
""fullscreenenter"",""1"",""3268""
","
","
","""event"",""trial"",""time""
""fullscreenenter"",""1"",""3268""
","
","","","","","","null","<div style=""font-size:60px;"">+</div>","null","","fixation","","","","","","","","",""
"memory-trial","61","231057","0.0-15.0-1.9","1688","2","""event"",""trial"",""time""
""fullscreenenter"",""1"",""3268""
","
","
","""event"",""trial"",""time""
""fullscreenenter"",""1"",""3268""
","
","","","","","","1379.5999999940395","images/sofa5.png","","","memory_trial","1","definitely_old","","","","","","",""
"html-keyboard-response","62","231561","0.0-15.0-0.10","1688","2","""event"",""trial"",""time""
""fullscreenenter"",""1"",""3268""
","
","
","""event"",""trial"",""time""
""fullscreenenter"",""1"",""3268""
","
","","","","","","null","<div style=""font-size:60px;"">+</div>","null","","fixation","","","","","","","","",""
"memory-trial","63","235950","0.0-15.0-1.10","1688","2","""event"",""trial"",""time""
""fullscreenenter"",""1"",""3268""
","
","
","""event"",""trial"",""time""
""fullscreenenter"",""1"",""3268""
","
","","","","","","3381.699999988079","images/goat5.png","","","memory_trial","4","definitely_new","","","","","","",""
"html-keyboard-response","64","236455","0.0-15.0-0.11","1688","2","""event"",""trial"",""time""
""fullscreenenter"",""1"",""3268""
","
","
","""event"",""trial"",""time""
""fullscreenenter"",""1"",""3268""
","
","","","","","","null","<div style=""font-size:60px;"">+</div>","null","","fixation","","","","","","","","",""
"memory-trial","65","240019","0.0-15.0-1.11","1688","2","""event"",""trial"",""time""
""fullscreenenter"",""1"",""3268""
","
","
","""event"",""trial"",""time""
""fullscreenenter"",""1"",""3268""
","
","","","","","","2560.4000000059605","images/train3.png","","","memory_trial","3","maybe_new","","","","","","",""
"html-keyboard-response","66","240523","0.0-15.0-0.12","1688","2","""event"",""trial"",""time""
""fullscreenenter"",""1"",""3268""
","
","
","""event"",""trial"",""time""
""fullscreenenter"",""1"",""3268""
","
","","","","","","null","<div style=""font-size:60px;"">+</div>","null","","fixation","","","","","","","","",""
"memory-trial","67","243214","0.0-15.0-1.12","1688","2","""event"",""trial"",""time""
""fullscreenenter"",""1"",""3268""
","
","
","""event"",""trial"",""time""
""fullscreenenter"",""1"",""3268""
","
","","","","","","1685.5","images/rodent3.png","","","memory_trial","4","definitely_new","","","","","","",""
"html-keyboard-response","68","243721","0.0-15.0-0.13","1688","2","""event"",""trial"",""time""
""fullscreenenter"",""1"",""3268""
","
","
","""event"",""trial"",""time""
""fullscreenenter"",""1"",""3268""
","
","","","","","","null","<div style=""font-size:60px;"">+</div>","null","","fixation","","","","","","","","",""
"memory-trial","69","247657","0.0-15.0-1.13","1688","2","""event"",""trial"",""time""
""fullscreenenter"",""1"",""3268""
","
","
","""event"",""trial"",""time""
""fullscreenenter"",""1"",""3268""
","
","","","","","","2928.300000011921","images/horse2.png","","","memory_trial","3","maybe_new","","","","","","",""
"html-keyboard-response","70","248163","0.0-15.0-0.14","1688","2","""event"",""trial"",""time""
""fullscreenenter"",""1"",""3268""
","
","
","""event"",""trial"",""time""
""fullscreenenter"",""1"",""3268""
","
","","","","","","null","<div style=""font-size:60px;"">+</div>","null","","fixation","","","","","","","","",""
"memory-trial","71","252083","0.0-15.0-1.14","1688","2","""event"",""trial"",""time""
""fullscreenenter"",""1"",""3268""
","
","
","""event"",""trial"",""time""
""fullscreenenter"",""1"",""3268""
","
","","","","","","2915.4000000059605","images/orange3.png","","","memory_trial","2","maybe_old","","","","","","",""
"html-keyboard-response","72","252592","0.0-15.0-0.15","1688","2","""event"",""trial"",""time""
""fullscreenenter"",""1"",""3268""
","
","
","""event"",""trial"",""time""
""fullscreenenter"",""1"",""3268""
","
","","","","","","null","<div style=""font-size:60px;"">+</div>","null","","fixation","","","","","","","","",""
"memory-trial","73","254629","0.0-15.0-1.15","1688","2","""event"",""trial"",""time""
""fullscreenenter"",""1"",""3268""
","
","
","""event"",""trial"",""time""
""fullscreenenter"",""1"",""3268""
","
","","","","","","1030.199999988079","images/bush2.png","","","memory_trial","2","maybe_old","","","","","","",""
"html-keyboard-response","74","255134","0.0-15.0-0.16","1688","2","""event"",""trial"",""time""
""fullscreenenter"",""1"",""3268""
","
","
","""event"",""trial"",""time""
""fullscreenenter"",""1"",""3268""
","
","","","","","","null","<div style=""font-size:60px;"">+</div>","null","","fixation","","","","","","","","",""
"memory-trial","75","257251","0.0-15.0-1.16","1688","2","""event"",""trial"",""time""
""fullscreenenter"",""1"",""3268""
","
","
","""event"",""trial"",""time""
""fullscreenenter"",""1"",""3268""
","
","","","","","","1109.6000000238419","images/cow3.png","","","memory_trial","2","maybe_old","","","","","","",""
"html-keyboard-response","76","257752","0.0-15.0-0.17","1688","2","""event"",""trial"",""time""
""fullscreenenter"",""1"",""3268""
","
","
","""event"",""trial"",""time""
""fullscreenenter"",""1"",""3268""
","
","","","","","","null","<div style=""font-size:60px;"">+</div>","null","","fixation","","","","","","","","",""
"memory-trial","77","260312","0.0-15.0-1.17","1688","2","""event"",""trial"",""time""
""fullscreenenter"",""1"",""3268""
","
","
","""event"",""trial"",""time""
""fullscreenenter"",""1"",""3268""
","
","","","","","","1555.5","images/orange2.png","","","memory_trial","2","maybe_old","","","","","","",""
"html-keyboard-response","78","260815","0.0-15.0-0.18","1688","2","""event"",""trial"",""time""
""fullscreenenter"",""1"",""3268""
","
","
","""event"",""trial"",""time""
""fullscreenenter"",""1"",""3268""
","
","","","","","","null","<div style=""font-size:60px;"">+</div>","null","","fixation","","","","","","","","",""
"memory-trial","79","262920","0.0-15.0-1.18","1688","2","""event"",""trial"",""time""
""fullscreenenter"",""1"",""3268""
","
","
","""event"",""trial"",""time""
""fullscreenenter"",""1"",""3268""
","
","","","","","","1098.5999999940395","images/boat3.png","","","memory_trial","2","maybe_old","","","","","","",""
"html-keyboard-response","80","263425","0.0-15.0-0.19","1688","2","""event"",""trial"",""time""
""fullscreenenter"",""1"",""3268""
","
","
","""event"",""trial"",""time""
""fullscreenenter"",""1"",""3268""
","
","","","","","","null","<div style=""font-size:60px;"">+</div>","null","","fixation","","","","","","","","",""
"memory-trial","81","267229","0.0-15.0-1.19","1688","2","""event"",""trial"",""time""
""fullscreenenter"",""1"",""3268""
","
","
","""event"",""trial"",""time""
""fullscreenenter"",""1"",""3268""
","
","","","","","","2799.9000000059605","images/sofa4.png","","","memory_trial","3","maybe_new","","","","","","",""
"html-keyboard-response","82","267734","0.0-15.0-0.20","1688","2","""event"",""trial"",""time""
""fullscreenenter"",""1"",""3268""
","
","
","""event"",""trial"",""time""
""fullscreenenter"",""1"",""3268""
","
","","","","","","null","<div style=""font-size:60px;"">+</div>","null","","fixation","","","","","","","","",""
"memory-trial","83","269922","0.0-15.0-1.20","1688","2","""event"",""trial"",""time""
""fullscreenenter"",""1"",""3268""
","
","
","""event"",""trial"",""time""
""fullscreenenter"",""1"",""3268""
","
","","","","","","1181.300000011921","images/goat3.png","","","memory_trial","3","maybe_new","","","","","","",""
"html-keyboard-response","84","270424","0.0-15.0-0.21","1688","2","""event"",""trial"",""time""
""fullscreenenter"",""1"",""3268""
","
","
","""event"",""trial"",""time""
""fullscreenenter"",""1"",""3268""
","
","","","","","","null","<div style=""font-size:60px;"">+</div>","null","","fixation","","","","","","","","",""
"memory-trial","85","273191","0.0-15.0-1.21","1688","2","""event"",""trial"",""time""
""fullscreenenter"",""1"",""3268""
","
","
","""event"",""trial"",""time""
""fullscreenenter"",""1"",""3268""
","
","","","","","","1761.300000011921","images/straw1.png","","","memory_trial","2","maybe_old","","","","","","",""
"html-keyboard-response","86","273693","0.0-15.0-0.22","1688","2","""event"",""trial"",""time""
""fullscreenenter"",""1"",""3268""
","
","
","""event"",""trial"",""time""
""fullscreenenter"",""1"",""3268""
","
","","","","","","null","<div style=""font-size:60px;"">+</div>","null","","fixation","","","","","","","","",""
"memory-trial","87","276007","0.0-15.0-1.22","1688","2","""event"",""trial"",""time""
""fullscreenenter"",""1"",""3268""
","
","
","""event"",""trial"",""time""
""fullscreenenter"",""1"",""3268""
","
","","","","","","1310.2000000178814","images/table1.png","","","memory_trial","3","maybe_new","","","","","","",""
"html-keyboard-response","88","276514","0.0-15.0-0.23","1688","2","""event"",""trial"",""time""
""fullscreenenter"",""1"",""3268""
","
","
","""event"",""trial"",""time""
""fullscreenenter"",""1"",""3268""
","
","","","","","","null","<div style=""font-size:60px;"">+</div>","null","","fixation","","","","","","","","",""
"memory-trial","89","279315","0.0-15.0-1.23","1688","2","""event"",""trial"",""time""
""fullscreenenter"",""1"",""3268""
","
","
","""event"",""trial"",""time""
""fullscreenenter"",""1"",""3268""
","
","","","","","","1796.5","images/truck5.png","","","memory_trial","1","definitely_old","","","","","","",""
"html-keyboard-response","90","279820","0.0-15.0-0.24","1688","2","""event"",""trial"",""time""
""fullscreenenter"",""1"",""3268""
","
","
","""event"",""trial"",""time""
""fullscreenenter"",""1"",""3268""
","
","","","","","","null","<div style=""font-size:60px;"">+</div>","null","","fixation","","","","","","","","",""
"memory-trial","91","283415","0.0-15.0-1.24","1688","2","""event"",""trial"",""time""
""fullscreenenter"",""1"",""3268""
","
","
","""event"",""trial"",""time""
""fullscreenenter"",""1"",""3268""
","
","","","","","","2587.4000000059605","images/orange1.png","","","memory_trial","2","maybe_old","","","","","","",""
"html-keyboard-response","92","283922","0.0-15.0-0.25","1688","2","""event"",""trial"",""time""
""fullscreenenter"",""1"",""3268""
","
","
","""event"",""trial"",""time""
""fullscreenenter"",""1"",""3268""
","
","","","","","","null","<div style=""font-size:60px;"">+</div>","null","","fixation","","","","","","","","",""
"memory-trial","93","286844","0.0-15.0-1.25","1688","2","""event"",""trial"",""time""
""fullscreenenter"",""1"",""3268""
","
","
","""event"",""trial"",""time""
""fullscreenenter"",""1"",""3268""
","
","","","","","","1917.2000000178814","images/boat1.png","","","memory_trial","4","definitely_new","","","","","","",""
"html-keyboard-response","94","287351","0.0-15.0-0.26","1688","2","""event"",""trial"",""time""
""fullscreenenter"",""1"",""3268""
","
","
","""event"",""trial"",""time""
""fullscreenenter"",""1"",""3268""
","
","","","","","","null","<div style=""font-size:60px;"">+</div>","null","","fixation","","","","","","","","",""
"memory-trial","95","289810","0.0-15.0-1.26","1688","2","""event"",""trial"",""time""
""fullscreenenter"",""1"",""3268""
","
","
","""event"",""trial"",""time""
""fullscreenenter"",""1"",""3268""
","
","","","","","","1452.5","images/chair2.png","","","memory_trial","1","definitely_old","","","","","","",""
"html-keyboard-response","96","290316","0.0-15.0-0.27","1688","2","""event"",""trial"",""time""
""fullscreenenter"",""1"",""3268""
","
","
","""event"",""trial"",""time""
""fullscreenenter"",""1"",""3268""
","
","","","","","","null","<div style=""font-size:60px;"">+</div>","null","","fixation","","","","","","","","",""
"memory-trial","97","293422","0.0-15.0-1.27","1688","2","""event"",""trial"",""time""
""fullscreenenter"",""1"",""3268""
","
","
","""event"",""trial"",""time""
""fullscreenenter"",""1"",""3268""
","
","","","","","","2099.800000011921","images/orange4.png","","","memory_trial","3","maybe_new","","","","","","",""
"html-keyboard-response","98","293926","0.0-15.0-0.28","1688","2","""event"",""trial"",""time""
""fullscreenenter"",""1"",""3268""
","
","
","""event"",""trial"",""time""
""fullscreenenter"",""1"",""3268""
","
","","","","","","null","<div style=""font-size:60px;"">+</div>","null","","fixation","","","","","","","","",""
"memory-trial","99","296492","0.0-15.0-1.28","1688","2","""event"",""trial"",""time""
""fullscreenenter"",""1"",""3268""
","
","
","""event"",""trial"",""time""
""fullscreenenter"",""1"",""3268""
","
","","","","","","1560.0999999940395","images/table5.png","","","memory_trial","4","definitely_new","","","","","","",""
"html-keyboard-response","100","296993","0.0-15.0-0.29","1688","2","""event"",""trial"",""time""
""fullscreenenter"",""1"",""3268""
","
","
","""event"",""trial"",""time""
""fullscreenenter"",""1"",""3268""
","
","","","","","","null","<div style=""font-size:60px;"">+</div>","null","","fixation","","","","","","","","",""
"memory-trial","101","299272","0.0-15.0-1.29","1688","2","""event"",""trial"",""time""
""fullscreenenter"",""1"",""3268""
","
","
","""event"",""trial"",""time""
""fullscreenenter"",""1"",""3268""
","
","","","","","","1272.4000000059605","images/chair5.png","","","memory_trial","3","maybe_new","","","","","","",""
"html-keyboard-response","102","299777","0.0-15.0-0.30","1688","2","""event"",""trial"",""time""
""fullscreenenter"",""1"",""3268""
","
","
","""event"",""trial"",""time""
""fullscreenenter"",""1"",""3268""
","
","","","","","","null","<div style=""font-size:60px;"">+</div>","null","","fixation","","","","","","","","",""
"memory-trial","103","302177","0.0-15.0-1.30","1688","2","""event"",""trial"",""time""
""fullscreenenter"",""1"",""3268""
","
","
","""event"",""trial"",""time""
""fullscreenenter"",""1"",""3268""
","
","","","","","","1397.0999999940395","images/banana1.png","","","memory_trial","4","definitely_new","","","","","","",""
"html-keyboard-response","104","302678","0.0-15.0-0.31","1688","2","""event"",""trial"",""time""
""fullscreenenter"",""1"",""3268""
","
","
","""event"",""trial"",""time""
""fullscreenenter"",""1"",""3268""
","
","","","","","","null","<div style=""font-size:60px;"">+</div>","null","","fixation","","","","","","","","",""
"memory-trial","105","305190","0.0-15.0-1.31","1688","2","""event"",""trial"",""time""
""fullscreenenter"",""1"",""3268""
","
","
","""event"",""trial"",""time""
""fullscreenenter"",""1"",""3268""
","
","","","","","","1507.199999988079","images/table2.png","","","memory_trial","4","definitely_new","","","","","","",""
"html-keyboard-response","106","305697","0.0-15.0-0.32","1688","2","""event"",""trial"",""time""
""fullscreenenter"",""1"",""3268""
","
","
","""event"",""trial"",""time""
""fullscreenenter"",""1"",""3268""
","
","","","","","","null","<div style=""font-size:60px;"">+</div>","null","","fixation","","","","","","","","",""
"memory-trial","107","307654","0.0-15.0-1.32","1688","2","""event"",""trial"",""time""
""fullscreenenter"",""1"",""3268""
","
","
","""event"",""trial"",""time""
""fullscreenenter"",""1"",""3268""
","
","","","","","","950.2000000178814","images/flower3.png","","","memory_trial","4","definitely_new","","","","","","",""
"html-keyboard-response","108","308156","0.0-15.0-0.33","1688","2","""event"",""trial"",""time""
""fullscreenenter"",""1"",""3268""
","
","
","""event"",""trial"",""time""
""fullscreenenter"",""1"",""3268""
","
","","","","","","null","<div style=""font-size:60px;"">+</div>","null","","fixation","","","","","","","","",""
"memory-trial","109","310123","0.0-15.0-1.33","1688","2","""event"",""trial"",""time""
""fullscreenenter"",""1"",""3268""
","
","
","""event"",""trial"",""time""
""fullscreenenter"",""1"",""3268""
","
","","","","","","960.2999999821186","images/table3.png","","","memory_trial","4","definitely_new","","","","","","",""
"html-keyboard-response","110","310624","0.0-15.0-0.34","1688","2","""event"",""trial"",""time""
""fullscreenenter"",""1"",""3268""
","
","
","""event"",""trial"",""time""
""fullscreenenter"",""1"",""3268""
","
","","","","","","null","<div style=""font-size:60px;"">+</div>","null","","fixation","","","","","","","","",""
"memory-trial","111","313247","0.0-15.0-1.34","1688","2","""event"",""trial"",""time""
""fullscreenenter"",""1"",""3268""
","
","
","""event"",""trial"",""time""
""fullscreenenter"",""1"",""3268""
","
","","","","","","1616.5999999940395","images/rabbit2.png","","","memory_trial","2","maybe_old","","","","","","",""
"html-keyboard-response","112","313750","0.0-15.0-0.35","1688","2","""event"",""trial"",""time""
""fullscreenenter"",""1"",""3268""
","
","
","""event"",""trial"",""time""
""fullscreenenter"",""1"",""3268""
","
","","","","","","null","<div style=""font-size:60px;"">+</div>","null","","fixation","","","","","","","","",""
"memory-trial","113","316080","0.0-15.0-1.35","1688","2","""event"",""trial"",""time""
""fullscreenenter"",""1"",""3268""
","
","
","""event"",""trial"",""time""
""fullscreenenter"",""1"",""3268""
","
","","","","","","1326.5999999940395","images/straw4.png","","","memory_trial","1","definitely_old","","","","","","",""
"html-keyboard-response","114","316584","0.0-15.0-0.36","1688","2","""event"",""trial"",""time""
""fullscreenenter"",""1"",""3268""
","
","
","""event"",""trial"",""time""
""fullscreenenter"",""1"",""3268""
","
","","","","","","null","<div style=""font-size:60px;"">+</div>","null","","fixation","","","","","","","","",""
"memory-trial","115","319093","0.0-15.0-1.36","1688","2","""event"",""trial"",""time""
""fullscreenenter"",""1"",""3268""
","
","
","""event"",""trial"",""time""
""fullscreenenter"",""1"",""3268""
","
","","","","","","1506.4000000059605","images/apple3.png","","","memory_trial","1","definitely_old","","","","","","",""
"html-keyboard-response","116","319595","0.0-15.0-0.37","1688","2","""event"",""trial"",""time""
""fullscreenenter"",""1"",""3268""
","
","
","""event"",""trial"",""time""
""fullscreenenter"",""1"",""3268""
","
","","","","","","null","<div style=""font-size:60px;"">+</div>","null","","fixation","","","","","","","","",""
"memory-trial","117","322176","0.0-15.0-1.37","1688","2","""event"",""trial"",""time""
""fullscreenenter"",""1"",""3268""
","
","
","""event"",""trial"",""time""
""fullscreenenter"",""1"",""3268""
","
","","","","","","1573.4000000059605","images/chair4.png","","","memory_trial","4","definitely_new","","","","","","",""
"html-keyboard-response","118","322677","0.0-15.0-0.38","1688","2","""event"",""trial"",""time""
""fullscreenenter"",""1"",""3268""
","
","
","""event"",""trial"",""time""
""fullscreenenter"",""1"",""3268""
","
","","","","","","null","<div style=""font-size:60px;"">+</div>","null","","fixation","","","","","","","","",""
"memory-trial","119","325546","0.0-15.0-1.38","1688","2","""event"",""trial"",""time""
""fullscreenenter"",""1"",""3268""
","
","
","""event"",""trial"",""time""
""fullscreenenter"",""1"",""3268""
","
","","","","","","1865.699999988079","images/sofa3.png","","","memory_trial","4","definitely_new","","","","","","",""
"html-keyboard-response","120","326048","0.0-15.0-0.39","1688","2","""event"",""trial"",""time""
""fullscreenenter"",""1"",""3268""
","
","
","""event"",""trial"",""time""
""fullscreenenter"",""1"",""3268""
","
","","","","","","null","<div style=""font-size:60px;"">+</div>","null","","fixation","","","","","","","","",""
"memory-trial","121","328219","0.0-15.0-1.39","1688","2","""event"",""trial"",""time""
""fullscreenenter"",""1"",""3268""
","
","
","""event"",""trial"",""time""
""fullscreenenter"",""1"",""3268""
","
","","","","","","1165.300000011921","images/goat4.png","","","memory_trial","3","maybe_new","","","","","","",""
"html-keyboard-response","122","328720","0.0-15.0-0.40","1688","2","""event"",""trial"",""time""
""fullscreenenter"",""1"",""3268""
","
","
","""event"",""trial"",""time""
""fullscreenenter"",""1"",""3268""
","
","","","","","","null","<div style=""font-size:60px;"">+</div>","null","","fixation","","","","","","","","",""
"memory-trial","123","330864","0.0-15.0-1.40","1688","2","""event"",""trial"",""time""
""fullscreenenter"",""1"",""3268""
","
","
","""event"",""trial"",""time""
""fullscreenenter"",""1"",""3268""
","
","","","","","","1138.9000000059605","images/cow2.png","","","memory_trial","3","maybe_new","","","","","","",""
"html-keyboard-response","124","331370","0.0-15.0-0.41","1688","2","""event"",""trial"",""time""
""fullscreenenter"",""1"",""3268""
","
","
","""event"",""trial"",""time""
""fullscreenenter"",""1"",""3268""
","
","","","","","","null","<div style=""font-size:60px;"">+</div>","null","","fixation","","","","","","","","",""
"memory-trial","125","333248","0.0-15.0-1.41","1688","2","""event"",""trial"",""time""
""fullscreenenter"",""1"",""3268""
","
","
","""event"",""trial"",""time""
""fullscreenenter"",""1"",""3268""
","
","","","","","","873.1999999880791","images/sheep3.png","","","memory_trial","4","definitely_new","","","","","","",""
"html-keyboard-response","126","333749","0.0-15.0-0.42","1688","2","""event"",""trial"",""time""
""fullscreenenter"",""1"",""3268""
","
","
","""event"",""trial"",""time""
""fullscreenenter"",""1"",""3268""
","
","","","","","","null","<div style=""font-size:60px;"">+</div>","null","","fixation","","","","","","","","",""
"memory-trial","127","335887","0.0-15.0-1.42","1688","2","""event"",""trial"",""time""
""fullscreenenter"",""1"",""3268""
","
","
","""event"",""trial"",""time""
""fullscreenenter"",""1"",""3268""
","
","","","","","","1132.4000000059605","images/truck2.png","","","memory_trial","4","definitely_new","","","","","","",""
"html-keyboard-response","128","336390","0.0-15.0-0.43","1688","2","""event"",""trial"",""time""
""fullscreenenter"",""1"",""3268""
","
","
","""event"",""trial"",""time""
""fullscreenenter"",""1"",""3268""
","
","","","","","","null","<div style=""font-size:60px;"">+</div>","null","","fixation","","","","","","","","",""
"memory-trial","129","339157","0.0-15.0-1.43","1688","2","""event"",""trial"",""time""
""fullscreenenter"",""1"",""3268""
","
","
","""event"",""trial"",""time""
""fullscreenenter"",""1"",""3268""
","
","","","","","","1763.2999999821186","images/feline5.png","","","memory_trial","2","maybe_old","","","","","","",""
"html-keyboard-response","130","339658","0.0-15.0-0.44","1688","2","""event"",""trial"",""time""
""fullscreenenter"",""1"",""3268""
","
","
","""event"",""trial"",""time""
""fullscreenenter"",""1"",""3268""
","
","","","","","","null","<div style=""font-size:60px;"">+</div>","null","","fixation","","","","","","","","",""
"memory-trial","131","344047","0.0-15.0-1.44","1688","2","""event"",""trial"",""time""
""fullscreenenter"",""1"",""3268""
","
","
","""event"",""trial"",""time""
""fullscreenenter"",""1"",""3268""
","
","","","","","","3381.5999999940395","images/cactus4.png","","","memory_trial","3","maybe_new","","","","","","",""
"html-keyboard-response","132","344554","0.0-15.0-0.45","1688","2","""event"",""trial"",""time""
""fullscreenenter"",""1"",""3268""
","
","
","""event"",""trial"",""time""
""fullscreenenter"",""1"",""3268""
","
","","","","","","null","<div style=""font-size:60px;"">+</div>","null","","fixation","","","","","","","","",""
"memory-trial","133","346308","0.0-15.0-1.45","1688","2","""event"",""trial"",""time""
""fullscreenenter"",""1"",""3268""
","
","
","""event"",""trial"",""time""
""fullscreenenter"",""1"",""3268""
","
","","","","","","749.4000000059605","images/horse5.png","","","memory_trial","3","maybe_new","","","","","","",""
"html-keyboard-response","134","346810","0.0-15.0-0.46","1688","2","""event"",""trial"",""time""
""fullscreenenter"",""1"",""3268""
","
","
","""event"",""trial"",""time""
""fullscreenenter"",""1"",""3268""
","
","","","","","","null","<div style=""font-size:60px;"">+</div>","null","","fixation","","","","","","","","",""
"memory-trial","135","348020","0.0-15.0-1.46","1688","2","""event"",""trial"",""time""
""fullscreenenter"",""1"",""3268""
","
","
","""event"",""trial"",""time""
""fullscreenenter"",""1"",""3268""
","
","","","","","","204.2000000178814","images/rodent5.png","","","memory_trial","3","maybe_new","","","","","","",""
"html-button-response","136","350244","0.0-15.0-2.46-0.46","1688","2","""event"",""trial"",""time""
""fullscreenenter"",""1"",""3268""
","
","
","""event"",""trial"",""time""
""fullscreenenter"",""1"",""3268""
","
","","","","","","2221.199999988079","<p> Take a break! </p><p> Click the button to continue. </p>","0","","break","","","","","","","","",""
"html-keyboard-response","137","350745","0.0-15.0-0.47","1688","2","""event"",""trial"",""time""
""fullscreenenter"",""1"",""3268""
","
","
","""event"",""trial"",""time""
""fullscreenenter"",""1"",""3268""
","
","","","","","","null","<div style=""font-size:60px;"">+</div>","null","","fixation","","","","","","","","",""
"memory-trial","138","354132","0.0-15.0-1.47","1688","2","""event"",""trial"",""time""
""fullscreenenter"",""1"",""3268""
","
","
","""event"",""trial"",""time""
""fullscreenenter"",""1"",""3268""
","
","","","","","","2380.2999999821186","images/table4.png","","","memory_trial","4","definitely_new","","","","","","",""
"html-keyboard-response","139","354638","0.0-15.0-0.48","1688","2","""event"",""trial"",""time""
""fullscreenenter"",""1"",""3268""
","
","
","""event"",""trial"",""time""
""fullscreenenter"",""1"",""3268""
","
","","","","","","null","<div style=""font-size:60px;"">+</div>","null","","fixation","","","","","","","","",""
"memory-trial","140","356164","0.0-15.0-1.48","1688","2","""event"",""trial"",""time""
""fullscreenenter"",""1"",""3268""
","
","
","""event"",""trial"",""time""
""fullscreenenter"",""1"",""3268""
","
","","","","","","520.3999999761581","images/bush4.png","","","memory_trial","3","maybe_new","","","","","","",""
"html-keyboard-response","141","356673","0.0-15.0-0.49","1688","2","""event"",""trial"",""time""
""fullscreenenter"",""1"",""3268""
","
","
","""event"",""trial"",""time""
""fullscreenenter"",""1"",""3268""
","
","","","","","","null","<div style=""font-size:60px;"">+</div>","null","","fixation","","","","","","","","",""
"memory-trial","142","358479","0.0-15.0-1.49","1688","2","""event"",""trial"",""time""
""fullscreenenter"",""1"",""3268""
","
","
","""event"",""trial"",""time""
""fullscreenenter"",""1"",""3268""
","
","","","","","","802.4000000059605","images/cactus3.png","","","memory_trial","3","maybe_new","","","","","","",""
"html-keyboard-response","143","358985","0.0-15.0-0.50","1688","2","""event"",""trial"",""time""
""fullscreenenter"",""1"",""3268""
","
","
","""event"",""trial"",""time""
""fullscreenenter"",""1"",""3268""
","
","","","","","","null","<div style=""font-size:60px;"">+</div>","null","","fixation","","","","","","","","",""
"memory-trial","144","360971","0.0-15.0-1.50","1688","2","""event"",""trial"",""time""
""fullscreenenter"",""1"",""3268""
","
","
","""event"",""trial"",""time""
""fullscreenenter"",""1"",""3268""
","
","","","","","","981.8000000119209","images/dog4.png","","","memory_trial","2","maybe_old","","","","","","",""
"html-keyboard-response","145","361476","0.0-15.0-0.51","1688","2","""event"",""trial"",""time""
""fullscreenenter"",""1"",""3268""
","
","
","""event"",""trial"",""time""
""fullscreenenter"",""1"",""3268""
","
","","","","","","null","<div style=""font-size:60px;"">+</div>","null","","fixation","","","","","","","","",""
"memory-trial","146","364249","0.0-15.0-1.51","1688","2","""event"",""trial"",""time""
""fullscreenenter"",""1"",""3268""
","
","
","""event"",""trial"",""time""
""fullscreenenter"",""1"",""3268""
","
","","","","","","1766.8999999761581","images/sheep5.png","","","memory_trial","1","definitely_old","","","","","","",""
"html-keyboard-response","147","364752","0.0-15.0-0.52","1688","2","""event"",""trial"",""time""
""fullscreenenter"",""1"",""3268""
","
","
","""event"",""trial"",""time""
""fullscreenenter"",""1"",""3268""
","
","","","","","","null","<div style=""font-size:60px;"">+</div>","null","","fixation","","","","","","","","",""
"memory-trial","148","366873","0.0-15.0-1.52","1688","2","""event"",""trial"",""time""
""fullscreenenter"",""1"",""3268""
","
","
","""event"",""trial"",""time""
""fullscreenenter"",""1"",""3268""
","
","","","","","","1115.699999988079","images/straw2.png","","","memory_trial","1","definitely_old","","","","","","",""
"html-keyboard-response","149","367379","0.0-15.0-0.53","1688","2","""event"",""trial"",""time""
""fullscreenenter"",""1"",""3268""
","
","
","""event"",""trial"",""time""
""fullscreenenter"",""1"",""3268""
","
","","","","","","null","<div style=""font-size:60px;"">+</div>","null","","fixation","","","","","","","","",""
"memory-trial","150","370073","0.0-15.0-1.53","1688","2","""event"",""trial"",""time""
""fullscreenenter"",""1"",""3268""
","
","
","""event"",""trial"",""time""
""fullscreenenter"",""1"",""3268""
","
","","","","","","1688.699999988079","images/plane1.png","","","memory_trial","4","definitely_new","","","","","","",""
"html-keyboard-response","151","370576","0.0-15.0-0.54","1688","2","""event"",""trial"",""time""
""fullscreenenter"",""1"",""3268""
","
","
","""event"",""trial"",""time""
""fullscreenenter"",""1"",""3268""
","
","","","","","","null","<div style=""font-size:60px;"">+</div>","null","","fixation","","","","","","","","",""
"memory-trial","152","374584","0.0-15.0-1.54","1688","2","""event"",""trial"",""time""
""fullscreenenter"",""1"",""3268""
","
","
","""event"",""trial"",""time""
""fullscreenenter"",""1"",""3268""
","
","","","","","","3002.7999999821186","images/flower5.png","","","memory_trial","2","maybe_old","","","","","","",""
"html-keyboard-response","153","375086","0.0-15.0-0.55","1688","2","""event"",""trial"",""time""
""fullscreenenter"",""1"",""3268""
","
","
","""event"",""trial"",""time""
""fullscreenenter"",""1"",""3268""
","
","","","","","","null","<div style=""font-size:60px;"">+</div>","null","","fixation","","","","","","","","",""
"memory-trial","154","377539","0.0-15.0-1.55","1688","2","""event"",""trial"",""time""
""fullscreenenter"",""1"",""3268""
","
","
","""event"",""trial"",""time""
""fullscreenenter"",""1"",""3268""
","
","","","","","","1448.300000011921","images/tree4.png","","","memory_trial","1","definitely_old","","","","","","",""
"html-keyboard-response","155","378046","0.0-15.0-0.56","1688","2","""event"",""trial"",""time""
""fullscreenenter"",""1"",""3268""
","
","
","""event"",""trial"",""time""
""fullscreenenter"",""1"",""3268""
","
","","","","","","null","<div style=""font-size:60px;"">+</div>","null","","fixation","","","","","","","","",""
"memory-trial","156","380973","0.0-15.0-1.56","1688","2","""event"",""trial"",""time""
""fullscreenenter"",""1"",""3268""
","
","
","""event"",""trial"",""time""
""fullscreenenter"",""1"",""3268""
","
","","","","","","1922.9000000059605","images/horse1.png","","","memory_trial","2","maybe_old","","","","","","",""
"html-keyboard-response","157","381482","0.0-15.0-0.57","1688","2","""event"",""trial"",""time""
""fullscreenenter"",""1"",""3268""
","
","
","""event"",""trial"",""time""
""fullscreenenter"",""1"",""3268""
","
","","","","","","null","<div style=""font-size:60px;"">+</div>","null","","fixation","","","","","","","","",""
"memory-trial","158","383306","0.0-15.0-1.57","1688","2","""event"",""trial"",""time""
""fullscreenenter"",""1"",""3268""
","
","
","""event"",""trial"",""time""
""fullscreenenter"",""1"",""3268""
","
","","","","","","820.5","images/boat5.png","","","memory_trial","2","maybe_old","","","","","","",""
"html-keyboard-response","159","383811","0.0-15.0-0.58","1688","2","""event"",""trial"",""time""
""fullscreenenter"",""1"",""3268""
","
","
","""event"",""trial"",""time""
""fullscreenenter"",""1"",""3268""
","
","","","","","","null","<div style=""font-size:60px;"">+</div>","null","","fixation","","","","","","","","",""
"memory-trial","160","386014","0.0-15.0-1.58","1688","2","""event"",""trial"",""time""
""fullscreenenter"",""1"",""3268""
","
","
","""event"",""trial"",""time""
""fullscreenenter"",""1"",""3268""
","
","","","","","","1199.4000000059605","images/dog3.png","","","memory_trial","2","maybe_old","","","","","","",""
"html-keyboard-response","161","386522","0.0-15.0-0.59","1688","2","""event"",""trial"",""time""
""fullscreenenter"",""1"",""3268""
","
","
","""event"",""trial"",""time""
""fullscreenenter"",""1"",""3268""
","
","","","","","","null","<div style=""font-size:60px;"">+</div>","null","","fixation","","","","","","","","",""
"memory-trial","162","388594","0.0-15.0-1.59","1688","2","""event"",""trial"",""time""
""fullscreenenter"",""1"",""3268""
","
","
","""event"",""trial"",""time""
""fullscreenenter"",""1"",""3268""
","
","","","","","","1067.800000011921","images/cow5.png","","","memory_trial","3","maybe_new","","","","","","",""
"html-keyboard-response","163","389096","0.0-15.0-0.60","1688","2","""event"",""trial"",""time""
""fullscreenenter"",""1"",""3268""
","
","
","""event"",""trial"",""time""
""fullscreenenter"",""1"",""3268""
","
","","","","","","null","<div style=""font-size:60px;"">+</div>","null","","fixation","","","","","","","","",""
"memory-trial","164","390845","0.0-15.0-1.60","1688","2","""event"",""trial"",""time""
""fullscreenenter"",""1"",""3268""
","
","
","""event"",""trial"",""time""
""fullscreenenter"",""1"",""3268""
","
","","","","","","744.1000000238419","images/feline1.png","","","memory_trial","1","definitely_old","","","","","","",""
"html-keyboard-response","165","391347","0.0-15.0-0.61","1688","2","""event"",""trial"",""time""
""fullscreenenter"",""1"",""3268""
","
","
","""event"",""trial"",""time""
""fullscreenenter"",""1"",""3268""
","
","","","","","","null","<div style=""font-size:60px;"">+</div>","null","","fixation","","","","","","","","",""
"memory-trial","166","394258","0.0-15.0-1.61","1688","2","""event"",""trial"",""time""
""fullscreenenter"",""1"",""3268""
","
","
","""event"",""trial"",""time""
""fullscreenenter"",""1"",""3268""
","
","","","","","","1904.5","images/plane2.png","","","memory_trial","4","definitely_new","","","","","","",""
"html-keyboard-response","167","394765","0.0-15.0-0.62","1688","2","""event"",""trial"",""time""
""fullscreenenter"",""1"",""3268""
","
","
","""event"",""trial"",""time""
""fullscreenenter"",""1"",""3268""
","
","","","","","","null","<div style=""font-size:60px;"">+</div>","null","","fixation","","","","","","","","",""
"memory-trial","168","396776","0.0-15.0-1.62","1688","2","""event"",""trial"",""time""
""fullscreenenter"",""1"",""3268""
","
","
","""event"",""trial"",""time""
""fullscreenenter"",""1"",""3268""
","
","","","","","","1008","images/sofa2.png","","","memory_trial","1","definitely_old","","","","","","",""
"html-keyboard-response","169","397279","0.0-15.0-0.63","1688","2","""event"",""trial"",""time""
""fullscreenenter"",""1"",""3268""
","
","
","""event"",""trial"",""time""
""fullscreenenter"",""1"",""3268""
","
","","","","","","null","<div style=""font-size:60px;"">+</div>","null","","fixation","","","","","","","","",""
"memory-trial","170","399863","0.0-15.0-1.63","1688","2","""event"",""trial"",""time""
""fullscreenenter"",""1"",""3268""
","
","
","""event"",""trial"",""time""
""fullscreenenter"",""1"",""3268""
","
","","","","","","1577.9000000059605","images/bush5.png","","","memory_trial","3","maybe_new","","","","","","",""
"html-keyboard-response","171","400364","0.0-15.0-0.64","1688","2","""event"",""trial"",""time""
""fullscreenenter"",""1"",""3268""
","
","
","""event"",""trial"",""time""
""fullscreenenter"",""1"",""3268""
","
","","","","","","null","<div style=""font-size:60px;"">+</div>","null","","fixation","","","","","","","","",""
"memory-trial","172","402338","0.0-15.0-1.64","1688","2","""event"",""trial"",""time""
""fullscreenenter"",""1"",""3268""
","
","
","""event"",""trial"",""time""
""fullscreenenter"",""1"",""3268""
","
","","","","","","968.6999999880791","images/cactus2.png","","","memory_trial","3","maybe_new","","","","","","",""
"html-keyboard-response","173","402843","0.0-15.0-0.65","1688","2","""event"",""trial"",""time""
""fullscreenenter"",""1"",""3268""
","
","
","""event"",""trial"",""time""
""fullscreenenter"",""1"",""3268""
","
","","","","","","null","<div style=""font-size:60px;"">+</div>","null","","fixation","","","","","","","","",""
"memory-trial","174","405112","0.0-15.0-1.65","1688","2","""event"",""trial"",""time""
""fullscreenenter"",""1"",""3268""
","
","
","""event"",""trial"",""time""
""fullscreenenter"",""1"",""3268""
","
","","","","","","1263.5999999940395","images/truck3.png","","","memory_trial","1","definitely_old","","","","","","",""
"html-keyboard-response","175","405618","0.0-15.0-0.66","1688","2","""event"",""trial"",""time""
""fullscreenenter"",""1"",""3268""
","
","
","""event"",""trial"",""time""
""fullscreenenter"",""1"",""3268""
","
","","","","","","null","<div style=""font-size:60px;"">+</div>","null","","fixation","","","","","","","","",""
"memory-trial","176","408812","0.0-15.0-1.66","1688","2","""event"",""trial"",""time""
""fullscreenenter"",""1"",""3268""
","
","
","""event"",""trial"",""time""
""fullscreenenter"",""1"",""3268""
","
","","","","","","2189.699999988079","images/rabbit4.png","","","memory_trial","4","definitely_new","","","","","","",""
"html-keyboard-response","177","409316","0.0-15.0-0.67","1688","2","""event"",""trial"",""time""
""fullscreenenter"",""1"",""3268""
","
","
","""event"",""trial"",""time""
""fullscreenenter"",""1"",""3268""
","
","","","","","","null","<div style=""font-size:60px;"">+</div>","null","","fixation","","","","","","","","",""
"memory-trial","178","411511","0.0-15.0-1.67","1688","2","""event"",""trial"",""time""
""fullscreenenter"",""1"",""3268""
","
","
","""event"",""trial"",""time""
""fullscreenenter"",""1"",""3268""
","
","","","","","","1190.800000011921","images/truck1.png","","","memory_trial","1","definitely_old","","","","","","",""
"html-keyboard-response","179","412016","0.0-15.0-0.68","1688","2","""event"",""trial"",""time""
""fullscreenenter"",""1"",""3268""
","
","
","""event"",""trial"",""time""
""fullscreenenter"",""1"",""3268""
","
","","","","","","null","<div style=""font-size:60px;"">+</div>","null","","fixation","","","","","","","","",""
"memory-trial","180","413831","0.0-15.0-1.68","1688","2","""event"",""trial"",""time""
""fullscreenenter"",""1"",""3268""
","
","
","""event"",""trial"",""time""
""fullscreenenter"",""1"",""3268""
","
","","","","","","811.0999999940395","images/tree3.png","","","memory_trial","1","definitely_old","","","","","","",""
"html-keyboard-response","181","414337","0.0-15.0-0.69","1688","2","""event"",""trial"",""time""
""fullscreenenter"",""1"",""3268""
","
","
","""event"",""trial"",""time""
""fullscreenenter"",""1"",""3268""
","
","","","","","","null","<div style=""font-size:60px;"">+</div>","null","","fixation","","","","","","","","",""
"memory-trial","182","416615","0.0-15.0-1.69","1688","2","""event"",""trial"",""time""
""fullscreenenter"",""1"",""3268""
","
","
","""event"",""trial"",""time""
""fullscreenenter"",""1"",""3268""
","
","","","","","","1272.5999999940395","images/bed4.png","","","memory_trial","1","definitely_old","","","","","","",""
"html-keyboard-response","183","417121","0.0-15.0-0.70","1688","2","""event"",""trial"",""time""
""fullscreenenter"",""1"",""3268""
","
","
","""event"",""trial"",""time""
""fullscreenenter"",""1"",""3268""
","
","","","","","","null","<div style=""font-size:60px;"">+</div>","null","","fixation","","","","","","","","",""
"memory-trial","184","419329","0.0-15.0-1.70","1688","2","""event"",""trial"",""time""
""fullscreenenter"",""1"",""3268""
","
","
","""event"",""trial"",""time""
""fullscreenenter"",""1"",""3268""
","
","","","","","","1200.2999999821186","images/cow1.png","","","memory_trial","4","definitely_new","","","","","","",""
"html-keyboard-response","185","419835","0.0-15.0-0.71","1688","2","""event"",""trial"",""time""
""fullscreenenter"",""1"",""3268""
","
","
","""event"",""trial"",""time""
""fullscreenenter"",""1"",""3268""
","
","","","","","","null","<div style=""font-size:60px;"">+</div>","null","","fixation","","","","","","","","",""
"memory-trial","186","424076","0.0-15.0-1.71","1688","2","""event"",""trial"",""time""
""fullscreenenter"",""1"",""3268""
","
","
","""event"",""trial"",""time""
""fullscreenenter"",""1"",""3268""
","
","","","","","","3237","images/straw5.png","","","memory_trial","4","definitely_new","","","","","","",""
"html-keyboard-response","187","424582","0.0-15.0-0.72","1688","2","""event"",""trial"",""time""
""fullscreenenter"",""1"",""3268""
","
","
","""event"",""trial"",""time""
""fullscreenenter"",""1"",""3268""
","
","","","","","","null","<div style=""font-size:60px;"">+</div>","null","","fixation","","","","","","","","",""
"memory-trial","188","427457","0.0-15.0-1.72","1688","2","""event"",""trial"",""time""
""fullscreenenter"",""1"",""3268""
","
","
","""event"",""trial"",""time""
""fullscreenenter"",""1"",""3268""
","
","","","","","","1870.6000000238419","images/straw3.png","","","memory_trial","3","maybe_new","","","","","","",""
"html-keyboard-response","189","427963","0.0-15.0-0.73","1688","2","""event"",""trial"",""time""
""fullscreenenter"",""1"",""3268""
","
","
","""event"",""trial"",""time""
""fullscreenenter"",""1"",""3268""
","
","","","","","","null","<div style=""font-size:60px;"">+</div>","null","","fixation","","","","","","","","",""
"memory-trial","190","430115","0.0-15.0-1.73","1688","2","""event"",""trial"",""time""
""fullscreenenter"",""1"",""3268""
","
","
","""event"",""trial"",""time""
""fullscreenenter"",""1"",""3268""
","
","","","","","","1146.5","images/flower2.png","","","memory_trial","2","maybe_old","","","","","","",""
"html-keyboard-response","191","430619","0.0-15.0-0.74","1688","2","""event"",""trial"",""time""
""fullscreenenter"",""1"",""3268""
","
","
","""event"",""trial"",""time""
""fullscreenenter"",""1"",""3268""
","
","","","","","","null","<div style=""font-size:60px;"">+</div>","null","","fixation","","","","","","","","",""
"memory-trial","192","432663","0.0-15.0-1.74","1688","2","""event"",""trial"",""time""
""fullscreenenter"",""1"",""3268""
","
","
","""event"",""trial"",""time""
""fullscreenenter"",""1"",""3268""
","
","","","","","","1036.199999988079","images/plane4.png","","","memory_trial","3","maybe_new","","","","","","",""
"html-keyboard-response","193","433169","0.0-15.0-0.75","1688","2","""event"",""trial"",""time""
""fullscreenenter"",""1"",""3268""
","
","
","""event"",""trial"",""time""
""fullscreenenter"",""1"",""3268""
","
","","","","","","null","<div style=""font-size:60px;"">+</div>","null","","fixation","","","","","","","","",""
"memory-trial","194","435782","0.0-15.0-1.75","1688","2","""event"",""trial"",""time""
""fullscreenenter"",""1"",""3268""
","
","
","""event"",""trial"",""time""
""fullscreenenter"",""1"",""3268""
","
","","","","","","1609.3999999761581","images/bed3.png","","","memory_trial","1","definitely_old","","","","","","",""
"html-keyboard-response","195","436288","0.0-15.0-0.76","1688","2","""event"",""trial"",""time""
""fullscreenenter"",""1"",""3268""
","
","
","""event"",""trial"",""time""
""fullscreenenter"",""1"",""3268""
","
","","","","","","null","<div style=""font-size:60px;"">+</div>","null","","fixation","","","","","","","","",""
"memory-trial","196","441243","0.0-15.0-1.76","1688","2","""event"",""trial"",""time""
""fullscreenenter"",""1"",""3268""
","
","
","""event"",""trial"",""time""
""fullscreenenter"",""1"",""3268""
","
","","","","","","3951.199999988079","images/bush3.png","","","memory_trial","4","definitely_new","","","","","","",""
"html-keyboard-response","197","441750","0.0-15.0-0.77","1688","2","""event"",""trial"",""time""
""fullscreenenter"",""1"",""3268""
","
","
","""event"",""trial"",""time""
""fullscreenenter"",""1"",""3268""
","
","","","","","","null","<div style=""font-size:60px;"">+</div>","null","","fixation","","","","","","","","",""
"memory-trial","198","444171","0.0-15.0-1.77","1688","2","""event"",""trial"",""time""
""fullscreenenter"",""1"",""3268""
","
","
","""event"",""trial"",""time""
""fullscreenenter"",""1"",""3268""
","
","","","","","","1417.3999999761581","images/apple4.png","","","memory_trial","1","definitely_old","","","","","","",""
"html-keyboard-response","199","444672","0.0-15.0-0.78","1688","2","""event"",""trial"",""time""
""fullscreenenter"",""1"",""3268""
","
","
","""event"",""trial"",""time""
""fullscreenenter"",""1"",""3268""
","
","","","","","","null","<div style=""font-size:60px;"">+</div>","null","","fixation","","","","","","","","",""
"memory-trial","200","447933","0.0-15.0-1.78","1688","2","""event"",""trial"",""time""
""fullscreenenter"",""1"",""3268""
","
","
","""event"",""trial"",""time""
""fullscreenenter"",""1"",""3268""
","
","","","","","","2257.0999999940395","images/tree2.png","","","memory_trial","4","definitely_new","","","","","","",""
"html-keyboard-response","201","448437","0.0-15.0-0.79","1688","2","""event"",""trial"",""time""
""fullscreenenter"",""1"",""3268""
","
","
","""event"",""trial"",""time""
""fullscreenenter"",""1"",""3268""
","
","","","","","","null","<div style=""font-size:60px;"">+</div>","null","","fixation","","","","","","","","",""
"memory-trial","202","451568","0.0-15.0-1.79","1688","2","""event"",""trial"",""time""
""fullscreenenter"",""1"",""3268""
","
","
","""event"",""trial"",""time""
""fullscreenenter"",""1"",""3268""
","
","","","","","","2123.7999999821186","images/orange5.png","","","memory_trial","2","maybe_old","","","","","","",""
"html-keyboard-response","203","452074","0.0-15.0-0.80","1688","2","""event"",""trial"",""time""
""fullscreenenter"",""1"",""3268""
","
","
","""event"",""trial"",""time""
""fullscreenenter"",""1"",""3268""
","
","","","","","","null","<div style=""font-size:60px;"">+</div>","null","","fixation","","","","","","","","",""
"memory-trial","204","453935","0.0-15.0-1.80","1688","2","""event"",""trial"",""time""
""fullscreenenter"",""1"",""3268""
","
","
","""event"",""trial"",""time""
""fullscreenenter"",""1"",""3268""
","
","","","","","","855.1999999880791","images/tree5.png","","","memory_trial","4","definitely_new","","","","","","",""
"html-keyboard-response","205","454442","0.0-15.0-0.81","1688","2","""event"",""trial"",""time""
""fullscreenenter"",""1"",""3268""
","
","
","""event"",""trial"",""time""
""fullscreenenter"",""1"",""3268""
","
","","","","","","null","<div style=""font-size:60px;"">+</div>","null","","fixation","","","","","","","","",""
"memory-trial","206","457680","0.0-15.0-1.81","1688","2","""event"",""trial"",""time""
""fullscreenenter"",""1"",""3268""
","
","
","""event"",""trial"",""time""
""fullscreenenter"",""1"",""3268""
","
","","","","","","2234.2000000178814","images/train1.png","","","memory_trial","3","maybe_new","","","","","","",""
"html-keyboard-response","207","458186","0.0-15.0-0.82","1688","2","""event"",""trial"",""time""
""fullscreenenter"",""1"",""3268""
","
","
","""event"",""trial"",""time""
""fullscreenenter"",""1"",""3268""
","
","","","","","","null","<div style=""font-size:60px;"">+</div>","null","","fixation","","","","","","","","",""
"memory-trial","208","460869","0.0-15.0-1.82","1688","2","""event"",""trial"",""time""
""fullscreenenter"",""1"",""3268""
","
","
","""event"",""trial"",""time""
""fullscreenenter"",""1"",""3268""
","
","","","","","","1675.4000000059605","images/sheep1.png","","","memory_trial","3","maybe_new","","","","","","",""
"html-keyboard-response","209","461377","0.0-15.0-0.83","1688","2","""event"",""trial"",""time""
""fullscreenenter"",""1"",""3268""
","
","
","""event"",""trial"",""time""
""fullscreenenter"",""1"",""3268""
","
","","","","","","null","<div style=""font-size:60px;"">+</div>","null","","fixation","","","","","","","","",""
"memory-trial","210","463434","0.0-15.0-1.83","1688","2","""event"",""trial"",""time""
""fullscreenenter"",""1"",""3268""
","
","
","""event"",""trial"",""time""
""fullscreenenter"",""1"",""3268""
","
","","","","","","1048","images/feline4.png","","","memory_trial","3","maybe_new","","","","","","",""
"html-keyboard-response","211","463940","0.0-15.0-0.84","1688","2","""event"",""trial"",""time""
""fullscreenenter"",""1"",""3268""
","
","
","""event"",""trial"",""time""
""fullscreenenter"",""1"",""3268""
","
","","","","","","null","<div style=""font-size:60px;"">+</div>","null","","fixation","","","","","","","","",""
"memory-trial","212","465797","0.0-15.0-1.84","1688","2","""event"",""trial"",""time""
""fullscreenenter"",""1"",""3268""
","
","
","""event"",""trial"",""time""
""fullscreenenter"",""1"",""3268""
","
","","","","","","851.2999999821186","images/banana5.png","","","memory_trial","4","definitely_new","","","","","","",""
"html-keyboard-response","213","466303","0.0-15.0-0.85","1688","2","""event"",""trial"",""time""
""fullscreenenter"",""1"",""3268""
","
","
","""event"",""trial"",""time""
""fullscreenenter"",""1"",""3268""
","
","","","","","","null","<div style=""font-size:60px;"">+</div>","null","","fixation","","","","","","","","",""
"memory-trial","214","468255","0.0-15.0-1.85","1688","2","""event"",""trial"",""time""
""fullscreenenter"",""1"",""3268""
","
","
","""event"",""trial"",""time""
""fullscreenenter"",""1"",""3268""
","
","","","","","","945.5999999940395","images/train5.png","","","memory_trial","4","definitely_new","","","","","","",""
"html-keyboard-response","215","468757","0.0-15.0-0.86","1688","2","""event"",""trial"",""time""
""fullscreenenter"",""1"",""3268""
","
","
","""event"",""trial"",""time""
""fullscreenenter"",""1"",""3268""
","
","","","","","","null","<div style=""font-size:60px;"">+</div>","null","","fixation","","","","","","","","",""
"memory-trial","216","470620","0.0-15.0-1.86","1688","2","""event"",""trial"",""time""
""fullscreenenter"",""1"",""3268""
","
","
","""event"",""trial"",""time""
""fullscreenenter"",""1"",""3268""
","
","","","","","","856.8999999761581","images/plane5.png","","","memory_trial","4","definitely_new","","","","","","",""
"html-keyboard-response","217","471126","0.0-15.0-0.87","1688","2","""event"",""trial"",""time""
""fullscreenenter"",""1"",""3268""
","
","
","""event"",""trial"",""time""
""fullscreenenter"",""1"",""3268""
","
","","","","","","null","<div style=""font-size:60px;"">+</div>","null","","fixation","","","","","","","","",""
"memory-trial","218","473098","0.0-15.0-1.87","1688","2","""event"",""trial"",""time""
""fullscreenenter"",""1"",""3268""
","
","
","""event"",""trial"",""time""
""fullscreenenter"",""1"",""3268""
","
","","","","","","966.5","images/boat4.png","","","memory_trial","4","definitely_new","","","","","","",""
"html-keyboard-response","219","473599","0.0-15.0-0.88","1688","2","""event"",""trial"",""time""
""fullscreenenter"",""1"",""3268""
","
","
","""event"",""trial"",""time""
""fullscreenenter"",""1"",""3268""
","
","","","","","","null","<div style=""font-size:60px;"">+</div>","null","","fixation","","","","","","","","",""
"memory-trial","220","475535","0.0-15.0-1.88","1688","2","""event"",""trial"",""time""
""fullscreenenter"",""1"",""3268""
","
","
","""event"",""trial"",""time""
""fullscreenenter"",""1"",""3268""
","
","","","","","","931.0999999940395","images/sheep4.png","","","memory_trial","4","definitely_new","","","","","","",""
"html-keyboard-response","221","476040","0.0-15.0-0.89","1688","2","""event"",""trial"",""time""
""fullscreenenter"",""1"",""3268""
","
","
","""event"",""trial"",""time""
""fullscreenenter"",""1"",""3268""
","
","","","","","","null","<div style=""font-size:60px;"">+</div>","null","","fixation","","","","","","","","",""
"memory-trial","222","477892","0.0-15.0-1.89","1688","2","""event"",""trial"",""time""
""fullscreenenter"",""1"",""3268""
","
","
","""event"",""trial"",""time""
""fullscreenenter"",""1"",""3268""
","
","","","","","","847.8000000119209","images/cow4.png","","","memory_trial","4","definitely_new","","","","","","",""
"html-keyboard-response","223","478399","0.0-15.0-0.90","1688","2","""event"",""trial"",""time""
""fullscreenenter"",""1"",""3268""
","
","
","""event"",""trial"",""time""
""fullscreenenter"",""1"",""3268""
","
","","","","","","null","<div style=""font-size:60px;"">+</div>","null","","fixation","","","","","","","","",""
"memory-trial","224","480404","0.0-15.0-1.90","1688","2","""event"",""trial"",""time""
""fullscreenenter"",""1"",""3268""
","
","
","""event"",""trial"",""time""
""fullscreenenter"",""1"",""3268""
","
","","","","","","1000.2999999821186","images/feline3.png","","","memory_trial","4","definitely_new","","","","","","",""
"html-keyboard-response","225","480911","0.0-15.0-0.91","1688","2","""event"",""trial"",""time""
""fullscreenenter"",""1"",""3268""
","
","
","""event"",""trial"",""time""
""fullscreenenter"",""1"",""3268""
","
","","","","","","null","<div style=""font-size:60px;"">+</div>","null","","fixation","","","","","","","","",""
"memory-trial","226","483731","0.0-15.0-1.91","1688","2","""event"",""trial"",""time""
""fullscreenenter"",""1"",""3268""
","
","
","""event"",""trial"",""time""
""fullscreenenter"",""1"",""3268""
","
","","","","","","1813.800000011921","images/tree1.png","","","memory_trial","2","maybe_old","","","","","","",""
"html-keyboard-response","227","484233","0.0-15.0-0.92","1688","2","""event"",""trial"",""time""
""fullscreenenter"",""1"",""3268""
","
","
","""event"",""trial"",""time""
""fullscreenenter"",""1"",""3268""
","
","","","","","","null","<div style=""font-size:60px;"">+</div>","null","","fixation","","","","","","","","",""
"memory-trial","228","485897","0.0-15.0-1.92","1688","2","""event"",""trial"",""time""
""fullscreenenter"",""1"",""3268""
","
","
","""event"",""trial"",""time""
""fullscreenenter"",""1"",""3268""
","
","","","","","","656.0999999940395","images/banana3.png","","","memory_trial","4","definitely_new","","","","","","",""
"html-keyboard-response","229","486404","0.0-15.0-0.93","1688","2","""event"",""trial"",""time""
""fullscreenenter"",""1"",""3268""
","
","
","""event"",""trial"",""time""
""fullscreenenter"",""1"",""3268""
","
","","","","","","null","<div style=""font-size:60px;"">+</div>","null","","fixation","","","","","","","","",""
"memory-trial","230","488478","0.0-15.0-1.93","1688","2","""event"",""trial"",""time""
""fullscreenenter"",""1"",""3268""
","
","
","""event"",""trial"",""time""
""fullscreenenter"",""1"",""3268""
","
","","","","","","1068.300000011921","images/rodent1.png","","","memory_trial","4","definitely_new","","","","","","",""
"html-keyboard-response","231","488985","0.0-15.0-0.94","1688","2","""event"",""trial"",""time""
""fullscreenenter"",""1"",""3268""
","
","
","""event"",""trial"",""time""
""fullscreenenter"",""1"",""3268""
","
","","","","","","null","<div style=""font-size:60px;"">+</div>","null","","fixation","","","","","","","","",""
"memory-trial","232","491220","0.0-15.0-1.94","1688","2","""event"",""trial"",""time""
""fullscreenenter"",""1"",""3268""
","
","
","""event"",""trial"",""time""
""fullscreenenter"",""1"",""3268""
","
","","","","","","1229.5999999940395","images/banana4.png","","","memory_trial","4","definitely_new","","","","","","",""
"html-keyboard-response","233","491723","0.0-15.0-0.95","1688","2","""event"",""trial"",""time""
""fullscreenenter"",""1"",""3268""
","
","
","""event"",""trial"",""time""
""fullscreenenter"",""1"",""3268""
","
","","","","","","null","<div style=""font-size:60px;"">+</div>","null","","fixation","","","","","","","","",""
"memory-trial","234","493696","0.0-15.0-1.95","1688","2","""event"",""trial"",""time""
""fullscreenenter"",""1"",""3268""
","
","
","""event"",""trial"",""time""
""fullscreenenter"",""1"",""3268""
","
","","","","","","966.4000000059605","images/rabbit3.png","","","memory_trial","4","definitely_new","","","","","","",""
"html-keyboard-response","235","494201","0.0-15.0-0.96","1688","2","""event"",""trial"",""time""
""fullscreenenter"",""1"",""3268""
","
","
","""event"",""trial"",""time""
""fullscreenenter"",""1"",""3268""
","
","","","","","","null","<div style=""font-size:60px;"">+</div>","null","","fixation","","","","","","","","",""
"memory-trial","236","496105","0.0-15.0-1.96","1688","2","""event"",""trial"",""time""
""fullscreenenter"",""1"",""3268""
","
","
","""event"",""trial"",""time""
""fullscreenenter"",""1"",""3268""
","
","","","","","","897","images/apple5.png","","","memory_trial","4","definitely_new","","","","","","",""
"html-keyboard-response","237","496606","0.0-15.0-0.97","1688","2","""event"",""trial"",""time""
""fullscreenenter"",""1"",""3268""
","
","
","""event"",""trial"",""time""
""fullscreenenter"",""1"",""3268""
","
","","","","","","null","<div style=""font-size:60px;"">+</div>","null","","fixation","","","","","","","","",""
"memory-trial","238","498368","0.0-15.0-1.97","1688","2","""event"",""trial"",""time""
""fullscreenenter"",""1"",""3268""
","
","
","""event"",""trial"",""time""
""fullscreenenter"",""1"",""3268""
","
","","","","","","757.6999999880791","images/horse3.png","","","memory_trial","4","definitely_new","","","","","","",""
"html-keyboard-response","239","498872","0.0-15.0-0.98","1688","2","""event"",""trial"",""time""
""fullscreenenter"",""1"",""3268""
","
","
","""event"",""trial"",""time""
""fullscreenenter"",""1"",""3268""
","
","","","","","","null","<div style=""font-size:60px;"">+</div>","null","","fixation","","","","","","","","",""
"memory-trial","240","500611","0.0-15.0-1.98","1688","2","""event"",""trial"",""time""
""fullscreenenter"",""1"",""3268""
","
","
","""event"",""trial"",""time""
""fullscreenenter"",""1"",""3268""
","
","","","","","","733","images/goat2.png","","","memory_trial","4","definitely_new","","","","","","",""
"html-keyboard-response","241","501112","0.0-15.0-0.99","1688","2","""event"",""trial"",""time""
""fullscreenenter"",""1"",""3268""
","
","
","""event"",""trial"",""time""
""fullscreenenter"",""1"",""3268""
","
","","","","","","null","<div style=""font-size:60px;"">+</div>","null","","fixation","","","","","","","","",""
"memory-trial","242","503865","0.0-15.0-1.99","1688","2","""event"",""trial"",""time""
""fullscreenenter"",""1"",""3268""
","
","
","""event"",""trial"",""time""
""fullscreenenter"",""1"",""3268""
","
","","","","","","1747.5","images/dog2.png","","","memory_trial","4","definitely_new","","","","","","",""
"html-keyboard-response","243","504371","0.0-15.0-0.100","1688","2","""event"",""trial"",""time""
""fullscreenenter"",""1"",""3268""
","
","
","""event"",""trial"",""time""
""fullscreenenter"",""1"",""3268""
","
","","","","","","null","<div style=""font-size:60px;"">+</div>","null","","fixation","","","","","","","","",""
"memory-trial","244","507138","0.0-15.0-1.100","1688","2","""event"",""trial"",""time""
""fullscreenenter"",""1"",""3268""
","
","
","""event"",""trial"",""time""
""fullscreenenter"",""1"",""3268""
","
","","","","","","1761","images/bed5.png","","","memory_trial","1","definitely_old","","","","","","",""
"html-keyboard-response","245","507640","0.0-15.0-0.101","1688","2","""event"",""trial"",""time""
""fullscreenenter"",""1"",""3268""
","
","
","""event"",""trial"",""time""
""fullscreenenter"",""1"",""3268""
","
","","","","","","null","<div style=""font-size:60px;"">+</div>","null","","fixation","","","","","","","","",""
"memory-trial","246","510115","0.0-15.0-1.101","1688","2","""event"",""trial"",""time""
""fullscreenenter"",""1"",""3268""
","
","
","""event"",""trial"",""time""
""fullscreenenter"",""1"",""3268""
","
","","","","","","1470.9000000059605","images/dog1.png","","","memory_trial","4","definitely_new","","","","","","",""
"html-button-response","247","511740","0.0-15.0-2.101-0.101","1688","2","""event"",""trial"",""time""
""fullscreenenter"",""1"",""3268""
","
","
","""event"",""trial"",""time""
""fullscreenenter"",""1"",""3268""
","
","","","","","","1623.5","<p> Take a break! </p><p> Click the button to continue. </p>","0","","break","","","","","","","","",""
"html-keyboard-response","248","512243","0.0-15.0-0.102","1688","2","""event"",""trial"",""time""
""fullscreenenter"",""1"",""3268""
","
","
","""event"",""trial"",""time""
""fullscreenenter"",""1"",""3268""
","
","","","","","","null","<div style=""font-size:60px;"">+</div>","null","","fixation","","","","","","","","",""
"memory-trial","249","515592","0.0-15.0-1.102","1688","2","""event"",""trial"",""time""
""fullscreenenter"",""1"",""3268""
","
","
","""event"",""trial"",""time""
""fullscreenenter"",""1"",""3268""
","
","","","","","","2339.5999999940395","images/dog5.png","","","memory_trial","4","definitely_new","","","","","","",""
"html-keyboard-response","250","516098","0.0-15.0-0.103","1688","2","""event"",""trial"",""time""
""fullscreenenter"",""1"",""3268""
","
","
","""event"",""trial"",""time""
""fullscreenenter"",""1"",""3268""
","
","","","","","","null","<div style=""font-size:60px;"">+</div>","null","","fixation","","","","","","","","",""
"memory-trial","251","519538","0.0-15.0-1.103","1688","2","""event"",""trial"",""time""
""fullscreenenter"",""1"",""3268""
","
","
","""event"",""trial"",""time""
""fullscreenenter"",""1"",""3268""
","
","","","","","","2431.9000000059605","images/apple1.png","","","memory_trial","2","maybe_old","","","","","","",""
"html-keyboard-response","252","520040","0.0-15.0-0.104","1688","2","""event"",""trial"",""time""
""fullscreenenter"",""1"",""3268""
","
","
","""event"",""trial"",""time""
""fullscreenenter"",""1"",""3268""
","
","","","","","","null","<div style=""font-size:60px;"">+</div>","null","","fixation","","","","","","","","",""
"memory-trial","253","522568","0.0-15.0-1.104","1688","2","""event"",""trial"",""time""
""fullscreenenter"",""1"",""3268""
","
","
","""event"",""trial"",""time""
""fullscreenenter"",""1"",""3268""
","
","","","","","","1523.9000000059605","images/cactus5.png","","","memory_trial","4","definitely_new","","","","","","",""
"html-keyboard-response","254","523074","0.0-15.0-0.105","1688","2","""event"",""trial"",""time""
""fullscreenenter"",""1"",""3268""
","
","
","""event"",""trial"",""time""
""fullscreenenter"",""1"",""3268""
","
","","","","","","null","<div style=""font-size:60px;"">+</div>","null","","fixation","","","","","","","","",""
"memory-trial","255","525064","0.0-15.0-1.105","1688","2","""event"",""trial"",""time""
""fullscreenenter"",""1"",""3268""
","
","
","""event"",""trial"",""time""
""fullscreenenter"",""1"",""3268""
","
","","","","","","985.9000000059605","images/rodent2.png","","","memory_trial","4","definitely_new","","","","","","",""
"html-keyboard-response","256","525567","0.0-15.0-0.106","1688","2","""event"",""trial"",""time""
""fullscreenenter"",""1"",""3268""
","
","
","""event"",""trial"",""time""
""fullscreenenter"",""1"",""3268""
","
","","","","","","null","<div style=""font-size:60px;"">+</div>","null","","fixation","","","","","","","","",""
"memory-trial","257","527213","0.0-15.0-1.106","1688","2","""event"",""trial"",""time""
""fullscreenenter"",""1"",""3268""
","
","
","""event"",""trial"",""time""
""fullscreenenter"",""1"",""3268""
","
","","","","","","640.1000000238419","images/goat1.png","","","memory_trial","4","definitely_new","","","","","","",""
"html-keyboard-response","258","527716","0.0-15.0-0.107","1688","2","""event"",""trial"",""time""
""fullscreenenter"",""1"",""3268""
","
","
","""event"",""trial"",""time""
""fullscreenenter"",""1"",""3268""
","
","","","","","","null","<div style=""font-size:60px;"">+</div>","null","","fixation","","","","","","","","",""
"memory-trial","259","529335","0.0-15.0-1.107","1688","2","""event"",""trial"",""time""
""fullscreenenter"",""1"",""3268""
","
","
","""event"",""trial"",""time""
""fullscreenenter"",""1"",""3268""
","
","","","","","","611.1999999880791","images/sheep2.png","","","memory_trial","4","definitely_new","","","","","","",""
"html-keyboard-response","260","529836","0.0-15.0-0.108","1688","2","""event"",""trial"",""time""
""fullscreenenter"",""1"",""3268""
","
","
","""event"",""trial"",""time""
""fullscreenenter"",""1"",""3268""
","
","","","","","","null","<div style=""font-size:60px;"">+</div>","null","","fixation","","","","","","","","",""
"memory-trial","261","532514","0.0-15.0-1.108","1688","2","""event"",""trial"",""time""
""fullscreenenter"",""1"",""3268""
","
","
","""event"",""trial"",""time""
""fullscreenenter"",""1"",""3268""
","
","","","","","","1673.300000011921","images/rabbit1.png","","","memory_trial","1","definitely_old","","","","","","",""
"html-keyboard-response","262","533022","0.0-15.0-0.109","1688","2","""event"",""trial"",""time""
""fullscreenenter"",""1"",""3268""
","
","
","""event"",""trial"",""time""
""fullscreenenter"",""1"",""3268""
","
","","","","","","null","<div style=""font-size:60px;"">+</div>","null","","fixation","","","","","","","","",""
"memory-trial","263","535060","0.0-15.0-1.109","1688","2","""event"",""trial"",""time""
""fullscreenenter"",""1"",""3268""
","
","
","""event"",""trial"",""time""
""fullscreenenter"",""1"",""3268""
","
","","","","","","1031.2000000178814","images/bed1.png","","","memory_trial","1","definitely_old","","","","","","",""
"html-keyboard-response","264","535564","0.0-15.0-0.110","1688","2","""event"",""trial"",""time""
""fullscreenenter"",""1"",""3268""
","
","
","""event"",""trial"",""time""
""fullscreenenter"",""1"",""3268""
","
","","","","","","null","<div style=""font-size:60px;"">+</div>","null","","fixation","","","","","","","","",""
"memory-trial","265","538037","0.0-15.0-1.110","1688","2","""event"",""trial"",""time""
""fullscreenenter"",""1"",""3268""
","
","
","""event"",""trial"",""time""
""fullscreenenter"",""1"",""3268""
","
","","","","","","1465.199999988079","images/rabbit5.png","","","memory_trial","1","definitely_old","","","","","","",""
"html-keyboard-response","266","538540","0.0-15.0-0.111","1688","2","""event"",""trial"",""time""
""fullscreenenter"",""1"",""3268""
","
","
","""event"",""trial"",""time""
""fullscreenenter"",""1"",""3268""
","
","","","","","","null","<div style=""font-size:60px;"">+</div>","null","","fixation","","","","","","","","",""
"memory-trial","267","540547","0.0-15.0-1.111","1688","2","""event"",""trial"",""time""
""fullscreenenter"",""1"",""3268""
","
","
","""event"",""trial"",""time""
""fullscreenenter"",""1"",""3268""
","
","","","","","","1001.1000000238419","images/horse4.png","","","memory_trial","1","definitely_old","","","","","","",""
"html-keyboard-response","268","541049","0.0-15.0-0.112","1688","2","""event"",""trial"",""time""
""fullscreenenter"",""1"",""3268""
","
","
","""event"",""trial"",""time""
""fullscreenenter"",""1"",""3268""
","
","","","","","","null","<div style=""font-size:60px;"">+</div>","null","","fixation","","","","","","","","",""
"memory-trial","269","543543","0.0-15.0-1.112","1688","2","""event"",""trial"",""time""
""fullscreenenter"",""1"",""3268""
","
","
","""event"",""trial"",""time""
""fullscreenenter"",""1"",""3268""
","
","","","","","","1488.5999999940395","images/flower4.png","","","memory_trial","3","maybe_new","","","","","","",""
"html-keyboard-response","270","544046","0.0-15.0-0.113","1688","2","""event"",""trial"",""time""
""fullscreenenter"",""1"",""3268""
","
","
","""event"",""trial"",""time""
""fullscreenenter"",""1"",""3268""
","
","","","","","","null","<div style=""font-size:60px;"">+</div>","null","","fixation","","","","","","","","",""
"memory-trial","271","545964","0.0-15.0-1.113","1688","2","""event"",""trial"",""time""
""fullscreenenter"",""1"",""3268""
","
","
","""event"",""trial"",""time""
""fullscreenenter"",""1"",""3268""
","
","","","","","","911.4000000059605","images/bush1.png","","","memory_trial","4","definitely_new","","","","","","",""
"html-keyboard-response","272","546465","0.0-15.0-0.114","1688","2","""event"",""trial"",""time""
""fullscreenenter"",""1"",""3268""
","
","
","""event"",""trial"",""time""
""fullscreenenter"",""1"",""3268""
","
","","","","","","null","<div style=""font-size:60px;"">+</div>","null","","fixation","","","","","","","","",""
"memory-trial","273","548706","0.0-15.0-1.114","1688","2","""event"",""trial"",""time""
""fullscreenenter"",""1"",""3268""
","
","
","""event"",""trial"",""time""
""fullscreenenter"",""1"",""3268""
","
","","","","","","1232.9000000059605","images/bed2.png","","","memory_trial","1","definitely_old","","","","","","",""
"html-keyboard-response","274","549212","0.0-15.0-0.115","1688","2","""event"",""trial"",""time""
""fullscreenenter"",""1"",""3268""
","
","
","""event"",""trial"",""time""
""fullscreenenter"",""1"",""3268""
","
","","","","","","null","<div style=""font-size:60px;"">+</div>","null","","fixation","","","","","","","","",""
"memory-trial","275","552332","0.0-15.0-1.115","1688","2","""event"",""trial"",""time""
""fullscreenenter"",""1"",""3268""
","
","
","""event"",""trial"",""time""
""fullscreenenter"",""1"",""3268""
","
","","","","","","2116.0999999940395","images/feline2.png","","","memory_trial","3","maybe_new","","","","","","",""
"html-keyboard-response","276","552838","0.0-15.0-0.116","1688","2","""event"",""trial"",""time""
""fullscreenenter"",""1"",""3268""
","
","
","""event"",""trial"",""time""
""fullscreenenter"",""1"",""3268""
","
","","","","","","null","<div style=""font-size:60px;"">+</div>","null","","fixation","","","","","","","","",""
"memory-trial","277","554758","0.0-15.0-1.116","1688","2","""event"",""trial"",""time""
""fullscreenenter"",""1"",""3268""
","
","
","""event"",""trial"",""time""
""fullscreenenter"",""1"",""3268""
","
","","","","","","915.5","images/boat2.png","","","memory_trial","4","definitely_new","","","","","","",""
"html-keyboard-response","278","555261","0.0-15.0-0.117","1688","2","""event"",""trial"",""time""
""fullscreenenter"",""1"",""3268""
","
","
","""event"",""trial"",""time""
""fullscreenenter"",""1"",""3268""
","
","","","","","","null","<div style=""font-size:60px;"">+</div>","null","","fixation","","","","","","","","",""
"memory-trial","279","558059","0.0-15.0-1.117","1688","2","""event"",""trial"",""time""
""fullscreenenter"",""1"",""3268""
","
","
","""event"",""trial"",""time""
""fullscreenenter"",""1"",""3268""
","
","","","","","","1790.5999999940395","images/chair3.png","","","memory_trial","2","maybe_old","","","","","","",""
"html-keyboard-response","280","558563","0.0-15.0-0.118","1688","2","""event"",""trial"",""time""
""fullscreenenter"",""1"",""3268""
","
","
","""event"",""trial"",""time""
""fullscreenenter"",""1"",""3268""
","
","","","","","","null","<div style=""font-size:60px;"">+</div>","null","","fixation","","","","","","","","",""
"memory-trial","281","560582","0.0-15.0-1.118","1688","2","""event"",""trial"",""time""
""fullscreenenter"",""1"",""3268""
","
","
","""event"",""trial"",""time""
""fullscreenenter"",""1"",""3268""
","
","","","","","","1013","images/plane3.png","","","memory_trial","4","definitely_new","","","","","","",""
"html-keyboard-response","282","561083","0.0-15.0-0.119","1688","2","""event"",""trial"",""time""
""fullscreenenter"",""1"",""3268""
","
","
","""event"",""trial"",""time""
""fullscreenenter"",""1"",""3268""
","
","","","","","","null","<div style=""font-size:60px;"">+</div>","null","","fixation","","","","","","","","",""
"memory-trial","283","563627","0.0-15.0-1.119","1688","2","""event"",""trial"",""time""
""fullscreenenter"",""1"",""3268""
","
","
","""event"",""trial"",""time""
""fullscreenenter"",""1"",""3268""
","
","","","","","","1540.3999999761581","images/sofa1.png","","","memory_trial","2","maybe_old","","","","","","",""
"preload","284","566393","0.0-16.0","1688","2","""event"",""trial"",""time""
""fullscreenenter"",""1"",""3268""
","
","
","""event"",""trial"",""time""
""fullscreenenter"",""1"",""3268""
","
","true","false","[]","[]","[]","","","","","","","","","","","","","",""
"learning-instructions","285","570936","0.0-17.0-0.0-0.0-0.0","1688","2","""event"",""trial"",""time""
""fullscreenenter"",""1"",""3268""
","
","
","""event"",""trial"",""time""
""fullscreenenter"",""1"",""3268""
","
","","","","","","1468.7000000178814","<p> We're now going to ask you to water your plants again. </p>","","0","instructions","","","","","","","","",""
"learning-instructions","286","578207","0.0-17.0-0.0-0.0-0.1","1688","2","""event"",""trial"",""time""
""fullscreenenter"",""1"",""3268""
","
","
","""event"",""trial"",""time""
""fullscreenenter"",""1"",""3268""
","
","","","","","","1396.2000000178814","<p> On each trial, you will see a plant. Select the watering can that you think will make the plant grow. </p>","","0","instructions","","","","","","","","",""
"learning-instructions","287","590442","0.0-17.0-0.0-0.0-0.2","1688","2","""event"",""trial"",""time""
""fullscreenenter"",""1"",""3268""
","
","
","""event"",""trial"",""time""
""fullscreenenter"",""1"",""3268""
","
","","","","","","5166.300000011921","<p> To make your selection, think about what you learned last week. You will NOT receive any feedback about your choice. </p>","","0","instructions","","","","","","","","",""
"learning-instructions","288","600735","0.0-17.0-0.0-0.0-0.3","1688","2","""event"",""trial"",""time""
""fullscreenenter"",""1"",""3268""
","
","
","""event"",""trial"",""time""
""fullscreenenter"",""1"",""3268""
","
","","","","","","1178.800000011921","<p> You should use the 1 key to select the watering can on the left, the 2 key to select the watering can in the middle, and the 3 key to select the watering can on the right. </p><br><div class=""choice-mem-instructions-grid""> <div class=""choice-mem-option""><img src=""images/plants_choice1.png"" class=""choice-mem-option-img"" stage=""instructions"" position=""0"" ><div class=""choice-mem-option-text""> Press ""1."" </div></div><div class=""choice-mem-option""><img src=""images/plants_choice2.png"" class=""choice-mem-option-img"" stage=""instructions"" position=""1"" ><div class=""choice-mem-option-text""> Press ""2."" </div></div><div class=""choice-mem-option""><img src=""images/plants_choice3.png"" class=""choice-mem-option-img"" stage=""instructions"" position=""2"" ><div class=""choice-mem-option-text""> Press ""3."" </div></div></div>","","0","instructions","","","","","","","","",""
"learning-instructions","289","607604","0.0-17.0-0.0-0.0-0.4","1688","2","""event"",""trial"",""time""
""fullscreenenter"",""1"",""3268""
","
","
","""event"",""trial"",""time""
""fullscreenenter"",""1"",""3268""
","
","","","","","","602.5","<p> You will have 10 seconds to make each selection. Try to respond before time runs out! </p>","","0","instructions","","","","","","","","",""
"learning-instructions","290","610345","0.0-17.0-0.0-1.0","1688","2","""event"",""trial"",""time""
""fullscreenenter"",""1"",""3268""
","
","
","""event"",""trial"",""time""
""fullscreenenter"",""1"",""3268""
","
","","","","","","678.5999999940395","<p> You are now ready to begin the game. </p>","","0","instructions","","","","","","","","",""
"html-keyboard-response","291","610947","0.0-17.0-0.0-2.0-0.0","1688","2","""event"",""trial"",""time""
""fullscreenenter"",""1"",""3268""
","
","
","""event"",""trial"",""time""
""fullscreenenter"",""1"",""3268""
","
","","","","","","null","<div style=""font-size:60px;"">+</div>","null","","fixation","","","","","","","","",""
"choice-memory-trial","292","614275","0.0-17.0-0.0-2.0-1.0","1688","2","""event"",""trial"",""time""
""fullscreenenter"",""1"",""3268""
","
","
","""event"",""trial"",""time""
""fullscreenenter"",""1"",""3268""
","
