"trial_type","trial_index","time_elapsed","internal_node_id","subject_id","task_version","interactions","blur_events","focus_events","fullscreenenter_events","fullscreenexit_events","success","timeout","failed_images","failed_audio","failed_video","rt","stimulus","response","button_pressed","task_part","key_press","answer","correct","left_choice","middle_choice","right_choice","choice_positions","option_selected","block"
"pavlovia","0","8","0.0-0.0","1738","2","""event"",""trial"",""time""
""fullscreenenter"",""1"",""9815""
","
","
","""event"",""trial"",""time""
""fullscreenenter"",""1"",""9815""
","
","","","","","","","","","","","","","","","","","","",""
"fullscreen","1","10688","0.0-1.0","1738","2","""event"",""trial"",""time""
""fullscreenenter"",""1"",""9815""
","
","
","""event"",""trial"",""time""
""fullscreenenter"",""1"",""9815""
","
","true","","","","","","","","","","","","","","","","","",""
"preload","2","11380","0.0-2.0","1738","2","""event"",""trial"",""time""
""fullscreenenter"",""1"",""9815""
","
","
","""event"",""trial"",""time""
""fullscreenenter"",""1"",""9815""
","
","true","false","[]","[]","[]","","","","","","","","","","","","","",""
"audio-keyboard-response","3","13387","0.0-3.0","1738","2","""event"",""trial"",""time""
""fullscreenenter"",""1"",""9815""
","
","
","""event"",""trial"",""time""
""fullscreenenter"",""1"",""9815""
","
","","","","","","2005.3333333333333","audio/beep_loop.wav"," ","","","","","","","","","","",""
"audio-button-response","4","14936","0.0-4.0","1738","2","""event"",""trial"",""time""
""fullscreenenter"",""1"",""9815""
","
","
","""event"",""trial"",""time""
""fullscreenenter"",""1"",""9815""
","
","","","","","","1541","audio/turtle.wav","3","","","","","","","","","","",""
"audio-button-response","5","17310","0.0-5.0","1738","2","""event"",""trial"",""time""
""fullscreenenter"",""1"",""9815""
","
","
","""event"",""trial"",""time""
""fullscreenenter"",""1"",""9815""
","
","","","","","","1371","audio/shark.wav","2","","","","","","","","","","",""
"preload","6","28643","0.0-6.0","1738","2","""event"",""trial"",""time""
""fullscreenenter"",""1"",""9815""
","
","
","""event"",""trial"",""time""
""fullscreenenter"",""1"",""9815""
","
","true","false","[]","[]","[]","","","","","","","","","","","","","",""
"learning-instructions","7","37223","0.0-7.0-0.0","1738","2","""event"",""trial"",""time""
""fullscreenenter"",""1"",""9815""
","
","
","""event"",""trial"",""time""
""fullscreenenter"",""1"",""9815""
","
","","","","","","3773","<p> Welcome back! </p><p> Last week, you had to make choices about lots of different items.  </p>","","0","instructions","","","","","","","","",""
"learning-instructions","8","43926","0.0-7.0-0.1","1738","2","""event"",""trial"",""time""
""fullscreenenter"",""1"",""9815""
","
","
","""event"",""trial"",""time""
""fullscreenenter"",""1"",""9815""
","
","","","","","","2408.300000011921","<p> Today, we are going to ask you to try to remember all the items. </p>","","0","instructions","","","","","","","","",""
"learning-instructions","9","55646","0.0-7.0-0.2","1738","2","""event"",""trial"",""time""
""fullscreenenter"",""1"",""9815""
","
","
","""event"",""trial"",""time""
""fullscreenenter"",""1"",""9815""
","
","","","","","","1583.699999988079","<p> On every trial, you will see an image. </p><p> The image may be an OLD image you saw during the games last week or it may be a NEW image that was not presented. </p>","","0","instructions","","","","","","","","",""
"learning-instructions","10","65442","0.0-7.0-0.3","1738","2","""event"",""trial"",""time""
""fullscreenenter"",""1"",""9815""
","
","
","""event"",""trial"",""time""
""fullscreenenter"",""1"",""9815""
","
","","","","","","1297.6000000238419","<p> You need to select whether the image is:  </p><p>  'Definitely old', 'Maybe old', 'Maybe new', or 'Definitely new.'  </p><div class=""mem-choice-instructions-grid""><div class=""choice-option"" id=""choice-option-1"" ><img src=""images/definitely_old_1.png"" id=""choice-option-img-1"" class=""choice-option-img"" stage=""1""></div><div class=""choice-option"" id=""choice-option-2"" ><img src=""images/maybe_old_1.png"" id=""choice-option-img-2"" class=""choice-option-img"" stage=""1""></div><div class=""choice-option"" id=""choice-option-3"" ><img src=""images/maybe_new_1.png"" id=""choice-option-img-3"" class=""choice-option-img"" stage=""1""></div><div class=""choice-option"" id=""choice-option-4"" > <img src=""images/definitely_new_1.png"" id=""choice-option-img-4"" class=""choice-option-img"" stage=""1""></div></div>","","0","instructions","","","","","","","","",""
"learning-instructions","11","72896","0.0-7.0-0.4","1738","2","""event"",""trial"",""time""
""fullscreenenter"",""1"",""9815""
","
","
","""event"",""trial"",""time""
""fullscreenenter"",""1"",""9815""
","
","","","","","","763.3999999761581","<p> You should use the 1, 2, 3, and 4 keys to make your responses.  </p><div class=""mem-choice-instructions-grid""><div class=""choice-option"" id=""choice-option-1"" ><img src=""images/definitely_old.png"" id=""choice-option-img-1"" class=""choice-option-img"" stage=""1""></div><div class=""choice-option"" id=""choice-option-2"" ><img src=""images/maybe_old.png"" id=""choice-option-img-2"" class=""choice-option-img"" stage=""1""></div><div class=""choice-option"" id=""choice-option-3"" ><img src=""images/maybe_new.png"" id=""choice-option-img-3"" class=""choice-option-img"" stage=""1""></div><div class=""choice-option"" id=""choice-option-4"" > <img src=""images/definitely_new.png"" id=""choice-option-img-4"" class=""choice-option-img"" stage=""1""></div></div>","","0","instructions","","","","","","","","",""
"learning-instructions","12","82105","0.0-7.0-0.5","1738","2","""event"",""trial"",""time""
""fullscreenenter"",""1"",""9815""
","
","
","""event"",""trial"",""time""
""fullscreenenter"",""1"",""9815""
","
","","","","","","2447","<p> You will have 10 seconds to make each response.  </p><p>  Make sure to respond before time runs out! </p>","","0","instructions","","","","","","","","",""
"learning-instructions","13","90571","0.0-7.0-0.6","1738","2","""event"",""trial"",""time""
""fullscreenenter"",""1"",""9815""
","
","
","""event"",""trial"",""time""
""fullscreenenter"",""1"",""9815""
","
","","","","","","886.8000000119209","<p> Today, you will see each image ONCE only.  </p><p>  That means none of the images will repeat. </p>","","0","instructions","","","","","","","","",""
"learning-instructions","14","104157","0.0-7.0-0.7","1738","2","""event"",""trial"",""time""
""fullscreenenter"",""1"",""9815""
","
","
","""event"",""trial"",""time""
""fullscreenenter"",""1"",""9815""
","
","","","","","","915.1999999880791","<p> Before you play the real game, it is time to practice. </p><p>  Just like in the real game, some of the images in the practice will be ones you have seen before. </p><p>  Others will be entirely new. </p>","","0","instructions","","","","","","","","",""
"html-button-response","15","106184","0.0-8.0","1738","2","""event"",""trial"",""time""
""fullscreenenter"",""1"",""9815""
","
","
","""event"",""trial"",""time""
""fullscreenenter"",""1"",""9815""
","
","","","","","","1924.300000011921","<p> Ready to practice? </p><p> Remember, use the 1, 2, 3, and 4 keys to make your responses. </p>","0","","instructions","","","","","","","","",""
"html-keyboard-response","16","106790","0.0-9.0-0.0","1738","2","""event"",""trial"",""time""
""fullscreenenter"",""1"",""9815""
","
","
","""event"",""trial"",""time""
""fullscreenenter"",""1"",""9815""
","
","","","","","","null","<div style=""font-size:60px;"">+</div>","null","","fixation","","","","","","","","",""
"memory-trial","17","113431","0.0-9.0-1.0","1738","2","""event"",""trial"",""time""
""fullscreenenter"",""1"",""9815""
","
","
","""event"",""trial"",""time""
""fullscreenenter"",""1"",""9815""
","
","","","","","","5633.199999988079","images/racket4.png","","","practice","1","definitely_old","","","","","","",""
"html-keyboard-response","18","113937","0.0-9.0-0.1","1738","2","""event"",""trial"",""time""
""fullscreenenter"",""1"",""9815""
","
","
","""event"",""trial"",""time""
""fullscreenenter"",""1"",""9815""
","
","","","","","","null","<div style=""font-size:60px;"">+</div>","null","","fixation","","","","","","","","",""
"memory-trial","19","116846","0.0-9.0-1.1","1738","2","""event"",""trial"",""time""
""fullscreenenter"",""1"",""9815""
","
","
","""event"",""trial"",""time""
""fullscreenenter"",""1"",""9815""
","
","","","","","","1904.5","images/ball1.png","","","practice","1","definitely_old","","","","","","",""
"html-keyboard-response","20","117350","0.0-9.0-0.2","1738","2","""event"",""trial"",""time""
""fullscreenenter"",""1"",""9815""
","
","
","""event"",""trial"",""time""
""fullscreenenter"",""1"",""9815""
","
","","","","","","null","<div style=""font-size:60px;"">+</div>","null","","fixation","","","","","","","","",""
"memory-trial","21","119666","0.0-9.0-1.2","1738","2","""event"",""trial"",""time""
""fullscreenenter"",""1"",""9815""
","
","
","""event"",""trial"",""time""
""fullscreenenter"",""1"",""9815""
","
","","","","","","1308","images/racket3.png","","","practice","1","definitely_old","","","","","","",""
"html-keyboard-response","22","120171","0.0-9.0-0.3","1738","2","""event"",""trial"",""time""
""fullscreenenter"",""1"",""9815""
","
","
","""event"",""trial"",""time""
""fullscreenenter"",""1"",""9815""
","
","","","","","","null","<div style=""font-size:60px;"">+</div>","null","","fixation","","","","","","","","",""
"memory-trial","23","122026","0.0-9.0-1.3","1738","2","""event"",""trial"",""time""
""fullscreenenter"",""1"",""9815""
","
","
","""event"",""trial"",""time""
""fullscreenenter"",""1"",""9815""
","
","","","","","","848.8000000119209","images/ball2.png","","","practice","1","definitely_old","","","","","","",""
"html-keyboard-response","24","122530","0.0-9.0-0.4","1738","2","""event"",""trial"",""time""
""fullscreenenter"",""1"",""9815""
","
","
","""event"",""trial"",""time""
""fullscreenenter"",""1"",""9815""
","
","","","","","","null","<div style=""font-size:60px;"">+</div>","null","","fixation","","","","","","","","",""
"memory-trial","25","124601","0.0-9.0-1.4","1738","2","""event"",""trial"",""time""
""fullscreenenter"",""1"",""9815""
","
","
","""event"",""trial"",""time""
""fullscreenenter"",""1"",""9815""
","
","","","","","","1066.4000000357628","images/racket1.png","","","practice","1","definitely_old","","","","","","",""
"html-keyboard-response","26","125105","0.0-9.0-0.5","1738","2","""event"",""trial"",""time""
""fullscreenenter"",""1"",""9815""
","
","
","""event"",""trial"",""time""
""fullscreenenter"",""1"",""9815""
","
","","","","","","null","<div style=""font-size:60px;"">+</div>","null","","fixation","","","","","","","","",""
"memory-trial","27","129262","0.0-9.0-1.5","1738","2","""event"",""trial"",""time""
""fullscreenenter"",""1"",""9815""
","
","
","""event"",""trial"",""time""
""fullscreenenter"",""1"",""9815""
","
","","","","","","3151.5","images/ball3.png","","","practice","4","definitely_new","","","","","","",""
"html-keyboard-response","28","129767","0.0-9.0-0.6","1738","2","""event"",""trial"",""time""
""fullscreenenter"",""1"",""9815""
","
","
","""event"",""trial"",""time""
""fullscreenenter"",""1"",""9815""
","
","","","","","","null","<div style=""font-size:60px;"">+</div>","null","","fixation","","","","","","","","",""
"memory-trial","29","132327","0.0-9.0-1.6","1738","2","""event"",""trial"",""time""
""fullscreenenter"",""1"",""9815""
","
","
","""event"",""trial"",""time""
""fullscreenenter"",""1"",""9815""
","
","","","","","","1554.3999999761581","images/ball4.png","","","practice","1","definitely_old","","","","","","",""
"html-keyboard-response","30","132832","0.0-9.0-0.7","1738","2","""event"",""trial"",""time""
""fullscreenenter"",""1"",""9815""
","
","
","""event"",""trial"",""time""
""fullscreenenter"",""1"",""9815""
","
","","","","","","null","<div style=""font-size:60px;"">+</div>","null","","fixation","","","","","","","","",""
"memory-trial","31","135265","0.0-9.0-1.7","1738","2","""event"",""trial"",""time""
""fullscreenenter"",""1"",""9815""
","
","
","""event"",""trial"",""time""
""fullscreenenter"",""1"",""9815""
","
","","","","","","1430.4000000357628","images/racket2.png","","","practice","4","definitely_new","","","","","","",""
"learning-instructions","32","144423","0.0-10.0-0.0","1738","2","""event"",""trial"",""time""
""fullscreenenter"",""1"",""9815""
","
","
","""event"",""trial"",""time""
""fullscreenenter"",""1"",""9815""
","
","","","","","","877.7999999523163","<p> Great! You have completed the practice. </p><p> Before you start, we're going to ask you a few questions about how the game works.  </p>","","0","instructions","","","","","","","","",""
"preload","33","150453","0.0-11.0","1738","2","""event"",""trial"",""time""
""fullscreenenter"",""1"",""9815""
","
","
","""event"",""trial"",""time""
""fullscreenenter"",""1"",""9815""
","
","true","false","[]","[]","[]","","","","","","","","","","","","","",""
"comp-q","34","157468","0.0-12.0-0.0","1738","2","""event"",""trial"",""time""
""fullscreenenter"",""1"",""9815""
","
","
","""event"",""trial"",""time""
""fullscreenenter"",""1"",""9815""
","
","","","","","","1181.0999999642372","<p> <b> True or False? </b> </p><p> In this game, you will only see each image once. </p>","","0","comp_question","","","true","","","","","",""
"comp-q","35","165697","0.0-12.0-1.0","1738","2","""event"",""trial"",""time""
""fullscreenenter"",""1"",""9815""
","
","
","""event"",""trial"",""time""
""fullscreenenter"",""1"",""9815""
","
","","","","","","1890","<p> <b> That's right! </b> You will see many different images <i> one time each </i> in this game. </p>","","0","comp_answer","","","","","","","","",""
"comp-q","36","172275","0.0-12.0-0.1","1738","2","""event"",""trial"",""time""
""fullscreenenter"",""1"",""9815""
","
","
","""event"",""trial"",""time""
""fullscreenenter"",""1"",""9815""
","
","","","","","","776.8999999761581","<p> <b> True or False? </b> </p><p> You should use the mouse and click to make your response. </p>","","1","comp_question","","","true","","","","","",""
"comp-q","37","186008","0.0-12.0-1.1","1738","2","""event"",""trial"",""time""
""fullscreenenter"",""1"",""9815""
","
","
","""event"",""trial"",""time""
""fullscreenenter"",""1"",""9815""
","
","","","","","","6388.100000023842","<p><b> That's right! </b> You should use the '1', '2', '3', and '4' keys to make your response. </p>","","0","comp_answer","","","","","","","","",""
"comp-q","38","192756","0.0-12.0-0.2","1738","2","""event"",""trial"",""time""
""fullscreenenter"",""1"",""9815""
","
","
","""event"",""trial"",""time""
""fullscreenenter"",""1"",""9815""
","
","","","","","","753","<p> <b> True or False? </b> </p><p> You will have as much time as you want to make each choice. </p>","","1","comp_question","","","true","","","","","",""
"comp-q","39","199617","0.0-12.0-1.2","1738","2","""event"",""trial"",""time""
""fullscreenenter"",""1"",""9815""
","
","
","""event"",""trial"",""time""
""fullscreenenter"",""1"",""9815""
","
","","","","","","1475.3999999761581","<p> <b> That's right! </b> You will only have 10 seconds to make each choice. </p>","","0","comp_answer","","","","","","","","",""
"learning-instructions","40","210289","0.0-13.0","1738","2","""event"",""trial"",""time""
""fullscreenenter"",""1"",""9815""
","
","
","""event"",""trial"",""time""
""fullscreenenter"",""1"",""9815""
","
","","","","","","2002.800000011921","<p> Great! You are now ready to begin the game. </p><p> Remember, use the 1, 2, 3, and 4 keys to make your responses. </p>","","0","instructions","","","","","","","","",""
"preload","41","237126","0.0-14.0","1738","2","""event"",""trial"",""time""
""fullscreenenter"",""1"",""9815""
","
","
","""event"",""trial"",""time""
""fullscreenenter"",""1"",""9815""
","
","true","false","[]","[]","[]","","","","","","","","","","","","","",""
"html-keyboard-response","42","237630","0.0-15.0-0.0","1738","2","""event"",""trial"",""time""
""fullscreenenter"",""1"",""9815""
","
","
","""event"",""trial"",""time""
""fullscreenenter"",""1"",""9815""
","
","","","","","","null","<div style=""font-size:60px;"">+</div>","null","","fixation","","","","","","","","",""
"memory-trial","43","241072","0.0-15.0-1.0","1738","2","""event"",""trial"",""time""
""fullscreenenter"",""1"",""9815""
","
","
","""event"",""trial"",""time""
""fullscreenenter"",""1"",""9815""
","
","","","","","","2437.100000023842","images/truck3.png","","","memory_trial","4","definitely_new","","","","","","",""
"html-keyboard-response","44","241577","0.0-15.0-0.1","1738","2","""event"",""trial"",""time""
""fullscreenenter"",""1"",""9815""
","
","
","""event"",""trial"",""time""
""fullscreenenter"",""1"",""9815""
","
","","","","","","null","<div style=""font-size:60px;"">+</div>","null","","fixation","","","","","","","","",""
"memory-trial","45","243844","0.0-15.0-1.1","1738","2","""event"",""trial"",""time""
""fullscreenenter"",""1"",""9815""
","
","
","""event"",""trial"",""time""
""fullscreenenter"",""1"",""9815""
","
","","","","","","1262.1000000238419","images/boat4.png","","","memory_trial","4","definitely_new","","","","","","",""
"html-keyboard-response","46","244346","0.0-15.0-0.2","1738","2","""event"",""trial"",""time""
""fullscreenenter"",""1"",""9815""
","
","
","""event"",""trial"",""time""
""fullscreenenter"",""1"",""9815""
","
","","","","","","null","<div style=""font-size:60px;"">+</div>","null","","fixation","","","","","","","","",""
"memory-trial","47","247930","0.0-15.0-1.2","1738","2","""event"",""trial"",""time""
""fullscreenenter"",""1"",""9815""
","
","
","""event"",""trial"",""time""
""fullscreenenter"",""1"",""9815""
","
","","","","","","2578.699999988079","images/rodent5.png","","","memory_trial","2","maybe_old","","","","","","",""
"html-keyboard-response","48","248436","0.0-15.0-0.3","1738","2","""event"",""trial"",""time""
""fullscreenenter"",""1"",""9815""
","
","
","""event"",""trial"",""time""
""fullscreenenter"",""1"",""9815""
","
","","","","","","null","<div style=""font-size:60px;"">+</div>","null","","fixation","","","","","","","","",""
"memory-trial","49","250974","0.0-15.0-1.3","1738","2","""event"",""trial"",""time""
""fullscreenenter"",""1"",""9815""
","
","
","""event"",""trial"",""time""
""fullscreenenter"",""1"",""9815""
","
","","","","","","1534.699999988079","images/flower2.png","","","memory_trial","4","definitely_new","","","","","","",""
"html-keyboard-response","50","251476","0.0-15.0-0.4","1738","2","""event"",""trial"",""time""
""fullscreenenter"",""1"",""9815""
","
","
","""event"",""trial"",""time""
""fullscreenenter"",""1"",""9815""
","
","","","","","","null","<div style=""font-size:60px;"">+</div>","null","","fixation","","","","","","","","",""
"memory-trial","51","253755","0.0-15.0-1.4","1738","2","""event"",""trial"",""time""
""fullscreenenter"",""1"",""9815""
","
","
","""event"",""trial"",""time""
""fullscreenenter"",""1"",""9815""
","
","","","","","","1272.300000011921","images/boat5.png","","","memory_trial","4","definitely_new","","","","","","",""
"html-keyboard-response","52","254257","0.0-15.0-0.5","1738","2","""event"",""trial"",""time""
""fullscreenenter"",""1"",""9815""
","
","
","""event"",""trial"",""time""
""fullscreenenter"",""1"",""9815""
","
","","","","","","null","<div style=""font-size:60px;"">+</div>","null","","fixation","","","","","","","","",""
"memory-trial","53","257640","0.0-15.0-1.5","1738","2","""event"",""trial"",""time""
""fullscreenenter"",""1"",""9815""
","
","
","""event"",""trial"",""time""
""fullscreenenter"",""1"",""9815""
","
","","","","","","2375.100000023842","images/sofa5.png","","","memory_trial","1","definitely_old","","","","","","",""
"html-keyboard-response","54","258145","0.0-15.0-0.6","1738","2","""event"",""trial"",""time""
""fullscreenenter"",""1"",""9815""
","
","
","""event"",""trial"",""time""
""fullscreenenter"",""1"",""9815""
","
","","","","","","null","<div style=""font-size:60px;"">+</div>","null","","fixation","","","","","","","","",""
"memory-trial","55","261076","0.0-15.0-1.6","1738","2","""event"",""trial"",""time""
""fullscreenenter"",""1"",""9815""
","
","
","""event"",""trial"",""time""
""fullscreenenter"",""1"",""9815""
","
","","","","","","1926.4000000357628","images/sheep5.png","","","memory_trial","4","definitely_new","","","","","","",""
"html-keyboard-response","56","261581","0.0-15.0-0.7","1738","2","""event"",""trial"",""time""
""fullscreenenter"",""1"",""9815""
","
","
","""event"",""trial"",""time""
""fullscreenenter"",""1"",""9815""
","
","","","","","","null","<div style=""font-size:60px;"">+</div>","null","","fixation","","","","","","","","",""
"memory-trial","57","264228","0.0-15.0-1.7","1738","2","""event"",""trial"",""time""
""fullscreenenter"",""1"",""9815""
","
","
","""event"",""trial"",""time""
""fullscreenenter"",""1"",""9815""
","
","","","","","","1643.2999999523163","images/bush5.png","","","memory_trial","4","definitely_new","","","","","","",""
"html-keyboard-response","58","264733","0.0-15.0-0.8","1738","2","""event"",""trial"",""time""
""fullscreenenter"",""1"",""9815""
","
","
","""event"",""trial"",""time""
""fullscreenenter"",""1"",""9815""
","
","","","","","","null","<div style=""font-size:60px;"">+</div>","null","","fixation","","","","","","","","",""
"memory-trial","59","269697","0.0-15.0-1.8","1738","2","""event"",""trial"",""time""
""fullscreenenter"",""1"",""9815""
","
","
","""event"",""trial"",""time""
""fullscreenenter"",""1"",""9815""
","
","","","","","","3960.5","images/sofa4.png","","","memory_trial","2","maybe_old","","","","","","",""
"html-keyboard-response","60","270202","0.0-15.0-0.9","1738","2","""event"",""trial"",""time""
""fullscreenenter"",""1"",""9815""
","
","
","""event"",""trial"",""time""
""fullscreenenter"",""1"",""9815""
","
","","","","","","null","<div style=""font-size:60px;"">+</div>","null","","fixation","","","","","","","","",""
"memory-trial","61","272686","0.0-15.0-1.9","1738","2","""event"",""trial"",""time""
""fullscreenenter"",""1"",""9815""
","
","
","""event"",""trial"",""time""
""fullscreenenter"",""1"",""9815""
","
","","","","","","1477.2999999523163","images/cactus4.png","","","memory_trial","4","definitely_new","","","","","","",""
"html-keyboard-response","62","273191","0.0-15.0-0.10","1738","2","""event"",""trial"",""time""
""fullscreenenter"",""1"",""9815""
","
","
","""event"",""trial"",""time""
""fullscreenenter"",""1"",""9815""
","
","","","","","","null","<div style=""font-size:60px;"">+</div>","null","","fixation","","","","","","","","",""
"memory-trial","63","278596","0.0-15.0-1.10","1738","2","""event"",""trial"",""time""
""fullscreenenter"",""1"",""9815""
","
","
","""event"",""trial"",""time""
""fullscreenenter"",""1"",""9815""
","
","","","","","","4397.799999952316","images/truck4.png","","","memory_trial","3","maybe_new","","","","","","",""
"html-keyboard-response","64","279101","0.0-15.0-0.11","1738","2","""event"",""trial"",""time""
""fullscreenenter"",""1"",""9815""
","
","
","""event"",""trial"",""time""
""fullscreenenter"",""1"",""9815""
","
","","","","","","null","<div style=""font-size:60px;"">+</div>","null","","fixation","","","","","","","","",""
"memory-trial","65","282038","0.0-15.0-1.11","1738","2","""event"",""trial"",""time""
""fullscreenenter"",""1"",""9815""
","
","
","""event"",""trial"",""time""
""fullscreenenter"",""1"",""9815""
","
","","","","","","1932.0999999642372","images/feline3.png","","","memory_trial","1","definitely_old","","","","","","",""
"html-keyboard-response","66","282543","0.0-15.0-0.12","1738","2","""event"",""trial"",""time""
""fullscreenenter"",""1"",""9815""
","
","
","""event"",""trial"",""time""
""fullscreenenter"",""1"",""9815""
","
","","","","","","null","<div style=""font-size:60px;"">+</div>","null","","fixation","","","","","","","","",""
"memory-trial","67","287739","0.0-15.0-1.12","1738","2","""event"",""trial"",""time""
""fullscreenenter"",""1"",""9815""
","
","
","""event"",""trial"",""time""
""fullscreenenter"",""1"",""9815""
","
","","","","","","4192.300000011921","images/flower1.png","","","memory_trial","2","maybe_old","","","","","","",""
"html-keyboard-response","68","288244","0.0-15.0-0.13","1738","2","""event"",""trial"",""time""
""fullscreenenter"",""1"",""9815""
","
","
","""event"",""trial"",""time""
""fullscreenenter"",""1"",""9815""
","
","","","","","","null","<div style=""font-size:60px;"">+</div>","null","","fixation","","","","","","","","",""
"memory-trial","69","291094","0.0-15.0-1.13","1738","2","""event"",""trial"",""time""
""fullscreenenter"",""1"",""9815""
","
","
","""event"",""trial"",""time""
""fullscreenenter"",""1"",""9815""
","
","","","","","","1845.699999988079","images/horse1.png","","","memory_trial","4","definitely_new","","","","","","",""
"html-keyboard-response","70","291599","0.0-15.0-0.14","1738","2","""event"",""trial"",""time""
""fullscreenenter"",""1"",""9815""
","
","
","""event"",""trial"",""time""
""fullscreenenter"",""1"",""9815""
","
","","","","","","null","<div style=""font-size:60px;"">+</div>","null","","fixation","","","","","","","","",""
"memory-trial","71","294206","0.0-15.0-1.14","1738","2","""event"",""trial"",""time""
""fullscreenenter"",""1"",""9815""
","
","
","""event"",""trial"",""time""
""fullscreenenter"",""1"",""9815""
","
","","","","","","1600.8999999761581","images/cow3.png","","","memory_trial","1","definitely_old","","","","","","",""
"html-keyboard-response","72","294710","0.0-15.0-0.15","1738","2","""event"",""trial"",""time""
""fullscreenenter"",""1"",""9815""
","
","
","""event"",""trial"",""time""
""fullscreenenter"",""1"",""9815""
","
","","","","","","null","<div style=""font-size:60px;"">+</div>","null","","fixation","","","","","","","","",""
"memory-trial","73","297162","0.0-15.0-1.15","1738","2","""event"",""trial"",""time""
""fullscreenenter"",""1"",""9815""
","
","
","""event"",""trial"",""time""
""fullscreenenter"",""1"",""9815""
","
","","","","","","1447.5999999642372","images/cactus3.png","","","memory_trial","4","definitely_new","","","","","","",""
"html-keyboard-response","74","297665","0.0-15.0-0.16","1738","2","""event"",""trial"",""time""
""fullscreenenter"",""1"",""9815""
","
","
","""event"",""trial"",""time""
""fullscreenenter"",""1"",""9815""
","
","","","","","","null","<div style=""font-size:60px;"">+</div>","null","","fixation","","","","","","","","",""
"memory-trial","75","300070","0.0-15.0-1.16","1738","2","""event"",""trial"",""time""
""fullscreenenter"",""1"",""9815""
","
","
","""event"",""trial"",""time""
""fullscreenenter"",""1"",""9815""
","
","","","","","","1397.699999988079","images/cow1.png","","","memory_trial","1","definitely_old","","","","","","",""
"html-keyboard-response","76","300575","0.0-15.0-0.17","1738","2","""event"",""trial"",""time""
""fullscreenenter"",""1"",""9815""
","
","
","""event"",""trial"",""time""
""fullscreenenter"",""1"",""9815""
","
","","","","","","null","<div style=""font-size:60px;"">+</div>","null","","fixation","","","","","","","","",""
"memory-trial","77","304045","0.0-15.0-1.17","1738","2","""event"",""trial"",""time""
""fullscreenenter"",""1"",""9815""
","
","
","""event"",""trial"",""time""
""fullscreenenter"",""1"",""9815""
","
","","","","","","2462.300000011921","images/bush3.png","","","memory_trial","2","maybe_old","","","","","","",""
"html-keyboard-response","78","304551","0.0-15.0-0.18","1738","2","""event"",""trial"",""time""
""fullscreenenter"",""1"",""9815""
","
","
","""event"",""trial"",""time""
""fullscreenenter"",""1"",""9815""
","
","","","","","","null","<div style=""font-size:60px;"">+</div>","null","","fixation","","","","","","","","",""
"memory-trial","79","307598","0.0-15.0-1.18","1738","2","""event"",""trial"",""time""
""fullscreenenter"",""1"",""9815""
","
","
","""event"",""trial"",""time""
""fullscreenenter"",""1"",""9815""
","
","","","","","","2039.8999999761581","images/apple2.png","","","memory_trial","4","definitely_new","","","","","","",""
"html-keyboard-response","80","308103","0.0-15.0-0.19","1738","2","""event"",""trial"",""time""
""fullscreenenter"",""1"",""9815""
","
","
","""event"",""trial"",""time""
""fullscreenenter"",""1"",""9815""
","
","","","","","","null","<div style=""font-size:60px;"">+</div>","null","","fixation","","","","","","","","",""
"memory-trial","81","311313","0.0-15.0-1.19","1738","2","""event"",""trial"",""time""
""fullscreenenter"",""1"",""9815""
","
","
","""event"",""trial"",""time""
""fullscreenenter"",""1"",""9815""
","
","","","","","","2204.599999964237","images/feline2.png","","","memory_trial","1","definitely_old","","","","","","",""
"html-keyboard-response","82","311818","0.0-15.0-0.20","1738","2","""event"",""trial"",""time""
""fullscreenenter"",""1"",""9815""
","
","
","""event"",""trial"",""time""
""fullscreenenter"",""1"",""9815""
","
","","","","","","null","<div style=""font-size:60px;"">+</div>","null","","fixation","","","","","","","","",""
"memory-trial","83","313989","0.0-15.0-1.20","1738","2","""event"",""trial"",""time""
""fullscreenenter"",""1"",""9815""
","
","
","""event"",""trial"",""time""
""fullscreenenter"",""1"",""9815""
","
","","","","","","1166.3999999761581","images/rodent3.png","","","memory_trial","1","definitely_old","","","","","","",""
"html-keyboard-response","84","314494","0.0-15.0-0.21","1738","2","""event"",""trial"",""time""
""fullscreenenter"",""1"",""9815""
","
","
","""event"",""trial"",""time""
""fullscreenenter"",""1"",""9815""
","
","","","","","","null","<div style=""font-size:60px;"">+</div>","null","","fixation","","","","","","","","",""
"memory-trial","85","317264","0.0-15.0-1.21","1738","2","""event"",""trial"",""time""
""fullscreenenter"",""1"",""9815""
","
","
","""event"",""trial"",""time""
""fullscreenenter"",""1"",""9815""
","
","","","","","","1767.6000000238419","images/plane5.png","","","memory_trial","2","maybe_old","","","","","","",""
"html-keyboard-response","86","317768","0.0-15.0-0.22","1738","2","""event"",""trial"",""time""
""fullscreenenter"",""1"",""9815""
","
","
","""event"",""trial"",""time""
""fullscreenenter"",""1"",""9815""
","
","","","","","","null","<div style=""font-size:60px;"">+</div>","null","","fixation","","","","","","","","",""
"memory-trial","87","320436","0.0-15.0-1.22","1738","2","""event"",""trial"",""time""
""fullscreenenter"",""1"",""9815""
","
","
","""event"",""trial"",""time""
""fullscreenenter"",""1"",""9815""
","
","","","","","","1662.1000000238419","images/apple3.png","","","memory_trial","4","definitely_new","","","","","","",""
"html-keyboard-response","88","320938","0.0-15.0-0.23","1738","2","""event"",""trial"",""time""
""fullscreenenter"",""1"",""9815""
","
","
","""event"",""trial"",""time""
""fullscreenenter"",""1"",""9815""
","
","","","","","","null","<div style=""font-size:60px;"">+</div>","null","","fixation","","","","","","","","",""
"memory-trial","89","324103","0.0-15.0-1.23","1738","2","""event"",""trial"",""time""
""fullscreenenter"",""1"",""9815""
","
","
","""event"",""trial"",""time""
""fullscreenenter"",""1"",""9815""
","
","","","","","","2159.699999988079","images/bed5.png","","","memory_trial","2","maybe_old","","","","","","",""
"html-keyboard-response","90","324607","0.0-15.0-0.24","1738","2","""event"",""trial"",""time""
""fullscreenenter"",""1"",""9815""
","
","
","""event"",""trial"",""time""
""fullscreenenter"",""1"",""9815""
","
","","","","","","null","<div style=""font-size:60px;"">+</div>","null","","fixation","","","","","","","","",""
"memory-trial","91","327341","0.0-15.0-1.24","1738","2","""event"",""trial"",""time""
""fullscreenenter"",""1"",""9815""
","
","
","""event"",""trial"",""time""
""fullscreenenter"",""1"",""9815""
","
","","","","","","1728.2000000476837","images/apple5.png","","","memory_trial","4","definitely_new","","","","","","",""
"html-keyboard-response","92","327846","0.0-15.0-0.25","1738","2","""event"",""trial"",""time""
""fullscreenenter"",""1"",""9815""
","
","
","""event"",""trial"",""time""
""fullscreenenter"",""1"",""9815""
","
","","","","","","null","<div style=""font-size:60px;"">+</div>","null","","fixation","","","","","","","","",""
"memory-trial","93","330751","0.0-15.0-1.25","1738","2","""event"",""trial"",""time""
""fullscreenenter"",""1"",""9815""
","
","
","""event"",""trial"",""time""
""fullscreenenter"",""1"",""9815""
","
","","","","","","1898.5","images/table5.png","","","memory_trial","1","definitely_old","","","","","","",""
"html-keyboard-response","94","331253","0.0-15.0-0.26","1738","2","""event"",""trial"",""time""
""fullscreenenter"",""1"",""9815""
","
","
","""event"",""trial"",""time""
""fullscreenenter"",""1"",""9815""
","
","","","","","","null","<div style=""font-size:60px;"">+</div>","null","","fixation","","","","","","","","",""
"memory-trial","95","335369","0.0-15.0-1.26","1738","2","""event"",""trial"",""time""
""fullscreenenter"",""1"",""9815""
","
","
","""event"",""trial"",""time""
""fullscreenenter"",""1"",""9815""
","
","","","","","","3112.5","images/dog5.png","","","memory_trial","3","maybe_new","","","","","","",""
"html-keyboard-response","96","335874","0.0-15.0-0.27","1738","2","""event"",""trial"",""time""
""fullscreenenter"",""1"",""9815""
","
","
","""event"",""trial"",""time""
""fullscreenenter"",""1"",""9815""
","
","","","","","","null","<div style=""font-size:60px;"">+</div>","null","","fixation","","","","","","","","",""
"memory-trial","97","339082","0.0-15.0-1.27","1738","2","""event"",""trial"",""time""
""fullscreenenter"",""1"",""9815""
","
","
","""event"",""trial"",""time""
""fullscreenenter"",""1"",""9815""
","
","","","","","","2202.100000023842","images/tree1.png","","","memory_trial","2","maybe_old","","","","","","",""
"html-keyboard-response","98","339584","0.0-15.0-0.28","1738","2","""event"",""trial"",""time""
""fullscreenenter"",""1"",""9815""
","
","
","""event"",""trial"",""time""
""fullscreenenter"",""1"",""9815""
","
","","","","","","null","<div style=""font-size:60px;"">+</div>","null","","fixation","","","","","","","","",""
"memory-trial","99","342905","0.0-15.0-1.28","1738","2","""event"",""trial"",""time""
""fullscreenenter"",""1"",""9815""
","
","
","""event"",""trial"",""time""
""fullscreenenter"",""1"",""9815""
","
","","","","","","2314.300000011921","images/orange5.png","","","memory_trial","3","maybe_new","","","","","","",""
"html-keyboard-response","100","343411","0.0-15.0-0.29","1738","2","""event"",""trial"",""time""
""fullscreenenter"",""1"",""9815""
","
","
","""event"",""trial"",""time""
""fullscreenenter"",""1"",""9815""
","
","","","","","","null","<div style=""font-size:60px;"">+</div>","null","","fixation","","","","","","","","",""
"memory-trial","101","346011","0.0-15.0-1.29","1738","2","""event"",""trial"",""time""
""fullscreenenter"",""1"",""9815""
","
","
","""event"",""trial"",""time""
""fullscreenenter"",""1"",""9815""
","
","","","","","","1596.0999999642372","images/plane2.png","","","memory_trial","4","definitely_new","","","","","","",""
"html-keyboard-response","102","346517","0.0-15.0-0.30","1738","2","""event"",""trial"",""time""
""fullscreenenter"",""1"",""9815""
","
","
","""event"",""trial"",""time""
""fullscreenenter"",""1"",""9815""
","
","","","","","","null","<div style=""font-size:60px;"">+</div>","null","","fixation","","","","","","","","",""
"memory-trial","103","349649","0.0-15.0-1.30","1738","2","""event"",""trial"",""time""
""fullscreenenter"",""1"",""9815""
","
","
","""event"",""trial"",""time""
""fullscreenenter"",""1"",""9815""
","
","","","","","","2125.899999976158","images/goat1.png","","","memory_trial","3","maybe_new","","","","","","",""
"html-keyboard-response","104","350154","0.0-15.0-0.31","1738","2","""event"",""trial"",""time""
""fullscreenenter"",""1"",""9815""
","
","
","""event"",""trial"",""time""
""fullscreenenter"",""1"",""9815""
","
","","","","","","null","<div style=""font-size:60px;"">+</div>","null","","fixation","","","","","","","","",""
"memory-trial","105","352476","0.0-15.0-1.31","1738","2","""event"",""trial"",""time""
""fullscreenenter"",""1"",""9815""
","
","
","""event"",""trial"",""time""
""fullscreenenter"",""1"",""9815""
","
","","","","","","1316.5999999642372","images/tree2.png","","","memory_trial","4","definitely_new","","","","","","",""
"html-keyboard-response","106","352978","0.0-15.0-0.32","1738","2","""event"",""trial"",""time""
""fullscreenenter"",""1"",""9815""
","
","
","""event"",""trial"",""time""
""fullscreenenter"",""1"",""9815""
","
","","","","","","null","<div style=""font-size:60px;"">+</div>","null","","fixation","","","","","","","","",""
"memory-trial","107","355524","0.0-15.0-1.32","1738","2","""event"",""trial"",""time""
""fullscreenenter"",""1"",""9815""
","
","
","""event"",""trial"",""time""
""fullscreenenter"",""1"",""9815""
","
","","","","","","1542.5","images/bed4.png","","","memory_trial","1","definitely_old","","","","","","",""
"html-keyboard-response","108","356029","0.0-15.0-0.33","1738","2","""event"",""trial"",""time""
""fullscreenenter"",""1"",""9815""
","
","
","""event"",""trial"",""time""
""fullscreenenter"",""1"",""9815""
","
","","","","","","null","<div style=""font-size:60px;"">+</div>","null","","fixation","","","","","","","","",""
"memory-trial","109","358029","0.0-15.0-1.33","1738","2","""event"",""trial"",""time""
""fullscreenenter"",""1"",""9815""
","
","
","""event"",""trial"",""time""
""fullscreenenter"",""1"",""9815""
","
","","","","","","994.8999999761581","images/sheep4.png","","","memory_trial","1","definitely_old","","","","","","",""
"html-keyboard-response","110","358534","0.0-15.0-0.34","1738","2","""event"",""trial"",""time""
""fullscreenenter"",""1"",""9815""
","
","
","""event"",""trial"",""time""
""fullscreenenter"",""1"",""9815""
","
","","","","","","null","<div style=""font-size:60px;"">+</div>","null","","fixation","","","","","","","","",""
"memory-trial","111","361224","0.0-15.0-1.34","1738","2","""event"",""trial"",""time""
""fullscreenenter"",""1"",""9815""
","
","
","""event"",""trial"",""time""
""fullscreenenter"",""1"",""9815""
","
","","","","","","1683.800000011921","images/chair3.png","","","memory_trial","4","definitely_new","","","","","","",""
"html-keyboard-response","112","361729","0.0-15.0-0.35","1738","2","""event"",""trial"",""time""
""fullscreenenter"",""1"",""9815""
","
","
","""event"",""trial"",""time""
""fullscreenenter"",""1"",""9815""
","
","","","","","","null","<div style=""font-size:60px;"">+</div>","null","","fixation","","","","","","","","",""
"memory-trial","113","363695","0.0-15.0-1.35","1738","2","""event"",""trial"",""time""
""fullscreenenter"",""1"",""9815""
","
","
","""event"",""trial"",""time""
""fullscreenenter"",""1"",""9815""
","
","","","","","","961.1999999880791","images/apple4.png","","","memory_trial","4","definitely_new","","","","","","",""
"html-keyboard-response","114","364197","0.0-15.0-0.36","1738","2","""event"",""trial"",""time""
""fullscreenenter"",""1"",""9815""
","
","
","""event"",""trial"",""time""
""fullscreenenter"",""1"",""9815""
","
","","","","","","null","<div style=""font-size:60px;"">+</div>","null","","fixation","","","","","","","","",""
"memory-trial","115","367337","0.0-15.0-1.36","1738","2","""event"",""trial"",""time""
""fullscreenenter"",""1"",""9815""
","
","
","""event"",""trial"",""time""
""fullscreenenter"",""1"",""9815""
","
","","","","","","2133.300000011921","images/truck5.png","","","memory_trial","1","definitely_old","","","","","","",""
"html-keyboard-response","116","367839","0.0-15.0-0.37","1738","2","""event"",""trial"",""time""
""fullscreenenter"",""1"",""9815""
","
","
","""event"",""trial"",""time""
""fullscreenenter"",""1"",""9815""
","
","","","","","","null","<div style=""font-size:60px;"">+</div>","null","","fixation","","","","","","","","",""
"memory-trial","117","371010","0.0-15.0-1.37","1738","2","""event"",""trial"",""time""
""fullscreenenter"",""1"",""9815""
","
","
","""event"",""trial"",""time""
""fullscreenenter"",""1"",""9815""
","
","","","","","","2163.699999988079","images/rodent2.png","","","memory_trial","4","definitely_new","","","","","","",""
"html-keyboard-response","118","371514","0.0-15.0-0.38","1738","2","""event"",""trial"",""time""
""fullscreenenter"",""1"",""9815""
","
","
","""event"",""trial"",""time""
""fullscreenenter"",""1"",""9815""
","
","","","","","","null","<div style=""font-size:60px;"">+</div>","null","","fixation","","","","","","","","",""
"memory-trial","119","373914","0.0-15.0-1.38","1738","2","""event"",""trial"",""time""
""fullscreenenter"",""1"",""9815""
","
","
","""event"",""trial"",""time""
""fullscreenenter"",""1"",""9815""
","
","","","","","","1395","images/banana4.png","","","memory_trial","4","definitely_new","","","","","","",""
"html-keyboard-response","120","374418","0.0-15.0-0.39","1738","2","""event"",""trial"",""time""
""fullscreenenter"",""1"",""9815""
","
","
","""event"",""trial"",""time""
""fullscreenenter"",""1"",""9815""
","
","","","","","","null","<div style=""font-size:60px;"">+</div>","null","","fixation","","","","","","","","",""
"memory-trial","121","376399","0.0-15.0-1.39","1738","2","""event"",""trial"",""time""
""fullscreenenter"",""1"",""9815""
","
","
","""event"",""trial"",""time""
""fullscreenenter"",""1"",""9815""
","
","","","","","","975.9000000357628","images/cactus2.png","","","memory_trial","4","definitely_new","","","","","","",""
"html-keyboard-response","122","376905","0.0-15.0-0.40","1738","2","""event"",""trial"",""time""
""fullscreenenter"",""1"",""9815""
","
","
","""event"",""trial"",""time""
""fullscreenenter"",""1"",""9815""
","
","","","","","","null","<div style=""font-size:60px;"">+</div>","null","","fixation","","","","","","","","",""
"memory-trial","123","379157","0.0-15.0-1.40","1738","2","""event"",""trial"",""time""
""fullscreenenter"",""1"",""9815""
","
","
","""event"",""trial"",""time""
""fullscreenenter"",""1"",""9815""
","
","","","","","","1248.300000011921","images/bush4.png","","","memory_trial","1","definitely_old","","","","","","",""
"html-keyboard-response","124","379661","0.0-15.0-0.41","1738","2","""event"",""trial"",""time""
""fullscreenenter"",""1"",""9815""
","
","
","""event"",""trial"",""time""
""fullscreenenter"",""1"",""9815""
","
","","","","","","null","<div style=""font-size:60px;"">+</div>","null","","fixation","","","","","","","","",""
"memory-trial","125","382408","0.0-15.0-1.41","1738","2","""event"",""trial"",""time""
""fullscreenenter"",""1"",""9815""
","
","
","""event"",""trial"",""time""
""fullscreenenter"",""1"",""9815""
","
","","","","","","1742","images/table3.png","","","memory_trial","2","maybe_old","","","","","","",""
"html-keyboard-response","126","382915","0.0-15.0-0.42","1738","2","""event"",""trial"",""time""
""fullscreenenter"",""1"",""9815""
","
","
","""event"",""trial"",""time""
""fullscreenenter"",""1"",""9815""
","
","","","","","","null","<div style=""font-size:60px;"">+</div>","null","","fixation","","","","","","","","",""
"memory-trial","127","385482","0.0-15.0-1.42","1738","2","""event"",""trial"",""time""
""fullscreenenter"",""1"",""9815""
","
","
","""event"",""trial"",""time""
""fullscreenenter"",""1"",""9815""
","
","","","","","","1559.199999988079","images/dog4.png","","","memory_trial","4","definitely_new","","","","","","",""
"html-keyboard-response","128","385984","0.0-15.0-0.43","1738","2","""event"",""trial"",""time""
""fullscreenenter"",""1"",""9815""
","
","
","""event"",""trial"",""time""
""fullscreenenter"",""1"",""9815""
","
","","","","","","null","<div style=""font-size:60px;"">+</div>","null","","fixation","","","","","","","","",""
"memory-trial","129","388554","0.0-15.0-1.43","1738","2","""event"",""trial"",""time""
""fullscreenenter"",""1"",""9815""
","
","
","""event"",""trial"",""time""
""fullscreenenter"",""1"",""9815""
","
","","","","","","1564.199999988079","images/dog2.png","","","memory_trial","1","definitely_old","","","","","","",""
"html-keyboard-response","130","389060","0.0-15.0-0.44","1738","2","""event"",""trial"",""time""
""fullscreenenter"",""1"",""9815""
","
","
","""event"",""trial"",""time""
""fullscreenenter"",""1"",""9815""
","
","","","","","","null","<div style=""font-size:60px;"">+</div>","null","","fixation","","","","","","","","",""
"memory-trial","131","391207","0.0-15.0-1.44","1738","2","""event"",""trial"",""time""
""fullscreenenter"",""1"",""9815""
","
","
","""event"",""trial"",""time""
""fullscreenenter"",""1"",""9815""
","
","","","","","","1142.5","images/bed3.png","","","memory_trial","1","definitely_old","","","","","","",""
"html-keyboard-response","132","391712","0.0-15.0-0.45","1738","2","""event"",""trial"",""time""
""fullscreenenter"",""1"",""9815""
","
","
","""event"",""trial"",""time""
""fullscreenenter"",""1"",""9815""
","
","","","","","","null","<div style=""font-size:60px;"">+</div>","null","","fixation","","","","","","","","",""
"memory-trial","133","395608","0.0-15.0-1.45","1738","2","""event"",""trial"",""time""
""fullscreenenter"",""1"",""9815""
","
","
","""event"",""trial"",""time""
""fullscreenenter"",""1"",""9815""
","
","","","","","","2890.5","images/plane3.png","","","memory_trial","1","definitely_old","","","","","","",""
"html-keyboard-response","134","396112","0.0-15.0-0.46","1738","2","""event"",""trial"",""time""
""fullscreenenter"",""1"",""9815""
","
","
","""event"",""trial"",""time""
""fullscreenenter"",""1"",""9815""
","
","","","","","","null","<div style=""font-size:60px;"">+</div>","null","","fixation","","","","","","","","",""
"memory-trial","135","398580","0.0-15.0-1.46","1738","2","""event"",""trial"",""time""
""fullscreenenter"",""1"",""9815""
","
","
","""event"",""trial"",""time""
""fullscreenenter"",""1"",""9815""
","
","","","","","","1460.5","images/orange4.png","","","memory_trial","4","definitely_new","","","","","","",""
"html-button-response","136","401361","0.0-15.0-2.46-0.46","1738","2","""event"",""trial"",""time""
""fullscreenenter"",""1"",""9815""
","
","
","""event"",""trial"",""time""
""fullscreenenter"",""1"",""9815""
","
","","","","","","2778.199999988079","<p> Take a break! </p><p> Click the button to continue. </p>","0","","break","","","","","","","","",""
"html-keyboard-response","137","401862","0.0-15.0-0.47","1738","2","""event"",""trial"",""time""
""fullscreenenter"",""1"",""9815""
","
","
","""event"",""trial"",""time""
""fullscreenenter"",""1"",""9815""
","
","","","","","","null","<div style=""font-size:60px;"">+</div>","null","","fixation","","","","","","","","",""
"memory-trial","138","404037","0.0-15.0-1.47","1738","2","""event"",""trial"",""time""
""fullscreenenter"",""1"",""9815""
","
","
","""event"",""trial"",""time""
""fullscreenenter"",""1"",""9815""
","
","","","","","","1171.199999988079","images/sofa1.png","","","memory_trial","1","definitely_old","","","","","","",""
"html-keyboard-response","139","404541","0.0-15.0-0.48","1738","2","""event"",""trial"",""time""
""fullscreenenter"",""1"",""9815""
","
","
","""event"",""trial"",""time""
""fullscreenenter"",""1"",""9815""
","
","","","","","","null","<div style=""font-size:60px;"">+</div>","null","","fixation","","","","","","","","",""
"memory-trial","140","408053","0.0-15.0-1.48","1738","2","""event"",""trial"",""time""
""fullscreenenter"",""1"",""9815""
","
","
","""event"",""trial"",""time""
""fullscreenenter"",""1"",""9815""
","
","","","","","","2506.300000011921","images/goat3.png","","","memory_trial","3","maybe_new","","","","","","",""
"html-keyboard-response","141","408558","0.0-15.0-0.49","1738","2","""event"",""trial"",""time""
""fullscreenenter"",""1"",""9815""
","
","
","""event"",""trial"",""time""
""fullscreenenter"",""1"",""9815""
","
","","","","","","null","<div style=""font-size:60px;"">+</div>","null","","fixation","","","","","","","","",""
"memory-trial","142","411031","0.0-15.0-1.49","1738","2","""event"",""trial"",""time""
""fullscreenenter"",""1"",""9815""
","
","
","""event"",""trial"",""time""
""fullscreenenter"",""1"",""9815""
","
","","","","","","1467.699999988079","images/rodent4.png","","","memory_trial","1","definitely_old","","","","","","",""
"html-keyboard-response","143","411536","0.0-15.0-0.50","1738","2","""event"",""trial"",""time""
""fullscreenenter"",""1"",""9815""
","
","
","""event"",""trial"",""time""
""fullscreenenter"",""1"",""9815""
","
","","","","","","null","<div style=""font-size:60px;"">+</div>","null","","fixation","","","","","","","","",""
"memory-trial","144","416360","0.0-15.0-1.50","1738","2","""event"",""trial"",""time""
""fullscreenenter"",""1"",""9815""
","
","
","""event"",""trial"",""time""
""fullscreenenter"",""1"",""9815""
","
","","","","","","3818.300000011921","images/tree4.png","","","memory_trial","3","maybe_new","","","","","","",""
"html-keyboard-response","145","416865","0.0-15.0-0.51","1738","2","""event"",""trial"",""time""
""fullscreenenter"",""1"",""9815""
","
","
","""event"",""trial"",""time""
""fullscreenenter"",""1"",""9815""
","
","","","","","","null","<div style=""font-size:60px;"">+</div>","null","","fixation","","","","","","","","",""
"memory-trial","146","418851","0.0-15.0-1.51","1738","2","""event"",""trial"",""time""
""fullscreenenter"",""1"",""9815""
","
","
","""event"",""trial"",""time""
""fullscreenenter"",""1"",""9815""
","
","","","","","","978.4000000357628","images/dog3.png","","","memory_trial","1","definitely_old","","","","","","",""
"html-keyboard-response","147","419356","0.0-15.0-0.52","1738","2","""event"",""trial"",""time""
""fullscreenenter"",""1"",""9815""
","
","
","""event"",""trial"",""time""
""fullscreenenter"",""1"",""9815""
","
","","","","","","null","<div style=""font-size:60px;"">+</div>","null","","fixation","","","","","","","","",""
"memory-trial","148","423461","0.0-15.0-1.52","1738","2","""event"",""trial"",""time""
""fullscreenenter"",""1"",""9815""
","
","
","""event"",""trial"",""time""
""fullscreenenter"",""1"",""9815""
","
","","","","","","3102.699999988079","images/truck1.png","","","memory_trial","3","maybe_new","","","","","","",""
"html-keyboard-response","149","423967","0.0-15.0-0.53","1738","2","""event"",""trial"",""time""
""fullscreenenter"",""1"",""9815""
","
","
","""event"",""trial"",""time""
""fullscreenenter"",""1"",""9815""
","
","","","","","","null","<div style=""font-size:60px;"">+</div>","null","","fixation","","","","","","","","",""
"memory-trial","150","426925","0.0-15.0-1.53","1738","2","""event"",""trial"",""time""
""fullscreenenter"",""1"",""9815""
","
","
","""event"",""trial"",""time""
""fullscreenenter"",""1"",""9815""
","
","","","","","","1952.1000000238419","images/bush2.png","","","memory_trial","2","maybe_old","","","","","","",""
"html-keyboard-response","151","427430","0.0-15.0-0.54","1738","2","""event"",""trial"",""time""
""fullscreenenter"",""1"",""9815""
","
","
","""event"",""trial"",""time""
""fullscreenenter"",""1"",""9815""
","
","","","","","","null","<div style=""font-size:60px;"">+</div>","null","","fixation","","","","","","","","",""
"memory-trial","152","430720","0.0-15.0-1.54","1738","2","""event"",""trial"",""time""
""fullscreenenter"",""1"",""9815""
","
","
","""event"",""trial"",""time""
""fullscreenenter"",""1"",""9815""
","
","","","","","","2284.399999976158","images/straw3.png","","","memory_trial","4","definitely_new","","","","","","",""
"html-keyboard-response","153","431222","0.0-15.0-0.55","1738","2","""event"",""trial"",""time""
""fullscreenenter"",""1"",""9815""
","
","
","""event"",""trial"",""time""
""fullscreenenter"",""1"",""9815""
","
","","","","","","null","<div style=""font-size:60px;"">+</div>","null","","fixation","","","","","","","","",""
"memory-trial","154","433141","0.0-15.0-1.55","1738","2","""event"",""trial"",""time""
""fullscreenenter"",""1"",""9815""
","
","
","""event"",""trial"",""time""
""fullscreenenter"",""1"",""9815""
","
","","","","","","911.3000000119209","images/cactus5.png","","","memory_trial","4","definitely_new","","","","","","",""
"html-keyboard-response","155","433645","0.0-15.0-0.56","1738","2","""event"",""trial"",""time""
""fullscreenenter"",""1"",""9815""
","
","
","""event"",""trial"",""time""
""fullscreenenter"",""1"",""9815""
","
","","","","","","null","<div style=""font-size:60px;"">+</div>","null","","fixation","","","","","","","","",""
"memory-trial","156","436511","0.0-15.0-1.56","1738","2","""event"",""trial"",""time""
""fullscreenenter"",""1"",""9815""
","
","
","""event"",""trial"",""time""
""fullscreenenter"",""1"",""9815""
","
","","","","","","1863.0999999642372","images/cow4.png","","","memory_trial","4","definitely_new","","","","","","",""
"html-keyboard-response","157","437015","0.0-15.0-0.57","1738","2","""event"",""trial"",""time""
""fullscreenenter"",""1"",""9815""
","
","
","""event"",""trial"",""time""
""fullscreenenter"",""1"",""9815""
","
","","","","","","null","<div style=""font-size:60px;"">+</div>","null","","fixation","","","","","","","","",""
"memory-trial","158","439216","0.0-15.0-1.57","1738","2","""event"",""trial"",""time""
""fullscreenenter"",""1"",""9815""
","
","
","""event"",""trial"",""time""
""fullscreenenter"",""1"",""9815""
","
","","","","","","1194.5","images/cactus1.png","","","memory_trial","4","definitely_new","","","","","","",""
"html-keyboard-response","159","439720","0.0-15.0-0.58","1738","2","""event"",""trial"",""time""
""fullscreenenter"",""1"",""9815""
","
","
","""event"",""trial"",""time""
""fullscreenenter"",""1"",""9815""
","
","","","","","","null","<div style=""font-size:60px;"">+</div>","null","","fixation","","","","","","","","",""
"memory-trial","160","441845","0.0-15.0-1.58","1738","2","""event"",""trial"",""time""
""fullscreenenter"",""1"",""9815""
","
","
","""event"",""trial"",""time""
""fullscreenenter"",""1"",""9815""
","
","","","","","","1123.5","images/sheep1.png","","","memory_trial","4","definitely_new","","","","","","",""
"html-keyboard-response","161","442349","0.0-15.0-0.59","1738","2","""event"",""trial"",""time""
""fullscreenenter"",""1"",""9815""
","
","
","""event"",""trial"",""time""
""fullscreenenter"",""1"",""9815""
","
","","","","","","null","<div style=""font-size:60px;"">+</div>","null","","fixation","","","","","","","","",""
"memory-trial","162","444247","0.0-15.0-1.59","1738","2","""event"",""trial"",""time""
""fullscreenenter"",""1"",""9815""
","
","
","""event"",""trial"",""time""
""fullscreenenter"",""1"",""9815""
","
","","","","","","894.3000000119209","images/orange3.png","","","memory_trial","4","definitely_new","","","","","","",""
"html-keyboard-response","163","444752","0.0-15.0-0.60","1738","2","""event"",""trial"",""time""
""fullscreenenter"",""1"",""9815""
","
","
","""event"",""trial"",""time""
""fullscreenenter"",""1"",""9815""
","
","","","","","","null","<div style=""font-size:60px;"">+</div>","null","","fixation","","","","","","","","",""
"memory-trial","164","446533","0.0-15.0-1.60","1738","2","""event"",""trial"",""time""
""fullscreenenter"",""1"",""9815""
","
","
","""event"",""trial"",""time""
""fullscreenenter"",""1"",""9815""
","
","","","","","","776","images/banana1.png","","","memory_trial","4","definitely_new","","","","","","",""
"html-keyboard-response","165","447037","0.0-15.0-0.61","1738","2","""event"",""trial"",""time""
""fullscreenenter"",""1"",""9815""
","
","
","""event"",""trial"",""time""
""fullscreenenter"",""1"",""9815""
","
","","","","","","null","<div style=""font-size:60px;"">+</div>","null","","fixation","","","","","","","","",""
"memory-trial","166","449042","0.0-15.0-1.61","1738","2","""event"",""trial"",""time""
""fullscreenenter"",""1"",""9815""
","
","
","""event"",""trial"",""time""
""fullscreenenter"",""1"",""9815""
","
","","","","","","1000.1000000238419","images/rabbit4.png","","","memory_trial","4","definitely_new","","","","","","",""
"html-keyboard-response","167","449547","0.0-15.0-0.62","1738","2","""event"",""trial"",""time""
""fullscreenenter"",""1"",""9815""
","
","
","""event"",""trial"",""time""
""fullscreenenter"",""1"",""9815""
","
","","","","","","null","<div style=""font-size:60px;"">+</div>","null","","fixation","","","","","","","","",""
"memory-trial","168","451973","0.0-15.0-1.62","1738","2","""event"",""trial"",""time""
""fullscreenenter"",""1"",""9815""
","
","
","""event"",""trial"",""time""
""fullscreenenter"",""1"",""9815""
","
","","","","","","1424.699999988079","images/feline1.png","","","memory_trial","4","definitely_new","","","","","","",""
"html-keyboard-response","169","452474","0.0-15.0-0.63","1738","2","""event"",""trial"",""time""
""fullscreenenter"",""1"",""9815""
","
","
","""event"",""trial"",""time""
""fullscreenenter"",""1"",""9815""
","
","","","","","","null","<div style=""font-size:60px;"">+</div>","null","","fixation","","","","","","","","",""
"memory-trial","170","454517","0.0-15.0-1.63","1738","2","""event"",""trial"",""time""
""fullscreenenter"",""1"",""9815""
","
","
","""event"",""trial"",""time""
""fullscreenenter"",""1"",""9815""
","
","","","","","","1039.9000000357628","images/rabbit1.png","","","memory_trial","4","definitely_new","","","","","","",""
"html-keyboard-response","171","455022","0.0-15.0-0.64","1738","2","""event"",""trial"",""time""
""fullscreenenter"",""1"",""9815""
","
","
","""event"",""trial"",""time""
""fullscreenenter"",""1"",""9815""
","
","","","","","","null","<div style=""font-size:60px;"">+</div>","null","","fixation","","","","","","","","",""
"memory-trial","172","457161","0.0-15.0-1.64","1738","2","""event"",""trial"",""time""
""fullscreenenter"",""1"",""9815""
","
","
","""event"",""trial"",""time""
""fullscreenenter"",""1"",""9815""
","
","","","","","","1132.5999999642372","images/flower4.png","","","memory_trial","4","definitely_new","","","","","","",""
"html-keyboard-response","173","457666","0.0-15.0-0.65","1738","2","""event"",""trial"",""time""
""fullscreenenter"",""1"",""9815""
","
","
","""event"",""trial"",""time""
""fullscreenenter"",""1"",""9815""
","
","","","","","","null","<div style=""font-size:60px;"">+</div>","null","","fixation","","","","","","","","",""
"memory-trial","174","461546","0.0-15.0-1.65","1738","2","""event"",""trial"",""time""
""fullscreenenter"",""1"",""9815""
","
","
","""event"",""trial"",""time""
""fullscreenenter"",""1"",""9815""
","
","","","","","","2874.899999976158","images/chair5.png","","","memory_trial","3","maybe_new","","","","","","",""
"html-keyboard-response","175","462052","0.0-15.0-0.66","1738","2","""event"",""trial"",""time""
""fullscreenenter"",""1"",""9815""
","
","
","""event"",""trial"",""time""
""fullscreenenter"",""1"",""9815""
","
","","","","","","null","<div style=""font-size:60px;"">+</div>","null","","fixation","","","","","","","","",""
"memory-trial","176","464409","0.0-15.0-1.66","1738","2","""event"",""trial"",""time""
""fullscreenenter"",""1"",""9815""
","
","
","""event"",""trial"",""time""
""fullscreenenter"",""1"",""9815""
","
","","","","","","1350.9000000357628","images/horse5.png","","","memory_trial","3","maybe_new","","","","","","",""
"html-keyboard-response","177","464914","0.0-15.0-0.67","1738","2","""event"",""trial"",""time""
""fullscreenenter"",""1"",""9815""
","
","
","""event"",""trial"",""time""
""fullscreenenter"",""1"",""9815""
","
","","","","","","null","<div style=""font-size:60px;"">+</div>","null","","fixation","","","","","","","","",""
"memory-trial","178","467758","0.0-15.0-1.67","1738","2","""event"",""trial"",""time""
""fullscreenenter"",""1"",""9815""
","
","
","""event"",""trial"",""time""
""fullscreenenter"",""1"",""9815""
","
","","","","","","1838.6000000238419","images/plane1.png","","","memory_trial","2","maybe_old","","","","","","",""
"html-keyboard-response","179","468261","0.0-15.0-0.68","1738","2","""event"",""trial"",""time""
""fullscreenenter"",""1"",""9815""
","
","
","""event"",""trial"",""time""
""fullscreenenter"",""1"",""9815""
","
","","","","","","null","<div style=""font-size:60px;"">+</div>","null","","fixation","","","","","","","","",""
"memory-trial","180","470753","0.0-15.0-1.68","1738","2","""event"",""trial"",""time""
""fullscreenenter"",""1"",""9815""
","
","
","""event"",""trial"",""time""
""fullscreenenter"",""1"",""9815""
","
","","","","","","1485.4000000357628","images/train4.png","","","memory_trial","1","definitely_old","","","","","","",""
"html-keyboard-response","181","471255","0.0-15.0-0.69","1738","2","""event"",""trial"",""time""
""fullscreenenter"",""1"",""9815""
","
","
","""event"",""trial"",""time""
""fullscreenenter"",""1"",""9815""
","
","","","","","","null","<div style=""font-size:60px;"">+</div>","null","","fixation","","","","","","","","",""
"memory-trial","182","473656","0.0-15.0-1.69","1738","2","""event"",""trial"",""time""
""fullscreenenter"",""1"",""9815""
","
","
","""event"",""trial"",""time""
""fullscreenenter"",""1"",""9815""
","
","","","","","","1394.199999988079","images/train1.png","","","memory_trial","2","maybe_old","","","","","","",""
"html-keyboard-response","183","474161","0.0-15.0-0.70","1738","2","""event"",""trial"",""time""
""fullscreenenter"",""1"",""9815""
","
","
","""event"",""trial"",""time""
""fullscreenenter"",""1"",""9815""
","
","","","","","","null","<div style=""font-size:60px;"">+</div>","null","","fixation","","","","","","","","",""
"memory-trial","184","477254","0.0-15.0-1.70","1738","2","""event"",""trial"",""time""
""fullscreenenter"",""1"",""9815""
","
","
","""event"",""trial"",""time""
""fullscreenenter"",""1"",""9815""
","
","","","","","","2085.800000011921","images/chair1.png","","","memory_trial","4","definitely_new","","","","","","",""
"html-keyboard-response","185","477756","0.0-15.0-0.71","1738","2","""event"",""trial"",""time""
""fullscreenenter"",""1"",""9815""
","
","
","""event"",""trial"",""time""
""fullscreenenter"",""1"",""9815""
","
","","","","","","null","<div style=""font-size:60px;"">+</div>","null","","fixation","","","","","","","","",""
"memory-trial","186","480738","0.0-15.0-1.71","1738","2","""event"",""trial"",""time""
""fullscreenenter"",""1"",""9815""
","
","
","""event"",""trial"",""time""
""fullscreenenter"",""1"",""9815""
","
","","","","","","1977.5","images/boat3.png","","","memory_trial","4","definitely_new","","","","","","",""
"html-keyboard-response","187","481243","0.0-15.0-0.72","1738","2","""event"",""trial"",""time""
""fullscreenenter"",""1"",""9815""
","
","
","""event"",""trial"",""time""
""fullscreenenter"",""1"",""9815""
","
","","","","","","null","<div style=""font-size:60px;"">+</div>","null","","fixation","","","","","","","","",""
"memory-trial","188","483334","0.0-15.0-1.72","1738","2","""event"",""trial"",""time""
""fullscreenenter"",""1"",""9815""
","
","
","""event"",""trial"",""time""
""fullscreenenter"",""1"",""9815""
","
","","","","","","1086.300000011921","images/feline5.png","","","memory_trial","1","definitely_old","","","","","","",""
"html-keyboard-response","189","483839","0.0-15.0-0.73","1738","2","""event"",""trial"",""time""
""fullscreenenter"",""1"",""9815""
","
","
","""event"",""trial"",""time""
""fullscreenenter"",""1"",""9815""
","
","","","","","","null","<div style=""font-size:60px;"">+</div>","null","","fixation","","","","","","","","",""
"memory-trial","190","486369","0.0-15.0-1.73","1738","2","""event"",""trial"",""time""
""fullscreenenter"",""1"",""9815""
","
","
","""event"",""trial"",""time""
""fullscreenenter"",""1"",""9815""
","
","","","","","","1526.699999988079","images/orange1.png","","","memory_trial","4","definitely_new","","","","","","",""
"html-keyboard-response","191","486874","0.0-15.0-0.74","1738","2","""event"",""trial"",""time""
""fullscreenenter"",""1"",""9815""
","
","
","""event"",""trial"",""time""
""fullscreenenter"",""1"",""9815""
","
","","","","","","null","<div style=""font-size:60px;"">+</div>","null","","fixation","","","","","","","","",""
"memory-trial","192","490602","0.0-15.0-1.74","1738","2","""event"",""trial"",""time""
""fullscreenenter"",""1"",""9815""
","
","
","""event"",""trial"",""time""
""fullscreenenter"",""1"",""9815""
","
","","","","","","2724.699999988079","images/sheep3.png","","","memory_trial","4","definitely_new","","","","","","",""
"html-keyboard-response","193","491105","0.0-15.0-0.75","1738","2","""event"",""trial"",""time""
""fullscreenenter"",""1"",""9815""
","
","
","""event"",""trial"",""time""
""fullscreenenter"",""1"",""9815""
","
","","","","","","null","<div style=""font-size:60px;"">+</div>","null","","fixation","","","","","","","","",""
"memory-trial","194","494863","0.0-15.0-1.75","1738","2","""event"",""trial"",""time""
""fullscreenenter"",""1"",""9815""
","
","
","""event"",""trial"",""time""
""fullscreenenter"",""1"",""9815""
","
","","","","","","2753","images/plane4.png","","","memory_trial","3","maybe_new","","","","","","",""
"html-keyboard-response","195","495365","0.0-15.0-0.76","1738","2","""event"",""trial"",""time""
""fullscreenenter"",""1"",""9815""
","
","
","""event"",""trial"",""time""
""fullscreenenter"",""1"",""9815""
","
","","","","","","null","<div style=""font-size:60px;"">+</div>","null","","fixation","","","","","","","","",""
"memory-trial","196","497723","0.0-15.0-1.76","1738","2","""event"",""trial"",""time""
""fullscreenenter"",""1"",""9815""
","
","
","""event"",""trial"",""time""
""fullscreenenter"",""1"",""9815""
","
","","","","","","1353","images/banana2.png","","","memory_trial","4","definitely_new","","","","","","",""
"html-keyboard-response","197","498229","0.0-15.0-0.77","1738","2","""event"",""trial"",""time""
""fullscreenenter"",""1"",""9815""
","
","
","""event"",""trial"",""time""
""fullscreenenter"",""1"",""9815""
","
","","","","","","null","<div style=""font-size:60px;"">+</div>","null","","fixation","","","","","","","","",""
"memory-trial","198","501085","0.0-15.0-1.77","1738","2","""event"",""trial"",""time""
""fullscreenenter"",""1"",""9815""
","
","
","""event"",""trial"",""time""
""fullscreenenter"",""1"",""9815""
","
","","","","","","1851","images/table4.png","","","memory_trial","3","maybe_new","","","","","","",""
"html-keyboard-response","199","501589","0.0-15.0-0.78","1738","2","""event"",""trial"",""time""
""fullscreenenter"",""1"",""9815""
","
","
","""event"",""trial"",""time""
""fullscreenenter"",""1"",""9815""
","
","","","","","","null","<div style=""font-size:60px;"">+</div>","null","","fixation","","","","","","","","",""
"memory-trial","200","505339","0.0-15.0-1.78","1738","2","""event"",""trial"",""time""
""fullscreenenter"",""1"",""9815""
","
","
","""event"",""trial"",""time""
""fullscreenenter"",""1"",""9815""
","
","","","","","","2742.400000035763","images/horse3.png","","","memory_trial","3","maybe_new","","","","","","",""
"html-keyboard-response","201","505845","0.0-15.0-0.79","1738","2","""event"",""trial"",""time""
""fullscreenenter"",""1"",""9815""
","
","
","""event"",""trial"",""time""
""fullscreenenter"",""1"",""9815""
","
","","","","","","null","<div style=""font-size:60px;"">+</div>","null","","fixation","","","","","","","","",""
"memory-trial","202","507911","0.0-15.0-1.79","1738","2","""event"",""trial"",""time""
""fullscreenenter"",""1"",""9815""
","
","
","""event"",""trial"",""time""
""fullscreenenter"",""1"",""9815""
","
","","","","","","1061.800000011921","images/tree3.png","","","memory_trial","3","maybe_new","","","","","","",""
"html-keyboard-response","203","508416","0.0-15.0-0.80","1738","2","""event"",""trial"",""time""
""fullscreenenter"",""1"",""9815""
","
","
","""event"",""trial"",""time""
""fullscreenenter"",""1"",""9815""
","
","","","","","","null","<div style=""font-size:60px;"">+</div>","null","","fixation","","","","","","","","",""
"memory-trial","204","510506","0.0-15.0-1.80","1738","2","""event"",""trial"",""time""
""fullscreenenter"",""1"",""9815""
","
","
","""event"",""trial"",""time""
""fullscreenenter"",""1"",""9815""
","
","","","","","","1082.300000011921","images/cow2.png","","","memory_trial","1","definitely_old","","","","","","",""
"html-keyboard-response","205","511011","0.0-15.0-0.81","1738","2","""event"",""trial"",""time""
""fullscreenenter"",""1"",""9815""
","
","
","""event"",""trial"",""time""
""fullscreenenter"",""1"",""9815""
","
","","","","","","null","<div style=""font-size:60px;"">+</div>","null","","fixation","","","","","","","","",""
"memory-trial","206","513591","0.0-15.0-1.81","1738","2","""event"",""trial"",""time""
""fullscreenenter"",""1"",""9815""
","
","
","""event"",""trial"",""time""
""fullscreenenter"",""1"",""9815""
","
","","","","","","1575","images/chair4.png","","","memory_trial","4","definitely_new","","","","","","",""
"html-keyboard-response","207","514096","0.0-15.0-0.82","1738","2","""event"",""trial"",""time""
""fullscreenenter"",""1"",""9815""
","
","
","""event"",""trial"",""time""
""fullscreenenter"",""1"",""9815""
","
","","","","","","null","<div style=""font-size:60px;"">+</div>","null","","fixation","","","","","","","","",""
"memory-trial","208","516981","0.0-15.0-1.82","1738","2","""event"",""trial"",""time""
""fullscreenenter"",""1"",""9815""
","
","
","""event"",""trial"",""time""
""fullscreenenter"",""1"",""9815""
","
","","","","","","1882.4000000357628","images/bed1.png","","","memory_trial","2","maybe_old","","","","","","",""
"html-keyboard-response","209","517484","0.0-15.0-0.83","1738","2","""event"",""trial"",""time""
""fullscreenenter"",""1"",""9815""
","
","
","""event"",""trial"",""time""
""fullscreenenter"",""1"",""9815""
","
","","","","","","null","<div style=""font-size:60px;"">+</div>","null","","fixation","","","","","","","","",""
"memory-trial","210","521568","0.0-15.0-1.83","1738","2","""event"",""trial"",""time""
""fullscreenenter"",""1"",""9815""
","
","
","""event"",""trial"",""time""
""fullscreenenter"",""1"",""9815""
","
","","","","","","3077.800000011921","images/chair2.png","","","memory_trial","3","maybe_new","","","","","","",""
"html-keyboard-response","211","522070","0.0-15.0-0.84","1738","2","""event"",""trial"",""time""
""fullscreenenter"",""1"",""9815""
","
","
","""event"",""trial"",""time""
""fullscreenenter"",""1"",""9815""
","
","","","","","","null","<div style=""font-size:60px;"">+</div>","null","","fixation","","","","","","","","",""
"memory-trial","212","524864","0.0-15.0-1.84","1738","2","""event"",""trial"",""time""
""fullscreenenter"",""1"",""9815""
","
","
","""event"",""trial"",""time""
""fullscreenenter"",""1"",""9815""
","
","","","","","","1787.800000011921","images/sofa3.png","","","memory_trial","3","maybe_new","","","","","","",""
"html-keyboard-response","213","525366","0.0-15.0-0.85","1738","2","""event"",""trial"",""time""
""fullscreenenter"",""1"",""9815""
","
","
","""event"",""trial"",""time""
""fullscreenenter"",""1"",""9815""
","
","","","","","","null","<div style=""font-size:60px;"">+</div>","null","","fixation","","","","","","","","",""
"memory-trial","214","529206","0.0-15.0-1.85","1738","2","""event"",""trial"",""time""
""fullscreenenter"",""1"",""9815""
","
","
","""event"",""trial"",""time""
""fullscreenenter"",""1"",""9815""
","
","","","","","","2836.400000035763","images/horse2.png","","","memory_trial","2","maybe_old","","","","","","",""
"html-keyboard-response","215","529709","0.0-15.0-0.86","1738","2","""event"",""trial"",""time""
""fullscreenenter"",""1"",""9815""
","
","
","""event"",""trial"",""time""
""fullscreenenter"",""1"",""9815""
","
","","","","","","null","<div style=""font-size:60px;"">+</div>","null","","fixation","","","","","","","","",""
"memory-trial","216","532786","0.0-15.0-1.86","1738","2","""event"",""trial"",""time""
""fullscreenenter"",""1"",""9815""
","
","
","""event"",""trial"",""time""
""fullscreenenter"",""1"",""9815""
","
","","","","","","2069.199999988079","images/flower3.png","","","memory_trial","3","maybe_new","","","","","","",""
"html-keyboard-response","217","533291","0.0-15.0-0.87","1738","2","""event"",""trial"",""time""
""fullscreenenter"",""1"",""9815""
","
","
","""event"",""trial"",""time""
""fullscreenenter"",""1"",""9815""
","
","","","","","","null","<div style=""font-size:60px;"">+</div>","null","","fixation","","","","","","","","",""
"memory-trial","218","536614","0.0-15.0-1.87","1738","2","""event"",""trial"",""time""
""fullscreenenter"",""1"",""9815""
","
","
","""event"",""trial"",""time""
""fullscreenenter"",""1"",""9815""
","
","","","","","","2316.599999964237","images/rodent1.png","","","memory_trial","2","maybe_old","","","","","","",""
"html-keyboard-response","219","537116","0.0-15.0-0.88","1738","2","""event"",""trial"",""time""
""fullscreenenter"",""1"",""9815""
","
","
","""event"",""trial"",""time""
""fullscreenenter"",""1"",""9815""
","
","","","","","","null","<div style=""font-size:60px;"">+</div>","null","","fixation","","","","","","","","",""
"memory-trial","220","539836","0.0-15.0-1.88","1738","2","""event"",""trial"",""time""
""fullscreenenter"",""1"",""9815""
","
","
","""event"",""trial"",""time""
""fullscreenenter"",""1"",""9815""
","
","","","","","","1714.300000011921","images/goat2.png","","","memory_trial","3","maybe_new","","","","","","",""
"html-keyboard-response","221","540342","0.0-15.0-0.89","1738","2","""event"",""trial"",""time""
""fullscreenenter"",""1"",""9815""
","
","
","""event"",""trial"",""time""
""fullscreenenter"",""1"",""9815""
","
","","","","","","null","<div style=""font-size:60px;"">+</div>","null","","fixation","","","","","","","","",""
"memory-trial","222","542725","0.0-15.0-1.89","1738","2","""event"",""trial"",""time""
""fullscreenenter"",""1"",""9815""
","
","
","""event"",""trial"",""time""
""fullscreenenter"",""1"",""9815""
","
","","","","","","1377.3999999761581","images/train2.png","","","memory_trial","3","maybe_new","","","","","","",""
"html-keyboard-response","223","543231","0.0-15.0-0.90","1738","2","""event"",""trial"",""time""
""fullscreenenter"",""1"",""9815""
","
","
","""event"",""trial"",""time""
""fullscreenenter"",""1"",""9815""
","
","","","","","","null","<div style=""font-size:60px;"">+</div>","null","","fixation","","","","","","","","",""
"memory-trial","224","546095","0.0-15.0-1.90","1738","2","""event"",""trial"",""time""
""fullscreenenter"",""1"",""9815""
","
","
","""event"",""trial"",""time""
""fullscreenenter"",""1"",""9815""
","
","","","","","","1858","images/goat4.png","","","memory_trial","2","maybe_old","","","","","","",""
"html-keyboard-response","225","546601","0.0-15.0-0.91","1738","2","""event"",""trial"",""time""
""fullscreenenter"",""1"",""9815""
","
","
","""event"",""trial"",""time""
""fullscreenenter"",""1"",""9815""
","
","","","","","","null","<div style=""font-size:60px;"">+</div>","null","","fixation","","","","","","","","",""
"memory-trial","226","548925","0.0-15.0-1.91","1738","2","""event"",""trial"",""time""
""fullscreenenter"",""1"",""9815""
","
","
","""event"",""trial"",""time""
""fullscreenenter"",""1"",""9815""
","
","","","","","","1315.8999999761581","images/straw5.png","","","memory_trial","4","definitely_new","","","","","","",""
"html-keyboard-response","227","549430","0.0-15.0-0.92","1738","2","""event"",""trial"",""time""
""fullscreenenter"",""1"",""9815""
","
","
","""event"",""trial"",""time""
""fullscreenenter"",""1"",""9815""
","
","","","","","","null","<div style=""font-size:60px;"">+</div>","null","","fixation","","","","","","","","",""
"memory-trial","228","551264","0.0-15.0-1.92","1738","2","""event"",""trial"",""time""
""fullscreenenter"",""1"",""9815""
","
","
","""event"",""trial"",""time""
""fullscreenenter"",""1"",""9815""
","
","","","","","","830.6999999880791","images/orange2.png","","","memory_trial","4","definitely_new","","","","","","",""
"html-keyboard-response","229","551768","0.0-15.0-0.93","1738","2","""event"",""trial"",""time""
""fullscreenenter"",""1"",""9815""
","
","
","""event"",""trial"",""time""
""fullscreenenter"",""1"",""9815""
","
","","","","","","null","<div style=""font-size:60px;"">+</div>","null","","fixation","","","","","","","","",""
"memory-trial","230","554807","0.0-15.0-1.93","1738","2","""event"",""trial"",""time""
""fullscreenenter"",""1"",""9815""
","
","
","""event"",""trial"",""time""
""fullscreenenter"",""1"",""9815""
","
","","","","","","2032.1000000238419","images/banana5.png","","","memory_trial","2","maybe_old","","","","","","",""
"html-keyboard-response","231","555312","0.0-15.0-0.94","1738","2","""event"",""trial"",""time""
""fullscreenenter"",""1"",""9815""
","
","
","""event"",""trial"",""time""
""fullscreenenter"",""1"",""9815""
","
","","","","","","null","<div style=""font-size:60px;"">+</div>","null","","fixation","","","","","","","","",""
"memory-trial","232","557301","0.0-15.0-1.94","1738","2","""event"",""trial"",""time""
""fullscreenenter"",""1"",""9815""
","
","
","""event"",""trial"",""time""
""fullscreenenter"",""1"",""9815""
","
","","","","","","983.2000000476837","images/straw4.png","","","memory_trial","4","definitely_new","","","","","","",""
"html-keyboard-response","233","557805","0.0-15.0-0.95","1738","2","""event"",""trial"",""time""
""fullscreenenter"",""1"",""9815""
","
","
","""event"",""trial"",""time""
""fullscreenenter"",""1"",""9815""
","
","","","","","","null","<div style=""font-size:60px;"">+</div>","null","","fixation","","","","","","","","",""
"memory-trial","234","562246","0.0-15.0-1.95","1738","2","""event"",""trial"",""time""
""fullscreenenter"",""1"",""9815""
","
","
","""event"",""trial"",""time""
""fullscreenenter"",""1"",""9815""
","
","","","","","","3433.699999988079","images/rabbit2.png","","","memory_trial","3","maybe_new","","","","","","",""
"html-keyboard-response","235","562752","0.0-15.0-0.96","1738","2","""event"",""trial"",""time""
""fullscreenenter"",""1"",""9815""
","
","
","""event"",""trial"",""time""
""fullscreenenter"",""1"",""9815""
","
","","","","","","null","<div style=""font-size:60px;"">+</div>","null","","fixation","","","","","","","","",""
"memory-trial","236","564853","0.0-15.0-1.96","1738","2","""event"",""trial"",""time""
""fullscreenenter"",""1"",""9815""
","
","
","""event"",""trial"",""time""
""fullscreenenter"",""1"",""9815""
","
","","","","","","1094.9000000357628","images/rabbit5.png","","","memory_trial","3","maybe_new","","","","","","",""
"html-keyboard-response","237","565359","0.0-15.0-0.97","1738","2","""event"",""trial"",""time""
""fullscreenenter"",""1"",""9815""
","
","
","""event"",""trial"",""time""
""fullscreenenter"",""1"",""9815""
","
","","","","","","null","<div style=""font-size:60px;"">+</div>","null","","fixation","","","","","","","","",""
"memory-trial","238","567926","0.0-15.0-1.97","1738","2","""event"",""trial"",""time""
""fullscreenenter"",""1"",""9815""
","
","
","""event"",""trial"",""time""
""fullscreenenter"",""1"",""9815""
","
","","","","","","1562","images/table2.png","","","memory_trial","4","definitely_new","","","","","","",""
"html-keyboard-response","239","568429","0.0-15.0-0.98","1738","2","""event"",""trial"",""time""
""fullscreenenter"",""1"",""9815""
","
","
","""event"",""trial"",""time""
""fullscreenenter"",""1"",""9815""
","
","","","","","","null","<div style=""font-size:60px;"">+</div>","null","","fixation","","","","","","","","",""
"memory-trial","240","571708","0.0-15.0-1.98","1738","2","""event"",""trial"",""time""
""fullscreenenter"",""1"",""9815""
","
","
","""event"",""trial"",""time""
""fullscreenenter"",""1"",""9815""
","
","","","","","","2275.099999964237","images/truck2.png","","","memory_trial","2","maybe_old","","","","","","",""
"html-keyboard-response","241","572213","0.0-15.0-0.99","1738","2","""event"",""trial"",""time""
""fullscreenenter"",""1"",""9815""
","
","
","""event"",""trial"",""time""
""fullscreenenter"",""1"",""9815""
","
","","","","","","null","<div style=""font-size:60px;"">+</div>","null","","fixation","","","","","","","","",""
"memory-trial","242","575574","0.0-15.0-1.99","1738","2","""event"",""trial"",""time""
""fullscreenenter"",""1"",""9815""
","
","
","""event"",""trial"",""time""
""fullscreenenter"",""1"",""9815""
","
","","","","","","2354.5","images/horse4.png","","","memory_trial","2","maybe_old","","","","","","",""
"html-keyboard-response","243","576080","0.0-15.0-0.100","1738","2","""event"",""trial"",""time""
""fullscreenenter"",""1"",""9815""
","
","
","""event"",""trial"",""time""
""fullscreenenter"",""1"",""9815""
","
","","","","","","null","<div style=""font-size:60px;"">+</div>","null","","fixation","","","","","","","","",""
"memory-trial","244","578870","0.0-15.0-1.100","1738","2","""event"",""trial"",""time""
""fullscreenenter"",""1"",""9815""
","
","
","""event"",""trial"",""time""
""fullscreenenter"",""1"",""9815""
","
","","","","","","1785.0999999642372","images/banana3.png","","","memory_trial","4","definitely_new","","","","","","",""
"html-keyboard-response","245","579374","0.0-15.0-0.101","1738","2","""event"",""trial"",""time""
""fullscreenenter"",""1"",""9815""
","
","
","""event"",""trial"",""time""
""fullscreenenter"",""1"",""9815""
","
","","","","","","null","<div style=""font-size:60px;"">+</div>","null","","fixation","","","","","","","","",""
"memory-trial","246","581146","0.0-15.0-1.101","1738","2","""event"",""trial"",""time""
""fullscreenenter"",""1"",""9815""
","
","
","""event"",""trial"",""time""
""fullscreenenter"",""1"",""9815""
","
","","","","","","765.1000000238419","images/straw2.png","","","memory_trial","4","definitely_new","","","","","","",""
"html-button-response","247","582646","0.0-15.0-2.101-0.101","1738","2","""event"",""trial"",""time""
""fullscreenenter"",""1"",""9815""
","
","
","""event"",""trial"",""time""
""fullscreenenter"",""1"",""9815""
","
","","","","","","1498.3999999761581","<p> Take a break! </p><p> Click the button to continue. </p>","0","","break","","","","","","","","",""
"html-keyboard-response","248","583150","0.0-15.0-0.102","1738","2","""event"",""trial"",""time""
""fullscreenenter"",""1"",""9815""
","
","
","""event"",""trial"",""time""
""fullscreenenter"",""1"",""9815""
","
","","","","","","null","<div style=""font-size:60px;"">+</div>","null","","fixation","","","","","","","","",""
"memory-trial","249","585483","0.0-15.0-1.102","1738","2","""event"",""trial"",""time""
""fullscreenenter"",""1"",""9815""
","
","
","""event"",""trial"",""time""
""fullscreenenter"",""1"",""9815""
","
","","","","","","1328","images/apple1.png","","","memory_trial","3","maybe_new","","","","","","",""
"html-keyboard-response","250","585985","0.0-15.0-0.103","1738","2","""event"",""trial"",""time""
""fullscreenenter"",""1"",""9815""
","
","
","""event"",""trial"",""time""
""fullscreenenter"",""1"",""9815""
","
","","","","","","null","<div style=""font-size:60px;"">+</div>","null","","fixation","","","","","","","","",""
"memory-trial","251","587906","0.0-15.0-1.103","1738","2","""event"",""trial"",""time""
""fullscreenenter"",""1"",""9815""
","
","
","""event"",""trial"",""time""
""fullscreenenter"",""1"",""9815""
","
","","","","","","916.2000000476837","images/flower5.png","","","memory_trial","3","maybe_new","","","","","","",""
"html-keyboard-response","252","588411","0.0-15.0-0.104","1738","2","""event"",""trial"",""time""
""fullscreenenter"",""1"",""9815""
","
","
","""event"",""trial"",""time""
""fullscreenenter"",""1"",""9815""
","
","","","","","","null","<div style=""font-size:60px;"">+</div>","null","","fixation","","","","","","","","",""
"memory-trial","253","590827","0.0-15.0-1.104","1738","2","""event"",""trial"",""time""
""fullscreenenter"",""1"",""9815""
","
","
","""event"",""trial"",""time""
""fullscreenenter"",""1"",""9815""
","
","","","","","","1408.6000000238419","images/feline4.png","","","memory_trial","3","maybe_new","","","","","","",""
"html-keyboard-response","254","591329","0.0-15.0-0.105","1738","2","""event"",""trial"",""time""
""fullscreenenter"",""1"",""9815""
","
","
","""event"",""trial"",""time""
""fullscreenenter"",""1"",""9815""
","
","","","","","","null","<div style=""font-size:60px;"">+</div>","null","","fixation","","","","","","","","",""
"memory-trial","255","593409","0.0-15.0-1.105","1738","2","""event"",""trial"",""time""
""fullscreenenter"",""1"",""9815""
","
","
","""event"",""trial"",""time""
""fullscreenenter"",""1"",""9815""
","
","","","","","","1075.199999988079","images/straw1.png","","","memory_trial","4","definitely_new","","","","","","",""
"html-keyboard-response","256","593913","0.0-15.0-0.106","1738","2","""event"",""trial"",""time""
""fullscreenenter"",""1"",""9815""
","
","
","""event"",""trial"",""time""
""fullscreenenter"",""1"",""9815""
","
","","","","","","null","<div style=""font-size:60px;"">+</div>","null","","fixation","","","","","","","","",""
"memory-trial","257","597585","0.0-15.0-1.106","1738","2","""event"",""trial"",""time""
""fullscreenenter"",""1"",""9815""
","
","
","""event"",""trial"",""time""
""fullscreenenter"",""1"",""9815""
","
","","","","","","2666.199999988079","images/dog1.png","","","memory_trial","4","definitely_new","","","","","","",""
"html-keyboard-response","258","598087","0.0-15.0-0.107","1738","2","""event"",""trial"",""time""
""fullscreenenter"",""1"",""9815""
","
","
","""event"",""trial"",""time""
""fullscreenenter"",""1"",""9815""
","
","","","","","","null","<div style=""font-size:60px;"">+</div>","null","","fixation","","","","","","","","",""
"memory-trial","259","600110","0.0-15.0-1.107","1738","2","""event"",""trial"",""time""
""fullscreenenter"",""1"",""9815""
","
","
","""event"",""trial"",""time""
""fullscreenenter"",""1"",""9815""
","
","","","","","","1020.5","images/sofa2.png","","","memory_trial","4","definitely_new","","","","","","",""
"html-keyboard-response","260","600612","0.0-15.0-0.108","1738","2","""event"",""trial"",""time""
""fullscreenenter"",""1"",""9815""
","
","
","""event"",""trial"",""time""
""fullscreenenter"",""1"",""9815""
","
","","","","","","null","<div style=""font-size:60px;"">+</div>","null","","fixation","","","","","","","","",""
"memory-trial","261","603163","0.0-15.0-1.108","1738","2","""event"",""trial"",""time""
""fullscreenenter"",""1"",""9815""
","
","
","""event"",""trial"",""time""
""fullscreenenter"",""1"",""9815""
","
","","","","","","1544","images/cow5.png","","","memory_trial","4","definitely_new","","","","","","",""
"html-keyboard-response","262","603666","0.0-15.0-0.109","1738","2","""event"",""trial"",""time""
""fullscreenenter"",""1"",""9815""
","
","
","""event"",""trial"",""time""
""fullscreenenter"",""1"",""9815""
","
","","","","","","null","<div style=""font-size:60px;"">+</div>","null","","fixation","","","","","","","","",""
"memory-trial","263","606111","0.0-15.0-1.109","1738","2","""event"",""trial"",""time""
""fullscreenenter"",""1"",""9815""
","
","
","""event"",""trial"",""time""
""fullscreenenter"",""1"",""9815""
","
","","","","","","1437.699999988079","images/tree5.png","","","memory_trial","3","maybe_new","","","","","","",""
"html-keyboard-response","264","606616","0.0-15.0-0.110","1738","2","""event"",""trial"",""time""
""fullscreenenter"",""1"",""9815""
","
","
","""event"",""trial"",""time""
""fullscreenenter"",""1"",""9815""
","
","","","","","","null","<div style=""font-size:60px;"">+</div>","null","","fixation","","","","","","","","",""
"memory-trial","265","608617","0.0-15.0-1.110","1738","2","""event"",""trial"",""time""
""fullscreenenter"",""1"",""9815""
","
","
","""event"",""trial"",""time""
""fullscreenenter"",""1"",""9815""
","
","","","","","","994.2999999523163","images/boat2.png","","","memory_trial","4","definitely_new","","","","","","",""
"html-keyboard-response","266","609122","0.0-15.0-0.111","1738","2","""event"",""trial"",""time""
""fullscreenenter"",""1"",""9815""
","
","
","""event"",""trial"",""time""
""fullscreenenter"",""1"",""9815""
","
","","","","","","null","<div style=""font-size:60px;"">+</div>","null","","fixation","","","","","","","","",""
"memory-trial","267","611346","0.0-15.0-1.111","1738","2","""event"",""trial"",""time""
""fullscreenenter"",""1"",""9815""
","
","
","""event"",""trial"",""time""
""fullscreenenter"",""1"",""9815""
","
","","","","","","1220.7999999523163","images/goat5.png","","","memory_trial","2","maybe_old","","","","","","",""
"html-keyboard-response","268","611851","0.0-15.0-0.112","1738","2","""event"",""trial"",""time""
""fullscreenenter"",""1"",""9815""
","
","
","""event"",""trial"",""time""
""fullscreenenter"",""1"",""9815""
","
","","","","","","null","<div style=""font-size:60px;"">+</div>","null","","fixation","","","","","","","","",""
"memory-trial","269","614888","0.0-15.0-1.112","1738","2","""event"",""trial"",""time""
""fullscreenenter"",""1"",""9815""
","
","
","""event"",""trial"",""time""
""fullscreenenter"",""1"",""9815""
","
","","","","","","2030.199999988079","images/table1.png","","","memory_trial","1","definitely_old","","","","","","",""
"html-keyboard-response","270","615393","0.0-15.0-0.113","1738","2","""event"",""trial"",""time""
""fullscreenenter"",""1"",""9815""
","
","
","""event"",""trial"",""time""
""fullscreenenter"",""1"",""9815""
","
","","","","","","null","<div style=""font-size:60px;"">+</div>","null","","fixation","","","","","","","","",""
"memory-trial","271","618002","0.0-15.0-1.113","1738","2","""event"",""trial"",""time""
""fullscreenenter"",""1"",""9815""
","
","
","""event"",""trial"",""time""
""fullscreenenter"",""1"",""9815""
","
","","","","","","1602","images/sheep2.png","","","memory_trial","2","maybe_old","","","","","","",""
"html-keyboard-response","272","618507","0.0-15.0-0.114","1738","2","""event"",""trial"",""time""
""fullscreenenter"",""1"",""9815""
","
","
","""event"",""trial"",""time""
""fullscreenenter"",""1"",""9815""
","
","","","","","","null","<div style=""font-size:60px;"">+</div>","null","","fixation","","","","","","","","",""
"memory-trial","273","622235","0.0-15.0-1.114","1738","2","""event"",""trial"",""time""
""fullscreenenter"",""1"",""9815""
","
","
","""event"",""trial"",""time""
""fullscreenenter"",""1"",""9815""
","
","","","","","","2721","images/bush1.png","","","memory_trial","3","maybe_new","","","","","","",""
"html-keyboard-response","274","622740","0.0-15.0-0.115","1738","2","""event"",""trial"",""time""
""fullscreenenter"",""1"",""9815""
","
","
","""event"",""trial"",""time""
""fullscreenenter"",""1"",""9815""
","
","","","","","","null","<div style=""font-size:60px;"">+</div>","null","","fixation","","","","","","","","",""
"memory-trial","275","626017","0.0-15.0-1.115","1738","2","""event"",""trial"",""time""
""fullscreenenter"",""1"",""9815""
","
","
","""event"",""trial"",""time""
""fullscreenenter"",""1"",""9815""
","
","","","","","","2268.7999999523163","images/train5.png","","","memory_trial","2","maybe_old","","","","","","",""
"html-keyboard-response","276","626519","0.0-15.0-0.116","1738","2","""event"",""trial"",""time""
""fullscreenenter"",""1"",""9815""
","
","
","""event"",""trial"",""time""
""fullscreenenter"",""1"",""9815""
","
","","","","","","null","<div style=""font-size:60px;"">+</div>","null","","fixation","","","","","","","","",""
"memory-trial","277","629228","0.0-15.0-1.116","1738","2","""event"",""trial"",""time""
""fullscreenenter"",""1"",""9815""
","
","
","""event"",""trial"",""time""
""fullscreenenter"",""1"",""9815""
","
","","","","","","1701.4000000357628","images/bed2.png","","","memory_trial","2","maybe_old","","","","","","",""
"html-keyboard-response","278","629734","0.0-15.0-0.117","1738","2","""event"",""trial"",""time""
""fullscreenenter"",""1"",""9815""
","
","
","""event"",""trial"",""time""
""fullscreenenter"",""1"",""9815""
","
","","","","","","null","<div style=""font-size:60px;"">+</div>","null","","fixation","","","","","","","","",""
"memory-trial","279","634277","0.0-15.0-1.117","1738","2","""event"",""trial"",""time""
""fullscreenenter"",""1"",""9815""
","
","
","""event"",""trial"",""time""
""fullscreenenter"",""1"",""9815""
","
","","","","","","3534.800000011921","images/rabbit3.png","","","memory_trial","3","maybe_new","","","","","","",""
"html-keyboard-response","280","634782","0.0-15.0-0.118","1738","2","""event"",""trial"",""time""
""fullscreenenter"",""1"",""9815""
","
","
","""event"",""trial"",""time""
""fullscreenenter"",""1"",""9815""
","
","","","","","","null","<div style=""font-size:60px;"">+</div>","null","","fixation","","","","","","","","",""
"memory-trial","281","637284","0.0-15.0-1.118","1738","2","""event"",""trial"",""time""
""fullscreenenter"",""1"",""9815""
","
","
","""event"",""trial"",""time""
""fullscreenenter"",""1"",""9815""
","
","","","","","","1493.9000000357628","images/train3.png","","","memory_trial","2","maybe_old","","","","","","",""
"html-keyboard-response","282","637790","0.0-15.0-0.119","1738","2","""event"",""trial"",""time""
""fullscreenenter"",""1"",""9815""
","
","
","""event"",""trial"",""time""
""fullscreenenter"",""1"",""9815""
","
","","","","","","null","<div style=""font-size:60px;"">+</div>","null","","fixation","","","","","","","","",""
"memory-trial","283","640449","0.0-15.0-1.119","1738","2","""event"",""trial"",""time""
""fullscreenenter"",""1"",""9815""
","
","
","""event"",""trial"",""time""
""fullscreenenter"",""1"",""9815""
","
","","","","","","1654.199999988079","images/boat1.png","","","memory_trial","3","maybe_new","","","","","","",""
"preload","284","663288","0.0-16.0","1738","2","""event"",""trial"",""time""
""fullscreenenter"",""1"",""9815""
","
","
","""event"",""trial"",""time""
""fullscreenenter"",""1"",""9815""
","
","true","false","[]","[]","[]","","","","","","","","","","","","","",""
"learning-instructions","285","669023","0.0-17.0-0.0-0.0-0.0","1738","2","""event"",""trial"",""time""
""fullscreenenter"",""1"",""9815""
","
","
","""event"",""trial"",""time""
""fullscreenenter"",""1"",""9815""
","
","","","","","","2207.800000011921","<p> We're now going to ask you to feed your pets again. </p>","","0","instructions","","","","","","","","",""
"learning-instructions","286","675897","0.0-17.0-0.0-0.0-0.1","1738","2","""event"",""trial"",""time""
""fullscreenenter"",""1"",""9815""
","
","
","""event"",""trial"",""time""
""fullscreenenter"",""1"",""9815""
","
","","","","","","729.3000000119209","<p> On each trial, you will see a pet. Select the food that you think is most likely to make the pet happy. </p>","","0","instructions","","","","","","","","",""
"learning-instructions","287","683479","0.0-17.0-0.0-0.0-0.2","1738","2","""event"",""trial"",""time""
""fullscreenenter"",""1"",""9815""
","
","
","""event"",""trial"",""time""
""fullscreenenter"",""1"",""9815""
","
","","","","","","519.3000000119209","<p> To make your selection, think about what you learned last week. You will NOT receive any feedback about your choice. </p>","","0","instructions","","","","","","","","",""
"learning-instructions","288","692021","0.0-17.0-0.0-0.0-0.3","1738","2","""event"",""trial"",""time""
""fullscreenenter"",""1"",""9815""
","
","
","""event"",""trial"",""time""
""fullscreenenter"",""1"",""9815""
","
","","","","","","915.5","<p> You should use the 1 key to select the food on the left, the 2 key to select the food in the middle, and the 3 key to select the food on the right. </p><br><div class=""choice-mem-instructions-grid""> <div class=""choice-mem-option""><img src=""images/pets_choice1.png"" class=""choice-mem-option-img"" stage=""instructions"" position=""0"" ><div class=""choice-mem-option-text""> Press ""1."" </div></div><div class=""choice-mem-option""><img src=""images/pets_choice2.png"" class=""choice-mem-option-img"" stage=""instructions"" position=""1"" ><div class=""choice-mem-option-text""> Press ""2."" </div></div><div class=""choice-mem-option""><img src=""images/pets_choice3.png"" class=""choice-mem-option-img"" stage=""instructions"" position=""2"" ><div class=""choice-mem-option-text""> Press ""3."" </div></div></div>","","0","instructions","","","","","","","","",""
"learning-instructions","289","698805","0.0-17.0-0.0-0.0-0.4","1738","2","""event"",""trial"",""time""
""fullscreenenter"",""1"",""9815""
","
","
","""event"",""trial"",""time""
""fullscreenenter"",""1"",""9815""
","
","","","","","","516.1000000238419","<p> You will have 10 seconds to make each selection. Try to respond before time runs out! </p>","","0","instructions","","","","","","","","",""
"learning-instructions","290","702186","0.0-17.0-0.0-1.0","1738","2","""event"",""trial"",""time""
""fullscreenenter"",""1"",""9815""
","
","
","""event"",""trial"",""time""
""fullscreenenter"",""1"",""9815""
","
","","","","","","1320.5","<p> You are now ready to begin the game. </p>","","0","instructions","","","","","","","","",""
"html-keyboard-response","291","702794","0.0-17.0-0.0-2.0-0.0","1738","2","""event"",""trial"",""time""
""fullscreenenter"",""1"",""9815""
","
","
","""event"",""trial"",""time""
""fullscreenenter"",""1"",""9815""
","
","","","","","","null","<div style=""font-size:60px;"">+</div>","null","","fixation","","","","","","","","",""
"choice-memory-trial","292","705447","0.0-17.0-0.0-2.0-1.0","1738","2","""event"",""trial"",""time""
""fullscreenenter"",""1"",""9815""
","
","
","""event"",""trial"",""time""
""fullscreenenter"",""1"",""9815""
","
