"trial_type","trial_index","time_elapsed","internal_node_id","subject_id","task_version","interactions","blur_events","focus_events","fullscreenenter_events","fullscreenexit_events","success","timeout","failed_images","failed_audio","failed_video","rt","stimulus","response","button_pressed","task_part","key_press","answer","correct","left_choice","middle_choice","right_choice","choice_positions","option_selected","block"
"pavlovia","0","7","0.0-0.0","1911","2","""event"",""trial"",""time""
""fullscreenenter"",""1"",""2174""
","
","
","""event"",""trial"",""time""
""fullscreenenter"",""1"",""2174""
","
","","","","","","","","","","","","","","","","","","",""
"fullscreen","1","3164","0.0-1.0","1911","2","""event"",""trial"",""time""
""fullscreenenter"",""1"",""2174""
","
","
","""event"",""trial"",""time""
""fullscreenenter"",""1"",""2174""
","
","true","","","","","","","","","","","","","","","","","",""
"preload","2","3925","0.0-2.0","1911","2","""event"",""trial"",""time""
""fullscreenenter"",""1"",""2174""
","
","
","""event"",""trial"",""time""
""fullscreenenter"",""1"",""2174""
","
","true","false","[]","[]","[]","","","","","","","","","","","","","",""
"audio-keyboard-response","3","8053","0.0-3.0","1911","2","""event"",""trial"",""time""
""fullscreenenter"",""1"",""2174""
","
","
","""event"",""trial"",""time""
""fullscreenenter"",""1"",""2174""
","
","","","","","","4120","audio/beep_loop.wav"," ","","","","","","","","","","",""
"audio-button-response","4","9915","0.0-4.0","1911","2","""event"",""trial"",""time""
""fullscreenenter"",""1"",""2174""
","
","
","""event"",""trial"",""time""
""fullscreenenter"",""1"",""2174""
","
","","","","","","1861","audio/turtle.wav","3","","","","","","","","","","",""
"audio-button-response","5","11886","0.0-5.0","1911","2","""event"",""trial"",""time""
""fullscreenenter"",""1"",""2174""
","
","
","""event"",""trial"",""time""
""fullscreenenter"",""1"",""2174""
","
","","","","","","968","audio/shark.wav","2","","","","","","","","","","",""
"preload","6","14486","0.0-6.0","1911","2","""event"",""trial"",""time""
""fullscreenenter"",""1"",""2174""
","
","
","""event"",""trial"",""time""
""fullscreenenter"",""1"",""2174""
","
","true","false","[]","[]","[]","","","","","","","","","","","","","",""
"learning-instructions","7","24837","0.0-7.0-0.0","1911","2","""event"",""trial"",""time""
""fullscreenenter"",""1"",""2174""
","
","
","""event"",""trial"",""time""
""fullscreenenter"",""1"",""2174""
","
","","","","","","5542.5","<p> Welcome back! </p><p> Last week, you had to make choices about lots of different items.  </p>","","0","instructions","","","","","","","","",""
"learning-instructions","8","43672","0.0-7.0-0.1","1911","2","""event"",""trial"",""time""
""fullscreenenter"",""1"",""2174""
","
","
","""event"",""trial"",""time""
""fullscreenenter"",""1"",""2174""
","
","","","","","","14536.5","<p> Today, we are going to ask you to try to remember all the items. </p>","","0","instructions","","","","","","","","",""
"learning-instructions","9","56768","0.0-7.0-0.2","1911","2","""event"",""trial"",""time""
""fullscreenenter"",""1"",""2174""
","
","
","""event"",""trial"",""time""
""fullscreenenter"",""1"",""2174""
","
","","","","","","2971.899999999907","<p> On every trial, you will see an image. </p><p> The image may be an OLD image you saw during the games last week or it may be a NEW image that was not presented. </p>","","0","instructions","","","","","","","","",""
"learning-instructions","10","76289","0.0-7.0-0.3","1911","2","""event"",""trial"",""time""
""fullscreenenter"",""1"",""2174""
","
","
","""event"",""trial"",""time""
""fullscreenenter"",""1"",""2174""
","
","","","","","","11022.5","<p> You need to select whether the image is:  </p><p>  'Definitely old', 'Maybe old', 'Maybe new', or 'Definitely new.'  </p><div class=""mem-choice-instructions-grid""><div class=""choice-option"" id=""choice-option-1"" ><img src=""images/definitely_old_1.png"" id=""choice-option-img-1"" class=""choice-option-img"" stage=""1""></div><div class=""choice-option"" id=""choice-option-2"" ><img src=""images/maybe_old_1.png"" id=""choice-option-img-2"" class=""choice-option-img"" stage=""1""></div><div class=""choice-option"" id=""choice-option-3"" ><img src=""images/maybe_new_1.png"" id=""choice-option-img-3"" class=""choice-option-img"" stage=""1""></div><div class=""choice-option"" id=""choice-option-4"" > <img src=""images/definitely_new_1.png"" id=""choice-option-img-4"" class=""choice-option-img"" stage=""1""></div></div>","","0","instructions","","","","","","","","",""
"learning-instructions","11","88478","0.0-7.0-0.4","1911","2","""event"",""trial"",""time""
""fullscreenenter"",""1"",""2174""
","
","
","""event"",""trial"",""time""
""fullscreenenter"",""1"",""2174""
","
","","","","","","5490.899999999907","<p> You should use the 1, 2, 3, and 4 keys to make your responses.  </p><div class=""mem-choice-instructions-grid""><div class=""choice-option"" id=""choice-option-1"" ><img src=""images/definitely_old.png"" id=""choice-option-img-1"" class=""choice-option-img"" stage=""1""></div><div class=""choice-option"" id=""choice-option-2"" ><img src=""images/maybe_old.png"" id=""choice-option-img-2"" class=""choice-option-img"" stage=""1""></div><div class=""choice-option"" id=""choice-option-3"" ><img src=""images/maybe_new.png"" id=""choice-option-img-3"" class=""choice-option-img"" stage=""1""></div><div class=""choice-option"" id=""choice-option-4"" > <img src=""images/definitely_new.png"" id=""choice-option-img-4"" class=""choice-option-img"" stage=""1""></div></div>","","0","instructions","","","","","","","","",""
"learning-instructions","12","96963","0.0-7.0-0.5","1911","2","""event"",""trial"",""time""
""fullscreenenter"",""1"",""2174""
","
","
","""event"",""trial"",""time""
""fullscreenenter"",""1"",""2174""
","
","","","","","","1714.6000000000931","<p> You will have 10 seconds to make each response.  </p><p>  Make sure to respond before time runs out! </p>","","0","instructions","","","","","","","","",""
"learning-instructions","13","106409","0.0-7.0-0.6","1911","2","""event"",""trial"",""time""
""fullscreenenter"",""1"",""2174""
","
","
","""event"",""trial"",""time""
""fullscreenenter"",""1"",""2174""
","
","","","","","","1851.9000000001397","<p> Today, you will see each image ONCE only.  </p><p>  That means none of the images will repeat. </p>","","0","instructions","","","","","","","","",""
"learning-instructions","14","119965","0.0-7.0-0.7","1911","2","""event"",""trial"",""time""
""fullscreenenter"",""1"",""2174""
","
","
","""event"",""trial"",""time""
""fullscreenenter"",""1"",""2174""
","
","","","","","","878.6999999999534","<p> Before you play the real game, it is time to practice. </p><p>  Just like in the real game, some of the images in the practice will be ones you have seen before. </p><p>  Others will be entirely new. </p>","","0","instructions","","","","","","","","",""
"html-button-response","15","121538","0.0-8.0","1911","2","""event"",""trial"",""time""
""fullscreenenter"",""1"",""2174""
","
","
","""event"",""trial"",""time""
""fullscreenenter"",""1"",""2174""
","
","","","","","","1470","<p> Ready to practice? </p><p> Remember, use the 1, 2, 3, and 4 keys to make your responses. </p>","0","","instructions","","","","","","","","",""
"html-keyboard-response","16","122142","0.0-9.0-0.0","1911","2","""event"",""trial"",""time""
""fullscreenenter"",""1"",""2174""
","
","
","""event"",""trial"",""time""
""fullscreenenter"",""1"",""2174""
","
","","","","","","null","<div style=""font-size:60px;"">+</div>","null","","fixation","","","","","","","","",""
"memory-trial","17","126244","0.0-9.0-1.0","1911","2","""event"",""trial"",""time""
""fullscreenenter"",""1"",""2174""
","
","
","""event"",""trial"",""time""
""fullscreenenter"",""1"",""2174""
","
","","","","","","3084.600000000093","images/racket3.png","","","practice","2","maybe_old","","","","","","",""
"html-keyboard-response","18","126755","0.0-9.0-0.1","1911","2","""event"",""trial"",""time""
""fullscreenenter"",""1"",""2174""
","
","
","""event"",""trial"",""time""
""fullscreenenter"",""1"",""2174""
","
","","","","","","null","<div style=""font-size:60px;"">+</div>","null","","fixation","","","","","","","","",""
"memory-trial","19","131280","0.0-9.0-1.1","1911","2","""event"",""trial"",""time""
""fullscreenenter"",""1"",""2174""
","
","
","""event"",""trial"",""time""
""fullscreenenter"",""1"",""2174""
","
","","","","","","3511.899999999907","images/racket2.png","","","practice","1","definitely_old","","","","","","",""
"html-keyboard-response","20","131794","0.0-9.0-0.2","1911","2","""event"",""trial"",""time""
""fullscreenenter"",""1"",""2174""
","
","
","""event"",""trial"",""time""
""fullscreenenter"",""1"",""2174""
","
","","","","","","null","<div style=""font-size:60px;"">+</div>","null","","fixation","","","","","","","","",""
"memory-trial","21","134269","0.0-9.0-1.2","1911","2","""event"",""trial"",""time""
""fullscreenenter"",""1"",""2174""
","
","
","""event"",""trial"",""time""
""fullscreenenter"",""1"",""2174""
","
","","","","","","1468.2999999998137","images/ball4.png","","","practice","3","maybe_new","","","","","","",""
"html-keyboard-response","22","134784","0.0-9.0-0.3","1911","2","""event"",""trial"",""time""
""fullscreenenter"",""1"",""2174""
","
","
","""event"",""trial"",""time""
""fullscreenenter"",""1"",""2174""
","
","","","","","","null","<div style=""font-size:60px;"">+</div>","null","","fixation","","","","","","","","",""
"memory-trial","23","137445","0.0-9.0-1.3","1911","2","""event"",""trial"",""time""
""fullscreenenter"",""1"",""2174""
","
","
","""event"",""trial"",""time""
""fullscreenenter"",""1"",""2174""
","
","","","","","","1652","images/ball3.png","","","practice","3","maybe_new","","","","","","",""
"html-keyboard-response","24","137964","0.0-9.0-0.4","1911","2","""event"",""trial"",""time""
""fullscreenenter"",""1"",""2174""
","
","
","""event"",""trial"",""time""
""fullscreenenter"",""1"",""2174""
","
","","","","","","null","<div style=""font-size:60px;"">+</div>","null","","fixation","","","","","","","","",""
"memory-trial","25","139915","0.0-9.0-1.4","1911","2","""event"",""trial"",""time""
""fullscreenenter"",""1"",""2174""
","
","
","""event"",""trial"",""time""
""fullscreenenter"",""1"",""2174""
","
","","","","","","936.1000000000931","images/ball2.png","","","practice","2","maybe_old","","","","","","",""
"html-keyboard-response","26","140434","0.0-9.0-0.5","1911","2","""event"",""trial"",""time""
""fullscreenenter"",""1"",""2174""
","
","
","""event"",""trial"",""time""
""fullscreenenter"",""1"",""2174""
","
","","","","","","null","<div style=""font-size:60px;"">+</div>","null","","fixation","","","","","","","","",""
"memory-trial","27","142665","0.0-9.0-1.5","1911","2","""event"",""trial"",""time""
""fullscreenenter"",""1"",""2174""
","
","
","""event"",""trial"",""time""
""fullscreenenter"",""1"",""2174""
","
","","","","","","1219.5999999996275","images/racket1.png","","","practice","1","definitely_old","","","","","","",""
"html-keyboard-response","28","143180","0.0-9.0-0.6","1911","2","""event"",""trial"",""time""
""fullscreenenter"",""1"",""2174""
","
","
","""event"",""trial"",""time""
""fullscreenenter"",""1"",""2174""
","
","","","","","","null","<div style=""font-size:60px;"">+</div>","null","","fixation","","","","","","","","",""
"memory-trial","29","145319","0.0-9.0-1.6","1911","2","""event"",""trial"",""time""
""fullscreenenter"",""1"",""2174""
","
","
","""event"",""trial"",""time""
""fullscreenenter"",""1"",""2174""
","
","","","","","","1130.7999999998137","images/ball1.png","","","practice","1","definitely_old","","","","","","",""
"html-keyboard-response","30","145834","0.0-9.0-0.7","1911","2","""event"",""trial"",""time""
""fullscreenenter"",""1"",""2174""
","
","
","""event"",""trial"",""time""
""fullscreenenter"",""1"",""2174""
","
","","","","","","null","<div style=""font-size:60px;"">+</div>","null","","fixation","","","","","","","","",""
"memory-trial","31","148325","0.0-9.0-1.7","1911","2","""event"",""trial"",""time""
""fullscreenenter"",""1"",""2174""
","
","
","""event"",""trial"",""time""
""fullscreenenter"",""1"",""2174""
","
","","","","","","1475.2999999998137","images/racket4.png","","","practice","1","definitely_old","","","","","","",""
"learning-instructions","32","157082","0.0-10.0-0.0","1911","2","""event"",""trial"",""time""
""fullscreenenter"",""1"",""2174""
","
","
","""event"",""trial"",""time""
""fullscreenenter"",""1"",""2174""
","
","","","","","","803.1999999997206","<p> Great! You have completed the practice. </p><p> Before you start, we're going to ask you a few questions about how the game works.  </p>","","0","instructions","","","","","","","","",""
"preload","33","158766","0.0-11.0","1911","2","""event"",""trial"",""time""
""fullscreenenter"",""1"",""2174""
","
","
","""event"",""trial"",""time""
""fullscreenenter"",""1"",""2174""
","
","true","false","[]","[]","[]","","","","","","","","","","","","","",""
"comp-q","34","165368","0.0-12.0-0.0","1911","2","""event"",""trial"",""time""
""fullscreenenter"",""1"",""2174""
","
","
","""event"",""trial"",""time""
""fullscreenenter"",""1"",""2174""
","
","","","","","","769","<p> <b> True or False? </b> </p><p> In this game, you will only see each image once. </p>","","0","comp_question","","","true","","","","","",""
"comp-q","35","173266","0.0-12.0-1.0","1911","2","""event"",""trial"",""time""
""fullscreenenter"",""1"",""2174""
","
","
","""event"",""trial"",""time""
""fullscreenenter"",""1"",""2174""
","
","","","","","","1545.4000000003725","<p> <b> That's right! </b> You will see many different images <i> one time each </i> in this game. </p>","","0","comp_answer","","","","","","","","",""
"comp-q","36","179725","0.0-12.0-0.1","1911","2","""event"",""trial"",""time""
""fullscreenenter"",""1"",""2174""
","
","
","""event"",""trial"",""time""
""fullscreenenter"",""1"",""2174""
","
","","","","","","648.3000000002794","<p> <b> True or False? </b> </p><p> You should use the mouse and click to make your response. </p>","","1","comp_question","","","true","","","","","",""
"comp-q","37","189610","0.0-12.0-1.1","1911","2","""event"",""trial"",""time""
""fullscreenenter"",""1"",""2174""
","
","
","""event"",""trial"",""time""
""fullscreenenter"",""1"",""2174""
","
","","","","","","2534.7999999998137","<p><b> That's right! </b> You should use the '1', '2', '3', and '4' keys to make your response. </p>","","0","comp_answer","","","","","","","","",""
"comp-q","38","196196","0.0-12.0-0.2","1911","2","""event"",""trial"",""time""
""fullscreenenter"",""1"",""2174""
","
","
","""event"",""trial"",""time""
""fullscreenenter"",""1"",""2174""
","
","","","","","","600.5","<p> <b> True or False? </b> </p><p> You will have as much time as you want to make each choice. </p>","","1","comp_question","","","true","","","","","",""
"comp-q","39","204347","0.0-12.0-1.2","1911","2","""event"",""trial"",""time""
""fullscreenenter"",""1"",""2174""
","
","
","""event"",""trial"",""time""
""fullscreenenter"",""1"",""2174""
","
","","","","","","2751.5","<p> <b> That's right! </b> You will only have 10 seconds to make each choice. </p>","","0","comp_answer","","","","","","","","",""
"learning-instructions","40","292339","0.0-13.0","1911","2","""event"",""trial"",""time""
""fullscreenenter"",""1"",""2174""
","
","
","""event"",""trial"",""time""
""fullscreenenter"",""1"",""2174""
","
","","","","","","79322.80000000028","<p> Great! You are now ready to begin the game. </p><p> Remember, use the 1, 2, 3, and 4 keys to make your responses. </p>","","0","instructions","","","","","","","","",""
"preload","41","294368","0.0-14.0","1911","2","""event"",""trial"",""time""
""fullscreenenter"",""1"",""2174""
","
","
","""event"",""trial"",""time""
""fullscreenenter"",""1"",""2174""
","
","true","false","[]","[]","[]","","","","","","","","","","","","","",""
"html-keyboard-response","42","294869","0.0-15.0-0.0","1911","2","""event"",""trial"",""time""
""fullscreenenter"",""1"",""2174""
","
","
","""event"",""trial"",""time""
""fullscreenenter"",""1"",""2174""
","
","","","","","","null","<div style=""font-size:60px;"">+</div>","null","","fixation","","","","","","","","",""
"memory-trial","43","298609","0.0-15.0-1.0","1911","2","""event"",""trial"",""time""
""fullscreenenter"",""1"",""2174""
","
","
","""event"",""trial"",""time""
""fullscreenenter"",""1"",""2174""
","
","","","","","","2736.7000000001863","images/train5.png","","","memory_trial","1","definitely_old","","","","","","",""
"html-keyboard-response","44","299110","0.0-15.0-0.1","1911","2","""event"",""trial"",""time""
""fullscreenenter"",""1"",""2174""
","
","
","""event"",""trial"",""time""
""fullscreenenter"",""1"",""2174""
","
","","","","","","null","<div style=""font-size:60px;"">+</div>","null","","fixation","","","","","","","","",""
"memory-trial","45","302724","0.0-15.0-1.1","1911","2","""event"",""trial"",""time""
""fullscreenenter"",""1"",""2174""
","
","
","""event"",""trial"",""time""
""fullscreenenter"",""1"",""2174""
","
","","","","","","2610.2999999998137","images/table2.png","","","memory_trial","3","maybe_new","","","","","","",""
"html-keyboard-response","46","303226","0.0-15.0-0.2","1911","2","""event"",""trial"",""time""
""fullscreenenter"",""1"",""2174""
","
","
","""event"",""trial"",""time""
""fullscreenenter"",""1"",""2174""
","
","","","","","","null","<div style=""font-size:60px;"">+</div>","null","","fixation","","","","","","","","",""
"memory-trial","47","305181","0.0-15.0-1.2","1911","2","""event"",""trial"",""time""
""fullscreenenter"",""1"",""2174""
","
","
","""event"",""trial"",""time""
""fullscreenenter"",""1"",""2174""
","
","","","","","","944.8999999999069","images/plane2.png","","","memory_trial","4","definitely_new","","","","","","",""
"html-keyboard-response","48","305682","0.0-15.0-0.3","1911","2","""event"",""trial"",""time""
""fullscreenenter"",""1"",""2174""
","
","
","""event"",""trial"",""time""
""fullscreenenter"",""1"",""2174""
","
","","","","","","null","<div style=""font-size:60px;"">+</div>","null","","fixation","","","","","","","","",""
"memory-trial","49","309369","0.0-15.0-1.3","1911","2","""event"",""trial"",""time""
""fullscreenenter"",""1"",""2174""
","
","
","""event"",""trial"",""time""
""fullscreenenter"",""1"",""2174""
","
","","","","","","2684.100000000093","images/cow3.png","","","memory_trial","3","maybe_new","","","","","","",""
"html-keyboard-response","50","309871","0.0-15.0-0.4","1911","2","""event"",""trial"",""time""
""fullscreenenter"",""1"",""2174""
","
","
","""event"",""trial"",""time""
""fullscreenenter"",""1"",""2174""
","
","","","","","","null","<div style=""font-size:60px;"">+</div>","null","","fixation","","","","","","","","",""
"memory-trial","51","312399","0.0-15.0-1.4","1911","2","""event"",""trial"",""time""
""fullscreenenter"",""1"",""2174""
","
","
","""event"",""trial"",""time""
""fullscreenenter"",""1"",""2174""
","
","","","","","","1525.6000000000931","images/feline2.png","","","memory_trial","3","maybe_new","","","","","","",""
"html-keyboard-response","52","312900","0.0-15.0-0.5","1911","2","""event"",""trial"",""time""
""fullscreenenter"",""1"",""2174""
","
","
","""event"",""trial"",""time""
""fullscreenenter"",""1"",""2174""
","
","","","","","","null","<div style=""font-size:60px;"">+</div>","null","","fixation","","","","","","","","",""
"memory-trial","53","315291","0.0-15.0-1.5","1911","2","""event"",""trial"",""time""
""fullscreenenter"",""1"",""2174""
","
","
","""event"",""trial"",""time""
""fullscreenenter"",""1"",""2174""
","
","","","","","","1389.8999999999069","images/table5.png","","","memory_trial","4","definitely_new","","","","","","",""
"html-keyboard-response","54","315793","0.0-15.0-0.6","1911","2","""event"",""trial"",""time""
""fullscreenenter"",""1"",""2174""
","
","
","""event"",""trial"",""time""
""fullscreenenter"",""1"",""2174""
","
","","","","","","null","<div style=""font-size:60px;"">+</div>","null","","fixation","","","","","","","","",""
"memory-trial","55","318202","0.0-15.0-1.6","1911","2","""event"",""trial"",""time""
""fullscreenenter"",""1"",""2174""
","
","
","""event"",""trial"",""time""
""fullscreenenter"",""1"",""2174""
","
","","","","","","1406.8999999999069","images/bed3.png","","","memory_trial","4","definitely_new","","","","","","",""
"html-keyboard-response","56","318703","0.0-15.0-0.7","1911","2","""event"",""trial"",""time""
""fullscreenenter"",""1"",""2174""
","
","
","""event"",""trial"",""time""
""fullscreenenter"",""1"",""2174""
","
","","","","","","null","<div style=""font-size:60px;"">+</div>","null","","fixation","","","","","","","","",""
"memory-trial","57","320860","0.0-15.0-1.7","1911","2","""event"",""trial"",""time""
""fullscreenenter"",""1"",""2174""
","
","
","""event"",""trial"",""time""
""fullscreenenter"",""1"",""2174""
","
","","","","","","1155.3999999999069","images/bush3.png","","","memory_trial","2","maybe_old","","","","","","",""
"html-keyboard-response","58","321363","0.0-15.0-0.8","1911","2","""event"",""trial"",""time""
""fullscreenenter"",""1"",""2174""
","
","
","""event"",""trial"",""time""
""fullscreenenter"",""1"",""2174""
","
","","","","","","null","<div style=""font-size:60px;"">+</div>","null","","fixation","","","","","","","","",""
"memory-trial","59","324294","0.0-15.0-1.8","1911","2","""event"",""trial"",""time""
""fullscreenenter"",""1"",""2174""
","
","
","""event"",""trial"",""time""
""fullscreenenter"",""1"",""2174""
","
","","","","","","1928.6000000000931","images/straw4.png","","","memory_trial","3","maybe_new","","","","","","",""
"html-keyboard-response","60","324796","0.0-15.0-0.9","1911","2","""event"",""trial"",""time""
""fullscreenenter"",""1"",""2174""
","
","
","""event"",""trial"",""time""
""fullscreenenter"",""1"",""2174""
","
","","","","","","null","<div style=""font-size:60px;"">+</div>","null","","fixation","","","","","","","","",""
"memory-trial","61","328768","0.0-15.0-1.9","1911","2","""event"",""trial"",""time""
""fullscreenenter"",""1"",""2174""
","
","
","""event"",""trial"",""time""
""fullscreenenter"",""1"",""2174""
","
","","","","","","2970.2999999998137","images/truck1.png","","","memory_trial","1","definitely_old","","","","","","",""
"html-keyboard-response","62","329270","0.0-15.0-0.10","1911","2","""event"",""trial"",""time""
""fullscreenenter"",""1"",""2174""
","
","
","""event"",""trial"",""time""
""fullscreenenter"",""1"",""2174""
","
","","","","","","null","<div style=""font-size:60px;"">+</div>","null","","fixation","","","","","","","","",""
"memory-trial","63","334594","0.0-15.0-1.10","1911","2","""event"",""trial"",""time""
""fullscreenenter"",""1"",""2174""
","
","
","""event"",""trial"",""time""
""fullscreenenter"",""1"",""2174""
","
","","","","","","4322.200000000186","images/feline3.png","","","memory_trial","3","maybe_new","","","","","","",""
"html-keyboard-response","64","335096","0.0-15.0-0.11","1911","2","""event"",""trial"",""time""
""fullscreenenter"",""1"",""2174""
","
","
","""event"",""trial"",""time""
""fullscreenenter"",""1"",""2174""
","
","","","","","","null","<div style=""font-size:60px;"">+</div>","null","","fixation","","","","","","","","",""
"memory-trial","65","339666","0.0-15.0-1.11","1911","2","""event"",""trial"",""time""
""fullscreenenter"",""1"",""2174""
","
","
","""event"",""trial"",""time""
""fullscreenenter"",""1"",""2174""
","
","","","","","","3567.5","images/flower2.png","","","memory_trial","3","maybe_new","","","","","","",""
"html-keyboard-response","66","340168","0.0-15.0-0.12","1911","2","""event"",""trial"",""time""
""fullscreenenter"",""1"",""2174""
","
","
","""event"",""trial"",""time""
""fullscreenenter"",""1"",""2174""
","
","","","","","","null","<div style=""font-size:60px;"">+</div>","null","","fixation","","","","","","","","",""
"memory-trial","67","342998","0.0-15.0-1.12","1911","2","""event"",""trial"",""time""
""fullscreenenter"",""1"",""2174""
","
","
","""event"",""trial"",""time""
""fullscreenenter"",""1"",""2174""
","
","","","","","","1827.6999999997206","images/tree2.png","","","memory_trial","1","definitely_old","","","","","","",""
"html-keyboard-response","68","343499","0.0-15.0-0.13","1911","2","""event"",""trial"",""time""
""fullscreenenter"",""1"",""2174""
","
","
","""event"",""trial"",""time""
""fullscreenenter"",""1"",""2174""
","
","","","","","","null","<div style=""font-size:60px;"">+</div>","null","","fixation","","","","","","","","",""
"memory-trial","69","345944","0.0-15.0-1.13","1911","2","""event"",""trial"",""time""
""fullscreenenter"",""1"",""2174""
","
","
","""event"",""trial"",""time""
""fullscreenenter"",""1"",""2174""
","
","","","","","","1442.5","images/feline4.png","","","memory_trial","3","maybe_new","","","","","","",""
"html-keyboard-response","70","346445","0.0-15.0-0.14","1911","2","""event"",""trial"",""time""
""fullscreenenter"",""1"",""2174""
","
","
","""event"",""trial"",""time""
""fullscreenenter"",""1"",""2174""
","
","","","","","","null","<div style=""font-size:60px;"">+</div>","null","","fixation","","","","","","","","",""
"memory-trial","71","348890","0.0-15.0-1.14","1911","2","""event"",""trial"",""time""
""fullscreenenter"",""1"",""2174""
","
","
","""event"",""trial"",""time""
""fullscreenenter"",""1"",""2174""
","
","","","","","","1443.1000000000931","images/train4.png","","","memory_trial","2","maybe_old","","","","","","",""
"html-keyboard-response","72","349391","0.0-15.0-0.15","1911","2","""event"",""trial"",""time""
""fullscreenenter"",""1"",""2174""
","
","
","""event"",""trial"",""time""
""fullscreenenter"",""1"",""2174""
","
","","","","","","null","<div style=""font-size:60px;"">+</div>","null","","fixation","","","","","","","","",""
"memory-trial","73","352128","0.0-15.0-1.15","1911","2","""event"",""trial"",""time""
""fullscreenenter"",""1"",""2174""
","
","
","""event"",""trial"",""time""
""fullscreenenter"",""1"",""2174""
","
","","","","","","1733.7000000001863","images/rodent3.png","","","memory_trial","2","maybe_old","","","","","","",""
"html-keyboard-response","74","352630","0.0-15.0-0.16","1911","2","""event"",""trial"",""time""
""fullscreenenter"",""1"",""2174""
","
","
","""event"",""trial"",""time""
""fullscreenenter"",""1"",""2174""
","
","","","","","","null","<div style=""font-size:60px;"">+</div>","null","","fixation","","","","","","","","",""
"memory-trial","75","354497","0.0-15.0-1.16","1911","2","""event"",""trial"",""time""
""fullscreenenter"",""1"",""2174""
","
","
","""event"",""trial"",""time""
""fullscreenenter"",""1"",""2174""
","
","","","","","","864.5","images/bed1.png","","","memory_trial","1","definitely_old","","","","","","",""
"html-keyboard-response","76","354998","0.0-15.0-0.17","1911","2","""event"",""trial"",""time""
""fullscreenenter"",""1"",""2174""
","
","
","""event"",""trial"",""time""
""fullscreenenter"",""1"",""2174""
","
","","","","","","null","<div style=""font-size:60px;"">+</div>","null","","fixation","","","","","","","","",""
"memory-trial","77","356869","0.0-15.0-1.17","1911","2","""event"",""trial"",""time""
""fullscreenenter"",""1"",""2174""
","
","
","""event"",""trial"",""time""
""fullscreenenter"",""1"",""2174""
","
","","","","","","868.3999999999069","images/orange3.png","","","memory_trial","1","definitely_old","","","","","","",""
"html-keyboard-response","78","357372","0.0-15.0-0.18","1911","2","""event"",""trial"",""time""
""fullscreenenter"",""1"",""2174""
","
","
","""event"",""trial"",""time""
""fullscreenenter"",""1"",""2174""
","
","","","","","","null","<div style=""font-size:60px;"">+</div>","null","","fixation","","","","","","","","",""
"memory-trial","79","360758","0.0-15.0-1.18","1911","2","""event"",""trial"",""time""
""fullscreenenter"",""1"",""2174""
","
","
","""event"",""trial"",""time""
""fullscreenenter"",""1"",""2174""
","
","","","","","","2383.4000000003725","images/dog5.png","","","memory_trial","2","maybe_old","","","","","","",""
"html-keyboard-response","80","361260","0.0-15.0-0.19","1911","2","""event"",""trial"",""time""
""fullscreenenter"",""1"",""2174""
","
","
","""event"",""trial"",""time""
""fullscreenenter"",""1"",""2174""
","
","","","","","","null","<div style=""font-size:60px;"">+</div>","null","","fixation","","","","","","","","",""
"memory-trial","81","363273","0.0-15.0-1.19","1911","2","""event"",""trial"",""time""
""fullscreenenter"",""1"",""2174""
","
","
","""event"",""trial"",""time""
""fullscreenenter"",""1"",""2174""
","
","","","","","","1011.5","images/boat3.png","","","memory_trial","4","definitely_new","","","","","","",""
"html-keyboard-response","82","363775","0.0-15.0-0.20","1911","2","""event"",""trial"",""time""
""fullscreenenter"",""1"",""2174""
","
","
","""event"",""trial"",""time""
""fullscreenenter"",""1"",""2174""
","
","","","","","","null","<div style=""font-size:60px;"">+</div>","null","","fixation","","","","","","","","",""
"memory-trial","83","365991","0.0-15.0-1.20","1911","2","""event"",""trial"",""time""
""fullscreenenter"",""1"",""2174""
","
","
","""event"",""trial"",""time""
""fullscreenenter"",""1"",""2174""
","
","","","","","","1213.9000000003725","images/bush1.png","","","memory_trial","1","definitely_old","","","","","","",""
"html-keyboard-response","84","366492","0.0-15.0-0.21","1911","2","""event"",""trial"",""time""
""fullscreenenter"",""1"",""2174""
","
","
","""event"",""trial"",""time""
""fullscreenenter"",""1"",""2174""
","
","","","","","","null","<div style=""font-size:60px;"">+</div>","null","","fixation","","","","","","","","",""
"memory-trial","85","369239","0.0-15.0-1.21","1911","2","""event"",""trial"",""time""
""fullscreenenter"",""1"",""2174""
","
","
","""event"",""trial"",""time""
""fullscreenenter"",""1"",""2174""
","
","","","","","","1744.6000000000931","images/boat2.png","","","memory_trial","3","maybe_new","","","","","","",""
"html-keyboard-response","86","369741","0.0-15.0-0.22","1911","2","""event"",""trial"",""time""
""fullscreenenter"",""1"",""2174""
","
","
","""event"",""trial"",""time""
""fullscreenenter"",""1"",""2174""
","
","","","","","","null","<div style=""font-size:60px;"">+</div>","null","","fixation","","","","","","","","",""
"memory-trial","87","372836","0.0-15.0-1.22","1911","2","""event"",""trial"",""time""
""fullscreenenter"",""1"",""2174""
","
","
","""event"",""trial"",""time""
""fullscreenenter"",""1"",""2174""
","
","","","","","","2092.600000000093","images/flower3.png","","","memory_trial","3","maybe_new","","","","","","",""
"html-keyboard-response","88","373337","0.0-15.0-0.23","1911","2","""event"",""trial"",""time""
""fullscreenenter"",""1"",""2174""
","
","
","""event"",""trial"",""time""
""fullscreenenter"",""1"",""2174""
","
","","","","","","null","<div style=""font-size:60px;"">+</div>","null","","fixation","","","","","","","","",""
"memory-trial","89","375696","0.0-15.0-1.23","1911","2","""event"",""trial"",""time""
""fullscreenenter"",""1"",""2174""
","
","
","""event"",""trial"",""time""
""fullscreenenter"",""1"",""2174""
","
","","","","","","1356.5","images/table4.png","","","memory_trial","2","maybe_old","","","","","","",""
"html-keyboard-response","90","376198","0.0-15.0-0.24","1911","2","""event"",""trial"",""time""
""fullscreenenter"",""1"",""2174""
","
","
","""event"",""trial"",""time""
""fullscreenenter"",""1"",""2174""
","
","","","","","","null","<div style=""font-size:60px;"">+</div>","null","","fixation","","","","","","","","",""
"memory-trial","91","378256","0.0-15.0-1.24","1911","2","""event"",""trial"",""time""
""fullscreenenter"",""1"",""2174""
","
","
","""event"",""trial"",""time""
""fullscreenenter"",""1"",""2174""
","
","","","","","","1056.8000000002794","images/orange5.png","","","memory_trial","1","definitely_old","","","","","","",""
"html-keyboard-response","92","378758","0.0-15.0-0.25","1911","2","""event"",""trial"",""time""
""fullscreenenter"",""1"",""2174""
","
","
","""event"",""trial"",""time""
""fullscreenenter"",""1"",""2174""
","
","","","","","","null","<div style=""font-size:60px;"">+</div>","null","","fixation","","","","","","","","",""
"memory-trial","93","382848","0.0-15.0-1.25","1911","2","""event"",""trial"",""time""
""fullscreenenter"",""1"",""2174""
","
","
","""event"",""trial"",""time""
""fullscreenenter"",""1"",""2174""
","
","","","","","","3087.100000000093","images/banana4.png","","","memory_trial","1","definitely_old","","","","","","",""
"html-keyboard-response","94","383349","0.0-15.0-0.26","1911","2","""event"",""trial"",""time""
""fullscreenenter"",""1"",""2174""
","
","
","""event"",""trial"",""time""
""fullscreenenter"",""1"",""2174""
","
","","","","","","null","<div style=""font-size:60px;"">+</div>","null","","fixation","","","","","","","","",""
"memory-trial","95","385051","0.0-15.0-1.26","1911","2","""event"",""trial"",""time""
""fullscreenenter"",""1"",""2174""
","
","
","""event"",""trial"",""time""
""fullscreenenter"",""1"",""2174""
","
","","","","","","699.7000000001863","images/orange1.png","","","memory_trial","1","definitely_old","","","","","","",""
"html-keyboard-response","96","385553","0.0-15.0-0.27","1911","2","""event"",""trial"",""time""
""fullscreenenter"",""1"",""2174""
","
","
","""event"",""trial"",""time""
""fullscreenenter"",""1"",""2174""
","
","","","","","","null","<div style=""font-size:60px;"">+</div>","null","","fixation","","","","","","","","",""
"memory-trial","97","387833","0.0-15.0-1.27","1911","2","""event"",""trial"",""time""
""fullscreenenter"",""1"",""2174""
","
","
","""event"",""trial"",""time""
""fullscreenenter"",""1"",""2174""
","
","","","","","","1278.4000000003725","images/rodent4.png","","","memory_trial","3","maybe_new","","","","","","",""
"html-keyboard-response","98","388334","0.0-15.0-0.28","1911","2","""event"",""trial"",""time""
""fullscreenenter"",""1"",""2174""
","
","
","""event"",""trial"",""time""
""fullscreenenter"",""1"",""2174""
","
","","","","","","null","<div style=""font-size:60px;"">+</div>","null","","fixation","","","","","","","","",""
"memory-trial","99","390317","0.0-15.0-1.28","1911","2","""event"",""trial"",""time""
""fullscreenenter"",""1"",""2174""
","
","
","""event"",""trial"",""time""
""fullscreenenter"",""1"",""2174""
","
","","","","","","981","images/cactus1.png","","","memory_trial","1","definitely_old","","","","","","",""
"html-keyboard-response","100","390818","0.0-15.0-0.29","1911","2","""event"",""trial"",""time""
""fullscreenenter"",""1"",""2174""
","
","
","""event"",""trial"",""time""
""fullscreenenter"",""1"",""2174""
","
","","","","","","null","<div style=""font-size:60px;"">+</div>","null","","fixation","","","","","","","","",""
"memory-trial","101","393354","0.0-15.0-1.29","1911","2","""event"",""trial"",""time""
""fullscreenenter"",""1"",""2174""
","
","
","""event"",""trial"",""time""
""fullscreenenter"",""1"",""2174""
","
","","","","","","1533.8999999999069","images/chair4.png","","","memory_trial","4","definitely_new","","","","","","",""
"html-keyboard-response","102","393855","0.0-15.0-0.30","1911","2","""event"",""trial"",""time""
""fullscreenenter"",""1"",""2174""
","
","
","""event"",""trial"",""time""
""fullscreenenter"",""1"",""2174""
","
","","","","","","null","<div style=""font-size:60px;"">+</div>","null","","fixation","","","","","","","","",""
"memory-trial","103","396527","0.0-15.0-1.30","1911","2","""event"",""trial"",""time""
""fullscreenenter"",""1"",""2174""
","
","
","""event"",""trial"",""time""
""fullscreenenter"",""1"",""2174""
","
","","","","","","1668.7000000001863","images/cow5.png","","","memory_trial","3","maybe_new","","","","","","",""
"html-keyboard-response","104","397028","0.0-15.0-0.31","1911","2","""event"",""trial"",""time""
""fullscreenenter"",""1"",""2174""
","
","
","""event"",""trial"",""time""
""fullscreenenter"",""1"",""2174""
","
","","","","","","null","<div style=""font-size:60px;"">+</div>","null","","fixation","","","","","","","","",""
"memory-trial","105","399380","0.0-15.0-1.31","1911","2","""event"",""trial"",""time""
""fullscreenenter"",""1"",""2174""
","
","
","""event"",""trial"",""time""
""fullscreenenter"",""1"",""2174""
","
","","","","","","1349.6999999997206","images/train1.png","","","memory_trial","1","definitely_old","","","","","","",""
"html-keyboard-response","106","399882","0.0-15.0-0.32","1911","2","""event"",""trial"",""time""
""fullscreenenter"",""1"",""2174""
","
","
","""event"",""trial"",""time""
""fullscreenenter"",""1"",""2174""
","
","","","","","","null","<div style=""font-size:60px;"">+</div>","null","","fixation","","","","","","","","",""
"memory-trial","107","401746","0.0-15.0-1.32","1911","2","""event"",""trial"",""time""
""fullscreenenter"",""1"",""2174""
","
","
","""event"",""trial"",""time""
""fullscreenenter"",""1"",""2174""
","
","","","","","","862.5","images/bed4.png","","","memory_trial","1","definitely_old","","","","","","",""
"html-keyboard-response","108","402248","0.0-15.0-0.33","1911","2","""event"",""trial"",""time""
""fullscreenenter"",""1"",""2174""
","
","
","""event"",""trial"",""time""
""fullscreenenter"",""1"",""2174""
","
","","","","","","null","<div style=""font-size:60px;"">+</div>","null","","fixation","","","","","","","","",""
"memory-trial","109","405869","0.0-15.0-1.33","1911","2","""event"",""trial"",""time""
""fullscreenenter"",""1"",""2174""
","
","
","""event"",""trial"",""time""
""fullscreenenter"",""1"",""2174""
","
","","","","","","2617.600000000093","images/straw3.png","","","memory_trial","3","maybe_new","","","","","","",""
"html-keyboard-response","110","406371","0.0-15.0-0.34","1911","2","""event"",""trial"",""time""
""fullscreenenter"",""1"",""2174""
","
","
","""event"",""trial"",""time""
""fullscreenenter"",""1"",""2174""
","
","","","","","","null","<div style=""font-size:60px;"">+</div>","null","","fixation","","","","","","","","",""
"memory-trial","111","409059","0.0-15.0-1.34","1911","2","""event"",""trial"",""time""
""fullscreenenter"",""1"",""2174""
","
","
","""event"",""trial"",""time""
""fullscreenenter"",""1"",""2174""
","
","","","","","","1685.2999999998137","images/goat3.png","","","memory_trial","1","definitely_old","","","","","","",""
"html-keyboard-response","112","409561","0.0-15.0-0.35","1911","2","""event"",""trial"",""time""
""fullscreenenter"",""1"",""2174""
","
","
","""event"",""trial"",""time""
""fullscreenenter"",""1"",""2174""
","
","","","","","","null","<div style=""font-size:60px;"">+</div>","null","","fixation","","","","","","","","",""
"memory-trial","113","412309","0.0-15.0-1.35","1911","2","""event"",""trial"",""time""
""fullscreenenter"",""1"",""2174""
","
","
","""event"",""trial"",""time""
""fullscreenenter"",""1"",""2174""
","
","","","","","","1745.5","images/plane1.png","","","memory_trial","2","maybe_old","","","","","","",""
"html-keyboard-response","114","412812","0.0-15.0-0.36","1911","2","""event"",""trial"",""time""
""fullscreenenter"",""1"",""2174""
","
","
","""event"",""trial"",""time""
""fullscreenenter"",""1"",""2174""
","
","","","","","","null","<div style=""font-size:60px;"">+</div>","null","","fixation","","","","","","","","",""
"memory-trial","115","415043","0.0-15.0-1.36","1911","2","""event"",""trial"",""time""
""fullscreenenter"",""1"",""2174""
","
","
","""event"",""trial"",""time""
""fullscreenenter"",""1"",""2174""
","
","","","","","","1228.9000000003725","images/truck2.png","","","memory_trial","1","definitely_old","","","","","","",""
"html-keyboard-response","116","415544","0.0-15.0-0.37","1911","2","""event"",""trial"",""time""
""fullscreenenter"",""1"",""2174""
","
","
","""event"",""trial"",""time""
""fullscreenenter"",""1"",""2174""
","
","","","","","","null","<div style=""font-size:60px;"">+</div>","null","","fixation","","","","","","","","",""
"memory-trial","117","417934","0.0-15.0-1.37","1911","2","""event"",""trial"",""time""
""fullscreenenter"",""1"",""2174""
","
","
","""event"",""trial"",""time""
""fullscreenenter"",""1"",""2174""
","
","","","","","","1387.5","images/banana3.png","","","memory_trial","4","definitely_new","","","","","","",""
"html-keyboard-response","118","418436","0.0-15.0-0.38","1911","2","""event"",""trial"",""time""
""fullscreenenter"",""1"",""2174""
","
","
","""event"",""trial"",""time""
""fullscreenenter"",""1"",""2174""
","
","","","","","","null","<div style=""font-size:60px;"">+</div>","null","","fixation","","","","","","","","",""
"memory-trial","119","420686","0.0-15.0-1.38","1911","2","""event"",""trial"",""time""
""fullscreenenter"",""1"",""2174""
","
","
","""event"",""trial"",""time""
""fullscreenenter"",""1"",""2174""
","
","","","","","","1248.3000000002794","images/sofa4.png","","","memory_trial","4","definitely_new","","","","","","",""
"html-keyboard-response","120","421188","0.0-15.0-0.39","1911","2","""event"",""trial"",""time""
""fullscreenenter"",""1"",""2174""
","
","
","""event"",""trial"",""time""
""fullscreenenter"",""1"",""2174""
","
","","","","","","null","<div style=""font-size:60px;"">+</div>","null","","fixation","","","","","","","","",""
"memory-trial","121","423536","0.0-15.0-1.39","1911","2","""event"",""trial"",""time""
""fullscreenenter"",""1"",""2174""
","
","
","""event"",""trial"",""time""
""fullscreenenter"",""1"",""2174""
","
","","","","","","1344.7999999998137","images/banana5.png","","","memory_trial","3","maybe_new","","","","","","",""
"html-keyboard-response","122","424038","0.0-15.0-0.40","1911","2","""event"",""trial"",""time""
""fullscreenenter"",""1"",""2174""
","
","
","""event"",""trial"",""time""
""fullscreenenter"",""1"",""2174""
","
","","","","","","null","<div style=""font-size:60px;"">+</div>","null","","fixation","","","","","","","","",""
"memory-trial","123","426722","0.0-15.0-1.40","1911","2","""event"",""trial"",""time""
""fullscreenenter"",""1"",""2174""
","
","
","""event"",""trial"",""time""
""fullscreenenter"",""1"",""2174""
","
","","","","","","1681","images/cactus4.png","","","memory_trial","4","definitely_new","","","","","","",""
"html-keyboard-response","124","427224","0.0-15.0-0.41","1911","2","""event"",""trial"",""time""
""fullscreenenter"",""1"",""2174""
","
","
","""event"",""trial"",""time""
""fullscreenenter"",""1"",""2174""
","
","","","","","","null","<div style=""font-size:60px;"">+</div>","null","","fixation","","","","","","","","",""
"memory-trial","125","429074","0.0-15.0-1.41","1911","2","""event"",""trial"",""time""
""fullscreenenter"",""1"",""2174""
","
","
","""event"",""trial"",""time""
""fullscreenenter"",""1"",""2174""
","
","","","","","","848.2000000001863","images/boat1.png","","","memory_trial","4","definitely_new","","","","","","",""
"html-keyboard-response","126","429575","0.0-15.0-0.42","1911","2","""event"",""trial"",""time""
""fullscreenenter"",""1"",""2174""
","
","
","""event"",""trial"",""time""
""fullscreenenter"",""1"",""2174""
","
","","","","","","null","<div style=""font-size:60px;"">+</div>","null","","fixation","","","","","","","","",""
"memory-trial","127","432219","0.0-15.0-1.42","1911","2","""event"",""trial"",""time""
""fullscreenenter"",""1"",""2174""
","
","
","""event"",""trial"",""time""
""fullscreenenter"",""1"",""2174""
","
","","","","","","1640.6000000000931","images/cow2.png","","","memory_trial","3","maybe_new","","","","","","",""
"html-keyboard-response","128","432721","0.0-15.0-0.43","1911","2","""event"",""trial"",""time""
""fullscreenenter"",""1"",""2174""
","
","
","""event"",""trial"",""time""
""fullscreenenter"",""1"",""2174""
","
","","","","","","null","<div style=""font-size:60px;"">+</div>","null","","fixation","","","","","","","","",""
"memory-trial","129","435633","0.0-15.0-1.43","1911","2","""event"",""trial"",""time""
""fullscreenenter"",""1"",""2174""
","
","
","""event"",""trial"",""time""
""fullscreenenter"",""1"",""2174""
","
","","","","","","1910.2000000001863","images/rodent2.png","","","memory_trial","3","maybe_new","","","","","","",""
"html-keyboard-response","130","436134","0.0-15.0-0.44","1911","2","""event"",""trial"",""time""
""fullscreenenter"",""1"",""2174""
","
","
","""event"",""trial"",""time""
""fullscreenenter"",""1"",""2174""
","
","","","","","","null","<div style=""font-size:60px;"">+</div>","null","","fixation","","","","","","","","",""
"memory-trial","131","438988","0.0-15.0-1.44","1911","2","""event"",""trial"",""time""
""fullscreenenter"",""1"",""2174""
","
","
","""event"",""trial"",""time""
""fullscreenenter"",""1"",""2174""
","
","","","","","","1851.8999999999069","images/cactus3.png","","","memory_trial","2","maybe_old","","","","","","",""
"html-keyboard-response","132","439490","0.0-15.0-0.45","1911","2","""event"",""trial"",""time""
""fullscreenenter"",""1"",""2174""
","
","
","""event"",""trial"",""time""
""fullscreenenter"",""1"",""2174""
","
","","","","","","null","<div style=""font-size:60px;"">+</div>","null","","fixation","","","","","","","","",""
"memory-trial","133","441668","0.0-15.0-1.45","1911","2","""event"",""trial"",""time""
""fullscreenenter"",""1"",""2174""
","
","
","""event"",""trial"",""time""
""fullscreenenter"",""1"",""2174""
","
","","","","","","1175.9000000003725","images/feline5.png","","","memory_trial","4","definitely_new","","","","","","",""
"html-keyboard-response","134","442171","0.0-15.0-0.46","1911","2","""event"",""trial"",""time""
""fullscreenenter"",""1"",""2174""
","
","
","""event"",""trial"",""time""
""fullscreenenter"",""1"",""2174""
","
","","","","","","null","<div style=""font-size:60px;"">+</div>","null","","fixation","","","","","","","","",""
"memory-trial","135","447962","0.0-15.0-1.46","1911","2","""event"",""trial"",""time""
""fullscreenenter"",""1"",""2174""
","
","
","""event"",""trial"",""time""
""fullscreenenter"",""1"",""2174""
","
","","","","","","4789.899999999907","images/banana1.png","","","memory_trial","1","definitely_old","","","","","","",""
"html-button-response","136","568372","0.0-15.0-2.46-0.46","1911","2","""event"",""trial"",""time""
""fullscreenenter"",""1"",""2174""
","
","
","""event"",""trial"",""time""
""fullscreenenter"",""1"",""2174""
","
","","","","","","120408.1000000001","<p> Take a break! </p><p> Click the button to continue. </p>","0","","break","","","","","","","","",""
"html-keyboard-response","137","568874","0.0-15.0-0.47","1911","2","""event"",""trial"",""time""
""fullscreenenter"",""1"",""2174""
","
","
","""event"",""trial"",""time""
""fullscreenenter"",""1"",""2174""
","
","","","","","","null","<div style=""font-size:60px;"">+</div>","null","","fixation","","","","","","","","",""
"memory-trial","138","571482","0.0-15.0-1.47","1911","2","""event"",""trial"",""time""
""fullscreenenter"",""1"",""2174""
","
","
","""event"",""trial"",""time""
""fullscreenenter"",""1"",""2174""
","
","","","","","","1604.6000000000931","images/straw5.png","","","memory_trial","4","definitely_new","","","","","","",""
"html-keyboard-response","139","571984","0.0-15.0-0.48","1911","2","""event"",""trial"",""time""
""fullscreenenter"",""1"",""2174""
","
","
","""event"",""trial"",""time""
""fullscreenenter"",""1"",""2174""
","
","","","","","","null","<div style=""font-size:60px;"">+</div>","null","","fixation","","","","","","","","",""
"memory-trial","140","574306","0.0-15.0-1.48","1911","2","""event"",""trial"",""time""
""fullscreenenter"",""1"",""2174""
","
","
","""event"",""trial"",""time""
""fullscreenenter"",""1"",""2174""
","
","","","","","","1320.0999999996275","images/cow4.png","","","memory_trial","2","maybe_old","","","","","","",""
"html-keyboard-response","141","574809","0.0-15.0-0.49","1911","2","""event"",""trial"",""time""
""fullscreenenter"",""1"",""2174""
","
","
","""event"",""trial"",""time""
""fullscreenenter"",""1"",""2174""
","
","","","","","","null","<div style=""font-size:60px;"">+</div>","null","","fixation","","","","","","","","",""
"memory-trial","142","577308","0.0-15.0-1.49","1911","2","""event"",""trial"",""time""
""fullscreenenter"",""1"",""2174""
","
","
","""event"",""trial"",""time""
""fullscreenenter"",""1"",""2174""
","
","","","","","","1494.5","images/sheep2.png","","","memory_trial","3","maybe_new","","","","","","",""
"html-keyboard-response","143","577810","0.0-15.0-0.50","1911","2","""event"",""trial"",""time""
""fullscreenenter"",""1"",""2174""
","
","
","""event"",""trial"",""time""
""fullscreenenter"",""1"",""2174""
","
","","","","","","null","<div style=""font-size:60px;"">+</div>","null","","fixation","","","","","","","","",""
"memory-trial","144","579676","0.0-15.0-1.50","1911","2","""event"",""trial"",""time""
""fullscreenenter"",""1"",""2174""
","
","
","""event"",""trial"",""time""
""fullscreenenter"",""1"",""2174""
","
","","","","","","863","images/goat4.png","","","memory_trial","1","definitely_old","","","","","","",""
"html-keyboard-response","145","580177","0.0-15.0-0.51","1911","2","""event"",""trial"",""time""
""fullscreenenter"",""1"",""2174""
","
","
","""event"",""trial"",""time""
""fullscreenenter"",""1"",""2174""
","
","","","","","","null","<div style=""font-size:60px;"">+</div>","null","","fixation","","","","","","","","",""
"memory-trial","146","582235","0.0-15.0-1.51","1911","2","""event"",""trial"",""time""
""fullscreenenter"",""1"",""2174""
","
","
","""event"",""trial"",""time""
""fullscreenenter"",""1"",""2174""
","
","","","","","","1054.1000000000931","images/feline1.png","","","memory_trial","4","definitely_new","","","","","","",""
"html-keyboard-response","147","582736","0.0-15.0-0.52","1911","2","""event"",""trial"",""time""
""fullscreenenter"",""1"",""2174""
","
","
","""event"",""trial"",""time""
""fullscreenenter"",""1"",""2174""
","
","","","","","","null","<div style=""font-size:60px;"">+</div>","null","","fixation","","","","","","","","",""
"memory-trial","148","584922","0.0-15.0-1.52","1911","2","""event"",""trial"",""time""
""fullscreenenter"",""1"",""2174""
","
","
","""event"",""trial"",""time""
""fullscreenenter"",""1"",""2174""
","
","","","","","","1184","images/rodent5.png","","","memory_trial","1","definitely_old","","","","","","",""
"html-keyboard-response","149","585423","0.0-15.0-0.53","1911","2","""event"",""trial"",""time""
""fullscreenenter"",""1"",""2174""
","
","
","""event"",""trial"",""time""
""fullscreenenter"",""1"",""2174""
","
","","","","","","null","<div style=""font-size:60px;"">+</div>","null","","fixation","","","","","","","","",""
"memory-trial","150","587794","0.0-15.0-1.53","1911","2","""event"",""trial"",""time""
""fullscreenenter"",""1"",""2174""
","
","
","""event"",""trial"",""time""
""fullscreenenter"",""1"",""2174""
","
","","","","","","1368.3000000002794","images/bush4.png","","","memory_trial","2","maybe_old","","","","","","",""
"html-keyboard-response","151","588295","0.0-15.0-0.54","1911","2","""event"",""trial"",""time""
""fullscreenenter"",""1"",""2174""
","
","
","""event"",""trial"",""time""
""fullscreenenter"",""1"",""2174""
","
","","","","","","null","<div style=""font-size:60px;"">+</div>","null","","fixation","","","","","","","","",""
"memory-trial","152","591553","0.0-15.0-1.54","1911","2","""event"",""trial"",""time""
""fullscreenenter"",""1"",""2174""
","
","
","""event"",""trial"",""time""
""fullscreenenter"",""1"",""2174""
","
","","","","","","2256","images/rabbit2.png","","","memory_trial","3","maybe_new","","","","","","",""
"html-keyboard-response","153","592055","0.0-15.0-0.55","1911","2","""event"",""trial"",""time""
""fullscreenenter"",""1"",""2174""
","
","
","""event"",""trial"",""time""
""fullscreenenter"",""1"",""2174""
","
","","","","","","null","<div style=""font-size:60px;"">+</div>","null","","fixation","","","","","","","","",""
"memory-trial","154","595411","0.0-15.0-1.55","1911","2","""event"",""trial"",""time""
""fullscreenenter"",""1"",""2174""
","
","
","""event"",""trial"",""time""
""fullscreenenter"",""1"",""2174""
","
","","","","","","2353.0999999996275","images/flower4.png","","","memory_trial","2","maybe_old","","","","","","",""
"html-keyboard-response","155","595914","0.0-15.0-0.56","1911","2","""event"",""trial"",""time""
""fullscreenenter"",""1"",""2174""
","
","
","""event"",""trial"",""time""
""fullscreenenter"",""1"",""2174""
","
","","","","","","null","<div style=""font-size:60px;"">+</div>","null","","fixation","","","","","","","","",""
"memory-trial","156","600484","0.0-15.0-1.56","1911","2","""event"",""trial"",""time""
""fullscreenenter"",""1"",""2174""
","
","
","""event"",""trial"",""time""
""fullscreenenter"",""1"",""2174""
","
","","","","","","3568.2999999998137","images/goat1.png","","","memory_trial","4","definitely_new","","","","","","",""
"html-keyboard-response","157","600987","0.0-15.0-0.57","1911","2","""event"",""trial"",""time""
""fullscreenenter"",""1"",""2174""
","
","
","""event"",""trial"",""time""
""fullscreenenter"",""1"",""2174""
","
","","","","","","null","<div style=""font-size:60px;"">+</div>","null","","fixation","","","","","","","","",""
"memory-trial","158","603126","0.0-15.0-1.57","1911","2","""event"",""trial"",""time""
""fullscreenenter"",""1"",""2174""
","
","
","""event"",""trial"",""time""
""fullscreenenter"",""1"",""2174""
","
","","","","","","1136.0999999996275","images/sheep1.png","","","memory_trial","2","maybe_old","","","","","","",""
"html-keyboard-response","159","603628","0.0-15.0-0.58","1911","2","""event"",""trial"",""time""
""fullscreenenter"",""1"",""2174""
","
","
","""event"",""trial"",""time""
""fullscreenenter"",""1"",""2174""
","
","","","","","","null","<div style=""font-size:60px;"">+</div>","null","","fixation","","","","","","","","",""
"memory-trial","160","605464","0.0-15.0-1.58","1911","2","""event"",""trial"",""time""
""fullscreenenter"",""1"",""2174""
","
","
","""event"",""trial"",""time""
""fullscreenenter"",""1"",""2174""
","
","","","","","","833.7000000001863","images/sheep3.png","","","memory_trial","1","definitely_old","","","","","","",""
"html-keyboard-response","161","605966","0.0-15.0-0.59","1911","2","""event"",""trial"",""time""
""fullscreenenter"",""1"",""2174""
","
","
","""event"",""trial"",""time""
""fullscreenenter"",""1"",""2174""
","
","","","","","","null","<div style=""font-size:60px;"">+</div>","null","","fixation","","","","","","","","",""
"memory-trial","162","608424","0.0-15.0-1.59","1911","2","""event"",""trial"",""time""
""fullscreenenter"",""1"",""2174""
","
","
","""event"",""trial"",""time""
""fullscreenenter"",""1"",""2174""
","
","","","","","","1456.3999999999069","images/apple3.png","","","memory_trial","1","definitely_old","","","","","","",""
"html-keyboard-response","163","608926","0.0-15.0-0.60","1911","2","""event"",""trial"",""time""
""fullscreenenter"",""1"",""2174""
","
","
","""event"",""trial"",""time""
""fullscreenenter"",""1"",""2174""
","
","","","","","","null","<div style=""font-size:60px;"">+</div>","null","","fixation","","","","","","","","",""
"memory-trial","164","611493","0.0-15.0-1.60","1911","2","""event"",""trial"",""time""
""fullscreenenter"",""1"",""2174""
","
","
","""event"",""trial"",""time""
""fullscreenenter"",""1"",""2174""
","
","","","","","","1564.6999999997206","images/tree1.png","","","memory_trial","2","maybe_old","","","","","","",""
"html-keyboard-response","165","611995","0.0-15.0-0.61","1911","2","""event"",""trial"",""time""
""fullscreenenter"",""1"",""2174""
","
","
","""event"",""trial"",""time""
""fullscreenenter"",""1"",""2174""
","
","","","","","","null","<div style=""font-size:60px;"">+</div>","null","","fixation","","","","","","","","",""
"memory-trial","166","614387","0.0-15.0-1.61","1911","2","""event"",""trial"",""time""
""fullscreenenter"",""1"",""2174""
","
","
","""event"",""trial"",""time""
""fullscreenenter"",""1"",""2174""
","
","","","","","","1389.3000000002794","images/rabbit3.png","","","memory_trial","4","definitely_new","","","","","","",""
"html-keyboard-response","167","614889","0.0-15.0-0.62","1911","2","""event"",""trial"",""time""
""fullscreenenter"",""1"",""2174""
","
","
","""event"",""trial"",""time""
""fullscreenenter"",""1"",""2174""
","
","","","","","","null","<div style=""font-size:60px;"">+</div>","null","","fixation","","","","","","","","",""
"memory-trial","168","621040","0.0-15.0-1.62","1911","2","""event"",""trial"",""time""
""fullscreenenter"",""1"",""2174""
","
","
","""event"",""trial"",""time""
""fullscreenenter"",""1"",""2174""
","
","","","","","","5148.899999999907","images/rodent1.png","","","memory_trial","2","maybe_old","","","","","","",""
"html-keyboard-response","169","621541","0.0-15.0-0.63","1911","2","""event"",""trial"",""time""
""fullscreenenter"",""1"",""2174""
","
","
","""event"",""trial"",""time""
""fullscreenenter"",""1"",""2174""
","
","","","","","","null","<div style=""font-size:60px;"">+</div>","null","","fixation","","","","","","","","",""
"memory-trial","170","627543","0.0-15.0-1.63","1911","2","""event"",""trial"",""time""
""fullscreenenter"",""1"",""2174""
","
","
","""event"",""trial"",""time""
""fullscreenenter"",""1"",""2174""
","
","","","","","","4999","images/rabbit4.png","","","memory_trial","4","definitely_new","","","","","","",""
"html-keyboard-response","171","628044","0.0-15.0-0.64","1911","2","""event"",""trial"",""time""
""fullscreenenter"",""1"",""2174""
","
","
","""event"",""trial"",""time""
""fullscreenenter"",""1"",""2174""
","
","","","","","","null","<div style=""font-size:60px;"">+</div>","null","","fixation","","","","","","","","",""
"memory-trial","172","630994","0.0-15.0-1.64","1911","2","""event"",""trial"",""time""
""fullscreenenter"",""1"",""2174""
","
","
","""event"",""trial"",""time""
""fullscreenenter"",""1"",""2174""
","
","","","","","","1946.6999999997206","images/plane3.png","","","memory_trial","3","maybe_new","","","","","","",""
"html-keyboard-response","173","631496","0.0-15.0-0.65","1911","2","""event"",""trial"",""time""
""fullscreenenter"",""1"",""2174""
","
","
","""event"",""trial"",""time""
""fullscreenenter"",""1"",""2174""
","
","","","","","","null","<div style=""font-size:60px;"">+</div>","null","","fixation","","","","","","","","",""
"memory-trial","174","633680","0.0-15.0-1.65","1911","2","""event"",""trial"",""time""
""fullscreenenter"",""1"",""2174""
","
","
","""event"",""trial"",""time""
""fullscreenenter"",""1"",""2174""
","
","","","","","","1180.5999999996275","images/table3.png","","","memory_trial","4","definitely_new","","","","","","",""
"html-keyboard-response","175","634181","0.0-15.0-0.66","1911","2","""event"",""trial"",""time""
""fullscreenenter"",""1"",""2174""
","
","
","""event"",""trial"",""time""
""fullscreenenter"",""1"",""2174""
","
","","","","","","null","<div style=""font-size:60px;"">+</div>","null","","fixation","","","","","","","","",""
"memory-trial","176","636815","0.0-15.0-1.66","1911","2","""event"",""trial"",""time""
""fullscreenenter"",""1"",""2174""
","
","
","""event"",""trial"",""time""
""fullscreenenter"",""1"",""2174""
","
","","","","","","1632.5","images/dog4.png","","","memory_trial","3","maybe_new","","","","","","",""
"html-keyboard-response","177","637316","0.0-15.0-0.67","1911","2","""event"",""trial"",""time""
""fullscreenenter"",""1"",""2174""
","
","
","""event"",""trial"",""time""
""fullscreenenter"",""1"",""2174""
","
","","","","","","null","<div style=""font-size:60px;"">+</div>","null","","fixation","","","","","","","","",""
"memory-trial","178","639779","0.0-15.0-1.67","1911","2","""event"",""trial"",""time""
""fullscreenenter"",""1"",""2174""
","
","
","""event"",""trial"",""time""
""fullscreenenter"",""1"",""2174""
","
","","","","","","1460","images/apple4.png","","","memory_trial","2","maybe_old","","","","","","",""
"html-keyboard-response","179","640281","0.0-15.0-0.68","1911","2","""event"",""trial"",""time""
""fullscreenenter"",""1"",""2174""
","
","
","""event"",""trial"",""time""
""fullscreenenter"",""1"",""2174""
","
","","","","","","null","<div style=""font-size:60px;"">+</div>","null","","fixation","","","","","","","","",""
"memory-trial","180","643010","0.0-15.0-1.68","1911","2","""event"",""trial"",""time""
""fullscreenenter"",""1"",""2174""
","
","
","""event"",""trial"",""time""
""fullscreenenter"",""1"",""2174""
","
","","","","","","1727.4000000003725","images/flower5.png","","","memory_trial","4","definitely_new","","","","","","",""
"html-keyboard-response","181","643512","0.0-15.0-0.69","1911","2","""event"",""trial"",""time""
""fullscreenenter"",""1"",""2174""
","
","
","""event"",""trial"",""time""
""fullscreenenter"",""1"",""2174""
","
","","","","","","null","<div style=""font-size:60px;"">+</div>","null","","fixation","","","","","","","","",""
"memory-trial","182","646571","0.0-15.0-1.69","1911","2","""event"",""trial"",""time""
""fullscreenenter"",""1"",""2174""
","
","
","""event"",""trial"",""time""
""fullscreenenter"",""1"",""2174""
","
","","","","","","2056","images/bed2.png","","","memory_trial","3","maybe_new","","","","","","",""
"html-keyboard-response","183","647073","0.0-15.0-0.70","1911","2","""event"",""trial"",""time""
""fullscreenenter"",""1"",""2174""
","
","
","""event"",""trial"",""time""
""fullscreenenter"",""1"",""2174""
","
","","","","","","null","<div style=""font-size:60px;"">+</div>","null","","fixation","","","","","","","","",""
"memory-trial","184","649557","0.0-15.0-1.70","1911","2","""event"",""trial"",""time""
""fullscreenenter"",""1"",""2174""
","
","
","""event"",""trial"",""time""
""fullscreenenter"",""1"",""2174""
","
","","","","","","1482.1000000000931","images/train3.png","","","memory_trial","1","definitely_old","","","","","","",""
"html-keyboard-response","185","650059","0.0-15.0-0.71","1911","2","""event"",""trial"",""time""
""fullscreenenter"",""1"",""2174""
","
","
","""event"",""trial"",""time""
""fullscreenenter"",""1"",""2174""
","
","","","","","","null","<div style=""font-size:60px;"">+</div>","null","","fixation","","","","","","","","",""
"memory-trial","186","652020","0.0-15.0-1.71","1911","2","""event"",""trial"",""time""
""fullscreenenter"",""1"",""2174""
","
","
","""event"",""trial"",""time""
""fullscreenenter"",""1"",""2174""
","
","","","","","","958.1000000000931","images/banana2.png","","","memory_trial","2","maybe_old","","","","","","",""
"html-keyboard-response","187","652523","0.0-15.0-0.72","1911","2","""event"",""trial"",""time""
""fullscreenenter"",""1"",""2174""
","
","
","""event"",""trial"",""time""
""fullscreenenter"",""1"",""2174""
","
","","","","","","null","<div style=""font-size:60px;"">+</div>","null","","fixation","","","","","","","","",""
"memory-trial","188","655501","0.0-15.0-1.72","1911","2","""event"",""trial"",""time""
""fullscreenenter"",""1"",""2174""
","
","
","""event"",""trial"",""time""
""fullscreenenter"",""1"",""2174""
","
","","","","","","1974.3000000002794","images/sofa1.png","","","memory_trial","1","definitely_old","","","","","","",""
"html-keyboard-response","189","656004","0.0-15.0-0.73","1911","2","""event"",""trial"",""time""
""fullscreenenter"",""1"",""2174""
","
","
","""event"",""trial"",""time""
""fullscreenenter"",""1"",""2174""
","
","","","","","","null","<div style=""font-size:60px;"">+</div>","null","","fixation","","","","","","","","",""
"memory-trial","190","660978","0.0-15.0-1.73","1911","2","""event"",""trial"",""time""
""fullscreenenter"",""1"",""2174""
","
","
","""event"",""trial"",""time""
""fullscreenenter"",""1"",""2174""
","
","","","","","","3971","images/straw2.png","","","memory_trial","3","maybe_new","","","","","","",""
"html-keyboard-response","191","661480","0.0-15.0-0.74","1911","2","""event"",""trial"",""time""
""fullscreenenter"",""1"",""2174""
","
","
","""event"",""trial"",""time""
""fullscreenenter"",""1"",""2174""
","
","","","","","","null","<div style=""font-size:60px;"">+</div>","null","","fixation","","","","","","","","",""
"memory-trial","192","664188","0.0-15.0-1.74","1911","2","""event"",""trial"",""time""
""fullscreenenter"",""1"",""2174""
","
","
","""event"",""trial"",""time""
""fullscreenenter"",""1"",""2174""
","
","","","","","","1705.2000000001863","images/train2.png","","","memory_trial","1","definitely_old","","","","","","",""
"html-keyboard-response","193","664690","0.0-15.0-0.75","1911","2","""event"",""trial"",""time""
""fullscreenenter"",""1"",""2174""
","
","
","""event"",""trial"",""time""
""fullscreenenter"",""1"",""2174""
","
","","","","","","null","<div style=""font-size:60px;"">+</div>","null","","fixation","","","","","","","","",""
"memory-trial","194","668388","0.0-15.0-1.75","1911","2","""event"",""trial"",""time""
""fullscreenenter"",""1"",""2174""
","
","
","""event"",""trial"",""time""
""fullscreenenter"",""1"",""2174""
","
","","","","","","2695.6999999997206","images/straw1.png","","","memory_trial","3","maybe_new","","","","","","",""
"html-keyboard-response","195","668889","0.0-15.0-0.76","1911","2","""event"",""trial"",""time""
""fullscreenenter"",""1"",""2174""
","
","
","""event"",""trial"",""time""
""fullscreenenter"",""1"",""2174""
","
","","","","","","null","<div style=""font-size:60px;"">+</div>","null","","fixation","","","","","","","","",""
"memory-trial","196","674084","0.0-15.0-1.76","1911","2","""event"",""trial"",""time""
""fullscreenenter"",""1"",""2174""
","
","
","""event"",""trial"",""time""
""fullscreenenter"",""1"",""2174""
","
","","","","","","4193.5","images/goat2.png","","","memory_trial","4","definitely_new","","","","","","",""
"html-keyboard-response","197","674586","0.0-15.0-0.77","1911","2","""event"",""trial"",""time""
""fullscreenenter"",""1"",""2174""
","
","
","""event"",""trial"",""time""
""fullscreenenter"",""1"",""2174""
","
","","","","","","null","<div style=""font-size:60px;"">+</div>","null","","fixation","","","","","","","","",""
"memory-trial","198","679633","0.0-15.0-1.77","1911","2","""event"",""trial"",""time""
""fullscreenenter"",""1"",""2174""
","
","
","""event"",""trial"",""time""
""fullscreenenter"",""1"",""2174""
","
","","","","","","4043.8000000002794","images/plane5.png","","","memory_trial","2","maybe_old","","","","","","",""
"html-keyboard-response","199","680134","0.0-15.0-0.78","1911","2","""event"",""trial"",""time""
""fullscreenenter"",""1"",""2174""
","
","
","""event"",""trial"",""time""
""fullscreenenter"",""1"",""2174""
","
","","","","","","null","<div style=""font-size:60px;"">+</div>","null","","fixation","","","","","","","","",""
"memory-trial","200","683821","0.0-15.0-1.78","1911","2","""event"",""trial"",""time""
""fullscreenenter"",""1"",""2174""
","
","
","""event"",""trial"",""time""
""fullscreenenter"",""1"",""2174""
","
","","","","","","2683.899999999907","images/chair1.png","","","memory_trial","1","definitely_old","","","","","","",""
"html-keyboard-response","201","684323","0.0-15.0-0.79","1911","2","""event"",""trial"",""time""
""fullscreenenter"",""1"",""2174""
","
","
","""event"",""trial"",""time""
""fullscreenenter"",""1"",""2174""
","
","","","","","","null","<div style=""font-size:60px;"">+</div>","null","","fixation","","","","","","","","",""
"memory-trial","202","688942","0.0-15.0-1.79","1911","2","""event"",""trial"",""time""
""fullscreenenter"",""1"",""2174""
","
","
","""event"",""trial"",""time""
""fullscreenenter"",""1"",""2174""
","
","","","","","","3615.899999999907","images/flower1.png","","","memory_trial","1","definitely_old","","","","","","",""
"html-keyboard-response","203","689445","0.0-15.0-0.80","1911","2","""event"",""trial"",""time""
""fullscreenenter"",""1"",""2174""
","
","
","""event"",""trial"",""time""
""fullscreenenter"",""1"",""2174""
","
","","","","","","null","<div style=""font-size:60px;"">+</div>","null","","fixation","","","","","","","","",""
"memory-trial","204","691667","0.0-15.0-1.80","1911","2","""event"",""trial"",""time""
""fullscreenenter"",""1"",""2174""
","
","
","""event"",""trial"",""time""
""fullscreenenter"",""1"",""2174""
","
","","","","","","1219.6000000000931","images/table1.png","","","memory_trial","3","maybe_new","","","","","","",""
"html-keyboard-response","205","692168","0.0-15.0-0.81","1911","2","""event"",""trial"",""time""
""fullscreenenter"",""1"",""2174""
","
","
","""event"",""trial"",""time""
""fullscreenenter"",""1"",""2174""
","
","","","","","","null","<div style=""font-size:60px;"">+</div>","null","","fixation","","","","","","","","",""
"memory-trial","206","694213","0.0-15.0-1.81","1911","2","""event"",""trial"",""time""
""fullscreenenter"",""1"",""2174""
","
","
","""event"",""trial"",""time""
""fullscreenenter"",""1"",""2174""
","
","","","","","","1042.3999999999069","images/truck3.png","","","memory_trial","1","definitely_old","","","","","","",""
"html-keyboard-response","207","694715","0.0-15.0-0.82","1911","2","""event"",""trial"",""time""
""fullscreenenter"",""1"",""2174""
","
","
","""event"",""trial"",""time""
""fullscreenenter"",""1"",""2174""
","
","","","","","","null","<div style=""font-size:60px;"">+</div>","null","","fixation","","","","","","","","",""
"memory-trial","208","696833","0.0-15.0-1.82","1911","2","""event"",""trial"",""time""
""fullscreenenter"",""1"",""2174""
","
","
","""event"",""trial"",""time""
""fullscreenenter"",""1"",""2174""
","
","","","","","","1115.4000000003725","images/bush5.png","","","memory_trial","1","definitely_old","","","","","","",""
"html-keyboard-response","209","697335","0.0-15.0-0.83","1911","2","""event"",""trial"",""time""
""fullscreenenter"",""1"",""2174""
","
","
","""event"",""trial"",""time""
""fullscreenenter"",""1"",""2174""
","
","","","","","","null","<div style=""font-size:60px;"">+</div>","null","","fixation","","","","","","","","",""
"memory-trial","210","701602","0.0-15.0-1.83","1911","2","""event"",""trial"",""time""
""fullscreenenter"",""1"",""2174""
","
","
","""event"",""trial"",""time""
""fullscreenenter"",""1"",""2174""
","
","","","","","","3264","images/boat5.png","","","memory_trial","4","definitely_new","","","","","","",""
"html-keyboard-response","211","702104","0.0-15.0-0.84","1911","2","""event"",""trial"",""time""
""fullscreenenter"",""1"",""2174""
","
","
","""event"",""trial"",""time""
""fullscreenenter"",""1"",""2174""
","
","","","","","","null","<div style=""font-size:60px;"">+</div>","null","","fixation","","","","","","","","",""
"memory-trial","212","706998","0.0-15.0-1.84","1911","2","""event"",""trial"",""time""
""fullscreenenter"",""1"",""2174""
","
","
","""event"",""trial"",""time""
""fullscreenenter"",""1"",""2174""
","
","","","","","","3892","images/horse5.png","","","memory_trial","1","definitely_old","","","","","","",""
"html-keyboard-response","213","707500","0.0-15.0-0.85","1911","2","""event"",""trial"",""time""
""fullscreenenter"",""1"",""2174""
","
","
","""event"",""trial"",""time""
""fullscreenenter"",""1"",""2174""
","
","","","","","","null","<div style=""font-size:60px;"">+</div>","null","","fixation","","","","","","","","",""
"memory-trial","214","713169","0.0-15.0-1.85","1911","2","""event"",""trial"",""time""
""fullscreenenter"",""1"",""2174""
","
","
","""event"",""trial"",""time""
""fullscreenenter"",""1"",""2174""
","
","","","","","","4666.100000000093","images/horse2.png","","","memory_trial","4","definitely_new","","","","","","",""
"html-keyboard-response","215","713670","0.0-15.0-0.86","1911","2","""event"",""trial"",""time""
""fullscreenenter"",""1"",""2174""
","
","
","""event"",""trial"",""time""
""fullscreenenter"",""1"",""2174""
","
","","","","","","null","<div style=""font-size:60px;"">+</div>","null","","fixation","","","","","","","","",""
"memory-trial","216","720171","0.0-15.0-1.86","1911","2","""event"",""trial"",""time""
""fullscreenenter"",""1"",""2174""
","
","
","""event"",""trial"",""time""
""fullscreenenter"",""1"",""2174""
","
","","","","","","5496.300000000279","images/dog1.png","","","memory_trial","4","definitely_new","","","","","","",""
"html-keyboard-response","217","720672","0.0-15.0-0.87","1911","2","""event"",""trial"",""time""
""fullscreenenter"",""1"",""2174""
","
","
","""event"",""trial"",""time""
""fullscreenenter"",""1"",""2174""
","
","","","","","","null","<div style=""font-size:60px;"">+</div>","null","","fixation","","","","","","","","",""
"memory-trial","218","722651","0.0-15.0-1.87","1911","2","""event"",""trial"",""time""
""fullscreenenter"",""1"",""2174""
","
","
","""event"",""trial"",""time""
""fullscreenenter"",""1"",""2174""
","
","","","","","","975.2000000001863","images/truck5.png","","","memory_trial","1","definitely_old","","","","","","",""
"html-keyboard-response","219","723152","0.0-15.0-0.88","1911","2","""event"",""trial"",""time""
""fullscreenenter"",""1"",""2174""
","
","
","""event"",""trial"",""time""
""fullscreenenter"",""1"",""2174""
","
","","","","","","null","<div style=""font-size:60px;"">+</div>","null","","fixation","","","","","","","","",""
"memory-trial","220","725431","0.0-15.0-1.88","1911","2","""event"",""trial"",""time""
""fullscreenenter"",""1"",""2174""
","
","
","""event"",""trial"",""time""
""fullscreenenter"",""1"",""2174""
","
","","","","","","1275.8000000002794","images/dog2.png","","","memory_trial","3","maybe_new","","","","","","",""
"html-keyboard-response","221","725933","0.0-15.0-0.89","1911","2","""event"",""trial"",""time""
""fullscreenenter"",""1"",""2174""
","
","
","""event"",""trial"",""time""
""fullscreenenter"",""1"",""2174""
","
","","","","","","null","<div style=""font-size:60px;"">+</div>","null","","fixation","","","","","","","","",""
"memory-trial","222","727649","0.0-15.0-1.89","1911","2","""event"",""trial"",""time""
""fullscreenenter"",""1"",""2174""
","
","
","""event"",""trial"",""time""
""fullscreenenter"",""1"",""2174""
","
","","","","","","714","images/sofa5.png","","","memory_trial","1","definitely_old","","","","","","",""
"html-keyboard-response","223","728150","0.0-15.0-0.90","1911","2","""event"",""trial"",""time""
""fullscreenenter"",""1"",""2174""
","
","
","""event"",""trial"",""time""
""fullscreenenter"",""1"",""2174""
","
","","","","","","null","<div style=""font-size:60px;"">+</div>","null","","fixation","","","","","","","","",""
"memory-trial","224","730098","0.0-15.0-1.90","1911","2","""event"",""trial"",""time""
""fullscreenenter"",""1"",""2174""
","
","
","""event"",""trial"",""time""
""fullscreenenter"",""1"",""2174""
","
","","","","","","946.3000000002794","images/horse4.png","","","memory_trial","4","definitely_new","","","","","","",""
"html-keyboard-response","225","730601","0.0-15.0-0.91","1911","2","""event"",""trial"",""time""
""fullscreenenter"",""1"",""2174""
","
","
","""event"",""trial"",""time""
""fullscreenenter"",""1"",""2174""
","
","","","","","","null","<div style=""font-size:60px;"">+</div>","null","","fixation","","","","","","","","",""
"memory-trial","226","732541","0.0-15.0-1.91","1911","2","""event"",""trial"",""time""
""fullscreenenter"",""1"",""2174""
","
","
","""event"",""trial"",""time""
""fullscreenenter"",""1"",""2174""
","
","","","","","","938.2999999998137","images/plane4.png","","","memory_trial","4","definitely_new","","","","","","",""
"html-keyboard-response","227","733044","0.0-15.0-0.92","1911","2","""event"",""trial"",""time""
""fullscreenenter"",""1"",""2174""
","
","
","""event"",""trial"",""time""
""fullscreenenter"",""1"",""2174""
","
","","","","","","null","<div style=""font-size:60px;"">+</div>","null","","fixation","","","","","","","","",""
"memory-trial","228","735690","0.0-15.0-1.92","1911","2","""event"",""trial"",""time""
""fullscreenenter"",""1"",""2174""
","
","
","""event"",""trial"",""time""
""fullscreenenter"",""1"",""2174""
","
","","","","","","1644.1000000000931","images/tree3.png","","","memory_trial","3","maybe_new","","","","","","",""
"html-keyboard-response","229","736192","0.0-15.0-0.93","1911","2","""event"",""trial"",""time""
""fullscreenenter"",""1"",""2174""
","
","
","""event"",""trial"",""time""
""fullscreenenter"",""1"",""2174""
","
","","","","","","null","<div style=""font-size:60px;"">+</div>","null","","fixation","","","","","","","","",""
"memory-trial","230","738342","0.0-15.0-1.93","1911","2","""event"",""trial"",""time""
""fullscreenenter"",""1"",""2174""
","
","
","""event"",""trial"",""time""
""fullscreenenter"",""1"",""2174""
","
","","","","","","1147.5","images/horse1.png","","","memory_trial","2","maybe_old","","","","","","",""
"html-keyboard-response","231","738843","0.0-15.0-0.94","1911","2","""event"",""trial"",""time""
""fullscreenenter"",""1"",""2174""
","
","
","""event"",""trial"",""time""
""fullscreenenter"",""1"",""2174""
","
","","","","","","null","<div style=""font-size:60px;"">+</div>","null","","fixation","","","","","","","","",""
"memory-trial","232","741142","0.0-15.0-1.94","1911","2","""event"",""trial"",""time""
""fullscreenenter"",""1"",""2174""
","
","
","""event"",""trial"",""time""
""fullscreenenter"",""1"",""2174""
","
","","","","","","1296.6999999997206","images/dog3.png","","","memory_trial","3","maybe_new","","","","","","",""
"html-keyboard-response","233","741644","0.0-15.0-0.95","1911","2","""event"",""trial"",""time""
""fullscreenenter"",""1"",""2174""
","
","
","""event"",""trial"",""time""
""fullscreenenter"",""1"",""2174""
","
","","","","","","null","<div style=""font-size:60px;"">+</div>","null","","fixation","","","","","","","","",""
"memory-trial","234","743429","0.0-15.0-1.95","1911","2","""event"",""trial"",""time""
""fullscreenenter"",""1"",""2174""
","
","
","""event"",""trial"",""time""
""fullscreenenter"",""1"",""2174""
","
","","","","","","782.2000000001863","images/goat5.png","","","memory_trial","1","definitely_old","","","","","","",""
"html-keyboard-response","235","743931","0.0-15.0-0.96","1911","2","""event"",""trial"",""time""
""fullscreenenter"",""1"",""2174""
","
","
","""event"",""trial"",""time""
""fullscreenenter"",""1"",""2174""
","
","","","","","","null","<div style=""font-size:60px;"">+</div>","null","","fixation","","","","","","","","",""
"memory-trial","236","746608","0.0-15.0-1.96","1911","2","""event"",""trial"",""time""
""fullscreenenter"",""1"",""2174""
","
","
","""event"",""trial"",""time""
""fullscreenenter"",""1"",""2174""
","
","","","","","","1674.7000000001863","images/horse3.png","","","memory_trial","3","maybe_new","","","","","","",""
"html-keyboard-response","237","747109","0.0-15.0-0.97","1911","2","""event"",""trial"",""time""
""fullscreenenter"",""1"",""2174""
","
","
","""event"",""trial"",""time""
""fullscreenenter"",""1"",""2174""
","
","","","","","","null","<div style=""font-size:60px;"">+</div>","null","","fixation","","","","","","","","",""
"memory-trial","238","749021","0.0-15.0-1.97","1911","2","""event"",""trial"",""time""
""fullscreenenter"",""1"",""2174""
","
","
","""event"",""trial"",""time""
""fullscreenenter"",""1"",""2174""
","
","","","","","","909.2000000001863","images/rabbit5.png","","","memory_trial","3","maybe_new","","","","","","",""
"html-keyboard-response","239","749523","0.0-15.0-0.98","1911","2","""event"",""trial"",""time""
""fullscreenenter"",""1"",""2174""
","
","
","""event"",""trial"",""time""
""fullscreenenter"",""1"",""2174""
","
","","","","","","null","<div style=""font-size:60px;"">+</div>","null","","fixation","","","","","","","","",""
"memory-trial","240","752114","0.0-15.0-1.98","1911","2","""event"",""trial"",""time""
""fullscreenenter"",""1"",""2174""
","
","
","""event"",""trial"",""time""
""fullscreenenter"",""1"",""2174""
","
","","","","","","1589.6000000000931","images/chair5.png","","","memory_trial","1","definitely_old","","","","","","",""
"html-keyboard-response","241","752617","0.0-15.0-0.99","1911","2","""event"",""trial"",""time""
""fullscreenenter"",""1"",""2174""
","
","
","""event"",""trial"",""time""
""fullscreenenter"",""1"",""2174""
","
","","","","","","null","<div style=""font-size:60px;"">+</div>","null","","fixation","","","","","","","","",""
"memory-trial","242","755042","0.0-15.0-1.99","1911","2","""event"",""trial"",""time""
""fullscreenenter"",""1"",""2174""
","
","
","""event"",""trial"",""time""
""fullscreenenter"",""1"",""2174""
","
","","","","","","1423.2999999998137","images/orange4.png","","","memory_trial","2","maybe_old","","","","","","",""
"html-keyboard-response","243","755543","0.0-15.0-0.100","1911","2","""event"",""trial"",""time""
""fullscreenenter"",""1"",""2174""
","
","
","""event"",""trial"",""time""
""fullscreenenter"",""1"",""2174""
","
","","","","","","null","<div style=""font-size:60px;"">+</div>","null","","fixation","","","","","","","","",""
"memory-trial","244","757478","0.0-15.0-1.100","1911","2","""event"",""trial"",""time""
""fullscreenenter"",""1"",""2174""
","
","
","""event"",""trial"",""time""
""fullscreenenter"",""1"",""2174""
","
","","","","","","930.2000000001863","images/rabbit1.png","","","memory_trial","3","maybe_new","","","","","","",""
"html-keyboard-response","245","757979","0.0-15.0-0.101","1911","2","""event"",""trial"",""time""
""fullscreenenter"",""1"",""2174""
","
","
","""event"",""trial"",""time""
""fullscreenenter"",""1"",""2174""
","
","","","","","","null","<div style=""font-size:60px;"">+</div>","null","","fixation","","","","","","","","",""
"memory-trial","246","760079","0.0-15.0-1.101","1911","2","""event"",""trial"",""time""
""fullscreenenter"",""1"",""2174""
","
","
","""event"",""trial"",""time""
""fullscreenenter"",""1"",""2174""
","
","","","","","","1096.6000000000931","images/apple5.png","","","memory_trial","2","maybe_old","","","","","","",""
"html-button-response","247","978798","0.0-15.0-2.101-0.101","1911","2","""event"",""trial"",""time""
""fullscreenenter"",""1"",""2174""
","
","
","""event"",""trial"",""time""
""fullscreenenter"",""1"",""2174""
","
","","","","","","218718.1000000001","<p> Take a break! </p><p> Click the button to continue. </p>","0","","break","","","","","","","","",""
"html-keyboard-response","248","979300","0.0-15.0-0.102","1911","2","""event"",""trial"",""time""
""fullscreenenter"",""1"",""2174""
","
","
","""event"",""trial"",""time""
""fullscreenenter"",""1"",""2174""
","
","","","","","","null","<div style=""font-size:60px;"">+</div>","null","","fixation","","","","","","","","",""
"memory-trial","249","983483","0.0-15.0-1.102","1911","2","""event"",""trial"",""time""
""fullscreenenter"",""1"",""2174""
","
","
","""event"",""trial"",""time""
""fullscreenenter"",""1"",""2174""
","
","","","","","","3181.0999999996275","images/tree5.png","","","memory_trial","3","maybe_new","","","","","","",""
"html-keyboard-response","250","983984","0.0-15.0-0.103","1911","2","""event"",""trial"",""time""
""fullscreenenter"",""1"",""2174""
","
","
","""event"",""trial"",""time""
""fullscreenenter"",""1"",""2174""
","
","","","","","","null","<div style=""font-size:60px;"">+</div>","null","","fixation","","","","","","","","",""
"memory-trial","251","986194","0.0-15.0-1.103","1911","2","""event"",""trial"",""time""
""fullscreenenter"",""1"",""2174""
","
","
","""event"",""trial"",""time""
""fullscreenenter"",""1"",""2174""
","
","","","","","","1206.5","images/tree4.png","","","memory_trial","1","definitely_old","","","","","","",""
"html-keyboard-response","252","986696","0.0-15.0-0.104","1911","2","""event"",""trial"",""time""
""fullscreenenter"",""1"",""2174""
","
","
","""event"",""trial"",""time""
""fullscreenenter"",""1"",""2174""
","
","","","","","","null","<div style=""font-size:60px;"">+</div>","null","","fixation","","","","","","","","",""
"memory-trial","253","989073","0.0-15.0-1.104","1911","2","""event"",""trial"",""time""
""fullscreenenter"",""1"",""2174""
","
","
","""event"",""trial"",""time""
""fullscreenenter"",""1"",""2174""
","
","","","","","","1374.2000000001863","images/cactus2.png","","","memory_trial","1","definitely_old","","","","","","",""
"html-keyboard-response","254","989574","0.0-15.0-0.105","1911","2","""event"",""trial"",""time""
""fullscreenenter"",""1"",""2174""
","
","
","""event"",""trial"",""time""
""fullscreenenter"",""1"",""2174""
","
","","","","","","null","<div style=""font-size:60px;"">+</div>","null","","fixation","","","","","","","","",""
"memory-trial","255","991984","0.0-15.0-1.105","1911","2","""event"",""trial"",""time""
""fullscreenenter"",""1"",""2174""
","
","
","""event"",""trial"",""time""
""fullscreenenter"",""1"",""2174""
","
","","","","","","1406","images/cow1.png","","","memory_trial","2","maybe_old","","","","","","",""
"html-keyboard-response","256","992486","0.0-15.0-0.106","1911","2","""event"",""trial"",""time""
""fullscreenenter"",""1"",""2174""
","
","
","""event"",""trial"",""time""
""fullscreenenter"",""1"",""2174""
","
","","","","","","null","<div style=""font-size:60px;"">+</div>","null","","fixation","","","","","","","","",""
"memory-trial","257","994193","0.0-15.0-1.106","1911","2","""event"",""trial"",""time""
""fullscreenenter"",""1"",""2174""
","
","
","""event"",""trial"",""time""
""fullscreenenter"",""1"",""2174""
","
","","","","","","704.7000000001863","images/bed5.png","","","memory_trial","1","definitely_old","","","","","","",""
"html-keyboard-response","258","994694","0.0-15.0-0.107","1911","2","""event"",""trial"",""time""
""fullscreenenter"",""1"",""2174""
","
","
","""event"",""trial"",""time""
""fullscreenenter"",""1"",""2174""
","
","","","","","","null","<div style=""font-size:60px;"">+</div>","null","","fixation","","","","","","","","",""
"memory-trial","259","997202","0.0-15.0-1.107","1911","2","""event"",""trial"",""time""
""fullscreenenter"",""1"",""2174""
","
","
","""event"",""trial"",""time""
""fullscreenenter"",""1"",""2174""
","
","","","","","","1505.3999999999069","images/sofa3.png","","","memory_trial","3","maybe_new","","","","","","",""
"html-keyboard-response","260","997704","0.0-15.0-0.108","1911","2","""event"",""trial"",""time""
""fullscreenenter"",""1"",""2174""
","
","
","""event"",""trial"",""time""
""fullscreenenter"",""1"",""2174""
","
","","","","","","null","<div style=""font-size:60px;"">+</div>","null","","fixation","","","","","","","","",""
"memory-trial","261","999523","0.0-15.0-1.108","1911","2","""event"",""trial"",""time""
""fullscreenenter"",""1"",""2174""
","
","
","""event"",""trial"",""time""
""fullscreenenter"",""1"",""2174""
","
","","","","","","815.8999999999069","images/chair2.png","","","memory_trial","1","definitely_old","","","","","","",""
"html-keyboard-response","262","1000024","0.0-15.0-0.109","1911","2","""event"",""trial"",""time""
""fullscreenenter"",""1"",""2174""
","
","
","""event"",""trial"",""time""
""fullscreenenter"",""1"",""2174""
","
","","","","","","null","<div style=""font-size:60px;"">+</div>","null","","fixation","","","","","","","","",""
"memory-trial","263","1001820","0.0-15.0-1.109","1911","2","""event"",""trial"",""time""
""fullscreenenter"",""1"",""2174""
","
","
","""event"",""trial"",""time""
""fullscreenenter"",""1"",""2174""
","
","","","","","","793.1000000000931","images/apple2.png","","","memory_trial","1","definitely_old","","","","","","",""
"html-keyboard-response","264","1002322","0.0-15.0-0.110","1911","2","""event"",""trial"",""time""
""fullscreenenter"",""1"",""2174""
","
","
","""event"",""trial"",""time""
""fullscreenenter"",""1"",""2174""
","
","","","","","","null","<div style=""font-size:60px;"">+</div>","null","","fixation","","","","","","","","",""
"memory-trial","265","1004235","0.0-15.0-1.110","1911","2","""event"",""trial"",""time""
""fullscreenenter"",""1"",""2174""
","
","
","""event"",""trial"",""time""
""fullscreenenter"",""1"",""2174""
","
","","","","","","910.3999999999069","images/cactus5.png","","","memory_trial","1","definitely_old","","","","","","",""
"html-keyboard-response","266","1004737","0.0-15.0-0.111","1911","2","""event"",""trial"",""time""
""fullscreenenter"",""1"",""2174""
","
","
","""event"",""trial"",""time""
""fullscreenenter"",""1"",""2174""
","
","","","","","","null","<div style=""font-size:60px;"">+</div>","null","","fixation","","","","","","","","",""
"memory-trial","267","1007107","0.0-15.0-1.111","1911","2","""event"",""trial"",""time""
""fullscreenenter"",""1"",""2174""
","
","
","""event"",""trial"",""time""
""fullscreenenter"",""1"",""2174""
","
","","","","","","1367.1999999997206","images/sheep5.png","","","memory_trial","2","maybe_old","","","","","","",""
"html-keyboard-response","268","1007608","0.0-15.0-0.112","1911","2","""event"",""trial"",""time""
""fullscreenenter"",""1"",""2174""
","
","
","""event"",""trial"",""time""
""fullscreenenter"",""1"",""2174""
","
","","","","","","null","<div style=""font-size:60px;"">+</div>","null","","fixation","","","","","","","","",""
"memory-trial","269","1009643","0.0-15.0-1.112","1911","2","""event"",""trial"",""time""
""fullscreenenter"",""1"",""2174""
","
","
","""event"",""trial"",""time""
""fullscreenenter"",""1"",""2174""
","
","","","","","","1032.3999999999069","images/orange2.png","","","memory_trial","2","maybe_old","","","","","","",""
"html-keyboard-response","270","1010145","0.0-15.0-0.113","1911","2","""event"",""trial"",""time""
""fullscreenenter"",""1"",""2174""
","
","
","""event"",""trial"",""time""
""fullscreenenter"",""1"",""2174""
","
","","","","","","null","<div style=""font-size:60px;"">+</div>","null","","fixation","","","","","","","","",""
"memory-trial","271","1012019","0.0-15.0-1.113","1911","2","""event"",""trial"",""time""
""fullscreenenter"",""1"",""2174""
","
","
","""event"",""trial"",""time""
""fullscreenenter"",""1"",""2174""
","
","","","","","","871.8999999999069","images/boat4.png","","","memory_trial","4","definitely_new","","","","","","",""
"html-keyboard-response","272","1012520","0.0-15.0-0.114","1911","2","""event"",""trial"",""time""
""fullscreenenter"",""1"",""2174""
","
","
","""event"",""trial"",""time""
""fullscreenenter"",""1"",""2174""
","
","","","","","","null","<div style=""font-size:60px;"">+</div>","null","","fixation","","","","","","","","",""
"memory-trial","273","1015194","0.0-15.0-1.114","1911","2","""event"",""trial"",""time""
""fullscreenenter"",""1"",""2174""
","
","
","""event"",""trial"",""time""
""fullscreenenter"",""1"",""2174""
","
","","","","","","1670","images/sheep4.png","","","memory_trial","3","maybe_new","","","","","","",""
"html-keyboard-response","274","1015695","0.0-15.0-0.115","1911","2","""event"",""trial"",""time""
""fullscreenenter"",""1"",""2174""
","
","
","""event"",""trial"",""time""
""fullscreenenter"",""1"",""2174""
","
","","","","","","null","<div style=""font-size:60px;"">+</div>","null","","fixation","","","","","","","","",""
"memory-trial","275","1017717","0.0-15.0-1.115","1911","2","""event"",""trial"",""time""
""fullscreenenter"",""1"",""2174""
","
","
","""event"",""trial"",""time""
""fullscreenenter"",""1"",""2174""
","
","","","","","","1018.7000000001863","images/truck4.png","","","memory_trial","4","definitely_new","","","","","","",""
"html-keyboard-response","276","1018219","0.0-15.0-0.116","1911","2","""event"",""trial"",""time""
""fullscreenenter"",""1"",""2174""
","
","
","""event"",""trial"",""time""
""fullscreenenter"",""1"",""2174""
","
","","","","","","null","<div style=""font-size:60px;"">+</div>","null","","fixation","","","","","","","","",""
"memory-trial","277","1020010","0.0-15.0-1.116","1911","2","""event"",""trial"",""time""
""fullscreenenter"",""1"",""2174""
","
","
","""event"",""trial"",""time""
""fullscreenenter"",""1"",""2174""
","
","","","","","","788","images/chair3.png","","","memory_trial","1","definitely_old","","","","","","",""
"html-keyboard-response","278","1020512","0.0-15.0-0.117","1911","2","""event"",""trial"",""time""
""fullscreenenter"",""1"",""2174""
","
","
","""event"",""trial"",""time""
""fullscreenenter"",""1"",""2174""
","
","","","","","","null","<div style=""font-size:60px;"">+</div>","null","","fixation","","","","","","","","",""
"memory-trial","279","1022513","0.0-15.0-1.117","1911","2","""event"",""trial"",""time""
""fullscreenenter"",""1"",""2174""
","
","
","""event"",""trial"",""time""
""fullscreenenter"",""1"",""2174""
","
","","","","","","998","images/bush2.png","","","memory_trial","1","definitely_old","","","","","","",""
"html-keyboard-response","280","1023015","0.0-15.0-0.118","1911","2","""event"",""trial"",""time""
""fullscreenenter"",""1"",""2174""
","
","
","""event"",""trial"",""time""
""fullscreenenter"",""1"",""2174""
","
","","","","","","null","<div style=""font-size:60px;"">+</div>","null","","fixation","","","","","","","","",""
"memory-trial","281","1025336","0.0-15.0-1.118","1911","2","""event"",""trial"",""time""
""fullscreenenter"",""1"",""2174""
","
","
","""event"",""trial"",""time""
""fullscreenenter"",""1"",""2174""
","
","","","","","","1318.8999999999069","images/sofa2.png","","","memory_trial","1","definitely_old","","","","","","",""
"html-keyboard-response","282","1025838","0.0-15.0-0.119","1911","2","""event"",""trial"",""time""
""fullscreenenter"",""1"",""2174""
","
","
","""event"",""trial"",""time""
""fullscreenenter"",""1"",""2174""
","
","","","","","","null","<div style=""font-size:60px;"">+</div>","null","","fixation","","","","","","","","",""
"memory-trial","283","1028494","0.0-15.0-1.119","1911","2","""event"",""trial"",""time""
""fullscreenenter"",""1"",""2174""
","
","
","""event"",""trial"",""time""
""fullscreenenter"",""1"",""2174""
","
","","","","","","1652.2000000001863","images/apple1.png","","","memory_trial","1","definitely_old","","","","","","",""
"preload","284","1036669","0.0-16.0","1911","2","""event"",""trial"",""time""
""fullscreenenter"",""1"",""2174""
","
","
","""event"",""trial"",""time""
""fullscreenenter"",""1"",""2174""
","
","true","false","[]","[]","[]","","","","","","","","","","","","","",""
"learning-instructions","285","1043416","0.0-17.0-0.0-0.0-0.0","1911","2","""event"",""trial"",""time""
""fullscreenenter"",""1"",""2174""
","
","
","""event"",""trial"",""time""
""fullscreenenter"",""1"",""2174""
","
","","","","","","3638.5","<p> We're now going to ask you to buy fruit again. </p>","","0","instructions","","","","","","","","",""
"learning-instructions","286","1049063","0.0-17.0-0.0-0.0-0.1","1911","2","""event"",""trial"",""time""
""fullscreenenter"",""1"",""2174""
","
","
","""event"",""trial"",""time""
""fullscreenenter"",""1"",""2174""
","
","","","","","","785.8000000002794","<p> On each trial, you will see a fruit. Select the store where you think you can buy the fruit. </p>","","0","instructions","","","","","","","","",""
"learning-instructions","287","1091782","0.0-17.0-0.0-0.0-0.2","1911","2","""event"",""trial"",""time""
""fullscreenenter"",""1"",""2174""
","
","
","""event"",""trial"",""time""
""fullscreenenter"",""1"",""2174""
","
","","","","","","35654.60000000009","<p> To make your selection, think about what you learned last week. You will NOT receive any feedback about your choice. </p>","","0","instructions","","","","","","","","",""
"learning-instructions","288","1103120","0.0-17.0-0.0-0.0-0.3","1911","2","""event"",""trial"",""time""
""fullscreenenter"",""1"",""2174""
","
","
","""event"",""trial"",""time""
""fullscreenenter"",""1"",""2174""
","
","","","","","","3557.7999999998137","<p> You should use the 1 key to select the store on the left, the 2 key to select the store in the middle, and the 3 key to select the store on the right. </p><br><div class=""choice-mem-instructions-grid""> <div class=""choice-mem-option""><img src=""images/fruit_choice1.png"" class=""choice-mem-option-img"" stage=""instructions"" position=""0"" ><div class=""choice-mem-option-text""> Press ""1."" </div></div><div class=""choice-mem-option""><img src=""images/fruit_choice2.png"" class=""choice-mem-option-img"" stage=""instructions"" position=""1"" ><div class=""choice-mem-option-text""> Press ""2."" </div></div><div class=""choice-mem-option""><img src=""images/fruit_choice3.png"" class=""choice-mem-option-img"" stage=""instructions"" position=""2"" ><div class=""choice-mem-option-text""> Press ""3."" </div></div></div>","","0","instructions","","","","","","","","",""
"learning-instructions","289","1110147","0.0-17.0-0.0-0.0-0.4","1911","2","""event"",""trial"",""time""
""fullscreenenter"",""1"",""2174""
","
","
","""event"",""trial"",""time""
""fullscreenenter"",""1"",""2174""
","
","","","","","","734.6000000000931","<p> You will have 10 seconds to make each selection. Try to respond before time runs out! </p>","","0","instructions","","","","","","","","",""
"learning-instructions","290","1231685","0.0-17.0-0.0-1.0","1911","2","""event"",""trial"",""time""
""fullscreenenter"",""1"",""2174""
","
","
","""event"",""trial"",""time""
""fullscreenenter"",""1"",""2174""
","
","","","","","","119473.40000000037","<p> You are now ready to begin the game. </p>","","0","instructions","","","","","","","","",""
"html-keyboard-response","291","1232288","0.0-17.0-0.0-2.0-0.0","1911","2","""event"",""trial"",""time""
""fullscreenenter"",""1"",""2174""
","
","
","""event"",""trial"",""time""
""fullscreenenter"",""1"",""2174""
","
","","","","","","null","<div style=""font-size:60px;"">+</div>","null","","fixation","","","","","","","","",""
"choice-memory-trial","292","1236354","0.0-17.0-0.0-2.0-1.0","1911","2","""event"",""trial"",""time""
""fullscreenenter"",""1"",""2174""
","
","
","""event"",""trial"",""time""
""fullscreenenter"",""1"",""2174""
","
