"trial_type","trial_index","time_elapsed","internal_node_id","subject_id","task_version","interactions","blur_events","focus_events","fullscreenenter_events","fullscreenexit_events","success","timeout","failed_images","failed_audio","failed_video","rt","stimulus","response","button_pressed","task_part","key_press","answer","correct","left_choice","middle_choice","right_choice","choice_positions","option_selected","block"
"pavlovia","0","8","0.0-0.0","1632","2","""event"",""trial"",""time""
""fullscreenenter"",""1"",""2586""
","
","
","""event"",""trial"",""time""
""fullscreenenter"",""1"",""2586""
","
","","","","","","","","","","","","","","","","","","",""
"fullscreen","1","3521","0.0-1.0","1632","2","""event"",""trial"",""time""
""fullscreenenter"",""1"",""2586""
","
","
","""event"",""trial"",""time""
""fullscreenenter"",""1"",""2586""
","
","true","","","","","","","","","","","","","","","","","",""
"preload","2","4132","0.0-2.0","1632","2","""event"",""trial"",""time""
""fullscreenenter"",""1"",""2586""
","
","
","""event"",""trial"",""time""
""fullscreenenter"",""1"",""2586""
","
","true","false","[]","[]","[]","","","","","","","","","","","","","",""
"audio-keyboard-response","3","7062","0.0-3.0","1632","2","""event"",""trial"",""time""
""fullscreenenter"",""1"",""2586""
","
","
","""event"",""trial"",""time""
""fullscreenenter"",""1"",""2586""
","
","","","","","","2920","audio/beep_loop.wav"," ","","","","","","","","","","",""
"audio-button-response","4","9508","0.0-4.0","1632","2","""event"",""trial"",""time""
""fullscreenenter"",""1"",""2586""
","
","
","""event"",""trial"",""time""
""fullscreenenter"",""1"",""2586""
","
","","","","","","2451","audio/turtle.wav","3","","","","","","","","","","",""
"audio-button-response","5","12059","0.0-5.0","1632","2","""event"",""trial"",""time""
""fullscreenenter"",""1"",""2586""
","
","
","""event"",""trial"",""time""
""fullscreenenter"",""1"",""2586""
","
","","","","","","1528","audio/shark.wav","2","","","","","","","","","","",""
"preload","6","15357","0.0-6.0","1632","2","""event"",""trial"",""time""
""fullscreenenter"",""1"",""2586""
","
","
","""event"",""trial"",""time""
""fullscreenenter"",""1"",""2586""
","
","true","false","[]","[]","[]","","","","","","","","","","","","","",""
"learning-instructions","7","24118","0.0-7.0-0.0","1632","2","""event"",""trial"",""time""
""fullscreenenter"",""1"",""2586""
","
","
","""event"",""trial"",""time""
""fullscreenenter"",""1"",""2586""
","
","","","","","","3951.2000000178814","<p> Welcome back! </p><p> Last week, you had to make choices about lots of different items.  </p>","","0","instructions","","","","","","","","",""
"learning-instructions","8","30967","0.0-7.0-0.1","1632","2","""event"",""trial"",""time""
""fullscreenenter"",""1"",""2586""
","
","
","""event"",""trial"",""time""
""fullscreenenter"",""1"",""2586""
","
","","","","","","2531","<p> Today, we are going to ask you to try to remember all the items. </p>","","0","instructions","","","","","","","","",""
"learning-instructions","9","42969","0.0-7.0-0.2","1632","2","""event"",""trial"",""time""
""fullscreenenter"",""1"",""2586""
","
","
","""event"",""trial"",""time""
""fullscreenenter"",""1"",""2586""
","
","","","","","","1853.0999999940395","<p> On every trial, you will see an image. </p><p> The image may be an OLD image you saw during the games last week or it may be a NEW image that was not presented. </p>","","0","instructions","","","","","","","","",""
"learning-instructions","10","56144","0.0-7.0-0.3","1632","2","""event"",""trial"",""time""
""fullscreenenter"",""1"",""2586""
","
","
","""event"",""trial"",""time""
""fullscreenenter"",""1"",""2586""
","
","","","","","","4667.300000011921","<p> You need to select whether the image is:  </p><p>  'Definitely old', 'Maybe old', 'Maybe new', or 'Definitely new.'  </p><div class=""mem-choice-instructions-grid""><div class=""choice-option"" id=""choice-option-1"" ><img src=""images/definitely_old_1.png"" id=""choice-option-img-1"" class=""choice-option-img"" stage=""1""></div><div class=""choice-option"" id=""choice-option-2"" ><img src=""images/maybe_old_1.png"" id=""choice-option-img-2"" class=""choice-option-img"" stage=""1""></div><div class=""choice-option"" id=""choice-option-3"" ><img src=""images/maybe_new_1.png"" id=""choice-option-img-3"" class=""choice-option-img"" stage=""1""></div><div class=""choice-option"" id=""choice-option-4"" > <img src=""images/definitely_new_1.png"" id=""choice-option-img-4"" class=""choice-option-img"" stage=""1""></div></div>","","0","instructions","","","","","","","","",""
"learning-instructions","11","63920","0.0-7.0-0.4","1632","2","""event"",""trial"",""time""
""fullscreenenter"",""1"",""2586""
","
","
","""event"",""trial"",""time""
""fullscreenenter"",""1"",""2586""
","
","","","","","","1073.300000011921","<p> You should use the 1, 2, 3, and 4 keys to make your responses.  </p><div class=""mem-choice-instructions-grid""><div class=""choice-option"" id=""choice-option-1"" ><img src=""images/definitely_old.png"" id=""choice-option-img-1"" class=""choice-option-img"" stage=""1""></div><div class=""choice-option"" id=""choice-option-2"" ><img src=""images/maybe_old.png"" id=""choice-option-img-2"" class=""choice-option-img"" stage=""1""></div><div class=""choice-option"" id=""choice-option-3"" ><img src=""images/maybe_new.png"" id=""choice-option-img-3"" class=""choice-option-img"" stage=""1""></div><div class=""choice-option"" id=""choice-option-4"" > <img src=""images/definitely_new.png"" id=""choice-option-img-4"" class=""choice-option-img"" stage=""1""></div></div>","","0","instructions","","","","","","","","",""
"learning-instructions","12","73237","0.0-7.0-0.5","1632","2","""event"",""trial"",""time""
""fullscreenenter"",""1"",""2586""
","
","
","""event"",""trial"",""time""
""fullscreenenter"",""1"",""2586""
","
","","","","","","2541.7999999821186","<p> You will have 10 seconds to make each response.  </p><p>  Make sure to respond before time runs out! </p>","","0","instructions","","","","","","","","",""
"learning-instructions","13","81981","0.0-7.0-0.6","1632","2","""event"",""trial"",""time""
""fullscreenenter"",""1"",""2586""
","
","
","""event"",""trial"",""time""
""fullscreenenter"",""1"",""2586""
","
","","","","","","1155","<p> Today, you will see each image ONCE only.  </p><p>  That means none of the images will repeat. </p>","","0","instructions","","","","","","","","",""
"learning-instructions","14","96303","0.0-7.0-0.7","1632","2","""event"",""trial"",""time""
""fullscreenenter"",""1"",""2586""
","
","
","""event"",""trial"",""time""
""fullscreenenter"",""1"",""2586""
","
","","","","","","1647.5","<p> Before you play the real game, it is time to practice. </p><p>  Just like in the real game, some of the images in the practice will be ones you have seen before. </p><p>  Others will be entirely new. </p>","","0","instructions","","","","","","","","",""
"html-button-response","15","100456","0.0-8.0","1632","2","""event"",""trial"",""time""
""fullscreenenter"",""1"",""2586""
","
","
","""event"",""trial"",""time""
""fullscreenenter"",""1"",""2586""
","
","","","","","","4050.800000011921","<p> Ready to practice? </p><p> Remember, use the 1, 2, 3, and 4 keys to make your responses. </p>","0","","instructions","","","","","","","","",""
"html-keyboard-response","16","101074","0.0-9.0-0.0","1632","2","""event"",""trial"",""time""
""fullscreenenter"",""1"",""2586""
","
","
","""event"",""trial"",""time""
""fullscreenenter"",""1"",""2586""
","
","","","","","","null","<div style=""font-size:60px;"">+</div>","null","","fixation","","","","","","","","",""
"memory-trial","17","106084","0.0-9.0-1.0","1632","2","""event"",""trial"",""time""
""fullscreenenter"",""1"",""2586""
","
","
","""event"",""trial"",""time""
""fullscreenenter"",""1"",""2586""
","
","","","","","","4003.7999999821186","images/ball3.png","","","practice","1","definitely_old","","","","","","",""
"html-keyboard-response","18","106594","0.0-9.0-0.1","1632","2","""event"",""trial"",""time""
""fullscreenenter"",""1"",""2586""
","
","
","""event"",""trial"",""time""
""fullscreenenter"",""1"",""2586""
","
","","","","","","null","<div style=""font-size:60px;"">+</div>","null","","fixation","","","","","","","","",""
"memory-trial","19","109034","0.0-9.0-1.1","1632","2","""event"",""trial"",""time""
""fullscreenenter"",""1"",""2586""
","
","
","""event"",""trial"",""time""
""fullscreenenter"",""1"",""2586""
","
","","","","","","1418.699999988079","images/ball4.png","","","practice","1","definitely_old","","","","","","",""
"html-keyboard-response","20","109554","0.0-9.0-0.2","1632","2","""event"",""trial"",""time""
""fullscreenenter"",""1"",""2586""
","
","
","""event"",""trial"",""time""
""fullscreenenter"",""1"",""2586""
","
","","","","","","null","<div style=""font-size:60px;"">+</div>","null","","fixation","","","","","","","","",""
"memory-trial","21","111354","0.0-9.0-1.2","1632","2","""event"",""trial"",""time""
""fullscreenenter"",""1"",""2586""
","
","
","""event"",""trial"",""time""
""fullscreenenter"",""1"",""2586""
","
","","","","","","784.3000000119209","images/ball2.png","","","practice","1","definitely_old","","","","","","",""
"html-keyboard-response","22","111874","0.0-9.0-0.3","1632","2","""event"",""trial"",""time""
""fullscreenenter"",""1"",""2586""
","
","
","""event"",""trial"",""time""
""fullscreenenter"",""1"",""2586""
","
","","","","","","null","<div style=""font-size:60px;"">+</div>","null","","fixation","","","","","","","","",""
"memory-trial","23","113834","0.0-9.0-1.3","1632","2","""event"",""trial"",""time""
""fullscreenenter"",""1"",""2586""
","
","
","""event"",""trial"",""time""
""fullscreenenter"",""1"",""2586""
","
","","","","","","939.6999999880791","images/racket3.png","","","practice","1","definitely_old","","","","","","",""
"html-keyboard-response","24","114344","0.0-9.0-0.4","1632","2","""event"",""trial"",""time""
""fullscreenenter"",""1"",""2586""
","
","
","""event"",""trial"",""time""
""fullscreenenter"",""1"",""2586""
","
","","","","","","null","<div style=""font-size:60px;"">+</div>","null","","fixation","","","","","","","","",""
"memory-trial","25","116218","0.0-9.0-1.4","1632","2","""event"",""trial"",""time""
""fullscreenenter"",""1"",""2586""
","
","
","""event"",""trial"",""time""
""fullscreenenter"",""1"",""2586""
","
","","","","","","872.5999999940395","images/racket2.png","","","practice","1","definitely_old","","","","","","",""
"html-keyboard-response","26","116734","0.0-9.0-0.5","1632","2","""event"",""trial"",""time""
""fullscreenenter"",""1"",""2586""
","
","
","""event"",""trial"",""time""
""fullscreenenter"",""1"",""2586""
","
","","","","","","null","<div style=""font-size:60px;"">+</div>","null","","fixation","","","","","","","","",""
"memory-trial","27","118728","0.0-9.0-1.5","1632","2","""event"",""trial"",""time""
""fullscreenenter"",""1"",""2586""
","
","
","""event"",""trial"",""time""
""fullscreenenter"",""1"",""2586""
","
","","","","","","992","images/ball1.png","","","practice","1","definitely_old","","","","","","",""
"html-keyboard-response","28","119244","0.0-9.0-0.6","1632","2","""event"",""trial"",""time""
""fullscreenenter"",""1"",""2586""
","
","
","""event"",""trial"",""time""
""fullscreenenter"",""1"",""2586""
","
","","","","","","null","<div style=""font-size:60px;"">+</div>","null","","fixation","","","","","","","","",""
"memory-trial","29","120919","0.0-9.0-1.6","1632","2","""event"",""trial"",""time""
""fullscreenenter"",""1"",""2586""
","
","
","""event"",""trial"",""time""
""fullscreenenter"",""1"",""2586""
","
","","","","","","672.7999999821186","images/racket1.png","","","practice","1","definitely_old","","","","","","",""
"html-keyboard-response","30","121424","0.0-9.0-0.7","1632","2","""event"",""trial"",""time""
""fullscreenenter"",""1"",""2586""
","
","
","""event"",""trial"",""time""
""fullscreenenter"",""1"",""2586""
","
","","","","","","null","<div style=""font-size:60px;"">+</div>","null","","fixation","","","","","","","","",""
"memory-trial","31","123064","0.0-9.0-1.7","1632","2","""event"",""trial"",""time""
""fullscreenenter"",""1"",""2586""
""blur"",""32"",""124176""
""focus"",""32"",""124177""
","""event"",""trial"",""time""
""blur"",""32"",""124176""
","""event"",""trial"",""time""
""focus"",""32"",""124177""
","""event"",""trial"",""time""
""fullscreenenter"",""1"",""2586""
","
","","","","","","633.8999999761581","images/racket4.png","","","practice","1","definitely_old","","","","","","",""
"learning-instructions","32","133536","0.0-10.0-0.0","1632","2","""event"",""trial"",""time""
""fullscreenenter"",""1"",""2586""
""blur"",""32"",""124176""
""focus"",""32"",""124177""
","""event"",""trial"",""time""
""blur"",""32"",""124176""
","""event"",""trial"",""time""
""focus"",""32"",""124177""
","""event"",""trial"",""time""
""fullscreenenter"",""1"",""2586""
","
","","","","","","2521","<p> Great! You have completed the practice. </p><p> Before you start, we're going to ask you a few questions about how the game works.  </p>","","0","instructions","","","","","","","","",""
"preload","33","135285","0.0-11.0","1632","2","""event"",""trial"",""time""
""fullscreenenter"",""1"",""2586""
""blur"",""32"",""124176""
""focus"",""32"",""124177""
","""event"",""trial"",""time""
""blur"",""32"",""124176""
","""event"",""trial"",""time""
""focus"",""32"",""124177""
","""event"",""trial"",""time""
""fullscreenenter"",""1"",""2586""
","
","true","false","[]","[]","[]","","","","","","","","","","","","","",""
"comp-q","34","142871","0.0-12.0-0.0","1632","2","""event"",""trial"",""time""
""fullscreenenter"",""1"",""2586""
""blur"",""32"",""124176""
""focus"",""32"",""124177""
","""event"",""trial"",""time""
""blur"",""32"",""124176""
","""event"",""trial"",""time""
""focus"",""32"",""124177""
","""event"",""trial"",""time""
""fullscreenenter"",""1"",""2586""
","
","","","","","","1755.3999999761581","<p> <b> True or False? </b> </p><p> In this game, you will only see each image once. </p>","","0","comp_question","","","true","","","","","",""
"comp-q","35","151681","0.0-12.0-1.0","1632","2","""event"",""trial"",""time""
""fullscreenenter"",""1"",""2586""
""blur"",""32"",""124176""
""focus"",""32"",""124177""
","""event"",""trial"",""time""
""blur"",""32"",""124176""
","""event"",""trial"",""time""
""focus"",""32"",""124177""
","""event"",""trial"",""time""
""fullscreenenter"",""1"",""2586""
","
","","","","","","2456.300000011921","<p> <b> That's right! </b> You will see many different images <i> one time each </i> in this game. </p>","","0","comp_answer","","","","","","","","",""
"comp-q","36","159119","0.0-12.0-0.1","1632","2","""event"",""trial"",""time""
""fullscreenenter"",""1"",""2586""
""blur"",""32"",""124176""
""focus"",""32"",""124177""
","""event"",""trial"",""time""
""blur"",""32"",""124176""
","""event"",""trial"",""time""
""focus"",""32"",""124177""
","""event"",""trial"",""time""
""fullscreenenter"",""1"",""2586""
","
","","","","","","1625","<p> <b> True or False? </b> </p><p> You should use the mouse and click to make your response. </p>","","1","comp_question","","","true","","","","","",""
"comp-q","37","168938","0.0-12.0-1.1","1632","2","""event"",""trial"",""time""
""fullscreenenter"",""1"",""2586""
""blur"",""32"",""124176""
""focus"",""32"",""124177""
","""event"",""trial"",""time""
""blur"",""32"",""124176""
","""event"",""trial"",""time""
""focus"",""32"",""124177""
","""event"",""trial"",""time""
""fullscreenenter"",""1"",""2586""
","
","","","","","","2463.699999988079","<p><b> That's right! </b> You should use the '1', '2', '3', and '4' keys to make your response. </p>","","0","comp_answer","","","","","","","","",""
"comp-q","38","178774","0.0-12.0-0.2","1632","2","""event"",""trial"",""time""
""fullscreenenter"",""1"",""2586""
""blur"",""32"",""124176""
""focus"",""32"",""124177""
","""event"",""trial"",""time""
""blur"",""32"",""124176""
","""event"",""trial"",""time""
""focus"",""32"",""124177""
","""event"",""trial"",""time""
""fullscreenenter"",""1"",""2586""
","
","","","","","","3829.7999999821186","<p> <b> True or False? </b> </p><p> You will have as much time as you want to make each choice. </p>","","1","comp_question","","","true","","","","","",""
"comp-q","39","186003","0.0-12.0-1.2","1632","2","""event"",""trial"",""time""
""fullscreenenter"",""1"",""2586""
""blur"",""32"",""124176""
""focus"",""32"",""124177""
","""event"",""trial"",""time""
""blur"",""32"",""124176""
","""event"",""trial"",""time""
""focus"",""32"",""124177""
","""event"",""trial"",""time""
""fullscreenenter"",""1"",""2586""
","
","","","","","","1818.7000000178814","<p> <b> That's right! </b> You will only have 10 seconds to make each choice. </p>","","0","comp_answer","","","","","","","","",""
"learning-instructions","40","198148","0.0-13.0","1632","2","""event"",""trial"",""time""
""fullscreenenter"",""1"",""2586""
""blur"",""32"",""124176""
""focus"",""32"",""124177""
","""event"",""trial"",""time""
""blur"",""32"",""124176""
","""event"",""trial"",""time""
""focus"",""32"",""124177""
","""event"",""trial"",""time""
""fullscreenenter"",""1"",""2586""
","
","","","","","","3464.4000000059605","<p> Great! You are now ready to begin the game. </p><p> Remember, use the 1, 2, 3, and 4 keys to make your responses. </p>","","0","instructions","","","","","","","","",""
"preload","41","201919","0.0-14.0","1632","2","""event"",""trial"",""time""
""fullscreenenter"",""1"",""2586""
""blur"",""32"",""124176""
""focus"",""32"",""124177""
","""event"",""trial"",""time""
""blur"",""32"",""124176""
","""event"",""trial"",""time""
""focus"",""32"",""124177""
","""event"",""trial"",""time""
""fullscreenenter"",""1"",""2586""
","
","true","false","[]","[]","[]","","","","","","","","","","","","","",""
"html-keyboard-response","42","202432","0.0-15.0-0.0","1632","2","""event"",""trial"",""time""
""fullscreenenter"",""1"",""2586""
""blur"",""32"",""124176""
""focus"",""32"",""124177""
","""event"",""trial"",""time""
""blur"",""32"",""124176""
","""event"",""trial"",""time""
""focus"",""32"",""124177""
","""event"",""trial"",""time""
""fullscreenenter"",""1"",""2586""
","
","","","","","","null","<div style=""font-size:60px;"">+</div>","null","","fixation","","","","","","","","",""
"memory-trial","43","205473","0.0-15.0-1.0","1632","2","""event"",""trial"",""time""
""fullscreenenter"",""1"",""2586""
""blur"",""32"",""124176""
""focus"",""32"",""124177""
","""event"",""trial"",""time""
""blur"",""32"",""124176""
","""event"",""trial"",""time""
""focus"",""32"",""124177""
","""event"",""trial"",""time""
""fullscreenenter"",""1"",""2586""
","
","","","","","","2029.3999999761581","images/rodent5.png","","","memory_trial","4","definitely_new","","","","","","",""
"html-keyboard-response","44","205983","0.0-15.0-0.1","1632","2","""event"",""trial"",""time""
""fullscreenenter"",""1"",""2586""
""blur"",""32"",""124176""
""focus"",""32"",""124177""
","""event"",""trial"",""time""
""blur"",""32"",""124176""
","""event"",""trial"",""time""
""focus"",""32"",""124177""
","""event"",""trial"",""time""
""fullscreenenter"",""1"",""2586""
","
","","","","","","null","<div style=""font-size:60px;"">+</div>","null","","fixation","","","","","","","","",""
"memory-trial","45","208593","0.0-15.0-1.1","1632","2","""event"",""trial"",""time""
""fullscreenenter"",""1"",""2586""
""blur"",""32"",""124176""
""focus"",""32"",""124177""
","""event"",""trial"",""time""
""blur"",""32"",""124176""
","""event"",""trial"",""time""
""focus"",""32"",""124177""
","""event"",""trial"",""time""
""fullscreenenter"",""1"",""2586""
","
","","","","","","1605.5","images/flower5.png","","","memory_trial","4","definitely_new","","","","","","",""
"html-keyboard-response","46","209113","0.0-15.0-0.2","1632","2","""event"",""trial"",""time""
""fullscreenenter"",""1"",""2586""
""blur"",""32"",""124176""
""focus"",""32"",""124177""
","""event"",""trial"",""time""
""blur"",""32"",""124176""
","""event"",""trial"",""time""
""focus"",""32"",""124177""
","""event"",""trial"",""time""
""fullscreenenter"",""1"",""2586""
","
","","","","","","null","<div style=""font-size:60px;"">+</div>","null","","fixation","","","","","","","","",""
"memory-trial","47","211993","0.0-15.0-1.2","1632","2","""event"",""trial"",""time""
""fullscreenenter"",""1"",""2586""
""blur"",""32"",""124176""
""focus"",""32"",""124177""
","""event"",""trial"",""time""
""blur"",""32"",""124176""
","""event"",""trial"",""time""
""focus"",""32"",""124177""
","""event"",""trial"",""time""
""fullscreenenter"",""1"",""2586""
","
","","","","","","1873.0999999940395","images/cactus4.png","","","memory_trial","2","maybe_old","","","","","","",""
"html-keyboard-response","48","212513","0.0-15.0-0.3","1632","2","""event"",""trial"",""time""
""fullscreenenter"",""1"",""2586""
""blur"",""32"",""124176""
""focus"",""32"",""124177""
","""event"",""trial"",""time""
""blur"",""32"",""124176""
","""event"",""trial"",""time""
""focus"",""32"",""124177""
","""event"",""trial"",""time""
""fullscreenenter"",""1"",""2586""
","
","","","","","","null","<div style=""font-size:60px;"">+</div>","null","","fixation","","","","","","","","",""
"memory-trial","49","215233","0.0-15.0-1.3","1632","2","""event"",""trial"",""time""
""fullscreenenter"",""1"",""2586""
""blur"",""32"",""124176""
""focus"",""32"",""124177""
","""event"",""trial"",""time""
""blur"",""32"",""124176""
","""event"",""trial"",""time""
""focus"",""32"",""124177""
","""event"",""trial"",""time""
""fullscreenenter"",""1"",""2586""
","
","","","","","","1709.699999988079","images/dog3.png","","","memory_trial","1","definitely_old","","","","","","",""
"html-keyboard-response","50","215752","0.0-15.0-0.4","1632","2","""event"",""trial"",""time""
""fullscreenenter"",""1"",""2586""
""blur"",""32"",""124176""
""focus"",""32"",""124177""
","""event"",""trial"",""time""
""blur"",""32"",""124176""
","""event"",""trial"",""time""
""focus"",""32"",""124177""
","""event"",""trial"",""time""
""fullscreenenter"",""1"",""2586""
","
","","","","","","null","<div style=""font-size:60px;"">+</div>","null","","fixation","","","","","","","","",""
"memory-trial","51","219353","0.0-15.0-1.4","1632","2","""event"",""trial"",""time""
""fullscreenenter"",""1"",""2586""
""blur"",""32"",""124176""
""focus"",""32"",""124177""
","""event"",""trial"",""time""
""blur"",""32"",""124176""
","""event"",""trial"",""time""
""focus"",""32"",""124177""
","""event"",""trial"",""time""
""fullscreenenter"",""1"",""2586""
","
","","","","","","2577.800000011921","images/plane4.png","","","memory_trial","4","definitely_new","","","","","","",""
"html-keyboard-response","52","219873","0.0-15.0-0.5","1632","2","""event"",""trial"",""time""
""fullscreenenter"",""1"",""2586""
""blur"",""32"",""124176""
""focus"",""32"",""124177""
","""event"",""trial"",""time""
""blur"",""32"",""124176""
","""event"",""trial"",""time""
""focus"",""32"",""124177""
","""event"",""trial"",""time""
""fullscreenenter"",""1"",""2586""
","
","","","","","","null","<div style=""font-size:60px;"">+</div>","null","","fixation","","","","","","","","",""
"memory-trial","53","224673","0.0-15.0-1.5","1632","2","""event"",""trial"",""time""
""fullscreenenter"",""1"",""2586""
""blur"",""32"",""124176""
""focus"",""32"",""124177""
","""event"",""trial"",""time""
""blur"",""32"",""124176""
","""event"",""trial"",""time""
""focus"",""32"",""124177""
","""event"",""trial"",""time""
""fullscreenenter"",""1"",""2586""
","
","","","","","","3782.199999988079","images/sheep4.png","","","memory_trial","3","maybe_new","","","","","","",""
"html-keyboard-response","54","225174","0.0-15.0-0.6","1632","2","""event"",""trial"",""time""
""fullscreenenter"",""1"",""2586""
""blur"",""32"",""124176""
""focus"",""32"",""124177""
","""event"",""trial"",""time""
""blur"",""32"",""124176""
","""event"",""trial"",""time""
""focus"",""32"",""124177""
","""event"",""trial"",""time""
""fullscreenenter"",""1"",""2586""
","
","","","","","","null","<div style=""font-size:60px;"">+</div>","null","","fixation","","","","","","","","",""
"memory-trial","55","227580","0.0-15.0-1.6","1632","2","""event"",""trial"",""time""
""fullscreenenter"",""1"",""2586""
""blur"",""32"",""124176""
""focus"",""32"",""124177""
","""event"",""trial"",""time""
""blur"",""32"",""124176""
","""event"",""trial"",""time""
""focus"",""32"",""124177""
","""event"",""trial"",""time""
""fullscreenenter"",""1"",""2586""
","
","","","","","","1403.5","images/truck2.png","","","memory_trial","3","maybe_new","","","","","","",""
"html-keyboard-response","56","228081","0.0-15.0-0.7","1632","2","""event"",""trial"",""time""
""fullscreenenter"",""1"",""2586""
""blur"",""32"",""124176""
""focus"",""32"",""124177""
","""event"",""trial"",""time""
""blur"",""32"",""124176""
","""event"",""trial"",""time""
""focus"",""32"",""124177""
","""event"",""trial"",""time""
""fullscreenenter"",""1"",""2586""
","
","","","","","","null","<div style=""font-size:60px;"">+</div>","null","","fixation","","","","","","","","",""
"memory-trial","57","230566","0.0-15.0-1.7","1632","2","""event"",""trial"",""time""
""fullscreenenter"",""1"",""2586""
""blur"",""32"",""124176""
""focus"",""32"",""124177""
","""event"",""trial"",""time""
""blur"",""32"",""124176""
","""event"",""trial"",""time""
""focus"",""32"",""124177""
","""event"",""trial"",""time""
""fullscreenenter"",""1"",""2586""
","
","","","","","","1483.5999999940395","images/tree4.png","","","memory_trial","1","definitely_old","","","","","","",""
"html-keyboard-response","58","231067","0.0-15.0-0.8","1632","2","""event"",""trial"",""time""
""fullscreenenter"",""1"",""2586""
""blur"",""32"",""124176""
""focus"",""32"",""124177""
","""event"",""trial"",""time""
""blur"",""32"",""124176""
","""event"",""trial"",""time""
""focus"",""32"",""124177""
","""event"",""trial"",""time""
""fullscreenenter"",""1"",""2586""
","
","","","","","","null","<div style=""font-size:60px;"">+</div>","null","","fixation","","","","","","","","",""
"memory-trial","59","233616","0.0-15.0-1.8","1632","2","""event"",""trial"",""time""
""fullscreenenter"",""1"",""2586""
""blur"",""32"",""124176""
""focus"",""32"",""124177""
","""event"",""trial"",""time""
""blur"",""32"",""124176""
","""event"",""trial"",""time""
""focus"",""32"",""124177""
","""event"",""trial"",""time""
""fullscreenenter"",""1"",""2586""
","
","","","","","","1545.8999999761581","images/bed2.png","","","memory_trial","4","definitely_new","","","","","","",""
"html-keyboard-response","60","234117","0.0-15.0-0.9","1632","2","""event"",""trial"",""time""
""fullscreenenter"",""1"",""2586""
""blur"",""32"",""124176""
""focus"",""32"",""124177""
","""event"",""trial"",""time""
""blur"",""32"",""124176""
","""event"",""trial"",""time""
""focus"",""32"",""124177""
","""event"",""trial"",""time""
""fullscreenenter"",""1"",""2586""
","
","","","","","","null","<div style=""font-size:60px;"">+</div>","null","","fixation","","","","","","","","",""
"memory-trial","61","236654","0.0-15.0-1.9","1632","2","""event"",""trial"",""time""
""fullscreenenter"",""1"",""2586""
""blur"",""32"",""124176""
""focus"",""32"",""124177""
","""event"",""trial"",""time""
""blur"",""32"",""124176""
","""event"",""trial"",""time""
""focus"",""32"",""124177""
","""event"",""trial"",""time""
""fullscreenenter"",""1"",""2586""
","
","","","","","","1535.7000000178814","images/cactus5.png","","","memory_trial","2","maybe_old","","","","","","",""
"html-keyboard-response","62","237156","0.0-15.0-0.10","1632","2","""event"",""trial"",""time""
""fullscreenenter"",""1"",""2586""
""blur"",""32"",""124176""
""focus"",""32"",""124177""
","""event"",""trial"",""time""
""blur"",""32"",""124176""
","""event"",""trial"",""time""
""focus"",""32"",""124177""
","""event"",""trial"",""time""
""fullscreenenter"",""1"",""2586""
","
","","","","","","null","<div style=""font-size:60px;"">+</div>","null","","fixation","","","","","","","","",""
"memory-trial","63","239777","0.0-15.0-1.10","1632","2","""event"",""trial"",""time""
""fullscreenenter"",""1"",""2586""
""blur"",""32"",""124176""
""focus"",""32"",""124177""
","""event"",""trial"",""time""
""blur"",""32"",""124176""
","""event"",""trial"",""time""
""focus"",""32"",""124177""
","""event"",""trial"",""time""
""fullscreenenter"",""1"",""2586""
","
","","","","","","1619","images/rabbit1.png","","","memory_trial","2","maybe_old","","","","","","",""
"html-keyboard-response","64","240278","0.0-15.0-0.11","1632","2","""event"",""trial"",""time""
""fullscreenenter"",""1"",""2586""
""blur"",""32"",""124176""
""focus"",""32"",""124177""
","""event"",""trial"",""time""
""blur"",""32"",""124176""
","""event"",""trial"",""time""
""focus"",""32"",""124177""
","""event"",""trial"",""time""
""fullscreenenter"",""1"",""2586""
","
","","","","","","null","<div style=""font-size:60px;"">+</div>","null","","fixation","","","","","","","","",""
"memory-trial","65","242794","0.0-15.0-1.11","1632","2","""event"",""trial"",""time""
""fullscreenenter"",""1"",""2586""
""blur"",""32"",""124176""
""focus"",""32"",""124177""
","""event"",""trial"",""time""
""blur"",""32"",""124176""
","""event"",""trial"",""time""
""focus"",""32"",""124177""
","""event"",""trial"",""time""
""fullscreenenter"",""1"",""2586""
","
","","","","","","1515","images/truck5.png","","","memory_trial","1","definitely_old","","","","","","",""
"html-keyboard-response","66","243296","0.0-15.0-0.12","1632","2","""event"",""trial"",""time""
""fullscreenenter"",""1"",""2586""
""blur"",""32"",""124176""
""focus"",""32"",""124177""
","""event"",""trial"",""time""
""blur"",""32"",""124176""
","""event"",""trial"",""time""
""focus"",""32"",""124177""
","""event"",""trial"",""time""
""fullscreenenter"",""1"",""2586""
","
","","","","","","null","<div style=""font-size:60px;"">+</div>","null","","fixation","","","","","","","","",""
"memory-trial","67","245533","0.0-15.0-1.12","1632","2","""event"",""trial"",""time""
""fullscreenenter"",""1"",""2586""
""blur"",""32"",""124176""
""focus"",""32"",""124177""
","""event"",""trial"",""time""
""blur"",""32"",""124176""
","""event"",""trial"",""time""
""focus"",""32"",""124177""
","""event"",""trial"",""time""
""fullscreenenter"",""1"",""2586""
","
","","","","","","1235","images/dog2.png","","","memory_trial","2","maybe_old","","","","","","",""
"html-keyboard-response","68","246033","0.0-15.0-0.13","1632","2","""event"",""trial"",""time""
""fullscreenenter"",""1"",""2586""
""blur"",""32"",""124176""
""focus"",""32"",""124177""
","""event"",""trial"",""time""
""blur"",""32"",""124176""
","""event"",""trial"",""time""
""focus"",""32"",""124177""
","""event"",""trial"",""time""
""fullscreenenter"",""1"",""2586""
","
","","","","","","null","<div style=""font-size:60px;"">+</div>","null","","fixation","","","","","","","","",""
"memory-trial","69","248951","0.0-15.0-1.13","1632","2","""event"",""trial"",""time""
""fullscreenenter"",""1"",""2586""
""blur"",""32"",""124176""
""focus"",""32"",""124177""
","""event"",""trial"",""time""
""blur"",""32"",""124176""
","""event"",""trial"",""time""
""focus"",""32"",""124177""
","""event"",""trial"",""time""
""fullscreenenter"",""1"",""2586""
","
","","","","","","1916.300000011921","images/apple4.png","","","memory_trial","3","maybe_new","","","","","","",""
"html-keyboard-response","70","249453","0.0-15.0-0.14","1632","2","""event"",""trial"",""time""
""fullscreenenter"",""1"",""2586""
""blur"",""32"",""124176""
""focus"",""32"",""124177""
","""event"",""trial"",""time""
""blur"",""32"",""124176""
","""event"",""trial"",""time""
""focus"",""32"",""124177""
","""event"",""trial"",""time""
""fullscreenenter"",""1"",""2586""
","
","","","","","","null","<div style=""font-size:60px;"">+</div>","null","","fixation","","","","","","","","",""
"memory-trial","71","251715","0.0-15.0-1.14","1632","2","""event"",""trial"",""time""
""fullscreenenter"",""1"",""2586""
""blur"",""32"",""124176""
""focus"",""32"",""124177""
","""event"",""trial"",""time""
""blur"",""32"",""124176""
","""event"",""trial"",""time""
""focus"",""32"",""124177""
","""event"",""trial"",""time""
""fullscreenenter"",""1"",""2586""
","
","","","","","","1259.7000000178814","images/goat2.png","","","memory_trial","3","maybe_new","","","","","","",""
"html-keyboard-response","72","252216","0.0-15.0-0.15","1632","2","""event"",""trial"",""time""
""fullscreenenter"",""1"",""2586""
""blur"",""32"",""124176""
""focus"",""32"",""124177""
","""event"",""trial"",""time""
""blur"",""32"",""124176""
","""event"",""trial"",""time""
""focus"",""32"",""124177""
","""event"",""trial"",""time""
""fullscreenenter"",""1"",""2586""
","
","","","","","","null","<div style=""font-size:60px;"">+</div>","null","","fixation","","","","","","","","",""
"memory-trial","73","255030","0.0-15.0-1.15","1632","2","""event"",""trial"",""time""
""fullscreenenter"",""1"",""2586""
""blur"",""32"",""124176""
""focus"",""32"",""124177""
","""event"",""trial"",""time""
""blur"",""32"",""124176""
","""event"",""trial"",""time""
""focus"",""32"",""124177""
","""event"",""trial"",""time""
""fullscreenenter"",""1"",""2586""
","
","","","","","","1810.5","images/orange1.png","","","memory_trial","3","maybe_new","","","","","","",""
"html-keyboard-response","74","255531","0.0-15.0-0.16","1632","2","""event"",""trial"",""time""
""fullscreenenter"",""1"",""2586""
""blur"",""32"",""124176""
""focus"",""32"",""124177""
","""event"",""trial"",""time""
""blur"",""32"",""124176""
","""event"",""trial"",""time""
""focus"",""32"",""124177""
","""event"",""trial"",""time""
""fullscreenenter"",""1"",""2586""
","
","","","","","","null","<div style=""font-size:60px;"">+</div>","null","","fixation","","","","","","","","",""
"memory-trial","75","257987","0.0-15.0-1.16","1632","2","""event"",""trial"",""time""
""fullscreenenter"",""1"",""2586""
""blur"",""32"",""124176""
""focus"",""32"",""124177""
","""event"",""trial"",""time""
""blur"",""32"",""124176""
","""event"",""trial"",""time""
""focus"",""32"",""124177""
","""event"",""trial"",""time""
""fullscreenenter"",""1"",""2586""
","
","","","","","","1453.7000000178814","images/horse2.png","","","memory_trial","1","definitely_old","","","","","","",""
"html-keyboard-response","76","258489","0.0-15.0-0.17","1632","2","""event"",""trial"",""time""
""fullscreenenter"",""1"",""2586""
""blur"",""32"",""124176""
""focus"",""32"",""124177""
","""event"",""trial"",""time""
""blur"",""32"",""124176""
","""event"",""trial"",""time""
""focus"",""32"",""124177""
","""event"",""trial"",""time""
""fullscreenenter"",""1"",""2586""
","
","","","","","","null","<div style=""font-size:60px;"">+</div>","null","","fixation","","","","","","","","",""
"memory-trial","77","260847","0.0-15.0-1.17","1632","2","""event"",""trial"",""time""
""fullscreenenter"",""1"",""2586""
""blur"",""32"",""124176""
""focus"",""32"",""124177""
","""event"",""trial"",""time""
""blur"",""32"",""124176""
","""event"",""trial"",""time""
""focus"",""32"",""124177""
","""event"",""trial"",""time""
""fullscreenenter"",""1"",""2586""
","
","","","","","","1356.5999999940395","images/rodent3.png","","","memory_trial","1","definitely_old","","","","","","",""
"html-keyboard-response","78","261348","0.0-15.0-0.18","1632","2","""event"",""trial"",""time""
""fullscreenenter"",""1"",""2586""
""blur"",""32"",""124176""
""focus"",""32"",""124177""
","""event"",""trial"",""time""
""blur"",""32"",""124176""
","""event"",""trial"",""time""
""focus"",""32"",""124177""
","""event"",""trial"",""time""
""fullscreenenter"",""1"",""2586""
","
","","","","","","null","<div style=""font-size:60px;"">+</div>","null","","fixation","","","","","","","","",""
"memory-trial","79","264026","0.0-15.0-1.18","1632","2","""event"",""trial"",""time""
""fullscreenenter"",""1"",""2586""
""blur"",""32"",""124176""
""focus"",""32"",""124177""
","""event"",""trial"",""time""
""blur"",""32"",""124176""
","""event"",""trial"",""time""
""focus"",""32"",""124177""
","""event"",""trial"",""time""
""fullscreenenter"",""1"",""2586""
","
","","","","","","1674.9000000059605","images/goat1.png","","","memory_trial","3","maybe_new","","","","","","",""
"html-keyboard-response","80","264526","0.0-15.0-0.19","1632","2","""event"",""trial"",""time""
""fullscreenenter"",""1"",""2586""
""blur"",""32"",""124176""
""focus"",""32"",""124177""
","""event"",""trial"",""time""
""blur"",""32"",""124176""
","""event"",""trial"",""time""
""focus"",""32"",""124177""
","""event"",""trial"",""time""
""fullscreenenter"",""1"",""2586""
","
","","","","","","null","<div style=""font-size:60px;"">+</div>","null","","fixation","","","","","","","","",""
"memory-trial","81","266469","0.0-15.0-1.19","1632","2","""event"",""trial"",""time""
""fullscreenenter"",""1"",""2586""
""blur"",""32"",""124176""
""focus"",""32"",""124177""
","""event"",""trial"",""time""
""blur"",""32"",""124176""
","""event"",""trial"",""time""
""focus"",""32"",""124177""
","""event"",""trial"",""time""
""fullscreenenter"",""1"",""2586""
","
","","","","","","941.2999999821186","images/bed3.png","","","memory_trial","3","maybe_new","","","","","","",""
"html-keyboard-response","82","266971","0.0-15.0-0.20","1632","2","""event"",""trial"",""time""
""fullscreenenter"",""1"",""2586""
""blur"",""32"",""124176""
""focus"",""32"",""124177""
","""event"",""trial"",""time""
""blur"",""32"",""124176""
","""event"",""trial"",""time""
""focus"",""32"",""124177""
","""event"",""trial"",""time""
""fullscreenenter"",""1"",""2586""
","
","","","","","","null","<div style=""font-size:60px;"">+</div>","null","","fixation","","","","","","","","",""
"memory-trial","83","269476","0.0-15.0-1.20","1632","2","""event"",""trial"",""time""
""fullscreenenter"",""1"",""2586""
""blur"",""32"",""124176""
""focus"",""32"",""124177""
","""event"",""trial"",""time""
""blur"",""32"",""124176""
","""event"",""trial"",""time""
""focus"",""32"",""124177""
","""event"",""trial"",""time""
""fullscreenenter"",""1"",""2586""
","
","","","","","","1502.800000011921","images/table3.png","","","memory_trial","3","maybe_new","","","","","","",""
"html-keyboard-response","84","269977","0.0-15.0-0.21","1632","2","""event"",""trial"",""time""
""fullscreenenter"",""1"",""2586""
""blur"",""32"",""124176""
""focus"",""32"",""124177""
","""event"",""trial"",""time""
""blur"",""32"",""124176""
","""event"",""trial"",""time""
""focus"",""32"",""124177""
","""event"",""trial"",""time""
""fullscreenenter"",""1"",""2586""
","
","","","","","","null","<div style=""font-size:60px;"">+</div>","null","","fixation","","","","","","","","",""
"memory-trial","85","271994","0.0-15.0-1.21","1632","2","""event"",""trial"",""time""
""fullscreenenter"",""1"",""2586""
""blur"",""32"",""124176""
""focus"",""32"",""124177""
","""event"",""trial"",""time""
""blur"",""32"",""124176""
","""event"",""trial"",""time""
""focus"",""32"",""124177""
","""event"",""trial"",""time""
""fullscreenenter"",""1"",""2586""
","
","","","","","","1016.1000000238419","images/sheep1.png","","","memory_trial","2","maybe_old","","","","","","",""
"html-keyboard-response","86","272496","0.0-15.0-0.22","1632","2","""event"",""trial"",""time""
""fullscreenenter"",""1"",""2586""
""blur"",""32"",""124176""
""focus"",""32"",""124177""
","""event"",""trial"",""time""
""blur"",""32"",""124176""
","""event"",""trial"",""time""
""focus"",""32"",""124177""
","""event"",""trial"",""time""
""fullscreenenter"",""1"",""2586""
","
","","","","","","null","<div style=""font-size:60px;"">+</div>","null","","fixation","","","","","","","","",""
"memory-trial","87","274921","0.0-15.0-1.22","1632","2","""event"",""trial"",""time""
""fullscreenenter"",""1"",""2586""
""blur"",""32"",""124176""
""focus"",""32"",""124177""
","""event"",""trial"",""time""
""blur"",""32"",""124176""
","""event"",""trial"",""time""
""focus"",""32"",""124177""
","""event"",""trial"",""time""
""fullscreenenter"",""1"",""2586""
","
","","","","","","1411","images/plane5.png","","","memory_trial","4","definitely_new","","","","","","",""
"html-keyboard-response","88","275423","0.0-15.0-0.23","1632","2","""event"",""trial"",""time""
""fullscreenenter"",""1"",""2586""
""blur"",""32"",""124176""
""focus"",""32"",""124177""
","""event"",""trial"",""time""
""blur"",""32"",""124176""
","""event"",""trial"",""time""
""focus"",""32"",""124177""
","""event"",""trial"",""time""
""fullscreenenter"",""1"",""2586""
","
","","","","","","null","<div style=""font-size:60px;"">+</div>","null","","fixation","","","","","","","","",""
"memory-trial","89","277466","0.0-15.0-1.23","1632","2","""event"",""trial"",""time""
""fullscreenenter"",""1"",""2586""
""blur"",""32"",""124176""
""focus"",""32"",""124177""
","""event"",""trial"",""time""
""blur"",""32"",""124176""
","""event"",""trial"",""time""
""focus"",""32"",""124177""
","""event"",""trial"",""time""
""fullscreenenter"",""1"",""2586""
","
","","","","","","1039.9000000059605","images/sheep5.png","","","memory_trial","1","definitely_old","","","","","","",""
"html-keyboard-response","90","277967","0.0-15.0-0.24","1632","2","""event"",""trial"",""time""
""fullscreenenter"",""1"",""2586""
""blur"",""32"",""124176""
""focus"",""32"",""124177""
","""event"",""trial"",""time""
""blur"",""32"",""124176""
","""event"",""trial"",""time""
""focus"",""32"",""124177""
","""event"",""trial"",""time""
""fullscreenenter"",""1"",""2586""
","
","","","","","","null","<div style=""font-size:60px;"">+</div>","null","","fixation","","","","","","","","",""
"memory-trial","91","280108","0.0-15.0-1.24","1632","2","""event"",""trial"",""time""
""fullscreenenter"",""1"",""2586""
""blur"",""32"",""124176""
""focus"",""32"",""124177""
","""event"",""trial"",""time""
""blur"",""32"",""124176""
","""event"",""trial"",""time""
""focus"",""32"",""124177""
","""event"",""trial"",""time""
""fullscreenenter"",""1"",""2586""
","
","","","","","","1139.5","images/plane1.png","","","memory_trial","4","definitely_new","","","","","","",""
"html-keyboard-response","92","280609","0.0-15.0-0.25","1632","2","""event"",""trial"",""time""
""fullscreenenter"",""1"",""2586""
""blur"",""32"",""124176""
""focus"",""32"",""124177""
","""event"",""trial"",""time""
""blur"",""32"",""124176""
","""event"",""trial"",""time""
""focus"",""32"",""124177""
","""event"",""trial"",""time""
""fullscreenenter"",""1"",""2586""
","
","","","","","","null","<div style=""font-size:60px;"">+</div>","null","","fixation","","","","","","","","",""
"memory-trial","93","282720","0.0-15.0-1.25","1632","2","""event"",""trial"",""time""
""fullscreenenter"",""1"",""2586""
""blur"",""32"",""124176""
""focus"",""32"",""124177""
","""event"",""trial"",""time""
""blur"",""32"",""124176""
","""event"",""trial"",""time""
""focus"",""32"",""124177""
","""event"",""trial"",""time""
""fullscreenenter"",""1"",""2586""
","
","","","","","","1108.5999999940395","images/table1.png","","","memory_trial","3","maybe_new","","","","","","",""
"html-keyboard-response","94","283220","0.0-15.0-0.26","1632","2","""event"",""trial"",""time""
""fullscreenenter"",""1"",""2586""
""blur"",""32"",""124176""
""focus"",""32"",""124177""
","""event"",""trial"",""time""
""blur"",""32"",""124176""
","""event"",""trial"",""time""
""focus"",""32"",""124177""
","""event"",""trial"",""time""
""fullscreenenter"",""1"",""2586""
","
","","","","","","null","<div style=""font-size:60px;"">+</div>","null","","fixation","","","","","","","","",""
"memory-trial","95","286872","0.0-15.0-1.26","1632","2","""event"",""trial"",""time""
""fullscreenenter"",""1"",""2586""
""blur"",""32"",""124176""
""focus"",""32"",""124177""
","""event"",""trial"",""time""
""blur"",""32"",""124176""
","""event"",""trial"",""time""
""focus"",""32"",""124177""
","""event"",""trial"",""time""
""fullscreenenter"",""1"",""2586""
","
","","","","","","2649.800000011921","images/chair1.png","","","memory_trial","3","maybe_new","","","","","","",""
"html-keyboard-response","96","287373","0.0-15.0-0.27","1632","2","""event"",""trial"",""time""
""fullscreenenter"",""1"",""2586""
""blur"",""32"",""124176""
""focus"",""32"",""124177""
","""event"",""trial"",""time""
""blur"",""32"",""124176""
","""event"",""trial"",""time""
""focus"",""32"",""124177""
","""event"",""trial"",""time""
""fullscreenenter"",""1"",""2586""
","
","","","","","","null","<div style=""font-size:60px;"">+</div>","null","","fixation","","","","","","","","",""
"memory-trial","97","289648","0.0-15.0-1.27","1632","2","""event"",""trial"",""time""
""fullscreenenter"",""1"",""2586""
""blur"",""32"",""124176""
""focus"",""32"",""124177""
","""event"",""trial"",""time""
""blur"",""32"",""124176""
","""event"",""trial"",""time""
""focus"",""32"",""124177""
","""event"",""trial"",""time""
""fullscreenenter"",""1"",""2586""
","
","","","","","","1272.3999999761581","images/dog5.png","","","memory_trial","4","definitely_new","","","","","","",""
"html-keyboard-response","98","290150","0.0-15.0-0.28","1632","2","""event"",""trial"",""time""
""fullscreenenter"",""1"",""2586""
""blur"",""32"",""124176""
""focus"",""32"",""124177""
","""event"",""trial"",""time""
""blur"",""32"",""124176""
","""event"",""trial"",""time""
""focus"",""32"",""124177""
","""event"",""trial"",""time""
""fullscreenenter"",""1"",""2586""
","
","","","","","","null","<div style=""font-size:60px;"">+</div>","null","","fixation","","","","","","","","",""
"memory-trial","99","292514","0.0-15.0-1.28","1632","2","""event"",""trial"",""time""
""fullscreenenter"",""1"",""2586""
""blur"",""32"",""124176""
""focus"",""32"",""124177""
","""event"",""trial"",""time""
""blur"",""32"",""124176""
","""event"",""trial"",""time""
""focus"",""32"",""124177""
","""event"",""trial"",""time""
""fullscreenenter"",""1"",""2586""
","
","","","","","","1361.7000000178814","images/banana1.png","","","memory_trial","3","maybe_new","","","","","","",""
"html-keyboard-response","100","293014","0.0-15.0-0.29","1632","2","""event"",""trial"",""time""
""fullscreenenter"",""1"",""2586""
""blur"",""32"",""124176""
""focus"",""32"",""124177""
","""event"",""trial"",""time""
""blur"",""32"",""124176""
","""event"",""trial"",""time""
""focus"",""32"",""124177""
","""event"",""trial"",""time""
""fullscreenenter"",""1"",""2586""
","
","","","","","","null","<div style=""font-size:60px;"">+</div>","null","","fixation","","","","","","","","",""
"memory-trial","101","295388","0.0-15.0-1.29","1632","2","""event"",""trial"",""time""
""fullscreenenter"",""1"",""2586""
""blur"",""32"",""124176""
""focus"",""32"",""124177""
","""event"",""trial"",""time""
""blur"",""32"",""124176""
","""event"",""trial"",""time""
""focus"",""32"",""124177""
","""event"",""trial"",""time""
""fullscreenenter"",""1"",""2586""
","
","","","","","","1371.7000000178814","images/truck4.png","","","memory_trial","1","definitely_old","","","","","","",""
"html-keyboard-response","102","295889","0.0-15.0-0.30","1632","2","""event"",""trial"",""time""
""fullscreenenter"",""1"",""2586""
""blur"",""32"",""124176""
""focus"",""32"",""124177""
","""event"",""trial"",""time""
""blur"",""32"",""124176""
","""event"",""trial"",""time""
""focus"",""32"",""124177""
","""event"",""trial"",""time""
""fullscreenenter"",""1"",""2586""
","
","","","","","","null","<div style=""font-size:60px;"">+</div>","null","","fixation","","","","","","","","",""
"memory-trial","103","299648","0.0-15.0-1.30","1632","2","""event"",""trial"",""time""
""fullscreenenter"",""1"",""2586""
""blur"",""32"",""124176""
""focus"",""32"",""124177""
","""event"",""trial"",""time""
""blur"",""32"",""124176""
","""event"",""trial"",""time""
""focus"",""32"",""124177""
","""event"",""trial"",""time""
""fullscreenenter"",""1"",""2586""
","
","","","","","","2757","images/boat1.png","","","memory_trial","2","maybe_old","","","","","","",""
"html-keyboard-response","104","300149","0.0-15.0-0.31","1632","2","""event"",""trial"",""time""
""fullscreenenter"",""1"",""2586""
""blur"",""32"",""124176""
""focus"",""32"",""124177""
","""event"",""trial"",""time""
""blur"",""32"",""124176""
","""event"",""trial"",""time""
""focus"",""32"",""124177""
","""event"",""trial"",""time""
""fullscreenenter"",""1"",""2586""
","
","","","","","","null","<div style=""font-size:60px;"">+</div>","null","","fixation","","","","","","","","",""
"memory-trial","105","302096","0.0-15.0-1.31","1632","2","""event"",""trial"",""time""
""fullscreenenter"",""1"",""2586""
""blur"",""32"",""124176""
""focus"",""32"",""124177""
","""event"",""trial"",""time""
""blur"",""32"",""124176""
","""event"",""trial"",""time""
""focus"",""32"",""124177""
","""event"",""trial"",""time""
""fullscreenenter"",""1"",""2586""
","
","","","","","","944.5","images/chair2.png","","","memory_trial","3","maybe_new","","","","","","",""
"html-keyboard-response","106","302597","0.0-15.0-0.32","1632","2","""event"",""trial"",""time""
""fullscreenenter"",""1"",""2586""
""blur"",""32"",""124176""
""focus"",""32"",""124177""
","""event"",""trial"",""time""
""blur"",""32"",""124176""
","""event"",""trial"",""time""
""focus"",""32"",""124177""
","""event"",""trial"",""time""
""fullscreenenter"",""1"",""2586""
","
","","","","","","null","<div style=""font-size:60px;"">+</div>","null","","fixation","","","","","","","","",""
"memory-trial","107","305128","0.0-15.0-1.32","1632","2","""event"",""trial"",""time""
""fullscreenenter"",""1"",""2586""
""blur"",""32"",""124176""
""focus"",""32"",""124177""
","""event"",""trial"",""time""
""blur"",""32"",""124176""
","""event"",""trial"",""time""
""focus"",""32"",""124177""
","""event"",""trial"",""time""
""fullscreenenter"",""1"",""2586""
","
","","","","","","1527.800000011921","images/cow5.png","","","memory_trial","3","maybe_new","","","","","","",""
"html-keyboard-response","108","305629","0.0-15.0-0.33","1632","2","""event"",""trial"",""time""
""fullscreenenter"",""1"",""2586""
""blur"",""32"",""124176""
""focus"",""32"",""124177""
","""event"",""trial"",""time""
""blur"",""32"",""124176""
","""event"",""trial"",""time""
""focus"",""32"",""124177""
","""event"",""trial"",""time""
""fullscreenenter"",""1"",""2586""
","
","","","","","","null","<div style=""font-size:60px;"">+</div>","null","","fixation","","","","","","","","",""
"memory-trial","109","308238","0.0-15.0-1.33","1632","2","""event"",""trial"",""time""
""fullscreenenter"",""1"",""2586""
""blur"",""32"",""124176""
""focus"",""32"",""124177""
","""event"",""trial"",""time""
""blur"",""32"",""124176""
","""event"",""trial"",""time""
""focus"",""32"",""124177""
","""event"",""trial"",""time""
""fullscreenenter"",""1"",""2586""
","
","","","","","","1606.800000011921","images/cow3.png","","","memory_trial","2","maybe_old","","","","","","",""
"html-keyboard-response","110","308739","0.0-15.0-0.34","1632","2","""event"",""trial"",""time""
""fullscreenenter"",""1"",""2586""
""blur"",""32"",""124176""
""focus"",""32"",""124177""
","""event"",""trial"",""time""
""blur"",""32"",""124176""
","""event"",""trial"",""time""
""focus"",""32"",""124177""
","""event"",""trial"",""time""
""fullscreenenter"",""1"",""2586""
","
","","","","","","null","<div style=""font-size:60px;"">+</div>","null","","fixation","","","","","","","","",""
"memory-trial","111","310882","0.0-15.0-1.34","1632","2","""event"",""trial"",""time""
""fullscreenenter"",""1"",""2586""
""blur"",""32"",""124176""
""focus"",""32"",""124177""
","""event"",""trial"",""time""
""blur"",""32"",""124176""
","""event"",""trial"",""time""
""focus"",""32"",""124177""
","""event"",""trial"",""time""
""fullscreenenter"",""1"",""2586""
","
","","","","","","1140.0999999940395","images/horse3.png","","","memory_trial","3","maybe_new","","","","","","",""
"html-keyboard-response","112","311384","0.0-15.0-0.35","1632","2","""event"",""trial"",""time""
""fullscreenenter"",""1"",""2586""
""blur"",""32"",""124176""
""focus"",""32"",""124177""
","""event"",""trial"",""time""
""blur"",""32"",""124176""
","""event"",""trial"",""time""
""focus"",""32"",""124177""
","""event"",""trial"",""time""
""fullscreenenter"",""1"",""2586""
","
","","","","","","null","<div style=""font-size:60px;"">+</div>","null","","fixation","","","","","","","","",""
"memory-trial","113","313386","0.0-15.0-1.35","1632","2","""event"",""trial"",""time""
""fullscreenenter"",""1"",""2586""
""blur"",""32"",""124176""
""focus"",""32"",""124177""
","""event"",""trial"",""time""
""blur"",""32"",""124176""
","""event"",""trial"",""time""
""focus"",""32"",""124177""
","""event"",""trial"",""time""
""fullscreenenter"",""1"",""2586""
","
","","","","","","999.6999999880791","images/straw2.png","","","memory_trial","2","maybe_old","","","","","","",""
"html-keyboard-response","114","313887","0.0-15.0-0.36","1632","2","""event"",""trial"",""time""
""fullscreenenter"",""1"",""2586""
""blur"",""32"",""124176""
""focus"",""32"",""124177""
","""event"",""trial"",""time""
""blur"",""32"",""124176""
","""event"",""trial"",""time""
""focus"",""32"",""124177""
","""event"",""trial"",""time""
""fullscreenenter"",""1"",""2586""
","
","","","","","","null","<div style=""font-size:60px;"">+</div>","null","","fixation","","","","","","","","",""
"memory-trial","115","316198","0.0-15.0-1.36","1632","2","""event"",""trial"",""time""
""fullscreenenter"",""1"",""2586""
""blur"",""32"",""124176""
""focus"",""32"",""124177""
","""event"",""trial"",""time""
""blur"",""32"",""124176""
","""event"",""trial"",""time""
""focus"",""32"",""124177""
","""event"",""trial"",""time""
""fullscreenenter"",""1"",""2586""
","
","","","","","","1309.5999999940395","images/truck3.png","","","memory_trial","1","definitely_old","","","","","","",""
"html-keyboard-response","116","316699","0.0-15.0-0.37","1632","2","""event"",""trial"",""time""
""fullscreenenter"",""1"",""2586""
""blur"",""32"",""124176""
""focus"",""32"",""124177""
","""event"",""trial"",""time""
""blur"",""32"",""124176""
","""event"",""trial"",""time""
""focus"",""32"",""124177""
","""event"",""trial"",""time""
""fullscreenenter"",""1"",""2586""
","
","","","","","","null","<div style=""font-size:60px;"">+</div>","null","","fixation","","","","","","","","",""
"memory-trial","117","319433","0.0-15.0-1.37","1632","2","""event"",""trial"",""time""
""fullscreenenter"",""1"",""2586""
""blur"",""32"",""124176""
""focus"",""32"",""124177""
","""event"",""trial"",""time""
""blur"",""32"",""124176""
","""event"",""trial"",""time""
""focus"",""32"",""124177""
","""event"",""trial"",""time""
""fullscreenenter"",""1"",""2586""
","
","","","","","","1732.0999999940395","images/boat4.png","","","memory_trial","3","maybe_new","","","","","","",""
"html-keyboard-response","118","319939","0.0-15.0-0.38","1632","2","""event"",""trial"",""time""
""fullscreenenter"",""1"",""2586""
""blur"",""32"",""124176""
""focus"",""32"",""124177""
","""event"",""trial"",""time""
""blur"",""32"",""124176""
","""event"",""trial"",""time""
""focus"",""32"",""124177""
","""event"",""trial"",""time""
""fullscreenenter"",""1"",""2586""
","
","","","","","","null","<div style=""font-size:60px;"">+</div>","null","","fixation","","","","","","","","",""
"memory-trial","119","322900","0.0-15.0-1.38","1632","2","""event"",""trial"",""time""
""fullscreenenter"",""1"",""2586""
""blur"",""32"",""124176""
""focus"",""32"",""124177""
","""event"",""trial"",""time""
""blur"",""32"",""124176""
","""event"",""trial"",""time""
""focus"",""32"",""124177""
","""event"",""trial"",""time""
""fullscreenenter"",""1"",""2586""
","
","","","","","","1959.699999988079","images/flower3.png","","","memory_trial","2","maybe_old","","","","","","",""
"html-keyboard-response","120","323401","0.0-15.0-0.39","1632","2","""event"",""trial"",""time""
""fullscreenenter"",""1"",""2586""
""blur"",""32"",""124176""
""focus"",""32"",""124177""
","""event"",""trial"",""time""
""blur"",""32"",""124176""
","""event"",""trial"",""time""
""focus"",""32"",""124177""
","""event"",""trial"",""time""
""fullscreenenter"",""1"",""2586""
","
","","","","","","null","<div style=""font-size:60px;"">+</div>","null","","fixation","","","","","","","","",""
"memory-trial","121","325670","0.0-15.0-1.39","1632","2","""event"",""trial"",""time""
""fullscreenenter"",""1"",""2586""
""blur"",""32"",""124176""
""focus"",""32"",""124177""
","""event"",""trial"",""time""
""blur"",""32"",""124176""
","""event"",""trial"",""time""
""focus"",""32"",""124177""
","""event"",""trial"",""time""
""fullscreenenter"",""1"",""2586""
","
","","","","","","1267.2000000178814","images/bush3.png","","","memory_trial","3","maybe_new","","","","","","",""
"html-keyboard-response","122","326172","0.0-15.0-0.40","1632","2","""event"",""trial"",""time""
""fullscreenenter"",""1"",""2586""
""blur"",""32"",""124176""
""focus"",""32"",""124177""
","""event"",""trial"",""time""
""blur"",""32"",""124176""
","""event"",""trial"",""time""
""focus"",""32"",""124177""
","""event"",""trial"",""time""
""fullscreenenter"",""1"",""2586""
","
","","","","","","null","<div style=""font-size:60px;"">+</div>","null","","fixation","","","","","","","","",""
"memory-trial","123","328896","0.0-15.0-1.40","1632","2","""event"",""trial"",""time""
""fullscreenenter"",""1"",""2586""
""blur"",""32"",""124176""
""focus"",""32"",""124177""
","""event"",""trial"",""time""
""blur"",""32"",""124176""
","""event"",""trial"",""time""
""focus"",""32"",""124177""
","""event"",""trial"",""time""
""fullscreenenter"",""1"",""2586""
","
","","","","","","1722","images/dog1.png","","","memory_trial","2","maybe_old","","","","","","",""
"html-keyboard-response","124","329397","0.0-15.0-0.41","1632","2","""event"",""trial"",""time""
""fullscreenenter"",""1"",""2586""
""blur"",""32"",""124176""
""focus"",""32"",""124177""
","""event"",""trial"",""time""
""blur"",""32"",""124176""
","""event"",""trial"",""time""
""focus"",""32"",""124177""
","""event"",""trial"",""time""
""fullscreenenter"",""1"",""2586""
","
","","","","","","null","<div style=""font-size:60px;"">+</div>","null","","fixation","","","","","","","","",""
"memory-trial","125","333000","0.0-15.0-1.41","1632","2","""event"",""trial"",""time""
""fullscreenenter"",""1"",""2586""
""blur"",""32"",""124176""
""focus"",""32"",""124177""
","""event"",""trial"",""time""
""blur"",""32"",""124176""
","""event"",""trial"",""time""
""focus"",""32"",""124177""
","""event"",""trial"",""time""
""fullscreenenter"",""1"",""2586""
","
","","","","","","2600.300000011921","images/tree3.png","","","memory_trial","2","maybe_old","","","","","","",""
"html-keyboard-response","126","333501","0.0-15.0-0.42","1632","2","""event"",""trial"",""time""
""fullscreenenter"",""1"",""2586""
""blur"",""32"",""124176""
""focus"",""32"",""124177""
","""event"",""trial"",""time""
""blur"",""32"",""124176""
","""event"",""trial"",""time""
""focus"",""32"",""124177""
","""event"",""trial"",""time""
""fullscreenenter"",""1"",""2586""
","
","","","","","","null","<div style=""font-size:60px;"">+</div>","null","","fixation","","","","","","","","",""
"memory-trial","127","335910","0.0-15.0-1.42","1632","2","""event"",""trial"",""time""
""fullscreenenter"",""1"",""2586""
""blur"",""32"",""124176""
""focus"",""32"",""124177""
","""event"",""trial"",""time""
""blur"",""32"",""124176""
","""event"",""trial"",""time""
""focus"",""32"",""124177""
","""event"",""trial"",""time""
""fullscreenenter"",""1"",""2586""
","
","","","","","","1407.1000000238419","images/plane3.png","","","memory_trial","4","definitely_new","","","","","","",""
"html-keyboard-response","128","336411","0.0-15.0-0.43","1632","2","""event"",""trial"",""time""
""fullscreenenter"",""1"",""2586""
""blur"",""32"",""124176""
""focus"",""32"",""124177""
","""event"",""trial"",""time""
""blur"",""32"",""124176""
","""event"",""trial"",""time""
""focus"",""32"",""124177""
","""event"",""trial"",""time""
""fullscreenenter"",""1"",""2586""
","
","","","","","","null","<div style=""font-size:60px;"">+</div>","null","","fixation","","","","","","","","",""
"memory-trial","129","338955","0.0-15.0-1.43","1632","2","""event"",""trial"",""time""
""fullscreenenter"",""1"",""2586""
""blur"",""32"",""124176""
""focus"",""32"",""124177""
","""event"",""trial"",""time""
""blur"",""32"",""124176""
","""event"",""trial"",""time""
""focus"",""32"",""124177""
","""event"",""trial"",""time""
""fullscreenenter"",""1"",""2586""
","
","","","","","","1542.6000000238419","images/rodent1.png","","","memory_trial","3","maybe_new","","","","","","",""
"html-keyboard-response","130","339456","0.0-15.0-0.44","1632","2","""event"",""trial"",""time""
""fullscreenenter"",""1"",""2586""
""blur"",""32"",""124176""
""focus"",""32"",""124177""
","""event"",""trial"",""time""
""blur"",""32"",""124176""
","""event"",""trial"",""time""
""focus"",""32"",""124177""
","""event"",""trial"",""time""
""fullscreenenter"",""1"",""2586""
","
","","","","","","null","<div style=""font-size:60px;"">+</div>","null","","fixation","","","","","","","","",""
"memory-trial","131","341915","0.0-15.0-1.44","1632","2","""event"",""trial"",""time""
""fullscreenenter"",""1"",""2586""
""blur"",""32"",""124176""
""focus"",""32"",""124177""
","""event"",""trial"",""time""
""blur"",""32"",""124176""
","""event"",""trial"",""time""
""focus"",""32"",""124177""
","""event"",""trial"",""time""
""fullscreenenter"",""1"",""2586""
","
","","","","","","1456.300000011921","images/table4.png","","","memory_trial","3","maybe_new","","","","","","",""
"html-keyboard-response","132","342416","0.0-15.0-0.45","1632","2","""event"",""trial"",""time""
""fullscreenenter"",""1"",""2586""
""blur"",""32"",""124176""
""focus"",""32"",""124177""
","""event"",""trial"",""time""
""blur"",""32"",""124176""
","""event"",""trial"",""time""
""focus"",""32"",""124177""
","""event"",""trial"",""time""
""fullscreenenter"",""1"",""2586""
","
","","","","","","null","<div style=""font-size:60px;"">+</div>","null","","fixation","","","","","","","","",""
"memory-trial","133","344488","0.0-15.0-1.45","1632","2","""event"",""trial"",""time""
""fullscreenenter"",""1"",""2586""
""blur"",""32"",""124176""
""focus"",""32"",""124177""
","""event"",""trial"",""time""
""blur"",""32"",""124176""
","""event"",""trial"",""time""
""focus"",""32"",""124177""
","""event"",""trial"",""time""
""fullscreenenter"",""1"",""2586""
","
","","","","","","1070","images/straw5.png","","","memory_trial","4","definitely_new","","","","","","",""
"html-keyboard-response","134","344988","0.0-15.0-0.46","1632","2","""event"",""trial"",""time""
""fullscreenenter"",""1"",""2586""
""blur"",""32"",""124176""
""focus"",""32"",""124177""
","""event"",""trial"",""time""
""blur"",""32"",""124176""
","""event"",""trial"",""time""
""focus"",""32"",""124177""
","""event"",""trial"",""time""
""fullscreenenter"",""1"",""2586""
","
","","","","","","null","<div style=""font-size:60px;"">+</div>","null","","fixation","","","","","","","","",""
"memory-trial","135","346785","0.0-15.0-1.46","1632","2","""event"",""trial"",""time""
""fullscreenenter"",""1"",""2586""
""blur"",""32"",""124176""
""focus"",""32"",""124177""
","""event"",""trial"",""time""
""blur"",""32"",""124176""
","""event"",""trial"",""time""
""focus"",""32"",""124177""
","""event"",""trial"",""time""
""fullscreenenter"",""1"",""2586""
","
","","","","","","793","images/horse5.png","","","memory_trial","4","definitely_new","","","","","","",""
"html-button-response","136","348865","0.0-15.0-2.46-0.46","1632","2","""event"",""trial"",""time""
""fullscreenenter"",""1"",""2586""
""blur"",""32"",""124176""
""focus"",""32"",""124177""
","""event"",""trial"",""time""
""blur"",""32"",""124176""
","""event"",""trial"",""time""
""focus"",""32"",""124177""
","""event"",""trial"",""time""
""fullscreenenter"",""1"",""2586""
","
","","","","","","2079.399999976158","<p> Take a break! </p><p> Click the button to continue. </p>","0","","break","","","","","","","","",""
"html-keyboard-response","137","349367","0.0-15.0-0.47","1632","2","""event"",""trial"",""time""
""fullscreenenter"",""1"",""2586""
""blur"",""32"",""124176""
""focus"",""32"",""124177""
","""event"",""trial"",""time""
""blur"",""32"",""124176""
","""event"",""trial"",""time""
""focus"",""32"",""124177""
","""event"",""trial"",""time""
""fullscreenenter"",""1"",""2586""
","
","","","","","","null","<div style=""font-size:60px;"">+</div>","null","","fixation","","","","","","","","",""
"memory-trial","138","353901","0.0-15.0-1.47","1632","2","""event"",""trial"",""time""
""fullscreenenter"",""1"",""2586""
""blur"",""32"",""124176""
""focus"",""32"",""124177""
","""event"",""trial"",""time""
""blur"",""32"",""124176""
","""event"",""trial"",""time""
""focus"",""32"",""124177""
","""event"",""trial"",""time""
""fullscreenenter"",""1"",""2586""
","
","","","","","","3532.0999999940395","images/apple1.png","","","memory_trial","3","maybe_new","","","","","","",""
"html-keyboard-response","139","354402","0.0-15.0-0.48","1632","2","""event"",""trial"",""time""
""fullscreenenter"",""1"",""2586""
""blur"",""32"",""124176""
""focus"",""32"",""124177""
","""event"",""trial"",""time""
""blur"",""32"",""124176""
","""event"",""trial"",""time""
""focus"",""32"",""124177""
","""event"",""trial"",""time""
""fullscreenenter"",""1"",""2586""
","
","","","","","","null","<div style=""font-size:60px;"">+</div>","null","","fixation","","","","","","","","",""
"memory-trial","140","356841","0.0-15.0-1.48","1632","2","""event"",""trial"",""time""
""fullscreenenter"",""1"",""2586""
""blur"",""32"",""124176""
""focus"",""32"",""124177""
","""event"",""trial"",""time""
""blur"",""32"",""124176""
","""event"",""trial"",""time""
""focus"",""32"",""124177""
","""event"",""trial"",""time""
""fullscreenenter"",""1"",""2586""
","
","","","","","","1436.199999988079","images/goat3.png","","","memory_trial","3","maybe_new","","","","","","",""
"html-keyboard-response","141","357342","0.0-15.0-0.49","1632","2","""event"",""trial"",""time""
""fullscreenenter"",""1"",""2586""
""blur"",""32"",""124176""
""focus"",""32"",""124177""
","""event"",""trial"",""time""
""blur"",""32"",""124176""
","""event"",""trial"",""time""
""focus"",""32"",""124177""
","""event"",""trial"",""time""
""fullscreenenter"",""1"",""2586""
","
","","","","","","null","<div style=""font-size:60px;"">+</div>","null","","fixation","","","","","","","","",""
"memory-trial","142","359112","0.0-15.0-1.49","1632","2","""event"",""trial"",""time""
""fullscreenenter"",""1"",""2586""
""blur"",""32"",""124176""
""focus"",""32"",""124177""
","""event"",""trial"",""time""
""blur"",""32"",""124176""
","""event"",""trial"",""time""
""focus"",""32"",""124177""
","""event"",""trial"",""time""
""fullscreenenter"",""1"",""2586""
","
","","","","","","767.3000000119209","images/feline3.png","","","memory_trial","3","maybe_new","","","","","","",""
"html-keyboard-response","143","359613","0.0-15.0-0.50","1632","2","""event"",""trial"",""time""
""fullscreenenter"",""1"",""2586""
""blur"",""32"",""124176""
""focus"",""32"",""124177""
","""event"",""trial"",""time""
""blur"",""32"",""124176""
","""event"",""trial"",""time""
""focus"",""32"",""124177""
","""event"",""trial"",""time""
""fullscreenenter"",""1"",""2586""
","
","","","","","","null","<div style=""font-size:60px;"">+</div>","null","","fixation","","","","","","","","",""
"memory-trial","144","361168","0.0-15.0-1.50","1632","2","""event"",""trial"",""time""
""fullscreenenter"",""1"",""2586""
""blur"",""32"",""124176""
""focus"",""32"",""124177""
","""event"",""trial"",""time""
""blur"",""32"",""124176""
","""event"",""trial"",""time""
""focus"",""32"",""124177""
","""event"",""trial"",""time""
""fullscreenenter"",""1"",""2586""
","
","","","","","","552.6000000238419","images/feline2.png","","","memory_trial","4","definitely_new","","","","","","",""
"html-keyboard-response","145","361670","0.0-15.0-0.51","1632","2","""event"",""trial"",""time""
""fullscreenenter"",""1"",""2586""
""blur"",""32"",""124176""
""focus"",""32"",""124177""
","""event"",""trial"",""time""
""blur"",""32"",""124176""
","""event"",""trial"",""time""
""focus"",""32"",""124177""
","""event"",""trial"",""time""
""fullscreenenter"",""1"",""2586""
","
","","","","","","null","<div style=""font-size:60px;"">+</div>","null","","fixation","","","","","","","","",""
"memory-trial","146","363899","0.0-15.0-1.51","1632","2","""event"",""trial"",""time""
""fullscreenenter"",""1"",""2586""
""blur"",""32"",""124176""
""focus"",""32"",""124177""
","""event"",""trial"",""time""
""blur"",""32"",""124176""
","""event"",""trial"",""time""
""focus"",""32"",""124177""
","""event"",""trial"",""time""
""fullscreenenter"",""1"",""2586""
","
","","","","","","1227.4000000059605","images/rabbit4.png","","","memory_trial","2","maybe_old","","","","","","",""
"html-keyboard-response","147","364401","0.0-15.0-0.52","1632","2","""event"",""trial"",""time""
""fullscreenenter"",""1"",""2586""
""blur"",""32"",""124176""
""focus"",""32"",""124177""
","""event"",""trial"",""time""
""blur"",""32"",""124176""
","""event"",""trial"",""time""
""focus"",""32"",""124177""
","""event"",""trial"",""time""
""fullscreenenter"",""1"",""2586""
","
","","","","","","null","<div style=""font-size:60px;"">+</div>","null","","fixation","","","","","","","","",""
"memory-trial","148","366559","0.0-15.0-1.52","1632","2","""event"",""trial"",""time""
""fullscreenenter"",""1"",""2586""
""blur"",""32"",""124176""
""focus"",""32"",""124177""
","""event"",""trial"",""time""
""blur"",""32"",""124176""
","""event"",""trial"",""time""
""focus"",""32"",""124177""
","""event"",""trial"",""time""
""fullscreenenter"",""1"",""2586""
","
","","","","","","1156.300000011921","images/banana3.png","","","memory_trial","4","definitely_new","","","","","","",""
"html-keyboard-response","149","367060","0.0-15.0-0.53","1632","2","""event"",""trial"",""time""
""fullscreenenter"",""1"",""2586""
""blur"",""32"",""124176""
""focus"",""32"",""124177""
","""event"",""trial"",""time""
""blur"",""32"",""124176""
","""event"",""trial"",""time""
""focus"",""32"",""124177""
","""event"",""trial"",""time""
""fullscreenenter"",""1"",""2586""
","
","","","","","","null","<div style=""font-size:60px;"">+</div>","null","","fixation","","","","","","","","",""
"memory-trial","150","368950","0.0-15.0-1.53","1632","2","""event"",""trial"",""time""
""fullscreenenter"",""1"",""2586""
""blur"",""32"",""124176""
""focus"",""32"",""124177""
","""event"",""trial"",""time""
""blur"",""32"",""124176""
","""event"",""trial"",""time""
""focus"",""32"",""124177""
","""event"",""trial"",""time""
""fullscreenenter"",""1"",""2586""
","
","","","","","","888.4000000059605","images/sheep3.png","","","memory_trial","4","definitely_new","","","","","","",""
"html-keyboard-response","151","369452","0.0-15.0-0.54","1632","2","""event"",""trial"",""time""
""fullscreenenter"",""1"",""2586""
""blur"",""32"",""124176""
""focus"",""32"",""124177""
","""event"",""trial"",""time""
""blur"",""32"",""124176""
","""event"",""trial"",""time""
""focus"",""32"",""124177""
","""event"",""trial"",""time""
""fullscreenenter"",""1"",""2586""
","
","","","","","","null","<div style=""font-size:60px;"">+</div>","null","","fixation","","","","","","","","",""
"memory-trial","152","371815","0.0-15.0-1.54","1632","2","""event"",""trial"",""time""
""fullscreenenter"",""1"",""2586""
""blur"",""32"",""124176""
""focus"",""32"",""124177""
","""event"",""trial"",""time""
""blur"",""32"",""124176""
","""event"",""trial"",""time""
""focus"",""32"",""124177""
","""event"",""trial"",""time""
""fullscreenenter"",""1"",""2586""
","
","","","","","","1360.5999999940395","images/straw3.png","","","memory_trial","2","maybe_old","","","","","","",""
"html-keyboard-response","153","372316","0.0-15.0-0.55","1632","2","""event"",""trial"",""time""
""fullscreenenter"",""1"",""2586""
""blur"",""32"",""124176""
""focus"",""32"",""124177""
","""event"",""trial"",""time""
""blur"",""32"",""124176""
","""event"",""trial"",""time""
""focus"",""32"",""124177""
","""event"",""trial"",""time""
""fullscreenenter"",""1"",""2586""
","
","","","","","","null","<div style=""font-size:60px;"">+</div>","null","","fixation","","","","","","","","",""
"memory-trial","154","374137","0.0-15.0-1.55","1632","2","""event"",""trial"",""time""
""fullscreenenter"",""1"",""2586""
""blur"",""32"",""124176""
""focus"",""32"",""124177""
","""event"",""trial"",""time""
""blur"",""32"",""124176""
","""event"",""trial"",""time""
""focus"",""32"",""124177""
","""event"",""trial"",""time""
""fullscreenenter"",""1"",""2586""
","
","","","","","","819.5999999940395","images/bush1.png","","","memory_trial","4","definitely_new","","","","","","",""
"html-keyboard-response","155","374638","0.0-15.0-0.56","1632","2","""event"",""trial"",""time""
""fullscreenenter"",""1"",""2586""
""blur"",""32"",""124176""
""focus"",""32"",""124177""
","""event"",""trial"",""time""
""blur"",""32"",""124176""
","""event"",""trial"",""time""
""focus"",""32"",""124177""
","""event"",""trial"",""time""
""fullscreenenter"",""1"",""2586""
","
","","","","","","null","<div style=""font-size:60px;"">+</div>","null","","fixation","","","","","","","","",""
"memory-trial","156","376901","0.0-15.0-1.56","1632","2","""event"",""trial"",""time""
""fullscreenenter"",""1"",""2586""
""blur"",""32"",""124176""
""focus"",""32"",""124177""
","""event"",""trial"",""time""
""blur"",""32"",""124176""
","""event"",""trial"",""time""
""focus"",""32"",""124177""
","""event"",""trial"",""time""
""fullscreenenter"",""1"",""2586""
","
","","","","","","1260.9000000059605","images/orange5.png","","","memory_trial","4","definitely_new","","","","","","",""
"html-keyboard-response","157","377403","0.0-15.0-0.57","1632","2","""event"",""trial"",""time""
""fullscreenenter"",""1"",""2586""
""blur"",""32"",""124176""
""focus"",""32"",""124177""
","""event"",""trial"",""time""
""blur"",""32"",""124176""
","""event"",""trial"",""time""
""focus"",""32"",""124177""
","""event"",""trial"",""time""
""fullscreenenter"",""1"",""2586""
","
","","","","","","null","<div style=""font-size:60px;"">+</div>","null","","fixation","","","","","","","","",""
"memory-trial","158","380694","0.0-15.0-1.57","1632","2","""event"",""trial"",""time""
""fullscreenenter"",""1"",""2586""
""blur"",""32"",""124176""
""focus"",""32"",""124177""
","""event"",""trial"",""time""
""blur"",""32"",""124176""
","""event"",""trial"",""time""
""focus"",""32"",""124177""
","""event"",""trial"",""time""
""fullscreenenter"",""1"",""2586""
","
","","","","","","2289.5","images/truck1.png","","","memory_trial","2","maybe_old","","","","","","",""
"html-keyboard-response","159","381195","0.0-15.0-0.58","1632","2","""event"",""trial"",""time""
""fullscreenenter"",""1"",""2586""
""blur"",""32"",""124176""
""focus"",""32"",""124177""
","""event"",""trial"",""time""
""blur"",""32"",""124176""
","""event"",""trial"",""time""
""focus"",""32"",""124177""
","""event"",""trial"",""time""
""fullscreenenter"",""1"",""2586""
","
","","","","","","null","<div style=""font-size:60px;"">+</div>","null","","fixation","","","","","","","","",""
"memory-trial","160","383549","0.0-15.0-1.58","1632","2","""event"",""trial"",""time""
""fullscreenenter"",""1"",""2586""
""blur"",""32"",""124176""
""focus"",""32"",""124177""
","""event"",""trial"",""time""
""blur"",""32"",""124176""
","""event"",""trial"",""time""
""focus"",""32"",""124177""
","""event"",""trial"",""time""
""fullscreenenter"",""1"",""2586""
","
","","","","","","1351.5999999940395","images/plane2.png","","","memory_trial","4","definitely_new","","","","","","",""
"html-keyboard-response","161","384050","0.0-15.0-0.59","1632","2","""event"",""trial"",""time""
""fullscreenenter"",""1"",""2586""
""blur"",""32"",""124176""
""focus"",""32"",""124177""
","""event"",""trial"",""time""
""blur"",""32"",""124176""
","""event"",""trial"",""time""
""focus"",""32"",""124177""
","""event"",""trial"",""time""
""fullscreenenter"",""1"",""2586""
","
","","","","","","null","<div style=""font-size:60px;"">+</div>","null","","fixation","","","","","","","","",""
"memory-trial","162","387014","0.0-15.0-1.59","1632","2","""event"",""trial"",""time""
""fullscreenenter"",""1"",""2586""
""blur"",""32"",""124176""
""focus"",""32"",""124177""
","""event"",""trial"",""time""
""blur"",""32"",""124176""
","""event"",""trial"",""time""
""focus"",""32"",""124177""
","""event"",""trial"",""time""
""fullscreenenter"",""1"",""2586""
","
","","","","","","1961.7000000178814","images/sofa2.png","","","memory_trial","4","definitely_new","","","","","","",""
"html-keyboard-response","163","387515","0.0-15.0-0.60","1632","2","""event"",""trial"",""time""
""fullscreenenter"",""1"",""2586""
""blur"",""32"",""124176""
""focus"",""32"",""124177""
","""event"",""trial"",""time""
""blur"",""32"",""124176""
","""event"",""trial"",""time""
""focus"",""32"",""124177""
","""event"",""trial"",""time""
""fullscreenenter"",""1"",""2586""
","
","","","","","","null","<div style=""font-size:60px;"">+</div>","null","","fixation","","","","","","","","",""
"memory-trial","164","389742","0.0-15.0-1.60","1632","2","""event"",""trial"",""time""
""fullscreenenter"",""1"",""2586""
""blur"",""32"",""124176""
""focus"",""32"",""124177""
","""event"",""trial"",""time""
""blur"",""32"",""124176""
","""event"",""trial"",""time""
""focus"",""32"",""124177""
","""event"",""trial"",""time""
""fullscreenenter"",""1"",""2586""
","
","","","","","","1224.3999999761581","images/flower4.png","","","memory_trial","1","definitely_old","","","","","","",""
"html-keyboard-response","165","390243","0.0-15.0-0.61","1632","2","""event"",""trial"",""time""
""fullscreenenter"",""1"",""2586""
""blur"",""32"",""124176""
""focus"",""32"",""124177""
","""event"",""trial"",""time""
""blur"",""32"",""124176""
","""event"",""trial"",""time""
""focus"",""32"",""124177""
","""event"",""trial"",""time""
""fullscreenenter"",""1"",""2586""
","
","","","","","","null","<div style=""font-size:60px;"">+</div>","null","","fixation","","","","","","","","",""
"memory-trial","166","392106","0.0-15.0-1.61","1632","2","""event"",""trial"",""time""
""fullscreenenter"",""1"",""2586""
""blur"",""32"",""124176""
""focus"",""32"",""124177""
","""event"",""trial"",""time""
""blur"",""32"",""124176""
","""event"",""trial"",""time""
""focus"",""32"",""124177""
","""event"",""trial"",""time""
""fullscreenenter"",""1"",""2586""
","
","","","","","","860.5999999940395","images/sofa3.png","","","memory_trial","4","definitely_new","","","","","","",""
"html-keyboard-response","167","392607","0.0-15.0-0.62","1632","2","""event"",""trial"",""time""
""fullscreenenter"",""1"",""2586""
""blur"",""32"",""124176""
""focus"",""32"",""124177""
","""event"",""trial"",""time""
""blur"",""32"",""124176""
","""event"",""trial"",""time""
""focus"",""32"",""124177""
","""event"",""trial"",""time""
""fullscreenenter"",""1"",""2586""
","
","","","","","","null","<div style=""font-size:60px;"">+</div>","null","","fixation","","","","","","","","",""
"memory-trial","168","395225","0.0-15.0-1.62","1632","2","""event"",""trial"",""time""
""fullscreenenter"",""1"",""2586""
""blur"",""32"",""124176""
""focus"",""32"",""124177""
","""event"",""trial"",""time""
""blur"",""32"",""124176""
","""event"",""trial"",""time""
""focus"",""32"",""124177""
","""event"",""trial"",""time""
""fullscreenenter"",""1"",""2586""
","
","","","","","","1615.5","images/train1.png","","","memory_trial","3","maybe_new","","","","","","",""
"html-keyboard-response","169","395727","0.0-15.0-0.63","1632","2","""event"",""trial"",""time""
""fullscreenenter"",""1"",""2586""
""blur"",""32"",""124176""
""focus"",""32"",""124177""
","""event"",""trial"",""time""
""blur"",""32"",""124176""
","""event"",""trial"",""time""
""focus"",""32"",""124177""
","""event"",""trial"",""time""
""fullscreenenter"",""1"",""2586""
","
","","","","","","null","<div style=""font-size:60px;"">+</div>","null","","fixation","","","","","","","","",""
"memory-trial","170","397996","0.0-15.0-1.63","1632","2","""event"",""trial"",""time""
""fullscreenenter"",""1"",""2586""
""blur"",""32"",""124176""
""focus"",""32"",""124177""
","""event"",""trial"",""time""
""blur"",""32"",""124176""
","""event"",""trial"",""time""
""focus"",""32"",""124177""
","""event"",""trial"",""time""
""fullscreenenter"",""1"",""2586""
","
","","","","","","1266.2000000178814","images/cactus1.png","","","memory_trial","2","maybe_old","","","","","","",""
"html-keyboard-response","171","398497","0.0-15.0-0.64","1632","2","""event"",""trial"",""time""
""fullscreenenter"",""1"",""2586""
""blur"",""32"",""124176""
""focus"",""32"",""124177""
","""event"",""trial"",""time""
""blur"",""32"",""124176""
","""event"",""trial"",""time""
""focus"",""32"",""124177""
","""event"",""trial"",""time""
""fullscreenenter"",""1"",""2586""
","
","","","","","","null","<div style=""font-size:60px;"">+</div>","null","","fixation","","","","","","","","",""
"memory-trial","172","400748","0.0-15.0-1.64","1632","2","""event"",""trial"",""time""
""fullscreenenter"",""1"",""2586""
""blur"",""32"",""124176""
""focus"",""32"",""124177""
","""event"",""trial"",""time""
""blur"",""32"",""124176""
","""event"",""trial"",""time""
""focus"",""32"",""124177""
","""event"",""trial"",""time""
""fullscreenenter"",""1"",""2586""
","
","","","","","","1250.0999999940395","images/feline1.png","","","memory_trial","4","definitely_new","","","","","","",""
"html-keyboard-response","173","401250","0.0-15.0-0.65","1632","2","""event"",""trial"",""time""
""fullscreenenter"",""1"",""2586""
""blur"",""32"",""124176""
""focus"",""32"",""124177""
","""event"",""trial"",""time""
""blur"",""32"",""124176""
","""event"",""trial"",""time""
""focus"",""32"",""124177""
","""event"",""trial"",""time""
""fullscreenenter"",""1"",""2586""
","
","","","","","","null","<div style=""font-size:60px;"">+</div>","null","","fixation","","","","","","","","",""
"memory-trial","174","403962","0.0-15.0-1.65","1632","2","""event"",""trial"",""time""
""fullscreenenter"",""1"",""2586""
""blur"",""32"",""124176""
""focus"",""32"",""124177""
","""event"",""trial"",""time""
""blur"",""32"",""124176""
","""event"",""trial"",""time""
""focus"",""32"",""124177""
","""event"",""trial"",""time""
""fullscreenenter"",""1"",""2586""
","
","","","","","","1709.7999999821186","images/cow2.png","","","memory_trial","1","definitely_old","","","","","","",""
"html-keyboard-response","175","404463","0.0-15.0-0.66","1632","2","""event"",""trial"",""time""
""fullscreenenter"",""1"",""2586""
""blur"",""32"",""124176""
""focus"",""32"",""124177""
","""event"",""trial"",""time""
""blur"",""32"",""124176""
","""event"",""trial"",""time""
""focus"",""32"",""124177""
","""event"",""trial"",""time""
""fullscreenenter"",""1"",""2586""
","
","","","","","","null","<div style=""font-size:60px;"">+</div>","null","","fixation","","","","","","","","",""
"memory-trial","176","407073","0.0-15.0-1.66","1632","2","""event"",""trial"",""time""
""fullscreenenter"",""1"",""2586""
""blur"",""32"",""124176""
""focus"",""32"",""124177""
","""event"",""trial"",""time""
""blur"",""32"",""124176""
","""event"",""trial"",""time""
""focus"",""32"",""124177""
","""event"",""trial"",""time""
""fullscreenenter"",""1"",""2586""
","
","","","","","","1607.800000011921","images/sofa1.png","","","memory_trial","4","definitely_new","","","","","","",""
"html-keyboard-response","177","407575","0.0-15.0-0.67","1632","2","""event"",""trial"",""time""
""fullscreenenter"",""1"",""2586""
""blur"",""32"",""124176""
""focus"",""32"",""124177""
","""event"",""trial"",""time""
""blur"",""32"",""124176""
","""event"",""trial"",""time""
""focus"",""32"",""124177""
","""event"",""trial"",""time""
""fullscreenenter"",""1"",""2586""
","
","","","","","","null","<div style=""font-size:60px;"">+</div>","null","","fixation","","","","","","","","",""
"memory-trial","178","410178","0.0-15.0-1.67","1632","2","""event"",""trial"",""time""
""fullscreenenter"",""1"",""2586""
""blur"",""32"",""124176""
""focus"",""32"",""124177""
","""event"",""trial"",""time""
""blur"",""32"",""124176""
","""event"",""trial"",""time""
""focus"",""32"",""124177""
","""event"",""trial"",""time""
""fullscreenenter"",""1"",""2586""
","
","","","","","","1600.6000000238419","images/flower1.png","","","memory_trial","3","maybe_new","","","","","","",""
"html-keyboard-response","179","410679","0.0-15.0-0.68","1632","2","""event"",""trial"",""time""
""fullscreenenter"",""1"",""2586""
""blur"",""32"",""124176""
""focus"",""32"",""124177""
","""event"",""trial"",""time""
""blur"",""32"",""124176""
","""event"",""trial"",""time""
""focus"",""32"",""124177""
","""event"",""trial"",""time""
""fullscreenenter"",""1"",""2586""
","
","","","","","","null","<div style=""font-size:60px;"">+</div>","null","","fixation","","","","","","","","",""
"memory-trial","180","412726","0.0-15.0-1.68","1632","2","""event"",""trial"",""time""
""fullscreenenter"",""1"",""2586""
""blur"",""32"",""124176""
""focus"",""32"",""124177""
","""event"",""trial"",""time""
""blur"",""32"",""124176""
","""event"",""trial"",""time""
""focus"",""32"",""124177""
","""event"",""trial"",""time""
""fullscreenenter"",""1"",""2586""
","
","","","","","","1045.5999999940395","images/horse1.png","","","memory_trial","1","definitely_old","","","","","","",""
"html-keyboard-response","181","413227","0.0-15.0-0.69","1632","2","""event"",""trial"",""time""
""fullscreenenter"",""1"",""2586""
""blur"",""32"",""124176""
""focus"",""32"",""124177""
","""event"",""trial"",""time""
""blur"",""32"",""124176""
","""event"",""trial"",""time""
""focus"",""32"",""124177""
","""event"",""trial"",""time""
""fullscreenenter"",""1"",""2586""
","
","","","","","","null","<div style=""font-size:60px;"">+</div>","null","","fixation","","","","","","","","",""
"memory-trial","182","415684","0.0-15.0-1.69","1632","2","""event"",""trial"",""time""
""fullscreenenter"",""1"",""2586""
""blur"",""32"",""124176""
""focus"",""32"",""124177""
","""event"",""trial"",""time""
""blur"",""32"",""124176""
","""event"",""trial"",""time""
""focus"",""32"",""124177""
","""event"",""trial"",""time""
""fullscreenenter"",""1"",""2586""
","
","","","","","","1453.699999988079","images/rodent2.png","","","memory_trial","3","maybe_new","","","","","","",""
"html-keyboard-response","183","416185","0.0-15.0-0.70","1632","2","""event"",""trial"",""time""
""fullscreenenter"",""1"",""2586""
""blur"",""32"",""124176""
""focus"",""32"",""124177""
","""event"",""trial"",""time""
""blur"",""32"",""124176""
","""event"",""trial"",""time""
""focus"",""32"",""124177""
","""event"",""trial"",""time""
""fullscreenenter"",""1"",""2586""
","
","","","","","","null","<div style=""font-size:60px;"">+</div>","null","","fixation","","","","","","","","",""
"memory-trial","184","418540","0.0-15.0-1.70","1632","2","""event"",""trial"",""time""
""fullscreenenter"",""1"",""2586""
""blur"",""32"",""124176""
""focus"",""32"",""124177""
","""event"",""trial"",""time""
""blur"",""32"",""124176""
","""event"",""trial"",""time""
""focus"",""32"",""124177""
","""event"",""trial"",""time""
""fullscreenenter"",""1"",""2586""
","
","","","","","","1353.2000000178814","images/flower2.png","","","memory_trial","4","definitely_new","","","","","","",""
"html-keyboard-response","185","419041","0.0-15.0-0.71","1632","2","""event"",""trial"",""time""
""fullscreenenter"",""1"",""2586""
""blur"",""32"",""124176""
""focus"",""32"",""124177""
","""event"",""trial"",""time""
""blur"",""32"",""124176""
","""event"",""trial"",""time""
""focus"",""32"",""124177""
","""event"",""trial"",""time""
""fullscreenenter"",""1"",""2586""
","
","","","","","","null","<div style=""font-size:60px;"">+</div>","null","","fixation","","","","","","","","",""
"memory-trial","186","421350","0.0-15.0-1.71","1632","2","""event"",""trial"",""time""
""fullscreenenter"",""1"",""2586""
""blur"",""32"",""124176""
""focus"",""32"",""124177""
","""event"",""trial"",""time""
""blur"",""32"",""124176""
","""event"",""trial"",""time""
""focus"",""32"",""124177""
","""event"",""trial"",""time""
""fullscreenenter"",""1"",""2586""
","
","","","","","","1307.4000000059605","images/boat2.png","","","memory_trial","2","maybe_old","","","","","","",""
"html-keyboard-response","187","421852","0.0-15.0-0.72","1632","2","""event"",""trial"",""time""
""fullscreenenter"",""1"",""2586""
""blur"",""32"",""124176""
""focus"",""32"",""124177""
","""event"",""trial"",""time""
""blur"",""32"",""124176""
","""event"",""trial"",""time""
""focus"",""32"",""124177""
","""event"",""trial"",""time""
""fullscreenenter"",""1"",""2586""
","
","","","","","","null","<div style=""font-size:60px;"">+</div>","null","","fixation","","","","","","","","",""
"memory-trial","188","424536","0.0-15.0-1.72","1632","2","""event"",""trial"",""time""
""fullscreenenter"",""1"",""2586""
""blur"",""32"",""124176""
""focus"",""32"",""124177""
","""event"",""trial"",""time""
""blur"",""32"",""124176""
","""event"",""trial"",""time""
""focus"",""32"",""124177""
","""event"",""trial"",""time""
""fullscreenenter"",""1"",""2586""
","
","","","","","","1681.9000000059605","images/bed4.png","","","memory_trial","4","definitely_new","","","","","","",""
"html-keyboard-response","189","425036","0.0-15.0-0.73","1632","2","""event"",""trial"",""time""
""fullscreenenter"",""1"",""2586""
""blur"",""32"",""124176""
""focus"",""32"",""124177""
","""event"",""trial"",""time""
""blur"",""32"",""124176""
","""event"",""trial"",""time""
""focus"",""32"",""124177""
","""event"",""trial"",""time""
""fullscreenenter"",""1"",""2586""
","
","","","","","","null","<div style=""font-size:60px;"">+</div>","null","","fixation","","","","","","","","",""
"memory-trial","190","427435","0.0-15.0-1.73","1632","2","""event"",""trial"",""time""
""fullscreenenter"",""1"",""2586""
""blur"",""32"",""124176""
""focus"",""32"",""124177""
","""event"",""trial"",""time""
""blur"",""32"",""124176""
","""event"",""trial"",""time""
""focus"",""32"",""124177""
","""event"",""trial"",""time""
""fullscreenenter"",""1"",""2586""
","
","","","","","","1396.0999999940395","images/apple5.png","","","memory_trial","4","definitely_new","","","","","","",""
"html-keyboard-response","191","427936","0.0-15.0-0.74","1632","2","""event"",""trial"",""time""
""fullscreenenter"",""1"",""2586""
""blur"",""32"",""124176""
""focus"",""32"",""124177""
","""event"",""trial"",""time""
""blur"",""32"",""124176""
","""event"",""trial"",""time""
""focus"",""32"",""124177""
","""event"",""trial"",""time""
""fullscreenenter"",""1"",""2586""
","
","","","","","","null","<div style=""font-size:60px;"">+</div>","null","","fixation","","","","","","","","",""
"memory-trial","192","429681","0.0-15.0-1.74","1632","2","""event"",""trial"",""time""
""fullscreenenter"",""1"",""2586""
""blur"",""32"",""124176""
""focus"",""32"",""124177""
","""event"",""trial"",""time""
""blur"",""32"",""124176""
","""event"",""trial"",""time""
""focus"",""32"",""124177""
","""event"",""trial"",""time""
""fullscreenenter"",""1"",""2586""
","
","","","","","","743.5","images/straw1.png","","","memory_trial","4","definitely_new","","","","","","",""
"html-keyboard-response","193","430182","0.0-15.0-0.75","1632","2","""event"",""trial"",""time""
""fullscreenenter"",""1"",""2586""
""blur"",""32"",""124176""
""focus"",""32"",""124177""
","""event"",""trial"",""time""
""blur"",""32"",""124176""
","""event"",""trial"",""time""
""focus"",""32"",""124177""
","""event"",""trial"",""time""
""fullscreenenter"",""1"",""2586""
","
","","","","","","null","<div style=""font-size:60px;"">+</div>","null","","fixation","","","","","","","","",""
"memory-trial","194","432895","0.0-15.0-1.75","1632","2","""event"",""trial"",""time""
""fullscreenenter"",""1"",""2586""
""blur"",""32"",""124176""
""focus"",""32"",""124177""
","""event"",""trial"",""time""
""blur"",""32"",""124176""
","""event"",""trial"",""time""
""focus"",""32"",""124177""
","""event"",""trial"",""time""
""fullscreenenter"",""1"",""2586""
","
","","","","","","1710.5999999940395","images/chair5.png","","","memory_trial","4","definitely_new","","","","","","",""
"html-keyboard-response","195","433396","0.0-15.0-0.76","1632","2","""event"",""trial"",""time""
""fullscreenenter"",""1"",""2586""
""blur"",""32"",""124176""
""focus"",""32"",""124177""
","""event"",""trial"",""time""
""blur"",""32"",""124176""
","""event"",""trial"",""time""
""focus"",""32"",""124177""
","""event"",""trial"",""time""
""fullscreenenter"",""1"",""2586""
","
","","","","","","null","<div style=""font-size:60px;"">+</div>","null","","fixation","","","","","","","","",""
"memory-trial","196","435171","0.0-15.0-1.76","1632","2","""event"",""trial"",""time""
""fullscreenenter"",""1"",""2586""
""blur"",""32"",""124176""
""focus"",""32"",""124177""
","""event"",""trial"",""time""
""blur"",""32"",""124176""
","""event"",""trial"",""time""
""focus"",""32"",""124177""
","""event"",""trial"",""time""
""fullscreenenter"",""1"",""2586""
","
","","","","","","772.0999999940395","images/train3.png","","","memory_trial","1","definitely_old","","","","","","",""
"html-keyboard-response","197","435672","0.0-15.0-0.77","1632","2","""event"",""trial"",""time""
""fullscreenenter"",""1"",""2586""
""blur"",""32"",""124176""
""focus"",""32"",""124177""
","""event"",""trial"",""time""
""blur"",""32"",""124176""
","""event"",""trial"",""time""
""focus"",""32"",""124177""
","""event"",""trial"",""time""
""fullscreenenter"",""1"",""2586""
","
","","","","","","null","<div style=""font-size:60px;"">+</div>","null","","fixation","","","","","","","","",""
"memory-trial","198","438269","0.0-15.0-1.77","1632","2","""event"",""trial"",""time""
""fullscreenenter"",""1"",""2586""
""blur"",""32"",""124176""
""focus"",""32"",""124177""
","""event"",""trial"",""time""
""blur"",""32"",""124176""
","""event"",""trial"",""time""
""focus"",""32"",""124177""
","""event"",""trial"",""time""
""fullscreenenter"",""1"",""2586""
","
","","","","","","1594.7000000178814","images/apple3.png","","","memory_trial","3","maybe_new","","","","","","",""
"html-keyboard-response","199","438770","0.0-15.0-0.78","1632","2","""event"",""trial"",""time""
""fullscreenenter"",""1"",""2586""
""blur"",""32"",""124176""
""focus"",""32"",""124177""
","""event"",""trial"",""time""
""blur"",""32"",""124176""
","""event"",""trial"",""time""
""focus"",""32"",""124177""
","""event"",""trial"",""time""
""fullscreenenter"",""1"",""2586""
","
","","","","","","null","<div style=""font-size:60px;"">+</div>","null","","fixation","","","","","","","","",""
"memory-trial","200","441550","0.0-15.0-1.78","1632","2","""event"",""trial"",""time""
""fullscreenenter"",""1"",""2586""
""blur"",""32"",""124176""
""focus"",""32"",""124177""
","""event"",""trial"",""time""
""blur"",""32"",""124176""
","""event"",""trial"",""time""
""focus"",""32"",""124177""
","""event"",""trial"",""time""
""fullscreenenter"",""1"",""2586""
","
","","","","","","1777","images/train5.png","","","memory_trial","2","maybe_old","","","","","","",""
"html-keyboard-response","201","442051","0.0-15.0-0.79","1632","2","""event"",""trial"",""time""
""fullscreenenter"",""1"",""2586""
""blur"",""32"",""124176""
""focus"",""32"",""124177""
","""event"",""trial"",""time""
""blur"",""32"",""124176""
","""event"",""trial"",""time""
""focus"",""32"",""124177""
","""event"",""trial"",""time""
""fullscreenenter"",""1"",""2586""
","
","","","","","","null","<div style=""font-size:60px;"">+</div>","null","","fixation","","","","","","","","",""
"memory-trial","202","445271","0.0-15.0-1.79","1632","2","""event"",""trial"",""time""
""fullscreenenter"",""1"",""2586""
""blur"",""32"",""124176""
""focus"",""32"",""124177""
","""event"",""trial"",""time""
""blur"",""32"",""124176""
","""event"",""trial"",""time""
""focus"",""32"",""124177""
","""event"",""trial"",""time""
""fullscreenenter"",""1"",""2586""
","
","","","","","","2218.2000000178814","images/boat5.png","","","memory_trial","3","maybe_new","","","","","","",""
"html-keyboard-response","203","445773","0.0-15.0-0.80","1632","2","""event"",""trial"",""time""
""fullscreenenter"",""1"",""2586""
""blur"",""32"",""124176""
""focus"",""32"",""124177""
","""event"",""trial"",""time""
""blur"",""32"",""124176""
","""event"",""trial"",""time""
""focus"",""32"",""124177""
","""event"",""trial"",""time""
""fullscreenenter"",""1"",""2586""
","
","","","","","","null","<div style=""font-size:60px;"">+</div>","null","","fixation","","","","","","","","",""
"memory-trial","204","447851","0.0-15.0-1.80","1632","2","""event"",""trial"",""time""
""fullscreenenter"",""1"",""2586""
""blur"",""32"",""124176""
""focus"",""32"",""124177""
","""event"",""trial"",""time""
""blur"",""32"",""124176""
","""event"",""trial"",""time""
""focus"",""32"",""124177""
","""event"",""trial"",""time""
""fullscreenenter"",""1"",""2586""
","
","","","","","","1075.4000000059605","images/table2.png","","","memory_trial","4","definitely_new","","","","","","",""
"html-keyboard-response","205","448351","0.0-15.0-0.81","1632","2","""event"",""trial"",""time""
""fullscreenenter"",""1"",""2586""
""blur"",""32"",""124176""
""focus"",""32"",""124177""
","""event"",""trial"",""time""
""blur"",""32"",""124176""
","""event"",""trial"",""time""
""focus"",""32"",""124177""
","""event"",""trial"",""time""
""fullscreenenter"",""1"",""2586""
","
","","","","","","null","<div style=""font-size:60px;"">+</div>","null","","fixation","","","","","","","","",""
