"trial_type","trial_index","time_elapsed","internal_node_id","subject_id","task_version","interactions","blur_events","focus_events","fullscreenenter_events","fullscreenexit_events","success","timeout","failed_images","failed_audio","failed_video","rt","stimulus","response","button_pressed","task_part","key_press","answer","correct","left_choice","middle_choice","right_choice","choice_positions","option_selected","block"
"pavlovia","0","5","0.0-0.0","1507","2","""event"",""trial"",""time""
""fullscreenenter"",""1"",""3358""
","
","
","""event"",""trial"",""time""
""fullscreenenter"",""1"",""3358""
","
","","","","","","","","","","","","","","","","","","",""
"fullscreen","1","4014","0.0-1.0","1507","2","""event"",""trial"",""time""
""fullscreenenter"",""1"",""3358""
","
","
","""event"",""trial"",""time""
""fullscreenenter"",""1"",""3358""
","
","true","","","","","","","","","","","","","","","","","",""
"preload","2","4720","0.0-2.0","1507","2","""event"",""trial"",""time""
""fullscreenenter"",""1"",""3358""
","
","
","""event"",""trial"",""time""
""fullscreenenter"",""1"",""3358""
","
","true","false","[]","[]","[]","","","","","","","","","","","","","",""
"audio-keyboard-response","3","7739","0.0-3.0","1507","2","""event"",""trial"",""time""
""fullscreenenter"",""1"",""3358""
","
","
","""event"",""trial"",""time""
""fullscreenenter"",""1"",""3358""
","
","","","","","","3013.333333333333","audio/beep_loop.wav"," ","","","","","","","","","","",""
"audio-button-response","4","10552","0.0-4.0","1507","2","""event"",""trial"",""time""
""fullscreenenter"",""1"",""3358""
","
","
","""event"",""trial"",""time""
""fullscreenenter"",""1"",""3358""
","
","","","","","","2811","audio/turtle.wav","3","","","","","","","","","","",""
"audio-button-response","5","13253","0.0-5.0","1507","2","""event"",""trial"",""time""
""fullscreenenter"",""1"",""3358""
","
","
","""event"",""trial"",""time""
""fullscreenenter"",""1"",""3358""
","
","","","","","","1696","audio/shark.wav","2","","","","","","","","","","",""
"preload","6","16362","0.0-6.0","1507","2","""event"",""trial"",""time""
""fullscreenenter"",""1"",""3358""
","
","
","""event"",""trial"",""time""
""fullscreenenter"",""1"",""3358""
","
","true","false","[]","[]","[]","","","","","","","","","","","","","",""
"learning-instructions","7","23449","0.0-7.0-0.0","1507","2","""event"",""trial"",""time""
""fullscreenenter"",""1"",""3358""
","
","
","""event"",""trial"",""time""
""fullscreenenter"",""1"",""3358""
","
","","","","","","2277.2999999523163","<p> Welcome back! </p><p> Last week, you had to make choices about lots of different items.  </p>","","0","instructions","","","","","","","","",""
"learning-instructions","8","29645","0.0-7.0-0.1","1507","2","""event"",""trial"",""time""
""fullscreenenter"",""1"",""3358""
","
","
","""event"",""trial"",""time""
""fullscreenenter"",""1"",""3358""
","
","","","","","","1880.7999999523163","<p> Today, we are going to ask you to try to remember all the items. </p>","","0","instructions","","","","","","","","",""
"learning-instructions","9","40193","0.0-7.0-0.2","1507","2","""event"",""trial"",""time""
""fullscreenenter"",""1"",""3358""
","
","
","""event"",""trial"",""time""
""fullscreenenter"",""1"",""3358""
","
","","","","","","413.60000002384186","<p> On every trial, you will see an image. </p><p> The image may be an OLD image you saw during the games last week or it may be a NEW image that was not presented. </p>","","0","instructions","","","","","","","","",""
"learning-instructions","10","50279","0.0-7.0-0.3","1507","2","""event"",""trial"",""time""
""fullscreenenter"",""1"",""3358""
","
","
","""event"",""trial"",""time""
""fullscreenenter"",""1"",""3358""
","
","","","","","","1586.2000000476837","<p> You need to select whether the image is:  </p><p>  'Definitely old', 'Maybe old', 'Maybe new', or 'Definitely new.'  </p><div class=""mem-choice-instructions-grid""><div class=""choice-option"" id=""choice-option-1"" ><img src=""images/definitely_old_1.png"" id=""choice-option-img-1"" class=""choice-option-img"" stage=""1""></div><div class=""choice-option"" id=""choice-option-2"" ><img src=""images/maybe_old_1.png"" id=""choice-option-img-2"" class=""choice-option-img"" stage=""1""></div><div class=""choice-option"" id=""choice-option-3"" ><img src=""images/maybe_new_1.png"" id=""choice-option-img-3"" class=""choice-option-img"" stage=""1""></div><div class=""choice-option"" id=""choice-option-4"" > <img src=""images/definitely_new_1.png"" id=""choice-option-img-4"" class=""choice-option-img"" stage=""1""></div></div>","","0","instructions","","","","","","","","",""
"learning-instructions","11","60345","0.0-7.0-0.4","1507","2","""event"",""trial"",""time""
""fullscreenenter"",""1"",""3358""
","
","
","""event"",""trial"",""time""
""fullscreenenter"",""1"",""3358""
","
","","","","","","3374","<p> You should use the 1, 2, 3, and 4 keys to make your responses.  </p><div class=""mem-choice-instructions-grid""><div class=""choice-option"" id=""choice-option-1"" ><img src=""images/definitely_old.png"" id=""choice-option-img-1"" class=""choice-option-img"" stage=""1""></div><div class=""choice-option"" id=""choice-option-2"" ><img src=""images/maybe_old.png"" id=""choice-option-img-2"" class=""choice-option-img"" stage=""1""></div><div class=""choice-option"" id=""choice-option-3"" ><img src=""images/maybe_new.png"" id=""choice-option-img-3"" class=""choice-option-img"" stage=""1""></div><div class=""choice-option"" id=""choice-option-4"" > <img src=""images/definitely_new.png"" id=""choice-option-img-4"" class=""choice-option-img"" stage=""1""></div></div>","","0","instructions","","","","","","","","",""
"learning-instructions","12","69118","0.0-7.0-0.5","1507","2","""event"",""trial"",""time""
""fullscreenenter"",""1"",""3358""
","
","
","""event"",""trial"",""time""
""fullscreenenter"",""1"",""3358""
","
","","","","","","2016.5","<p> You will have 10 seconds to make each response.  </p><p>  Make sure to respond before time runs out! </p>","","0","instructions","","","","","","","","",""
"learning-instructions","13","78294","0.0-7.0-0.6","1507","2","""event"",""trial"",""time""
""fullscreenenter"",""1"",""3358""
","
","
","""event"",""trial"",""time""
""fullscreenenter"",""1"",""3358""
","
","","","","","","1597.4000000953674","<p> Today, you will see each image ONCE only.  </p><p>  That means none of the images will repeat. </p>","","0","instructions","","","","","","","","",""
"learning-instructions","14","91706","0.0-7.0-0.7","1507","2","""event"",""trial"",""time""
""fullscreenenter"",""1"",""3358""
","
","
","""event"",""trial"",""time""
""fullscreenenter"",""1"",""3358""
","
","","","","","","743.8999999761581","<p> Before you play the real game, it is time to practice. </p><p>  Just like in the real game, some of the images in the practice will be ones you have seen before. </p><p>  Others will be entirely new. </p>","","0","instructions","","","","","","","","",""
"html-button-response","15","94008","0.0-8.0","1507","2","""event"",""trial"",""time""
""fullscreenenter"",""1"",""3358""
","
","
","""event"",""trial"",""time""
""fullscreenenter"",""1"",""3358""
","
","","","","","","2196.899999976158","<p> Ready to practice? </p><p> Remember, use the 1, 2, 3, and 4 keys to make your responses. </p>","0","","instructions","","","","","","","","",""
"html-keyboard-response","16","94616","0.0-9.0-0.0","1507","2","""event"",""trial"",""time""
""fullscreenenter"",""1"",""3358""
","
","
","""event"",""trial"",""time""
""fullscreenenter"",""1"",""3358""
","
","","","","","","null","<div style=""font-size:60px;"">+</div>","null","","fixation","","","","","","","","",""
"memory-trial","17","98749","0.0-9.0-1.0","1507","2","""event"",""trial"",""time""
""fullscreenenter"",""1"",""3358""
","
","
","""event"",""trial"",""time""
""fullscreenenter"",""1"",""3358""
","
","","","","","","3125.600000023842","images/ball4.png","","","practice","1","definitely_old","","","","","","",""
"html-keyboard-response","18","99253","0.0-9.0-0.1","1507","2","""event"",""trial"",""time""
""fullscreenenter"",""1"",""3358""
","
","
","""event"",""trial"",""time""
""fullscreenenter"",""1"",""3358""
","
","","","","","","null","<div style=""font-size:60px;"">+</div>","null","","fixation","","","","","","","","",""
"memory-trial","19","102692","0.0-9.0-1.1","1507","2","""event"",""trial"",""time""
""fullscreenenter"",""1"",""3358""
","
","
","""event"",""trial"",""time""
""fullscreenenter"",""1"",""3358""
","
","","","","","","2433.4000000953674","images/ball1.png","","","practice","4","definitely_new","","","","","","",""
"html-keyboard-response","20","103198","0.0-9.0-0.2","1507","2","""event"",""trial"",""time""
""fullscreenenter"",""1"",""3358""
","
","
","""event"",""trial"",""time""
""fullscreenenter"",""1"",""3358""
","
","","","","","","null","<div style=""font-size:60px;"">+</div>","null","","fixation","","","","","","","","",""
"memory-trial","21","106550","0.0-9.0-1.2","1507","2","""event"",""trial"",""time""
""fullscreenenter"",""1"",""3358""
","
","
","""event"",""trial"",""time""
""fullscreenenter"",""1"",""3358""
","
","","","","","","2348.600000023842","images/racket2.png","","","practice","2","maybe_old","","","","","","",""
"html-keyboard-response","22","107054","0.0-9.0-0.3","1507","2","""event"",""trial"",""time""
""fullscreenenter"",""1"",""3358""
","
","
","""event"",""trial"",""time""
""fullscreenenter"",""1"",""3358""
","
","","","","","","null","<div style=""font-size:60px;"">+</div>","null","","fixation","","","","","","","","",""
"memory-trial","23","109556","0.0-9.0-1.3","1507","2","""event"",""trial"",""time""
""fullscreenenter"",""1"",""3358""
","
","
","""event"",""trial"",""time""
""fullscreenenter"",""1"",""3358""
","
","","","","","","1498.8999999761581","images/racket1.png","","","practice","1","definitely_old","","","","","","",""
"html-keyboard-response","24","110059","0.0-9.0-0.4","1507","2","""event"",""trial"",""time""
""fullscreenenter"",""1"",""3358""
","
","
","""event"",""trial"",""time""
""fullscreenenter"",""1"",""3358""
","
","","","","","","null","<div style=""font-size:60px;"">+</div>","null","","fixation","","","","","","","","",""
"memory-trial","25","112624","0.0-9.0-1.4","1507","2","""event"",""trial"",""time""
""fullscreenenter"",""1"",""3358""
","
","
","""event"",""trial"",""time""
""fullscreenenter"",""1"",""3358""
","
","","","","","","1559.8999999761581","images/ball2.png","","","practice","1","definitely_old","","","","","","",""
"html-keyboard-response","26","113127","0.0-9.0-0.5","1507","2","""event"",""trial"",""time""
""fullscreenenter"",""1"",""3358""
","
","
","""event"",""trial"",""time""
""fullscreenenter"",""1"",""3358""
","
","","","","","","null","<div style=""font-size:60px;"">+</div>","null","","fixation","","","","","","","","",""
"memory-trial","27","116049","0.0-9.0-1.5","1507","2","""event"",""trial"",""time""
""fullscreenenter"",""1"",""3358""
","
","
","""event"",""trial"",""time""
""fullscreenenter"",""1"",""3358""
","
","","","","","","1918.9000000953674","images/racket4.png","","","practice","1","definitely_old","","","","","","",""
"html-keyboard-response","28","116552","0.0-9.0-0.6","1507","2","""event"",""trial"",""time""
""fullscreenenter"",""1"",""3358""
","
","
","""event"",""trial"",""time""
""fullscreenenter"",""1"",""3358""
","
","","","","","","null","<div style=""font-size:60px;"">+</div>","null","","fixation","","","","","","","","",""
"memory-trial","29","119241","0.0-9.0-1.6","1507","2","""event"",""trial"",""time""
""fullscreenenter"",""1"",""3358""
","
","
","""event"",""trial"",""time""
""fullscreenenter"",""1"",""3358""
","
","","","","","","1686.6999999284744","images/ball3.png","","","practice","4","definitely_new","","","","","","",""
"html-keyboard-response","30","119745","0.0-9.0-0.7","1507","2","""event"",""trial"",""time""
""fullscreenenter"",""1"",""3358""
","
","
","""event"",""trial"",""time""
""fullscreenenter"",""1"",""3358""
","
","","","","","","null","<div style=""font-size:60px;"">+</div>","null","","fixation","","","","","","","","",""
"memory-trial","31","122008","0.0-9.0-1.7","1507","2","""event"",""trial"",""time""
""fullscreenenter"",""1"",""3358""
","
","
","""event"",""trial"",""time""
""fullscreenenter"",""1"",""3358""
","
","","","","","","1256","images/racket3.png","","","practice","1","definitely_old","","","","","","",""
"learning-instructions","32","130769","0.0-10.0-0.0","1507","2","""event"",""trial"",""time""
""fullscreenenter"",""1"",""3358""
","
","
","""event"",""trial"",""time""
""fullscreenenter"",""1"",""3358""
","
","","","","","","763.2999999523163","<p> Great! You have completed the practice. </p><p> Before you start, we're going to ask you a few questions about how the game works.  </p>","","0","instructions","","","","","","","","",""
"preload","33","133068","0.0-11.0","1507","2","""event"",""trial"",""time""
""fullscreenenter"",""1"",""3358""
","
","
","""event"",""trial"",""time""
""fullscreenenter"",""1"",""3358""
","
","true","false","[]","[]","[]","","","","","","","","","","","","","",""
"comp-q","34","139977","0.0-12.0-0.0","1507","2","""event"",""trial"",""time""
""fullscreenenter"",""1"",""3358""
","
","
","""event"",""trial"",""time""
""fullscreenenter"",""1"",""3358""
","
","","","","","","1081.2000000476837","<p> <b> True or False? </b> </p><p> In this game, you will only see each image once. </p>","","0","comp_question","","","true","","","","","",""
"comp-q","35","147394","0.0-12.0-1.0","1507","2","""event"",""trial"",""time""
""fullscreenenter"",""1"",""3358""
","
","
","""event"",""trial"",""time""
""fullscreenenter"",""1"",""3358""
","
","","","","","","1079.6000000238419","<p> <b> That's right! </b> You will see many different images <i> one time each </i> in this game. </p>","","0","comp_answer","","","","","","","","",""
"comp-q","36","153861","0.0-12.0-0.1","1507","2","""event"",""trial"",""time""
""fullscreenenter"",""1"",""3358""
","
","
","""event"",""trial"",""time""
""fullscreenenter"",""1"",""3358""
","
","","","","","","665.7999999523163","<p> <b> True or False? </b> </p><p> You should use the mouse and click to make your response. </p>","","1","comp_question","","","true","","","","","",""
"comp-q","37","162181","0.0-12.0-1.1","1507","2","""event"",""trial"",""time""
""fullscreenenter"",""1"",""3358""
","
","
","""event"",""trial"",""time""
""fullscreenenter"",""1"",""3358""
","
","","","","","","976.9000000953674","<p><b> That's right! </b> You should use the '1', '2', '3', and '4' keys to make your response. </p>","","0","comp_answer","","","","","","","","",""
"comp-q","38","168559","0.0-12.0-0.2","1507","2","""event"",""trial"",""time""
""fullscreenenter"",""1"",""3358""
","
","
","""event"",""trial"",""time""
""fullscreenenter"",""1"",""3358""
","
","","","","","","384.5","<p> <b> True or False? </b> </p><p> You will have as much time as you want to make each choice. </p>","","1","comp_question","","","true","","","","","",""
"comp-q","39","176249","0.0-12.0-1.2","1507","2","""event"",""trial"",""time""
""fullscreenenter"",""1"",""3358""
","
","
","""event"",""trial"",""time""
""fullscreenenter"",""1"",""3358""
","
","","","","","","2300.2000000476837","<p> <b> That's right! </b> You will only have 10 seconds to make each choice. </p>","","0","comp_answer","","","","","","","","",""
"learning-instructions","40","185560","0.0-13.0","1507","2","""event"",""trial"",""time""
""fullscreenenter"",""1"",""3358""
","
","
","""event"",""trial"",""time""
""fullscreenenter"",""1"",""3358""
","
","","","","","","643.4000000953674","<p> Great! You are now ready to begin the game. </p><p> Remember, use the 1, 2, 3, and 4 keys to make your responses. </p>","","0","instructions","","","","","","","","",""
"preload","41","188253","0.0-14.0","1507","2","""event"",""trial"",""time""
""fullscreenenter"",""1"",""3358""
","
","
","""event"",""trial"",""time""
""fullscreenenter"",""1"",""3358""
","
","true","false","[]","[]","[]","","","","","","","","","","","","","",""
"html-keyboard-response","42","188758","0.0-15.0-0.0","1507","2","""event"",""trial"",""time""
""fullscreenenter"",""1"",""3358""
","
","
","""event"",""trial"",""time""
""fullscreenenter"",""1"",""3358""
","
","","","","","","null","<div style=""font-size:60px;"">+</div>","null","","fixation","","","","","","","","",""
"memory-trial","43","192077","0.0-15.0-1.0","1507","2","""event"",""trial"",""time""
""fullscreenenter"",""1"",""3358""
","
","
","""event"",""trial"",""time""
""fullscreenenter"",""1"",""3358""
","
","","","","","","2313.600000023842","images/goat3.png","","","memory_trial","4","definitely_new","","","","","","",""
"html-keyboard-response","44","192580","0.0-15.0-0.1","1507","2","""event"",""trial"",""time""
""fullscreenenter"",""1"",""3358""
","
","
","""event"",""trial"",""time""
""fullscreenenter"",""1"",""3358""
","
","","","","","","null","<div style=""font-size:60px;"">+</div>","null","","fixation","","","","","","","","",""
"memory-trial","45","195013","0.0-15.0-1.1","1507","2","""event"",""trial"",""time""
""fullscreenenter"",""1"",""3358""
","
","
","""event"",""trial"",""time""
""fullscreenenter"",""1"",""3358""
","
","","","","","","1429.2000000476837","images/feline2.png","","","memory_trial","1","definitely_old","","","","","","",""
"html-keyboard-response","46","195519","0.0-15.0-0.2","1507","2","""event"",""trial"",""time""
""fullscreenenter"",""1"",""3358""
","
","
","""event"",""trial"",""time""
""fullscreenenter"",""1"",""3358""
","
","","","","","","null","<div style=""font-size:60px;"">+</div>","null","","fixation","","","","","","","","",""
"memory-trial","47","199673","0.0-15.0-1.2","1507","2","""event"",""trial"",""time""
""fullscreenenter"",""1"",""3358""
","
","
","""event"",""trial"",""time""
""fullscreenenter"",""1"",""3358""
","
","","","","","","3147.100000023842","images/table5.png","","","memory_trial","3","maybe_new","","","","","","",""
"html-keyboard-response","48","200178","0.0-15.0-0.3","1507","2","""event"",""trial"",""time""
""fullscreenenter"",""1"",""3358""
","
","
","""event"",""trial"",""time""
""fullscreenenter"",""1"",""3358""
","
","","","","","","null","<div style=""font-size:60px;"">+</div>","null","","fixation","","","","","","","","",""
"memory-trial","49","203209","0.0-15.0-1.3","1507","2","""event"",""trial"",""time""
""fullscreenenter"",""1"",""3358""
","
","
","""event"",""trial"",""time""
""fullscreenenter"",""1"",""3358""
","
","","","","","","2024.2999999523163","images/orange1.png","","","memory_trial","4","definitely_new","","","","","","",""
"html-keyboard-response","50","203712","0.0-15.0-0.4","1507","2","""event"",""trial"",""time""
""fullscreenenter"",""1"",""3358""
","
","
","""event"",""trial"",""time""
""fullscreenenter"",""1"",""3358""
","
","","","","","","null","<div style=""font-size:60px;"">+</div>","null","","fixation","","","","","","","","",""
"memory-trial","51","206049","0.0-15.0-1.4","1507","2","""event"",""trial"",""time""
""fullscreenenter"",""1"",""3358""
","
","
","""event"",""trial"",""time""
""fullscreenenter"",""1"",""3358""
","
","","","","","","1331.6000000238419","images/horse4.png","","","memory_trial","1","definitely_old","","","","","","",""
"html-keyboard-response","52","206551","0.0-15.0-0.5","1507","2","""event"",""trial"",""time""
""fullscreenenter"",""1"",""3358""
","
","
","""event"",""trial"",""time""
""fullscreenenter"",""1"",""3358""
","
","","","","","","null","<div style=""font-size:60px;"">+</div>","null","","fixation","","","","","","","","",""
"memory-trial","53","208541","0.0-15.0-1.5","1507","2","""event"",""trial"",""time""
""fullscreenenter"",""1"",""3358""
","
","
","""event"",""trial"",""time""
""fullscreenenter"",""1"",""3358""
","
","","","","","","986.3999999761581","images/rabbit5.png","","","memory_trial","1","definitely_old","","","","","","",""
"html-keyboard-response","54","209045","0.0-15.0-0.6","1507","2","""event"",""trial"",""time""
""fullscreenenter"",""1"",""3358""
","
","
","""event"",""trial"",""time""
""fullscreenenter"",""1"",""3358""
","
","","","","","","null","<div style=""font-size:60px;"">+</div>","null","","fixation","","","","","","","","",""
"memory-trial","55","211798","0.0-15.0-1.6","1507","2","""event"",""trial"",""time""
""fullscreenenter"",""1"",""3358""
","
","
","""event"",""trial"",""time""
""fullscreenenter"",""1"",""3358""
","
","","","","","","1748.5","images/truck5.png","","","memory_trial","4","definitely_new","","","","","","",""
"html-keyboard-response","56","212304","0.0-15.0-0.7","1507","2","""event"",""trial"",""time""
""fullscreenenter"",""1"",""3358""
","
","
","""event"",""trial"",""time""
""fullscreenenter"",""1"",""3358""
","
","","","","","","null","<div style=""font-size:60px;"">+</div>","null","","fixation","","","","","","","","",""
"memory-trial","57","214518","0.0-15.0-1.7","1507","2","""event"",""trial"",""time""
""fullscreenenter"",""1"",""3358""
","
","
","""event"",""trial"",""time""
""fullscreenenter"",""1"",""3358""
","
","","","","","","1211.6000000238419","images/table3.png","","","memory_trial","1","definitely_old","","","","","","",""
"html-keyboard-response","58","215022","0.0-15.0-0.8","1507","2","""event"",""trial"",""time""
""fullscreenenter"",""1"",""3358""
","
","
","""event"",""trial"",""time""
""fullscreenenter"",""1"",""3358""
","
","","","","","","null","<div style=""font-size:60px;"">+</div>","null","","fixation","","","","","","","","",""
"memory-trial","59","217267","0.0-15.0-1.8","1507","2","""event"",""trial"",""time""
""fullscreenenter"",""1"",""3358""
","
","
","""event"",""trial"",""time""
""fullscreenenter"",""1"",""3358""
","
","","","","","","1238.8999999761581","images/rabbit2.png","","","memory_trial","1","definitely_old","","","","","","",""
"html-keyboard-response","60","217770","0.0-15.0-0.9","1507","2","""event"",""trial"",""time""
""fullscreenenter"",""1"",""3358""
","
","
","""event"",""trial"",""time""
""fullscreenenter"",""1"",""3358""
","
","","","","","","null","<div style=""font-size:60px;"">+</div>","null","","fixation","","","","","","","","",""
"memory-trial","61","220292","0.0-15.0-1.9","1507","2","""event"",""trial"",""time""
""fullscreenenter"",""1"",""3358""
","
","
","""event"",""trial"",""time""
""fullscreenenter"",""1"",""3358""
","
","","","","","","1516.7999999523163","images/plane4.png","","","memory_trial","1","definitely_old","","","","","","",""
"html-keyboard-response","62","220798","0.0-15.0-0.10","1507","2","""event"",""trial"",""time""
""fullscreenenter"",""1"",""3358""
","
","
","""event"",""trial"",""time""
""fullscreenenter"",""1"",""3358""
","
","","","","","","null","<div style=""font-size:60px;"">+</div>","null","","fixation","","","","","","","","",""
"memory-trial","63","222686","0.0-15.0-1.10","1507","2","""event"",""trial"",""time""
""fullscreenenter"",""1"",""3358""
","
","
","""event"",""trial"",""time""
""fullscreenenter"",""1"",""3358""
","
","","","","","","884.1000000238419","images/boat3.png","","","memory_trial","1","definitely_old","","","","","","",""
"html-keyboard-response","64","223187","0.0-15.0-0.11","1507","2","""event"",""trial"",""time""
""fullscreenenter"",""1"",""3358""
","
","
","""event"",""trial"",""time""
""fullscreenenter"",""1"",""3358""
","
","","","","","","null","<div style=""font-size:60px;"">+</div>","null","","fixation","","","","","","","","",""
"memory-trial","65","227101","0.0-15.0-1.11","1507","2","""event"",""trial"",""time""
""fullscreenenter"",""1"",""3358""
","
","
","""event"",""trial"",""time""
""fullscreenenter"",""1"",""3358""
","
","","","","","","2907.5","images/flower3.png","","","memory_trial","4","definitely_new","","","","","","",""
"html-keyboard-response","66","227604","0.0-15.0-0.12","1507","2","""event"",""trial"",""time""
""fullscreenenter"",""1"",""3358""
","
","
","""event"",""trial"",""time""
""fullscreenenter"",""1"",""3358""
","
","","","","","","null","<div style=""font-size:60px;"">+</div>","null","","fixation","","","","","","","","",""
"memory-trial","67","230744","0.0-15.0-1.12","1507","2","""event"",""trial"",""time""
""fullscreenenter"",""1"",""3358""
","
","
","""event"",""trial"",""time""
""fullscreenenter"",""1"",""3358""
","
","","","","","","2134.2999999523163","images/table1.png","","","memory_trial","1","definitely_old","","","","","","",""
"html-keyboard-response","68","231246","0.0-15.0-0.13","1507","2","""event"",""trial"",""time""
""fullscreenenter"",""1"",""3358""
","
","
","""event"",""trial"",""time""
""fullscreenenter"",""1"",""3358""
","
","","","","","","null","<div style=""font-size:60px;"">+</div>","null","","fixation","","","","","","","","",""
"memory-trial","69","233854","0.0-15.0-1.13","1507","2","""event"",""trial"",""time""
""fullscreenenter"",""1"",""3358""
","
","
","""event"",""trial"",""time""
""fullscreenenter"",""1"",""3358""
","
","","","","","","1602","images/sofa2.png","","","memory_trial","4","definitely_new","","","","","","",""
"html-keyboard-response","70","234359","0.0-15.0-0.14","1507","2","""event"",""trial"",""time""
""fullscreenenter"",""1"",""3358""
","
","
","""event"",""trial"",""time""
""fullscreenenter"",""1"",""3358""
","
","","","","","","null","<div style=""font-size:60px;"">+</div>","null","","fixation","","","","","","","","",""
"memory-trial","71","237274","0.0-15.0-1.14","1507","2","""event"",""trial"",""time""
""fullscreenenter"",""1"",""3358""
","
","
","""event"",""trial"",""time""
""fullscreenenter"",""1"",""3358""
","
","","","","","","1910.3999999761581","images/straw4.png","","","memory_trial","1","definitely_old","","","","","","",""
"html-keyboard-response","72","237779","0.0-15.0-0.15","1507","2","""event"",""trial"",""time""
""fullscreenenter"",""1"",""3358""
","
","
","""event"",""trial"",""time""
""fullscreenenter"",""1"",""3358""
","
","","","","","","null","<div style=""font-size:60px;"">+</div>","null","","fixation","","","","","","","","",""
"memory-trial","73","241512","0.0-15.0-1.15","1507","2","""event"",""trial"",""time""
""fullscreenenter"",""1"",""3358""
","
","
","""event"",""trial"",""time""
""fullscreenenter"",""1"",""3358""
","
","","","","","","2725.0999999046326","images/sofa1.png","","","memory_trial","1","definitely_old","","","","","","",""
"html-keyboard-response","74","242014","0.0-15.0-0.16","1507","2","""event"",""trial"",""time""
""fullscreenenter"",""1"",""3358""
","
","
","""event"",""trial"",""time""
""fullscreenenter"",""1"",""3358""
","
","","","","","","null","<div style=""font-size:60px;"">+</div>","null","","fixation","","","","","","","","",""
"memory-trial","75","243960","0.0-15.0-1.16","1507","2","""event"",""trial"",""time""
""fullscreenenter"",""1"",""3358""
","
","
","""event"",""trial"",""time""
""fullscreenenter"",""1"",""3358""
","
","","","","","","940.8000000715256","images/feline5.png","","","memory_trial","1","definitely_old","","","","","","",""
"html-keyboard-response","76","244463","0.0-15.0-0.17","1507","2","""event"",""trial"",""time""
""fullscreenenter"",""1"",""3358""
","
","
","""event"",""trial"",""time""
""fullscreenenter"",""1"",""3358""
","
","","","","","","null","<div style=""font-size:60px;"">+</div>","null","","fixation","","","","","","","","",""
"memory-trial","77","246555","0.0-15.0-1.17","1507","2","""event"",""trial"",""time""
""fullscreenenter"",""1"",""3358""
","
","
","""event"",""trial"",""time""
""fullscreenenter"",""1"",""3358""
","
","","","","","","1089.1999999284744","images/bed1.png","","","memory_trial","1","definitely_old","","","","","","",""
"html-keyboard-response","78","247060","0.0-15.0-0.18","1507","2","""event"",""trial"",""time""
""fullscreenenter"",""1"",""3358""
","
","
","""event"",""trial"",""time""
""fullscreenenter"",""1"",""3358""
","
","","","","","","null","<div style=""font-size:60px;"">+</div>","null","","fixation","","","","","","","","",""
"memory-trial","79","249088","0.0-15.0-1.18","1507","2","""event"",""trial"",""time""
""fullscreenenter"",""1"",""3358""
","
","
","""event"",""trial"",""time""
""fullscreenenter"",""1"",""3358""
","
","","","","","","1024.5","images/banana5.png","","","memory_trial","4","definitely_new","","","","","","",""
"html-keyboard-response","80","249593","0.0-15.0-0.19","1507","2","""event"",""trial"",""time""
""fullscreenenter"",""1"",""3358""
","
","
","""event"",""trial"",""time""
""fullscreenenter"",""1"",""3358""
","
","","","","","","null","<div style=""font-size:60px;"">+</div>","null","","fixation","","","","","","","","",""
"memory-trial","81","251623","0.0-15.0-1.19","1507","2","""event"",""trial"",""time""
""fullscreenenter"",""1"",""3358""
","
","
","""event"",""trial"",""time""
""fullscreenenter"",""1"",""3358""
","
","","","","","","1027.9000000953674","images/orange5.png","","","memory_trial","4","definitely_new","","","","","","",""
"html-keyboard-response","82","252125","0.0-15.0-0.20","1507","2","""event"",""trial"",""time""
""fullscreenenter"",""1"",""3358""
","
","
","""event"",""trial"",""time""
""fullscreenenter"",""1"",""3358""
","
","","","","","","null","<div style=""font-size:60px;"">+</div>","null","","fixation","","","","","","","","",""
"memory-trial","83","254361","0.0-15.0-1.20","1507","2","""event"",""trial"",""time""
""fullscreenenter"",""1"",""3358""
","
","
","""event"",""trial"",""time""
""fullscreenenter"",""1"",""3358""
","
","","","","","","1233","images/rodent4.png","","","memory_trial","4","definitely_new","","","","","","",""
"html-keyboard-response","84","254866","0.0-15.0-0.21","1507","2","""event"",""trial"",""time""
""fullscreenenter"",""1"",""3358""
","
","
","""event"",""trial"",""time""
""fullscreenenter"",""1"",""3358""
","
","","","","","","null","<div style=""font-size:60px;"">+</div>","null","","fixation","","","","","","","","",""
"memory-trial","85","257137","0.0-15.0-1.21","1507","2","""event"",""trial"",""time""
""fullscreenenter"",""1"",""3358""
","
","
","""event"",""trial"",""time""
""fullscreenenter"",""1"",""3358""
","
","","","","","","1263.5","images/cow3.png","","","memory_trial","1","definitely_old","","","","","","",""
"html-keyboard-response","86","257640","0.0-15.0-0.22","1507","2","""event"",""trial"",""time""
""fullscreenenter"",""1"",""3358""
","
","
","""event"",""trial"",""time""
""fullscreenenter"",""1"",""3358""
","
","","","","","","null","<div style=""font-size:60px;"">+</div>","null","","fixation","","","","","","","","",""
"memory-trial","87","260001","0.0-15.0-1.22","1507","2","""event"",""trial"",""time""
""fullscreenenter"",""1"",""3358""
","
","
","""event"",""trial"",""time""
""fullscreenenter"",""1"",""3358""
","
","","","","","","1356.1000000238419","images/sheep3.png","","","memory_trial","4","definitely_new","","","","","","",""
"html-keyboard-response","88","260505","0.0-15.0-0.23","1507","2","""event"",""trial"",""time""
""fullscreenenter"",""1"",""3358""
","
","
","""event"",""trial"",""time""
""fullscreenenter"",""1"",""3358""
","
","","","","","","null","<div style=""font-size:60px;"">+</div>","null","","fixation","","","","","","","","",""
"memory-trial","89","262450","0.0-15.0-1.23","1507","2","""event"",""trial"",""time""
""fullscreenenter"",""1"",""3358""
","
","
","""event"",""trial"",""time""
""fullscreenenter"",""1"",""3358""
","
","","","","","","940.1999999284744","images/orange2.png","","","memory_trial","4","definitely_new","","","","","","",""
"html-keyboard-response","90","262952","0.0-15.0-0.24","1507","2","""event"",""trial"",""time""
""fullscreenenter"",""1"",""3358""
","
","
","""event"",""trial"",""time""
""fullscreenenter"",""1"",""3358""
","
","","","","","","null","<div style=""font-size:60px;"">+</div>","null","","fixation","","","","","","","","",""
"memory-trial","91","264862","0.0-15.0-1.24","1507","2","""event"",""trial"",""time""
""fullscreenenter"",""1"",""3358""
","
","
","""event"",""trial"",""time""
""fullscreenenter"",""1"",""3358""
","
","","","","","","907.3000000715256","images/horse1.png","","","memory_trial","1","definitely_old","","","","","","",""
"html-keyboard-response","92","265368","0.0-15.0-0.25","1507","2","""event"",""trial"",""time""
""fullscreenenter"",""1"",""3358""
","
","
","""event"",""trial"",""time""
""fullscreenenter"",""1"",""3358""
","
","","","","","","null","<div style=""font-size:60px;"">+</div>","null","","fixation","","","","","","","","",""
"memory-trial","93","268265","0.0-15.0-1.25","1507","2","""event"",""trial"",""time""
""fullscreenenter"",""1"",""3358""
","
","
","""event"",""trial"",""time""
""fullscreenenter"",""1"",""3358""
","
","","","","","","1893.7000000476837","images/straw3.png","","","memory_trial","4","definitely_new","","","","","","",""
"html-keyboard-response","94","268771","0.0-15.0-0.26","1507","2","""event"",""trial"",""time""
""fullscreenenter"",""1"",""3358""
","
","
","""event"",""trial"",""time""
""fullscreenenter"",""1"",""3358""
","
","","","","","","null","<div style=""font-size:60px;"">+</div>","null","","fixation","","","","","","","","",""
"memory-trial","95","271231","0.0-15.0-1.26","1507","2","""event"",""trial"",""time""
""fullscreenenter"",""1"",""3358""
","
","
","""event"",""trial"",""time""
""fullscreenenter"",""1"",""3358""
","
","","","","","","1455.5","images/boat5.png","","","memory_trial","4","definitely_new","","","","","","",""
"html-keyboard-response","96","271736","0.0-15.0-0.27","1507","2","""event"",""trial"",""time""
""fullscreenenter"",""1"",""3358""
","
","
","""event"",""trial"",""time""
""fullscreenenter"",""1"",""3358""
","
","","","","","","null","<div style=""font-size:60px;"">+</div>","null","","fixation","","","","","","","","",""
"memory-trial","97","274138","0.0-15.0-1.27","1507","2","""event"",""trial"",""time""
""fullscreenenter"",""1"",""3358""
","
","
","""event"",""trial"",""time""
""fullscreenenter"",""1"",""3358""
","
","","","","","","1398.9000000953674","images/plane3.png","","","memory_trial","4","definitely_new","","","","","","",""
"html-keyboard-response","98","274642","0.0-15.0-0.28","1507","2","""event"",""trial"",""time""
""fullscreenenter"",""1"",""3358""
","
","
","""event"",""trial"",""time""
""fullscreenenter"",""1"",""3358""
","
","","","","","","null","<div style=""font-size:60px;"">+</div>","null","","fixation","","","","","","","","",""
"memory-trial","99","277038","0.0-15.0-1.28","1507","2","""event"",""trial"",""time""
""fullscreenenter"",""1"",""3358""
","
","
","""event"",""trial"",""time""
""fullscreenenter"",""1"",""3358""
","
","","","","","","1392","images/sheep2.png","","","memory_trial","4","definitely_new","","","","","","",""
"html-keyboard-response","100","277540","0.0-15.0-0.29","1507","2","""event"",""trial"",""time""
""fullscreenenter"",""1"",""3358""
","
","
","""event"",""trial"",""time""
""fullscreenenter"",""1"",""3358""
","
","","","","","","null","<div style=""font-size:60px;"">+</div>","null","","fixation","","","","","","","","",""
"memory-trial","101","280008","0.0-15.0-1.29","1507","2","""event"",""trial"",""time""
""fullscreenenter"",""1"",""3358""
","
","
","""event"",""trial"",""time""
""fullscreenenter"",""1"",""3358""
","
","","","","","","1464.6999999284744","images/plane2.png","","","memory_trial","4","definitely_new","","","","","","",""
"html-keyboard-response","102","280514","0.0-15.0-0.30","1507","2","""event"",""trial"",""time""
""fullscreenenter"",""1"",""3358""
","
","
","""event"",""trial"",""time""
""fullscreenenter"",""1"",""3358""
","
","","","","","","null","<div style=""font-size:60px;"">+</div>","null","","fixation","","","","","","","","",""
"memory-trial","103","282521","0.0-15.0-1.30","1507","2","""event"",""trial"",""time""
""fullscreenenter"",""1"",""3358""
","
","
","""event"",""trial"",""time""
""fullscreenenter"",""1"",""3358""
","
","","","","","","1002.1999999284744","images/bush2.png","","","memory_trial","4","definitely_new","","","","","","",""
"html-keyboard-response","104","283026","0.0-15.0-0.31","1507","2","""event"",""trial"",""time""
""fullscreenenter"",""1"",""3358""
","
","
","""event"",""trial"",""time""
""fullscreenenter"",""1"",""3358""
","
","","","","","","null","<div style=""font-size:60px;"">+</div>","null","","fixation","","","","","","","","",""
"memory-trial","105","285215","0.0-15.0-1.31","1507","2","""event"",""trial"",""time""
""fullscreenenter"",""1"",""3358""
","
","
","""event"",""trial"",""time""
""fullscreenenter"",""1"",""3358""
","
","","","","","","1183.2000000476837","images/truck4.png","","","memory_trial","1","definitely_old","","","","","","",""
"html-keyboard-response","106","285720","0.0-15.0-0.32","1507","2","""event"",""trial"",""time""
""fullscreenenter"",""1"",""3358""
","
","
","""event"",""trial"",""time""
""fullscreenenter"",""1"",""3358""
","
","","","","","","null","<div style=""font-size:60px;"">+</div>","null","","fixation","","","","","","","","",""
"memory-trial","107","288746","0.0-15.0-1.32","1507","2","""event"",""trial"",""time""
""fullscreenenter"",""1"",""3358""
","
","
","""event"",""trial"",""time""
""fullscreenenter"",""1"",""3358""
","
","","","","","","2020.1999999284744","images/apple1.png","","","memory_trial","4","definitely_new","","","","","","",""
"html-keyboard-response","108","289252","0.0-15.0-0.33","1507","2","""event"",""trial"",""time""
""fullscreenenter"",""1"",""3358""
","
","
","""event"",""trial"",""time""
""fullscreenenter"",""1"",""3358""
","
","","","","","","null","<div style=""font-size:60px;"">+</div>","null","","fixation","","","","","","","","",""
"memory-trial","109","291640","0.0-15.0-1.33","1507","2","""event"",""trial"",""time""
""fullscreenenter"",""1"",""3358""
","
","
","""event"",""trial"",""time""
""fullscreenenter"",""1"",""3358""
","
","","","","","","1383.1000000238419","images/banana3.png","","","memory_trial","1","definitely_old","","","","","","",""
"html-keyboard-response","110","292146","0.0-15.0-0.34","1507","2","""event"",""trial"",""time""
""fullscreenenter"",""1"",""3358""
","
","
","""event"",""trial"",""time""
""fullscreenenter"",""1"",""3358""
","
","","","","","","null","<div style=""font-size:60px;"">+</div>","null","","fixation","","","","","","","","",""
"memory-trial","111","294375","0.0-15.0-1.34","1507","2","""event"",""trial"",""time""
""fullscreenenter"",""1"",""3358""
","
","
","""event"",""trial"",""time""
""fullscreenenter"",""1"",""3358""
","
","","","","","","1222.6000000238419","images/goat2.png","","","memory_trial","1","definitely_old","","","","","","",""
"html-keyboard-response","112","294877","0.0-15.0-0.35","1507","2","""event"",""trial"",""time""
""fullscreenenter"",""1"",""3358""
","
","
","""event"",""trial"",""time""
""fullscreenenter"",""1"",""3358""
","
","","","","","","null","<div style=""font-size:60px;"">+</div>","null","","fixation","","","","","","","","",""
"memory-trial","113","298162","0.0-15.0-1.35","1507","2","""event"",""trial"",""time""
""fullscreenenter"",""1"",""3358""
","
","
","""event"",""trial"",""time""
""fullscreenenter"",""1"",""3358""
","
","","","","","","2279.2999999523163","images/flower1.png","","","memory_trial","3","maybe_new","","","","","","",""
"html-keyboard-response","114","298669","0.0-15.0-0.36","1507","2","""event"",""trial"",""time""
""fullscreenenter"",""1"",""3358""
","
","
","""event"",""trial"",""time""
""fullscreenenter"",""1"",""3358""
","
","","","","","","null","<div style=""font-size:60px;"">+</div>","null","","fixation","","","","","","","","",""
"memory-trial","115","301554","0.0-15.0-1.36","1507","2","""event"",""trial"",""time""
""fullscreenenter"",""1"",""3358""
","
","
","""event"",""trial"",""time""
""fullscreenenter"",""1"",""3358""
","
","","","","","","1878.7000000476837","images/cactus4.png","","","memory_trial","1","definitely_old","","","","","","",""
"html-keyboard-response","116","302061","0.0-15.0-0.37","1507","2","""event"",""trial"",""time""
""fullscreenenter"",""1"",""3358""
","
","
","""event"",""trial"",""time""
""fullscreenenter"",""1"",""3358""
","
","","","","","","null","<div style=""font-size:60px;"">+</div>","null","","fixation","","","","","","","","",""
"memory-trial","117","304628","0.0-15.0-1.37","1507","2","""event"",""trial"",""time""
""fullscreenenter"",""1"",""3358""
","
","
","""event"",""trial"",""time""
""fullscreenenter"",""1"",""3358""
","
","","","","","","1560.4000000953674","images/dog3.png","","","memory_trial","4","definitely_new","","","","","","",""
"html-keyboard-response","118","305132","0.0-15.0-0.38","1507","2","""event"",""trial"",""time""
""fullscreenenter"",""1"",""3358""
","
","
","""event"",""trial"",""time""
""fullscreenenter"",""1"",""3358""
","
","","","","","","null","<div style=""font-size:60px;"">+</div>","null","","fixation","","","","","","","","",""
"memory-trial","119","307410","0.0-15.0-1.38","1507","2","""event"",""trial"",""time""
""fullscreenenter"",""1"",""3358""
","
","
","""event"",""trial"",""time""
""fullscreenenter"",""1"",""3358""
","
","","","","","","1273.2000000476837","images/cactus3.png","","","memory_trial","1","definitely_old","","","","","","",""
"html-keyboard-response","120","307911","0.0-15.0-0.39","1507","2","""event"",""trial"",""time""
""fullscreenenter"",""1"",""3358""
","
","
","""event"",""trial"",""time""
""fullscreenenter"",""1"",""3358""
","
","","","","","","null","<div style=""font-size:60px;"">+</div>","null","","fixation","","","","","","","","",""
"memory-trial","121","311645","0.0-15.0-1.39","1507","2","""event"",""trial"",""time""
""fullscreenenter"",""1"",""3358""
","
","
","""event"",""trial"",""time""
""fullscreenenter"",""1"",""3358""
","
","","","","","","2728.600000023842","images/tree3.png","","","memory_trial","2","maybe_old","","","","","","",""
"html-keyboard-response","122","312151","0.0-15.0-0.40","1507","2","""event"",""trial"",""time""
""fullscreenenter"",""1"",""3358""
","
","
","""event"",""trial"",""time""
""fullscreenenter"",""1"",""3358""
","
","","","","","","null","<div style=""font-size:60px;"">+</div>","null","","fixation","","","","","","","","",""
"memory-trial","123","314277","0.0-15.0-1.40","1507","2","""event"",""trial"",""time""
""fullscreenenter"",""1"",""3358""
","
","
","""event"",""trial"",""time""
""fullscreenenter"",""1"",""3358""
","
","","","","","","1120.3000000715256","images/tree4.png","","","memory_trial","1","definitely_old","","","","","","",""
"html-keyboard-response","124","314780","0.0-15.0-0.41","1507","2","""event"",""trial"",""time""
""fullscreenenter"",""1"",""3358""
","
","
","""event"",""trial"",""time""
""fullscreenenter"",""1"",""3358""
","
","","","","","","null","<div style=""font-size:60px;"">+</div>","null","","fixation","","","","","","","","",""
"memory-trial","125","317162","0.0-15.0-1.41","1507","2","""event"",""trial"",""time""
""fullscreenenter"",""1"",""3358""
","
","
","""event"",""trial"",""time""
""fullscreenenter"",""1"",""3358""
","
","","","","","","1377.6000000238419","images/rodent1.png","","","memory_trial","1","definitely_old","","","","","","",""
"html-keyboard-response","126","317666","0.0-15.0-0.42","1507","2","""event"",""trial"",""time""
""fullscreenenter"",""1"",""3358""
","
","
","""event"",""trial"",""time""
""fullscreenenter"",""1"",""3358""
","
","","","","","","null","<div style=""font-size:60px;"">+</div>","null","","fixation","","","","","","","","",""
"memory-trial","127","320093","0.0-15.0-1.42","1507","2","""event"",""trial"",""time""
""fullscreenenter"",""1"",""3358""
","
","
","""event"",""trial"",""time""
""fullscreenenter"",""1"",""3358""
","
","","","","","","1419.8999999761581","images/flower4.png","","","memory_trial","1","definitely_old","","","","","","",""
"html-keyboard-response","128","320599","0.0-15.0-0.43","1507","2","""event"",""trial"",""time""
""fullscreenenter"",""1"",""3358""
","
","
","""event"",""trial"",""time""
""fullscreenenter"",""1"",""3358""
","
","","","","","","null","<div style=""font-size:60px;"">+</div>","null","","fixation","","","","","","","","",""
"memory-trial","129","322722","0.0-15.0-1.43","1507","2","""event"",""trial"",""time""
""fullscreenenter"",""1"",""3358""
","
","
","""event"",""trial"",""time""
""fullscreenenter"",""1"",""3358""
","
","","","","","","1117","images/tree1.png","","","memory_trial","1","definitely_old","","","","","","",""
"html-keyboard-response","130","323225","0.0-15.0-0.44","1507","2","""event"",""trial"",""time""
""fullscreenenter"",""1"",""3358""
","
","
","""event"",""trial"",""time""
""fullscreenenter"",""1"",""3358""
","
","","","","","","null","<div style=""font-size:60px;"">+</div>","null","","fixation","","","","","","","","",""
"memory-trial","131","325170","0.0-15.0-1.44","1507","2","""event"",""trial"",""time""
""fullscreenenter"",""1"",""3358""
","
","
","""event"",""trial"",""time""
""fullscreenenter"",""1"",""3358""
","
","","","","","","939.7999999523163","images/dog2.png","","","memory_trial","4","definitely_new","","","","","","",""
"html-keyboard-response","132","325676","0.0-15.0-0.45","1507","2","""event"",""trial"",""time""
""fullscreenenter"",""1"",""3358""
","
","
","""event"",""trial"",""time""
""fullscreenenter"",""1"",""3358""
","
","","","","","","null","<div style=""font-size:60px;"">+</div>","null","","fixation","","","","","","","","",""
"memory-trial","133","330007","0.0-15.0-1.45","1507","2","""event"",""trial"",""time""
""fullscreenenter"",""1"",""3358""
","
","
","""event"",""trial"",""time""
""fullscreenenter"",""1"",""3358""
","
","","","","","","3326.2999999523163","images/truck1.png","","","memory_trial","1","definitely_old","","","","","","",""
"html-keyboard-response","134","330512","0.0-15.0-0.46","1507","2","""event"",""trial"",""time""
""fullscreenenter"",""1"",""3358""
","
","
","""event"",""trial"",""time""
""fullscreenenter"",""1"",""3358""
","
","","","","","","null","<div style=""font-size:60px;"">+</div>","null","","fixation","","","","","","","","",""
"memory-trial","135","332706","0.0-15.0-1.46","1507","2","""event"",""trial"",""time""
""fullscreenenter"",""1"",""3358""
","
","
","""event"",""trial"",""time""
""fullscreenenter"",""1"",""3358""
","
","","","","","","1190","images/horse2.png","","","memory_trial","4","definitely_new","","","","","","",""
"html-button-response","136","336134","0.0-15.0-2.46-0.46","1507","2","""event"",""trial"",""time""
""fullscreenenter"",""1"",""3358""
","
","
","""event"",""trial"",""time""
""fullscreenenter"",""1"",""3358""
","
","","","","","","3425.2999999523163","<p> Take a break! </p><p> Click the button to continue. </p>","0","","break","","","","","","","","",""
"html-keyboard-response","137","336636","0.0-15.0-0.47","1507","2","""event"",""trial"",""time""
""fullscreenenter"",""1"",""3358""
","
","
","""event"",""trial"",""time""
""fullscreenenter"",""1"",""3358""
","
","","","","","","null","<div style=""font-size:60px;"">+</div>","null","","fixation","","","","","","","","",""
"memory-trial","138","339388","0.0-15.0-1.47","1507","2","""event"",""trial"",""time""
""fullscreenenter"",""1"",""3358""
","
","
","""event"",""trial"",""time""
""fullscreenenter"",""1"",""3358""
","
","","","","","","1745.3000000715256","images/feline3.png","","","memory_trial","1","definitely_old","","","","","","",""
"html-keyboard-response","139","339890","0.0-15.0-0.48","1507","2","""event"",""trial"",""time""
""fullscreenenter"",""1"",""3358""
","
","
","""event"",""trial"",""time""
""fullscreenenter"",""1"",""3358""
","
","","","","","","null","<div style=""font-size:60px;"">+</div>","null","","fixation","","","","","","","","",""
"memory-trial","140","343047","0.0-15.0-1.48","1507","2","""event"",""trial"",""time""
""fullscreenenter"",""1"",""3358""
","
","
","""event"",""trial"",""time""
""fullscreenenter"",""1"",""3358""
","
","","","","","","2154.399999976158","images/apple5.png","","","memory_trial","1","definitely_old","","","","","","",""
"html-keyboard-response","141","343553","0.0-15.0-0.49","1507","2","""event"",""trial"",""time""
""fullscreenenter"",""1"",""3358""
","
","
","""event"",""trial"",""time""
""fullscreenenter"",""1"",""3358""
","
","","","","","","null","<div style=""font-size:60px;"">+</div>","null","","fixation","","","","","","","","",""
"memory-trial","142","345607","0.0-15.0-1.49","1507","2","""event"",""trial"",""time""
""fullscreenenter"",""1"",""3358""
","
","
","""event"",""trial"",""time""
""fullscreenenter"",""1"",""3358""
","
","","","","","","1046.8000000715256","images/truck2.png","","","memory_trial","4","definitely_new","","","","","","",""
"html-keyboard-response","143","346114","0.0-15.0-0.50","1507","2","""event"",""trial"",""time""
""fullscreenenter"",""1"",""3358""
","
","
","""event"",""trial"",""time""
""fullscreenenter"",""1"",""3358""
","
","","","","","","null","<div style=""font-size:60px;"">+</div>","null","","fixation","","","","","","","","",""
"memory-trial","144","348188","0.0-15.0-1.50","1507","2","""event"",""trial"",""time""
""fullscreenenter"",""1"",""3358""
","
","
","""event"",""trial"",""time""
""fullscreenenter"",""1"",""3358""
","
","","","","","","1069.6000000238419","images/rodent5.png","","","memory_trial","4","definitely_new","","","","","","",""
"html-keyboard-response","145","348695","0.0-15.0-0.51","1507","2","""event"",""trial"",""time""
""fullscreenenter"",""1"",""3358""
","
","
","""event"",""trial"",""time""
""fullscreenenter"",""1"",""3358""
","
","","","","","","null","<div style=""font-size:60px;"">+</div>","null","","fixation","","","","","","","","",""
"memory-trial","146","352002","0.0-15.0-1.51","1507","2","""event"",""trial"",""time""
""fullscreenenter"",""1"",""3358""
","
","
","""event"",""trial"",""time""
""fullscreenenter"",""1"",""3358""
","
","","","","","","2302.2999999523163","images/rodent3.png","","","memory_trial","1","definitely_old","","","","","","",""
"html-keyboard-response","147","352508","0.0-15.0-0.52","1507","2","""event"",""trial"",""time""
""fullscreenenter"",""1"",""3358""
","
","
","""event"",""trial"",""time""
""fullscreenenter"",""1"",""3358""
","
","","","","","","null","<div style=""font-size:60px;"">+</div>","null","","fixation","","","","","","","","",""
"memory-trial","148","354620","0.0-15.0-1.52","1507","2","""event"",""trial"",""time""
""fullscreenenter"",""1"",""3358""
","
","
","""event"",""trial"",""time""
""fullscreenenter"",""1"",""3358""
","
","","","","","","1107.1999999284744","images/sofa3.png","","","memory_trial","4","definitely_new","","","","","","",""
"html-keyboard-response","149","355127","0.0-15.0-0.53","1507","2","""event"",""trial"",""time""
""fullscreenenter"",""1"",""3358""
","
","
","""event"",""trial"",""time""
""fullscreenenter"",""1"",""3358""
","
","","","","","","null","<div style=""font-size:60px;"">+</div>","null","","fixation","","","","","","","","",""
"memory-trial","150","357705","0.0-15.0-1.53","1507","2","""event"",""trial"",""time""
""fullscreenenter"",""1"",""3358""
","
","
","""event"",""trial"",""time""
""fullscreenenter"",""1"",""3358""
","
","","","","","","1573.3000000715256","images/cactus1.png","","","memory_trial","1","definitely_old","","","","","","",""
"html-keyboard-response","151","358209","0.0-15.0-0.54","1507","2","""event"",""trial"",""time""
""fullscreenenter"",""1"",""3358""
","
","
","""event"",""trial"",""time""
""fullscreenenter"",""1"",""3358""
","
","","","","","","null","<div style=""font-size:60px;"">+</div>","null","","fixation","","","","","","","","",""
"memory-trial","152","360731","0.0-15.0-1.54","1507","2","""event"",""trial"",""time""
""fullscreenenter"",""1"",""3358""
","
","
","""event"",""trial"",""time""
""fullscreenenter"",""1"",""3358""
","
","","","","","","1512.1000000238419","images/bed3.png","","","memory_trial","4","definitely_new","","","","","","",""
"html-keyboard-response","153","361233","0.0-15.0-0.55","1507","2","""event"",""trial"",""time""
""fullscreenenter"",""1"",""3358""
","
","
","""event"",""trial"",""time""
""fullscreenenter"",""1"",""3358""
","
","","","","","","null","<div style=""font-size:60px;"">+</div>","null","","fixation","","","","","","","","",""
"memory-trial","154","363217","0.0-15.0-1.55","1507","2","""event"",""trial"",""time""
""fullscreenenter"",""1"",""3358""
","
","
","""event"",""trial"",""time""
""fullscreenenter"",""1"",""3358""
","
","","","","","","979.2999999523163","images/sheep5.png","","","memory_trial","4","definitely_new","","","","","","",""
"html-keyboard-response","155","363719","0.0-15.0-0.56","1507","2","""event"",""trial"",""time""
""fullscreenenter"",""1"",""3358""
","
","
","""event"",""trial"",""time""
""fullscreenenter"",""1"",""3358""
","
","","","","","","null","<div style=""font-size:60px;"">+</div>","null","","fixation","","","","","","","","",""
"memory-trial","156","366130","0.0-15.0-1.56","1507","2","""event"",""trial"",""time""
""fullscreenenter"",""1"",""3358""
","
","
","""event"",""trial"",""time""
""fullscreenenter"",""1"",""3358""
","
","","","","","","1403.9000000953674","images/flower5.png","","","memory_trial","1","definitely_old","","","","","","",""
"html-keyboard-response","157","366636","0.0-15.0-0.57","1507","2","""event"",""trial"",""time""
""fullscreenenter"",""1"",""3358""
","
","
","""event"",""trial"",""time""
""fullscreenenter"",""1"",""3358""
","
","","","","","","null","<div style=""font-size:60px;"">+</div>","null","","fixation","","","","","","","","",""
"memory-trial","158","368568","0.0-15.0-1.57","1507","2","""event"",""trial"",""time""
""fullscreenenter"",""1"",""3358""
","
","
","""event"",""trial"",""time""
""fullscreenenter"",""1"",""3358""
","
","","","","","","929.1000000238419","images/tree5.png","","","memory_trial","4","definitely_new","","","","","","",""
"html-keyboard-response","159","369071","0.0-15.0-0.58","1507","2","""event"",""trial"",""time""
""fullscreenenter"",""1"",""3358""
","
","
","""event"",""trial"",""time""
""fullscreenenter"",""1"",""3358""
","
","","","","","","null","<div style=""font-size:60px;"">+</div>","null","","fixation","","","","","","","","",""
"memory-trial","160","371551","0.0-15.0-1.58","1507","2","""event"",""trial"",""time""
""fullscreenenter"",""1"",""3358""
","
","
","""event"",""trial"",""time""
""fullscreenenter"",""1"",""3358""
","
","","","","","","1475.2999999523163","images/chair3.png","","","memory_trial","4","definitely_new","","","","","","",""
"html-keyboard-response","161","372054","0.0-15.0-0.59","1507","2","""event"",""trial"",""time""
""fullscreenenter"",""1"",""3358""
","
","
","""event"",""trial"",""time""
""fullscreenenter"",""1"",""3358""
","
","","","","","","null","<div style=""font-size:60px;"">+</div>","null","","fixation","","","","","","","","",""
"memory-trial","162","378007","0.0-15.0-1.59","1507","2","""event"",""trial"",""time""
""fullscreenenter"",""1"",""3358""
","
","
","""event"",""trial"",""time""
""fullscreenenter"",""1"",""3358""
","
","","","","","","4946.399999976158","images/bed4.png","","","memory_trial","2","maybe_old","","","","","","",""
"html-keyboard-response","163","378513","0.0-15.0-0.60","1507","2","""event"",""trial"",""time""
""fullscreenenter"",""1"",""3358""
","
","
","""event"",""trial"",""time""
""fullscreenenter"",""1"",""3358""
","
","","","","","","null","<div style=""font-size:60px;"">+</div>","null","","fixation","","","","","","","","",""
"memory-trial","164","381239","0.0-15.0-1.60","1507","2","""event"",""trial"",""time""
""fullscreenenter"",""1"",""3358""
","
","
","""event"",""trial"",""time""
""fullscreenenter"",""1"",""3358""
","
","","","","","","1721.8000000715256","images/banana1.png","","","memory_trial","1","definitely_old","","","","","","",""
"html-keyboard-response","165","381745","0.0-15.0-0.61","1507","2","""event"",""trial"",""time""
""fullscreenenter"",""1"",""3358""
","
","
","""event"",""trial"",""time""
""fullscreenenter"",""1"",""3358""
","
","","","","","","null","<div style=""font-size:60px;"">+</div>","null","","fixation","","","","","","","","",""
"memory-trial","166","383932","0.0-15.0-1.61","1507","2","""event"",""trial"",""time""
""fullscreenenter"",""1"",""3358""
","
","
","""event"",""trial"",""time""
""fullscreenenter"",""1"",""3358""
","
","","","","","","1184.1000000238419","images/bed2.png","","","memory_trial","4","definitely_new","","","","","","",""
"html-keyboard-response","167","384438","0.0-15.0-0.62","1507","2","""event"",""trial"",""time""
""fullscreenenter"",""1"",""3358""
","
","
","""event"",""trial"",""time""
""fullscreenenter"",""1"",""3358""
","
","","","","","","null","<div style=""font-size:60px;"">+</div>","null","","fixation","","","","","","","","",""
"memory-trial","168","386620","0.0-15.0-1.62","1507","2","""event"",""trial"",""time""
""fullscreenenter"",""1"",""3358""
","
","
","""event"",""trial"",""time""
""fullscreenenter"",""1"",""3358""
","
","","","","","","1174.8000000715256","images/train3.png","","","memory_trial","4","definitely_new","","","","","","",""
"html-keyboard-response","169","387127","0.0-15.0-0.63","1507","2","""event"",""trial"",""time""
""fullscreenenter"",""1"",""3358""
","
","
","""event"",""trial"",""time""
""fullscreenenter"",""1"",""3358""
","
","","","","","","null","<div style=""font-size:60px;"">+</div>","null","","fixation","","","","","","","","",""
"memory-trial","170","389137","0.0-15.0-1.63","1507","2","""event"",""trial"",""time""
""fullscreenenter"",""1"",""3358""
","
","
","""event"",""trial"",""time""
""fullscreenenter"",""1"",""3358""
","
","","","","","","1005.6000000238419","images/orange3.png","","","memory_trial","4","definitely_new","","","","","","",""
"html-keyboard-response","171","389644","0.0-15.0-0.64","1507","2","""event"",""trial"",""time""
""fullscreenenter"",""1"",""3358""
","
","
","""event"",""trial"",""time""
""fullscreenenter"",""1"",""3358""
","
","","","","","","null","<div style=""font-size:60px;"">+</div>","null","","fixation","","","","","","","","",""
"memory-trial","172","392273","0.0-15.0-1.64","1507","2","""event"",""trial"",""time""
""fullscreenenter"",""1"",""3358""
","
","
","""event"",""trial"",""time""
""fullscreenenter"",""1"",""3358""
","
","","","","","","1624.1999999284744","images/apple2.png","","","memory_trial","1","definitely_old","","","","","","",""
"html-keyboard-response","173","392780","0.0-15.0-0.65","1507","2","""event"",""trial"",""time""
""fullscreenenter"",""1"",""3358""
","
","
","""event"",""trial"",""time""
""fullscreenenter"",""1"",""3358""
","
","","","","","","null","<div style=""font-size:60px;"">+</div>","null","","fixation","","","","","","","","",""
"memory-trial","174","395009","0.0-15.0-1.65","1507","2","""event"",""trial"",""time""
""fullscreenenter"",""1"",""3358""
","
","
","""event"",""trial"",""time""
""fullscreenenter"",""1"",""3358""
","
","","","","","","1223.0999999046326","images/chair1.png","","","memory_trial","4","definitely_new","","","","","","",""
"html-keyboard-response","175","395516","0.0-15.0-0.66","1507","2","""event"",""trial"",""time""
""fullscreenenter"",""1"",""3358""
","
","
","""event"",""trial"",""time""
""fullscreenenter"",""1"",""3358""
","
","","","","","","null","<div style=""font-size:60px;"">+</div>","null","","fixation","","","","","","","","",""
"memory-trial","176","399943","0.0-15.0-1.66","1507","2","""event"",""trial"",""time""
""fullscreenenter"",""1"",""3358""
","
","
","""event"",""trial"",""time""
""fullscreenenter"",""1"",""3358""
","
","","","","","","3420.600000023842","images/flower2.png","","","memory_trial","3","maybe_new","","","","","","",""
"html-keyboard-response","177","400448","0.0-15.0-0.67","1507","2","""event"",""trial"",""time""
""fullscreenenter"",""1"",""3358""
","
","
","""event"",""trial"",""time""
""fullscreenenter"",""1"",""3358""
","
","","","","","","null","<div style=""font-size:60px;"">+</div>","null","","fixation","","","","","","","","",""
"memory-trial","178","406517","0.0-15.0-1.67","1507","2","""event"",""trial"",""time""
""fullscreenenter"",""1"",""3358""
","
","
","""event"",""trial"",""time""
""fullscreenenter"",""1"",""3358""
","
","","","","","","5061.399999976158","images/sofa5.png","","","memory_trial","4","definitely_new","","","","","","",""
"html-keyboard-response","179","407020","0.0-15.0-0.68","1507","2","""event"",""trial"",""time""
""fullscreenenter"",""1"",""3358""
","
","
","""event"",""trial"",""time""
""fullscreenenter"",""1"",""3358""
","
","","","","","","null","<div style=""font-size:60px;"">+</div>","null","","fixation","","","","","","","","",""
"memory-trial","180","409010","0.0-15.0-1.68","1507","2","""event"",""trial"",""time""
""fullscreenenter"",""1"",""3358""
","
","
","""event"",""trial"",""time""
""fullscreenenter"",""1"",""3358""
","
","","","","","","986.6000000238419","images/horse5.png","","","memory_trial","4","definitely_new","","","","","","",""
"html-keyboard-response","181","409516","0.0-15.0-0.69","1507","2","""event"",""trial"",""time""
""fullscreenenter"",""1"",""3358""
","
","
","""event"",""trial"",""time""
""fullscreenenter"",""1"",""3358""
","
","","","","","","null","<div style=""font-size:60px;"">+</div>","null","","fixation","","","","","","","","",""
"memory-trial","182","411756","0.0-15.0-1.69","1507","2","""event"",""trial"",""time""
""fullscreenenter"",""1"",""3358""
","
","
","""event"",""trial"",""time""
""fullscreenenter"",""1"",""3358""
","
","","","","","","1235.6000000238419","images/feline1.png","","","memory_trial","4","definitely_new","","","","","","",""
"html-keyboard-response","183","412262","0.0-15.0-0.70","1507","2","""event"",""trial"",""time""
""fullscreenenter"",""1"",""3358""
","
","
","""event"",""trial"",""time""
""fullscreenenter"",""1"",""3358""
","
","","","","","","null","<div style=""font-size:60px;"">+</div>","null","","fixation","","","","","","","","",""
"memory-trial","184","414252","0.0-15.0-1.70","1507","2","""event"",""trial"",""time""
""fullscreenenter"",""1"",""3358""
","
","
","""event"",""trial"",""time""
""fullscreenenter"",""1"",""3358""
","
","","","","","","983.8000000715256","images/bush5.png","","","memory_trial","4","definitely_new","","","","","","",""
"html-keyboard-response","185","414758","0.0-15.0-0.71","1507","2","""event"",""trial"",""time""
""fullscreenenter"",""1"",""3358""
","
","
","""event"",""trial"",""time""
""fullscreenenter"",""1"",""3358""
","
","","","","","","null","<div style=""font-size:60px;"">+</div>","null","","fixation","","","","","","","","",""
"memory-trial","186","418060","0.0-15.0-1.71","1507","2","""event"",""trial"",""time""
""fullscreenenter"",""1"",""3358""
","
","
","""event"",""trial"",""time""
""fullscreenenter"",""1"",""3358""
","
","","","","","","2294.5","images/straw1.png","","","memory_trial","4","definitely_new","","","","","","",""
"html-keyboard-response","187","418564","0.0-15.0-0.72","1507","2","""event"",""trial"",""time""
""fullscreenenter"",""1"",""3358""
","
","
","""event"",""trial"",""time""
""fullscreenenter"",""1"",""3358""
","
","","","","","","null","<div style=""font-size:60px;"">+</div>","null","","fixation","","","","","","","","",""
"memory-trial","188","420915","0.0-15.0-1.72","1507","2","""event"",""trial"",""time""
""fullscreenenter"",""1"",""3358""
","
","
","""event"",""trial"",""time""
""fullscreenenter"",""1"",""3358""
","
","","","","","","1344.8000000715256","images/straw5.png","","","memory_trial","1","definitely_old","","","","","","",""
"html-keyboard-response","189","421419","0.0-15.0-0.73","1507","2","""event"",""trial"",""time""
""fullscreenenter"",""1"",""3358""
","
","
","""event"",""trial"",""time""
""fullscreenenter"",""1"",""3358""
","
","","","","","","null","<div style=""font-size:60px;"">+</div>","null","","fixation","","","","","","","","",""
"memory-trial","190","423761","0.0-15.0-1.73","1507","2","""event"",""trial"",""time""
""fullscreenenter"",""1"",""3358""
","
","
","""event"",""trial"",""time""
""fullscreenenter"",""1"",""3358""
","
","","","","","","1337.9000000953674","images/boat4.png","","","memory_trial","1","definitely_old","","","","","","",""
"html-keyboard-response","191","424267","0.0-15.0-0.74","1507","2","""event"",""trial"",""time""
""fullscreenenter"",""1"",""3358""
","
","
","""event"",""trial"",""time""
""fullscreenenter"",""1"",""3358""
","
","","","","","","null","<div style=""font-size:60px;"">+</div>","null","","fixation","","","","","","","","",""
"memory-trial","192","428161","0.0-15.0-1.74","1507","2","""event"",""trial"",""time""
""fullscreenenter"",""1"",""3358""
","
","
","""event"",""trial"",""time""
""fullscreenenter"",""1"",""3358""
","
","","","","","","2887.3000000715256","images/chair5.png","","","memory_trial","4","definitely_new","","","","","","",""
"html-keyboard-response","193","428667","0.0-15.0-0.75","1507","2","""event"",""trial"",""time""
""fullscreenenter"",""1"",""3358""
","
","
","""event"",""trial"",""time""
""fullscreenenter"",""1"",""3358""
","
","","","","","","null","<div style=""font-size:60px;"">+</div>","null","","fixation","","","","","","","","",""
"memory-trial","194","430700","0.0-15.0-1.75","1507","2","""event"",""trial"",""time""
""fullscreenenter"",""1"",""3358""
","
","
","""event"",""trial"",""time""
""fullscreenenter"",""1"",""3358""
","
","","","","","","1026.7000000476837","images/train5.png","","","memory_trial","4","definitely_new","","","","","","",""
"html-keyboard-response","195","431206","0.0-15.0-0.76","1507","2","""event"",""trial"",""time""
""fullscreenenter"",""1"",""3358""
","
","
","""event"",""trial"",""time""
""fullscreenenter"",""1"",""3358""
","
","","","","","","null","<div style=""font-size:60px;"">+</div>","null","","fixation","","","","","","","","",""
"memory-trial","196","435217","0.0-15.0-1.76","1507","2","""event"",""trial"",""time""
""fullscreenenter"",""1"",""3358""
","
","
","""event"",""trial"",""time""
""fullscreenenter"",""1"",""3358""
","
","","","","","","3003.2000000476837","images/boat1.png","","","memory_trial","3","maybe_new","","","","","","",""
"html-keyboard-response","197","435723","0.0-15.0-0.77","1507","2","""event"",""trial"",""time""
""fullscreenenter"",""1"",""3358""
","
","
","""event"",""trial"",""time""
""fullscreenenter"",""1"",""3358""
","
","","","","","","null","<div style=""font-size:60px;"">+</div>","null","","fixation","","","","","","","","",""
"memory-trial","198","439015","0.0-15.0-1.77","1507","2","""event"",""trial"",""time""
""fullscreenenter"",""1"",""3358""
","
","
","""event"",""trial"",""time""
""fullscreenenter"",""1"",""3358""
","
","","","","","","2289.600000023842","images/bed5.png","","","memory_trial","1","definitely_old","","","","","","",""
"html-keyboard-response","199","439521","0.0-15.0-0.78","1507","2","""event"",""trial"",""time""
""fullscreenenter"",""1"",""3358""
","
","
","""event"",""trial"",""time""
""fullscreenenter"",""1"",""3358""
","
","","","","","","null","<div style=""font-size:60px;"">+</div>","null","","fixation","","","","","","","","",""
"memory-trial","200","442977","0.0-15.0-1.78","1507","2","""event"",""trial"",""time""
""fullscreenenter"",""1"",""3358""
","
","
","""event"",""trial"",""time""
""fullscreenenter"",""1"",""3358""
","
","","","","","","2451","images/bush1.png","","","memory_trial","4","definitely_new","","","","","","",""
"html-keyboard-response","201","443483","0.0-15.0-0.79","1507","2","""event"",""trial"",""time""
""fullscreenenter"",""1"",""3358""
","
","
","""event"",""trial"",""time""
""fullscreenenter"",""1"",""3358""
","
","","","","","","null","<div style=""font-size:60px;"">+</div>","null","","fixation","","","","","","","","",""
"memory-trial","202","446129","0.0-15.0-1.79","1507","2","""event"",""trial"",""time""
""fullscreenenter"",""1"",""3358""
","
","
","""event"",""trial"",""time""
""fullscreenenter"",""1"",""3358""
","
","","","","","","1634.2000000476837","images/cow5.png","","","memory_trial","1","definitely_old","","","","","","",""
"html-keyboard-response","203","446635","0.0-15.0-0.80","1507","2","""event"",""trial"",""time""
""fullscreenenter"",""1"",""3358""
","
","
","""event"",""trial"",""time""
""fullscreenenter"",""1"",""3358""
","
","","","","","","null","<div style=""font-size:60px;"">+</div>","null","","fixation","","","","","","","","",""
"memory-trial","204","448501","0.0-15.0-1.80","1507","2","""event"",""trial"",""time""
""fullscreenenter"",""1"",""3358""
","
","
","""event"",""trial"",""time""
""fullscreenenter"",""1"",""3358""
","
","","","","","","859.6000000238419","images/bush4.png","","","memory_trial","4","definitely_new","","","","","","",""
"html-keyboard-response","205","449006","0.0-15.0-0.81","1507","2","""event"",""trial"",""time""
""fullscreenenter"",""1"",""3358""
","
","
","""event"",""trial"",""time""
""fullscreenenter"",""1"",""3358""
","
","","","","","","null","<div style=""font-size:60px;"">+</div>","null","","fixation","","","","","","","","",""
"memory-trial","206","452972","0.0-15.0-1.81","1507","2","""event"",""trial"",""time""
""fullscreenenter"",""1"",""3358""
","
","
","""event"",""trial"",""time""
""fullscreenenter"",""1"",""3358""
","
","","","","","","2960.8000000715256","images/table4.png","","","memory_trial","4","definitely_new","","","","","","",""
"html-keyboard-response","207","453478","0.0-15.0-0.82","1507","2","""event"",""trial"",""time""
""fullscreenenter"",""1"",""3358""
","
","
","""event"",""trial"",""time""
""fullscreenenter"",""1"",""3358""
","
","","","","","","null","<div style=""font-size:60px;"">+</div>","null","","fixation","","","","","","","","",""
"memory-trial","208","455376","0.0-15.0-1.82","1507","2","""event"",""trial"",""time""
""fullscreenenter"",""1"",""3358""
","
","
","""event"",""trial"",""time""
""fullscreenenter"",""1"",""3358""
","
","","","","","","895.1000000238419","images/dog1.png","","","memory_trial","4","definitely_new","","","","","","",""
"html-keyboard-response","209","455880","0.0-15.0-0.83","1507","2","""event"",""trial"",""time""
""fullscreenenter"",""1"",""3358""
","
","
","""event"",""trial"",""time""
""fullscreenenter"",""1"",""3358""
","
","","","","","","null","<div style=""font-size:60px;"">+</div>","null","","fixation","","","","","","","","",""
"memory-trial","210","459552","0.0-15.0-1.83","1507","2","""event"",""trial"",""time""
""fullscreenenter"",""1"",""3358""
","
","
","""event"",""trial"",""time""
""fullscreenenter"",""1"",""3358""
","
","","","","","","2668.2999999523163","images/cactus2.png","","","memory_trial","3","maybe_new","","","","","","",""
"html-keyboard-response","211","460054","0.0-15.0-0.84","1507","2","""event"",""trial"",""time""
""fullscreenenter"",""1"",""3358""
","
","
","""event"",""trial"",""time""
""fullscreenenter"",""1"",""3358""
","
","","","","","","null","<div style=""font-size:60px;"">+</div>","null","","fixation","","","","","","","","",""
"memory-trial","212","461995","0.0-15.0-1.84","1507","2","""event"",""trial"",""time""
""fullscreenenter"",""1"",""3358""
","
","
","""event"",""trial"",""time""
""fullscreenenter"",""1"",""3358""
","
","","","","","","933","images/dog4.png","","","memory_trial","4","definitely_new","","","","","","",""
"html-keyboard-response","213","462502","0.0-15.0-0.85","1507","2","""event"",""trial"",""time""
""fullscreenenter"",""1"",""3358""
","
","
","""event"",""trial"",""time""
""fullscreenenter"",""1"",""3358""
","
","","","","","","null","<div style=""font-size:60px;"">+</div>","null","","fixation","","","","","","","","",""
"memory-trial","214","466971","0.0-15.0-1.85","1507","2","""event"",""trial"",""time""
""fullscreenenter"",""1"",""3358""
","
","
","""event"",""trial"",""time""
""fullscreenenter"",""1"",""3358""
","
","","","","","","3464","images/cow1.png","","","memory_trial","1","definitely_old","","","","","","",""
"html-keyboard-response","215","467477","0.0-15.0-0.86","1507","2","""event"",""trial"",""time""
""fullscreenenter"",""1"",""3358""
","
","
","""event"",""trial"",""time""
""fullscreenenter"",""1"",""3358""
","
","","","","","","null","<div style=""font-size:60px;"">+</div>","null","","fixation","","","","","","","","",""
"memory-trial","216","470635","0.0-15.0-1.86","1507","2","""event"",""trial"",""time""
""fullscreenenter"",""1"",""3358""
","
","
","""event"",""trial"",""time""
""fullscreenenter"",""1"",""3358""
","
","","","","","","2151.399999976158","images/train1.png","","","memory_trial","4","definitely_new","","","","","","",""
"html-keyboard-response","217","471136","0.0-15.0-0.87","1507","2","""event"",""trial"",""time""
""fullscreenenter"",""1"",""3358""
","
","
","""event"",""trial"",""time""
""fullscreenenter"",""1"",""3358""
","
","","","","","","null","<div style=""font-size:60px;"">+</div>","null","","fixation","","","","","","","","",""
"memory-trial","218","474402","0.0-15.0-1.87","1507","2","""event"",""trial"",""time""
""fullscreenenter"",""1"",""3358""
","
","
","""event"",""trial"",""time""
""fullscreenenter"",""1"",""3358""
","
","","","","","","2261.2000000476837","images/cow4.png","","","memory_trial","4","definitely_new","","","","","","",""
"html-keyboard-response","219","474906","0.0-15.0-0.88","1507","2","""event"",""trial"",""time""
""fullscreenenter"",""1"",""3358""
","
","
","""event"",""trial"",""time""
""fullscreenenter"",""1"",""3358""
","
","","","","","","null","<div style=""font-size:60px;"">+</div>","null","","fixation","","","","","","","","",""
"memory-trial","220","476949","0.0-15.0-1.88","1507","2","""event"",""trial"",""time""
""fullscreenenter"",""1"",""3358""
","
","
","""event"",""trial"",""time""
""fullscreenenter"",""1"",""3358""
","
","","","","","","1039.1000000238419","images/cow2.png","","","memory_trial","4","definitely_new","","","","","","",""
"html-keyboard-response","221","477454","0.0-15.0-0.89","1507","2","""event"",""trial"",""time""
""fullscreenenter"",""1"",""3358""
","
","
","""event"",""trial"",""time""
""fullscreenenter"",""1"",""3358""
","
","","","","","","null","<div style=""font-size:60px;"">+</div>","null","","fixation","","","","","","","","",""
"memory-trial","222","479226","0.0-15.0-1.89","1507","2","""event"",""trial"",""time""
""fullscreenenter"",""1"",""3358""
","
","
","""event"",""trial"",""time""
""fullscreenenter"",""1"",""3358""
","
","","","","","","767.5","images/straw2.png","","","memory_trial","1","definitely_old","","","","","","",""
"html-keyboard-response","223","479729","0.0-15.0-0.90","1507","2","""event"",""trial"",""time""
""fullscreenenter"",""1"",""3358""
","
","
","""event"",""trial"",""time""
""fullscreenenter"",""1"",""3358""
","
","","","","","","null","<div style=""font-size:60px;"">+</div>","null","","fixation","","","","","","","","",""
"memory-trial","224","481653","0.0-15.0-1.90","1507","2","""event"",""trial"",""time""
""fullscreenenter"",""1"",""3358""
","
","
","""event"",""trial"",""time""
""fullscreenenter"",""1"",""3358""
","
","","","","","","919.1000000238419","images/rabbit3.png","","","memory_trial","1","definitely_old","","","","","","",""
"html-keyboard-response","225","482155","0.0-15.0-0.91","1507","2","""event"",""trial"",""time""
""fullscreenenter"",""1"",""3358""
","
","
","""event"",""trial"",""time""
""fullscreenenter"",""1"",""3358""
","
","","","","","","null","<div style=""font-size:60px;"">+</div>","null","","fixation","","","","","","","","",""
"memory-trial","226","484094","0.0-15.0-1.91","1507","2","""event"",""trial"",""time""
""fullscreenenter"",""1"",""3358""
","
","
","""event"",""trial"",""time""
""fullscreenenter"",""1"",""3358""
","
","","","","","","933.5","images/rodent2.png","","","memory_trial","1","definitely_old","","","","","","",""
"html-keyboard-response","227","484597","0.0-15.0-0.92","1507","2","""event"",""trial"",""time""
""fullscreenenter"",""1"",""3358""
","
","
","""event"",""trial"",""time""
""fullscreenenter"",""1"",""3358""
","
","","","","","","null","<div style=""font-size:60px;"">+</div>","null","","fixation","","","","","","","","",""
"memory-trial","228","487100","0.0-15.0-1.92","1507","2","""event"",""trial"",""time""
""fullscreenenter"",""1"",""3358""
","
","
","""event"",""trial"",""time""
""fullscreenenter"",""1"",""3358""
","
","","","","","","1499.1000000238419","images/rabbit4.png","","","memory_trial","4","definitely_new","","","","","","",""
"html-keyboard-response","229","487605","0.0-15.0-0.93","1507","2","""event"",""trial"",""time""
""fullscreenenter"",""1"",""3358""
","
","
","""event"",""trial"",""time""
""fullscreenenter"",""1"",""3358""
","
","","","","","","null","<div style=""font-size:60px;"">+</div>","null","","fixation","","","","","","","","",""
"memory-trial","230","489873","0.0-15.0-1.93","1507","2","""event"",""trial"",""time""
""fullscreenenter"",""1"",""3358""
","
","
","""event"",""trial"",""time""
""fullscreenenter"",""1"",""3358""
","
","","","","","","1260.2999999523163","images/plane1.png","","","memory_trial","1","definitely_old","","","","","","",""
"html-keyboard-response","231","490378","0.0-15.0-0.94","1507","2","""event"",""trial"",""time""
""fullscreenenter"",""1"",""3358""
","
","
","""event"",""trial"",""time""
""fullscreenenter"",""1"",""3358""
","
","","","","","","null","<div style=""font-size:60px;"">+</div>","null","","fixation","","","","","","","","",""
"memory-trial","232","492245","0.0-15.0-1.94","1507","2","""event"",""trial"",""time""
""fullscreenenter"",""1"",""3358""
","
","
","""event"",""trial"",""time""
""fullscreenenter"",""1"",""3358""
","
","","","","","","862.4000000953674","images/chair4.png","","","memory_trial","4","definitely_new","","","","","","",""
"html-keyboard-response","233","492747","0.0-15.0-0.95","1507","2","""event"",""trial"",""time""
""fullscreenenter"",""1"",""3358""
","
","
","""event"",""trial"",""time""
""fullscreenenter"",""1"",""3358""
","
","","","","","","null","<div style=""font-size:60px;"">+</div>","null","","fixation","","","","","","","","",""
"memory-trial","234","494906","0.0-15.0-1.95","1507","2","""event"",""trial"",""time""
""fullscreenenter"",""1"",""3358""
","
","
","""event"",""trial"",""time""
""fullscreenenter"",""1"",""3358""
","
","","","","","","1153.5","images/table2.png","","","memory_trial","1","definitely_old","","","","","","",""
"html-keyboard-response","235","495408","0.0-15.0-0.96","1507","2","""event"",""trial"",""time""
""fullscreenenter"",""1"",""3358""
","
","
","""event"",""trial"",""time""
""fullscreenenter"",""1"",""3358""
","
","","","","","","null","<div style=""font-size:60px;"">+</div>","null","","fixation","","","","","","","","",""
"memory-trial","236","497296","0.0-15.0-1.96","1507","2","""event"",""trial"",""time""
""fullscreenenter"",""1"",""3358""
","
","
","""event"",""trial"",""time""
""fullscreenenter"",""1"",""3358""
","
","","","","","","884.1000000238419","images/train4.png","","","memory_trial","4","definitely_new","","","","","","",""
"html-keyboard-response","237","497797","0.0-15.0-0.97","1507","2","""event"",""trial"",""time""
""fullscreenenter"",""1"",""3358""
","
","
","""event"",""trial"",""time""
""fullscreenenter"",""1"",""3358""
","
","","","","","","null","<div style=""font-size:60px;"">+</div>","null","","fixation","","","","","","","","",""
"memory-trial","238","500202","0.0-15.0-1.97","1507","2","""event"",""trial"",""time""
""fullscreenenter"",""1"",""3358""
","
","
","""event"",""trial"",""time""
""fullscreenenter"",""1"",""3358""
","
","","","","","","1400.6999999284744","images/banana4.png","","","memory_trial","1","definitely_old","","","","","","",""
"html-keyboard-response","239","500706","0.0-15.0-0.98","1507","2","""event"",""trial"",""time""
""fullscreenenter"",""1"",""3358""
","
","
","""event"",""trial"",""time""
""fullscreenenter"",""1"",""3358""
","
","","","","","","null","<div style=""font-size:60px;"">+</div>","null","","fixation","","","","","","","","",""
"memory-trial","240","503173","0.0-15.0-1.98","1507","2","""event"",""trial"",""time""
""fullscreenenter"",""1"",""3358""
","
","
","""event"",""trial"",""time""
""fullscreenenter"",""1"",""3358""
","
","","","","","","1461.3999999761581","images/plane5.png","","","memory_trial","1","definitely_old","","","","","","",""
"html-keyboard-response","241","503677","0.0-15.0-0.99","1507","2","""event"",""trial"",""time""
""fullscreenenter"",""1"",""3358""
","
","
","""event"",""trial"",""time""
""fullscreenenter"",""1"",""3358""
","
","","","","","","null","<div style=""font-size:60px;"">+</div>","null","","fixation","","","","","","","","",""
"memory-trial","242","505445","0.0-15.0-1.99","1507","2","""event"",""trial"",""time""
""fullscreenenter"",""1"",""3358""
","
","
","""event"",""trial"",""time""
""fullscreenenter"",""1"",""3358""
","
","","","","","","761.3999999761581","images/chair2.png","","","memory_trial","4","definitely_new","","","","","","",""
"html-keyboard-response","243","505948","0.0-15.0-0.100","1507","2","""event"",""trial"",""time""
""fullscreenenter"",""1"",""3358""
","
","
","""event"",""trial"",""time""
""fullscreenenter"",""1"",""3358""
","
","","","","","","null","<div style=""font-size:60px;"">+</div>","null","","fixation","","","","","","","","",""
"memory-trial","244","508033","0.0-15.0-1.100","1507","2","""event"",""trial"",""time""
""fullscreenenter"",""1"",""3358""
","
","
","""event"",""trial"",""time""
""fullscreenenter"",""1"",""3358""
","
","","","","","","1082.1000000238419","images/tree2.png","","","memory_trial","4","definitely_new","","","","","","",""
"html-keyboard-response","245","508538","0.0-15.0-0.101","1507","2","""event"",""trial"",""time""
""fullscreenenter"",""1"",""3358""
","
","
","""event"",""trial"",""time""
""fullscreenenter"",""1"",""3358""
","
","","","","","","null","<div style=""font-size:60px;"">+</div>","null","","fixation","","","","","","","","",""
"memory-trial","246","510885","0.0-15.0-1.101","1507","2","""event"",""trial"",""time""
""fullscreenenter"",""1"",""3358""
","
","
","""event"",""trial"",""time""
""fullscreenenter"",""1"",""3358""
","
","","","","","","1344.6999999284744","images/apple3.png","","","memory_trial","1","definitely_old","","","","","","",""
"html-button-response","247","523102","0.0-15.0-2.101-0.101","1507","2","""event"",""trial"",""time""
""fullscreenenter"",""1"",""3358""
","
","
","""event"",""trial"",""time""
""fullscreenenter"",""1"",""3358""
","
","","","","","","12215.600000023842","<p> Take a break! </p><p> Click the button to continue. </p>","0","","break","","","","","","","","",""
"html-keyboard-response","248","523604","0.0-15.0-0.102","1507","2","""event"",""trial"",""time""
""fullscreenenter"",""1"",""3358""
","
","
","""event"",""trial"",""time""
""fullscreenenter"",""1"",""3358""
","
","","","","","","null","<div style=""font-size:60px;"">+</div>","null","","fixation","","","","","","","","",""
"memory-trial","249","525532","0.0-15.0-1.102","1507","2","""event"",""trial"",""time""
""fullscreenenter"",""1"",""3358""
","
","
","""event"",""trial"",""time""
""fullscreenenter"",""1"",""3358""
","
","","","","","","919.8999999761581","images/dog5.png","","","memory_trial","4","definitely_new","","","","","","",""
"html-keyboard-response","250","526037","0.0-15.0-0.103","1507","2","""event"",""trial"",""time""
""fullscreenenter"",""1"",""3358""
","
","
","""event"",""trial"",""time""
""fullscreenenter"",""1"",""3358""
","
","","","","","","null","<div style=""font-size:60px;"">+</div>","null","","fixation","","","","","","","","",""
"memory-trial","251","529968","0.0-15.0-1.103","1507","2","""event"",""trial"",""time""
""fullscreenenter"",""1"",""3358""
","
","
","""event"",""trial"",""time""
""fullscreenenter"",""1"",""3358""
","
","","","","","","2925.399999976158","images/feline4.png","","","memory_trial","4","definitely_new","","","","","","",""
"html-keyboard-response","252","530473","0.0-15.0-0.104","1507","2","""event"",""trial"",""time""
""fullscreenenter"",""1"",""3358""
","
","
","""event"",""trial"",""time""
""fullscreenenter"",""1"",""3358""
","
","","","","","","null","<div style=""font-size:60px;"">+</div>","null","","fixation","","","","","","","","",""
"memory-trial","253","532258","0.0-15.0-1.104","1507","2","""event"",""trial"",""time""
""fullscreenenter"",""1"",""3358""
","
","
","""event"",""trial"",""time""
""fullscreenenter"",""1"",""3358""
","
","","","","","","778.6999999284744","images/bush3.png","","","memory_trial","4","definitely_new","","","","","","",""
"html-keyboard-response","254","532761","0.0-15.0-0.105","1507","2","""event"",""trial"",""time""
""fullscreenenter"",""1"",""3358""
","
","
","""event"",""trial"",""time""
""fullscreenenter"",""1"",""3358""
","
","","","","","","null","<div style=""font-size:60px;"">+</div>","null","","fixation","","","","","","","","",""
"memory-trial","255","535387","0.0-15.0-1.105","1507","2","""event"",""trial"",""time""
""fullscreenenter"",""1"",""3358""
","
","
","""event"",""trial"",""time""
""fullscreenenter"",""1"",""3358""
","
","","","","","","1618.6000000238419","images/apple4.png","","","memory_trial","4","definitely_new","","","","","","",""
"html-keyboard-response","256","535893","0.0-15.0-0.106","1507","2","""event"",""trial"",""time""
""fullscreenenter"",""1"",""3358""
","
","
","""event"",""trial"",""time""
""fullscreenenter"",""1"",""3358""
","
","","","","","","null","<div style=""font-size:60px;"">+</div>","null","","fixation","","","","","","","","",""
"memory-trial","257","538074","0.0-15.0-1.106","1507","2","""event"",""trial"",""time""
""fullscreenenter"",""1"",""3358""
","
","
","""event"",""trial"",""time""
""fullscreenenter"",""1"",""3358""
","
","","","","","","1175.5999999046326","images/goat5.png","","","memory_trial","4","definitely_new","","","","","","",""
"html-keyboard-response","258","538575","0.0-15.0-0.107","1507","2","""event"",""trial"",""time""
""fullscreenenter"",""1"",""3358""
","
","
","""event"",""trial"",""time""
""fullscreenenter"",""1"",""3358""
","
","","","","","","null","<div style=""font-size:60px;"">+</div>","null","","fixation","","","","","","","","",""
"memory-trial","259","541220","0.0-15.0-1.107","1507","2","""event"",""trial"",""time""
""fullscreenenter"",""1"",""3358""
","
","
","""event"",""trial"",""time""
""fullscreenenter"",""1"",""3358""
","
","","","","","","1638.8000000715256","images/sofa4.png","","","memory_trial","4","definitely_new","","","","","","",""
"html-keyboard-response","260","541724","0.0-15.0-0.108","1507","2","""event"",""trial"",""time""
""fullscreenenter"",""1"",""3358""
","
","
","""event"",""trial"",""time""
""fullscreenenter"",""1"",""3358""
","
","","","","","","null","<div style=""font-size:60px;"">+</div>","null","","fixation","","","","","","","","",""
"memory-trial","261","543543","0.0-15.0-1.108","1507","2","""event"",""trial"",""time""
""fullscreenenter"",""1"",""3358""
","
","
","""event"",""trial"",""time""
""fullscreenenter"",""1"",""3358""
","
","","","","","","813.1000000238419","images/sheep1.png","","","memory_trial","4","definitely_new","","","","","","",""
"html-keyboard-response","262","544047","0.0-15.0-0.109","1507","2","""event"",""trial"",""time""
""fullscreenenter"",""1"",""3358""
","
","
","""event"",""trial"",""time""
""fullscreenenter"",""1"",""3358""
","
","","","","","","null","<div style=""font-size:60px;"">+</div>","null","","fixation","","","","","","","","",""
"memory-trial","263","546442","0.0-15.0-1.109","1507","2","""event"",""trial"",""time""
""fullscreenenter"",""1"",""3358""
","
","
","""event"",""trial"",""time""
""fullscreenenter"",""1"",""3358""
","
","","","","","","1391","images/boat2.png","","","memory_trial","1","definitely_old","","","","","","",""
"html-keyboard-response","264","546945","0.0-15.0-0.110","1507","2","""event"",""trial"",""time""
""fullscreenenter"",""1"",""3358""
","
","
","""event"",""trial"",""time""
""fullscreenenter"",""1"",""3358""
","
","","","","","","null","<div style=""font-size:60px;"">+</div>","null","","fixation","","","","","","","","",""
"memory-trial","265","548792","0.0-15.0-1.110","1507","2","""event"",""trial"",""time""
""fullscreenenter"",""1"",""3358""
","
","
","""event"",""trial"",""time""
""fullscreenenter"",""1"",""3358""
","
","","","","","","840.8999999761581","images/sheep4.png","","","memory_trial","4","definitely_new","","","","","","",""
"html-keyboard-response","266","549295","0.0-15.0-0.111","1507","2","""event"",""trial"",""time""
""fullscreenenter"",""1"",""3358""
","
","
","""event"",""trial"",""time""
""fullscreenenter"",""1"",""3358""
","
","","","","","","null","<div style=""font-size:60px;"">+</div>","null","","fixation","","","","","","","","",""
"memory-trial","267","552138","0.0-15.0-1.111","1507","2","""event"",""trial"",""time""
""fullscreenenter"",""1"",""3358""
","
","
","""event"",""trial"",""time""
""fullscreenenter"",""1"",""3358""
","
","","","","","","1837.9000000953674","images/goat1.png","","","memory_trial","1","definitely_old","","","","","","",""
"html-keyboard-response","268","552644","0.0-15.0-0.112","1507","2","""event"",""trial"",""time""
""fullscreenenter"",""1"",""3358""
","
","
","""event"",""trial"",""time""
""fullscreenenter"",""1"",""3358""
","
","","","","","","null","<div style=""font-size:60px;"">+</div>","null","","fixation","","","","","","","","",""
"memory-trial","269","554551","0.0-15.0-1.112","1507","2","""event"",""trial"",""time""
""fullscreenenter"",""1"",""3358""
","
","
","""event"",""trial"",""time""
""fullscreenenter"",""1"",""3358""
","
","","","","","","904.6000000238419","images/train2.png","","","memory_trial","4","definitely_new","","","","","","",""
"html-keyboard-response","270","555056","0.0-15.0-0.113","1507","2","""event"",""trial"",""time""
""fullscreenenter"",""1"",""3358""
","
","
","""event"",""trial"",""time""
""fullscreenenter"",""1"",""3358""
","
","","","","","","null","<div style=""font-size:60px;"">+</div>","null","","fixation","","","","","","","","",""
"memory-trial","271","558841","0.0-15.0-1.113","1507","2","""event"",""trial"",""time""
""fullscreenenter"",""1"",""3358""
","
","
","""event"",""trial"",""time""
""fullscreenenter"",""1"",""3358""
","
","","","","","","2782.5","images/cactus5.png","","","memory_trial","4","definitely_new","","","","","","",""
"html-keyboard-response","272","559343","0.0-15.0-0.114","1507","2","""event"",""trial"",""time""
""fullscreenenter"",""1"",""3358""
","
","
","""event"",""trial"",""time""
""fullscreenenter"",""1"",""3358""
","
","","","","","","null","<div style=""font-size:60px;"">+</div>","null","","fixation","","","","","","","","",""
"memory-trial","273","561331","0.0-15.0-1.114","1507","2","""event"",""trial"",""time""
""fullscreenenter"",""1"",""3358""
","
","
","""event"",""trial"",""time""
""fullscreenenter"",""1"",""3358""
","
","","","","","","981.2000000476837","images/orange4.png","","","memory_trial","4","definitely_new","","","","","","",""
"html-keyboard-response","274","561834","0.0-15.0-0.115","1507","2","""event"",""trial"",""time""
""fullscreenenter"",""1"",""3358""
","
","
","""event"",""trial"",""time""
""fullscreenenter"",""1"",""3358""
","
","","","","","","null","<div style=""font-size:60px;"">+</div>","null","","fixation","","","","","","","","",""
"memory-trial","275","564304","0.0-15.0-1.115","1507","2","""event"",""trial"",""time""
""fullscreenenter"",""1"",""3358""
","
","
","""event"",""trial"",""time""
""fullscreenenter"",""1"",""3358""
","
","","","","","","1462.7999999523163","images/rabbit1.png","","","memory_trial","1","definitely_old","","","","","","",""
"html-keyboard-response","276","564810","0.0-15.0-0.116","1507","2","""event"",""trial"",""time""
""fullscreenenter"",""1"",""3358""
","
","
","""event"",""trial"",""time""
""fullscreenenter"",""1"",""3358""
","
","","","","","","null","<div style=""font-size:60px;"">+</div>","null","","fixation","","","","","","","","",""
"memory-trial","277","567434","0.0-15.0-1.116","1507","2","""event"",""trial"",""time""
""fullscreenenter"",""1"",""3358""
","
","
","""event"",""trial"",""time""
""fullscreenenter"",""1"",""3358""
","
","","","","","","1618","images/banana2.png","","","memory_trial","1","definitely_old","","","","","","",""
"html-keyboard-response","278","567936","0.0-15.0-0.117","1507","2","""event"",""trial"",""time""
""fullscreenenter"",""1"",""3358""
","
","
","""event"",""trial"",""time""
""fullscreenenter"",""1"",""3358""
","
","","","","","","null","<div style=""font-size:60px;"">+</div>","null","","fixation","","","","","","","","",""
"memory-trial","279","570016","0.0-15.0-1.117","1507","2","""event"",""trial"",""time""
""fullscreenenter"",""1"",""3358""
","
","
","""event"",""trial"",""time""
""fullscreenenter"",""1"",""3358""
","
","","","","","","1074.7999999523163","images/goat4.png","","","memory_trial","4","definitely_new","","","","","","",""
"html-keyboard-response","280","570522","0.0-15.0-0.118","1507","2","""event"",""trial"",""time""
""fullscreenenter"",""1"",""3358""
","
","
","""event"",""trial"",""time""
""fullscreenenter"",""1"",""3358""
","
","","","","","","null","<div style=""font-size:60px;"">+</div>","null","","fixation","","","","","","","","",""
"memory-trial","281","573322","0.0-15.0-1.118","1507","2","""event"",""trial"",""time""
""fullscreenenter"",""1"",""3358""
","
","
","""event"",""trial"",""time""
""fullscreenenter"",""1"",""3358""
","
","","","","","","1794.7000000476837","images/truck3.png","","","memory_trial","1","definitely_old","","","","","","",""
"html-keyboard-response","282","573828","0.0-15.0-0.119","1507","2","""event"",""trial"",""time""
""fullscreenenter"",""1"",""3358""
","
","
","""event"",""trial"",""time""
""fullscreenenter"",""1"",""3358""
","
","","","","","","null","<div style=""font-size:60px;"">+</div>","null","","fixation","","","","","","","","",""
"memory-trial","283","575871","0.0-15.0-1.119","1507","2","""event"",""trial"",""time""
""fullscreenenter"",""1"",""3358""
","
","
","""event"",""trial"",""time""
""fullscreenenter"",""1"",""3358""
","
","","","","","","1039.2999999523163","images/horse3.png","","","memory_trial","4","definitely_new","","","","","","",""
"preload","284","579427","0.0-16.0","1507","2","""event"",""trial"",""time""
""fullscreenenter"",""1"",""3358""
","
","
","""event"",""trial"",""time""
""fullscreenenter"",""1"",""3358""
","
","true","false","[]","[]","[]","","","","","","","","","","","","","",""
"learning-instructions","285","584733","0.0-17.0-0.0-0.0-0.0","1507","2","""event"",""trial"",""time""
""fullscreenenter"",""1"",""3358""
","
","
","""event"",""trial"",""time""
""fullscreenenter"",""1"",""3358""
","
","","","","","","1505.8000000715256","<p> We're now going to ask you to put fuel in your vehicles again. </p>","","0","instructions","","","","","","","","",""
"learning-instructions","286","592803","0.0-17.0-0.0-0.0-0.1","1507","2","""event"",""trial"",""time""
""fullscreenenter"",""1"",""3358""
","
","
","""event"",""trial"",""time""
""fullscreenenter"",""1"",""3358""
","
","","","","","","2023.3000000715256","<p> On each trial, you will see a vehicle. Select the fuel that you think will make the vehicle start. </p>","","0","instructions","","","","","","","","",""
"learning-instructions","287","601186","0.0-17.0-0.0-0.0-0.2","1507","2","""event"",""trial"",""time""
""fullscreenenter"",""1"",""3358""
","
","
","""event"",""trial"",""time""
""fullscreenenter"",""1"",""3358""
","
","","","","","","1324.5","<p> To make your selection, think about what you learned last week. You will NOT receive any feedback about your choice. </p>","","0","instructions","","","","","","","","",""
"learning-instructions","288","609526","0.0-17.0-0.0-0.0-0.3","1507","2","""event"",""trial"",""time""
""fullscreenenter"",""1"",""3358""
","
","
","""event"",""trial"",""time""
""fullscreenenter"",""1"",""3358""
","
","","","","","","895.3999999761581","<p> You should use the 1 key to select the fuel on the left, the 2 key to select the fuel in the middle, and the 3 key to select the fuel on the right. </p><br><div class=""choice-mem-instructions-grid""> <div class=""choice-mem-option""><img src=""images/vehicles_choice1.png"" class=""choice-mem-option-img"" stage=""instructions"" position=""0"" ><div class=""choice-mem-option-text""> Press ""1."" </div></div><div class=""choice-mem-option""><img src=""images/vehicles_choice2.png"" class=""choice-mem-option-img"" stage=""instructions"" position=""1"" ><div class=""choice-mem-option-text""> Press ""2."" </div></div><div class=""choice-mem-option""><img src=""images/vehicles_choice3.png"" class=""choice-mem-option-img"" stage=""instructions"" position=""2"" ><div class=""choice-mem-option-text""> Press ""3."" </div></div></div>","","0","instructions","","","","","","","","",""
"learning-instructions","289","616360","0.0-17.0-0.0-0.0-0.4","1507","2","""event"",""trial"",""time""
""fullscreenenter"",""1"",""3358""
","
","
","""event"",""trial"",""time""
""fullscreenenter"",""1"",""3358""
","
","","","","","","567.6000000238419","<p> You will have 10 seconds to make each selection. Try to respond before time runs out! </p>","","0","instructions","","","","","","","","",""
"learning-instructions","290","619584","0.0-17.0-0.0-1.0","1507","2","""event"",""trial"",""time""
""fullscreenenter"",""1"",""3358""
","
","
","""event"",""trial"",""time""
""fullscreenenter"",""1"",""3358""
","
","","","","","","1168","<p> You are now ready to begin the game. </p>","","0","instructions","","","","","","","","",""
"html-keyboard-response","291","620188","0.0-17.0-0.0-2.0-0.0","1507","2","""event"",""trial"",""time""
""fullscreenenter"",""1"",""3358""
","
","
","""event"",""trial"",""time""
""fullscreenenter"",""1"",""3358""
","
","","","","","","null","<div style=""font-size:60px;"">+</div>","null","","fixation","","","","","","","","",""
