"trial_type","trial_index","time_elapsed","internal_node_id","subject_id","task_version","interactions","blur_events","focus_events","fullscreenenter_events","fullscreenexit_events","success","timeout","failed_images","failed_audio","failed_video","rt","stimulus","response"
"pavlovia","0","7","0.0-0.0","1696","2","""event"",""trial"",""time""
""focus"",""0"",""1""
""fullscreenenter"",""1"",""1676""
","
","""event"",""trial"",""time""
""focus"",""0"",""1""
","""event"",""trial"",""time""
""fullscreenenter"",""1"",""1676""
","
","","","","","","","",""
"fullscreen","1","2455","0.0-1.0","1696","2","""event"",""trial"",""time""
""focus"",""0"",""1""
""fullscreenenter"",""1"",""1676""
","
","""event"",""trial"",""time""
""focus"",""0"",""1""
","""event"",""trial"",""time""
""fullscreenenter"",""1"",""1676""
","
","true","","","","","","",""
"preload","2","2596","0.0-2.0","1696","2","""event"",""trial"",""time""
""focus"",""0"",""1""
""fullscreenenter"",""1"",""1676""
","
","""event"",""trial"",""time""
""focus"",""0"",""1""
","""event"",""trial"",""time""
""fullscreenenter"",""1"",""1676""
","
","true","false","[]","[]","[]","","",""
"audio-keyboard-response","3","3647","0.0-3.0","1696","2","""event"",""trial"",""time""
""focus"",""0"",""1""
""fullscreenenter"",""1"",""1676""
","
","""event"",""trial"",""time""
""focus"",""0"",""1""
","""event"",""trial"",""time""
""fullscreenenter"",""1"",""1676""
","
","","","","","","1040","audio/beep_loop.wav"," "
"audio-button-response","4","5449","0.0-4.0","1696","2","""event"",""trial"",""time""
""focus"",""0"",""1""
""fullscreenenter"",""1"",""1676""
","
","""event"",""trial"",""time""
""focus"",""0"",""1""
","""event"",""trial"",""time""
""fullscreenenter"",""1"",""1676""
","
","","","","","","1811","audio/turtle.wav","3"
"audio-button-response","5","7291","0.0-5.0","1696","2","""event"",""trial"",""time""
""focus"",""0"",""1""
""fullscreenenter"",""1"",""1676""
""fullscreenexit"",""6"",""10136""
""blur"",""6"",""12364""
""focus"",""6"",""845544""
""blur"",""6"",""846118""
""focus"",""6"",""1032253""
""blur"",""6"",""1035211""
""focus"",""6"",""1035212""
","""event"",""trial"",""time""
""blur"",""6"",""12364""
""blur"",""6"",""846118""
""blur"",""6"",""1035211""
","""event"",""trial"",""time""
""focus"",""0"",""1""
""focus"",""6"",""845544""
""focus"",""6"",""1032253""
""focus"",""6"",""1035212""
","""event"",""trial"",""time""
""fullscreenenter"",""1"",""1676""
","""event"",""trial"",""time""
""fullscreenexit"",""6"",""10136""
","","","","","","829","audio/shark.wav","2"
