"trial_type","trial_index","time_elapsed","internal_node_id","subject_id","task_version","interactions","blur_events","focus_events","fullscreenenter_events","fullscreenexit_events","success","timeout","failed_images","failed_audio","failed_video","rt","stimulus","response","button_pressed","task_part","key_press","answer","correct","left_choice","middle_choice","right_choice","choice_positions","option_selected","block"
"pavlovia","0","15","0.0-0.0","1996","2","""event"",""trial"",""time""
""focus"",""0"",""2""
""fullscreenenter"",""1"",""5972""
","
","""event"",""trial"",""time""
""focus"",""0"",""2""
","""event"",""trial"",""time""
""fullscreenenter"",""1"",""5972""
","
","","","","","","","","","","","","","","","","","","",""
"fullscreen","1","6725","0.0-1.0","1996","2","""event"",""trial"",""time""
""focus"",""0"",""2""
""fullscreenenter"",""1"",""5972""
","
","""event"",""trial"",""time""
""focus"",""0"",""2""
","""event"",""trial"",""time""
""fullscreenenter"",""1"",""5972""
","
","true","","","","","","","","","","","","","","","","","",""
"preload","2","7414","0.0-2.0","1996","2","""event"",""trial"",""time""
""focus"",""0"",""2""
""fullscreenenter"",""1"",""5972""
","
","""event"",""trial"",""time""
""focus"",""0"",""2""
","""event"",""trial"",""time""
""fullscreenenter"",""1"",""5972""
","
","true","false","[]","[]","[]","","","","","","","","","","","","","",""
"audio-keyboard-response","3","14852","0.0-3.0","1996","2","""event"",""trial"",""time""
""focus"",""0"",""2""
""fullscreenenter"",""1"",""5972""
","
","""event"",""trial"",""time""
""focus"",""0"",""2""
","""event"",""trial"",""time""
""fullscreenenter"",""1"",""5972""
","
","","","","","","7430.385487528345","audio/beep_loop.wav"," ","","","","","","","","","","",""
"audio-button-response","4","17230","0.0-4.0","1996","2","""event"",""trial"",""time""
""focus"",""0"",""2""
""fullscreenenter"",""1"",""5972""
","
","""event"",""trial"",""time""
""focus"",""0"",""2""
","""event"",""trial"",""time""
""fullscreenenter"",""1"",""5972""
","
","","","","","","2392","audio/turtle.wav","3","","","","","","","","","","",""
"audio-button-response","5","19312","0.0-5.0","1996","2","""event"",""trial"",""time""
""focus"",""0"",""2""
""fullscreenenter"",""1"",""5972""
","
","""event"",""trial"",""time""
""focus"",""0"",""2""
","""event"",""trial"",""time""
""fullscreenenter"",""1"",""5972""
","
","","","","","","1080","audio/shark.wav","2","","","","","","","","","","",""
"preload","6","22962","0.0-6.0","1996","2","""event"",""trial"",""time""
""focus"",""0"",""2""
""fullscreenenter"",""1"",""5972""
","
","""event"",""trial"",""time""
""focus"",""0"",""2""
","""event"",""trial"",""time""
""fullscreenenter"",""1"",""5972""
","
","true","false","[]","[]","[]","","","","","","","","","","","","","",""
"learning-instructions","7","30976","0.0-7.0-0.0","1996","2","""event"",""trial"",""time""
""focus"",""0"",""2""
""fullscreenenter"",""1"",""5972""
","
","""event"",""trial"",""time""
""focus"",""0"",""2""
","""event"",""trial"",""time""
""fullscreenenter"",""1"",""5972""
","
","","","","","","3204","<p> Welcome back! </p><p> Last week, you had to make choices about lots of different items.  </p>","","0","instructions","","","","","","","","",""
"learning-instructions","8","36959","0.0-7.0-0.1","1996","2","""event"",""trial"",""time""
""focus"",""0"",""2""
""fullscreenenter"",""1"",""5972""
","
","""event"",""trial"",""time""
""focus"",""0"",""2""
","""event"",""trial"",""time""
""fullscreenenter"",""1"",""5972""
","
","","","","","","1663","<p> Today, we are going to ask you to try to remember all the items. </p>","","0","instructions","","","","","","","","",""
"learning-instructions","9","48420","0.0-7.0-0.2","1996","2","""event"",""trial"",""time""
""focus"",""0"",""2""
""fullscreenenter"",""1"",""5972""
","
","""event"",""trial"",""time""
""focus"",""0"",""2""
","""event"",""trial"",""time""
""fullscreenenter"",""1"",""5972""
","
","","","","","","1318","<p> On every trial, you will see an image. </p><p> The image may be an OLD image you saw during the games last week or it may be a NEW image that was not presented. </p>","","0","instructions","","","","","","","","",""
"learning-instructions","10","63237","0.0-7.0-0.3","1996","2","""event"",""trial"",""time""
""focus"",""0"",""2""
""fullscreenenter"",""1"",""5972""
","
","""event"",""trial"",""time""
""focus"",""0"",""2""
","""event"",""trial"",""time""
""fullscreenenter"",""1"",""5972""
","
","","","","","","6313","<p> You need to select whether the image is:  </p><p>  'Definitely old', 'Maybe old', 'Maybe new', or 'Definitely new.'  </p><div class=""mem-choice-instructions-grid""><div class=""choice-option"" id=""choice-option-1"" ><img src=""images/definitely_old_1.png"" id=""choice-option-img-1"" class=""choice-option-img"" stage=""1""></div><div class=""choice-option"" id=""choice-option-2"" ><img src=""images/maybe_old_1.png"" id=""choice-option-img-2"" class=""choice-option-img"" stage=""1""></div><div class=""choice-option"" id=""choice-option-3"" ><img src=""images/maybe_new_1.png"" id=""choice-option-img-3"" class=""choice-option-img"" stage=""1""></div><div class=""choice-option"" id=""choice-option-4"" > <img src=""images/definitely_new_1.png"" id=""choice-option-img-4"" class=""choice-option-img"" stage=""1""></div></div>","","0","instructions","","","","","","","","",""
"learning-instructions","11","71312","0.0-7.0-0.4","1996","2","""event"",""trial"",""time""
""focus"",""0"",""2""
""fullscreenenter"",""1"",""5972""
","
","""event"",""trial"",""time""
""focus"",""0"",""2""
","""event"",""trial"",""time""
""fullscreenenter"",""1"",""5972""
","
","","","","","","1362","<p> You should use the 1, 2, 3, and 4 keys to make your responses.  </p><div class=""mem-choice-instructions-grid""><div class=""choice-option"" id=""choice-option-1"" ><img src=""images/definitely_old.png"" id=""choice-option-img-1"" class=""choice-option-img"" stage=""1""></div><div class=""choice-option"" id=""choice-option-2"" ><img src=""images/maybe_old.png"" id=""choice-option-img-2"" class=""choice-option-img"" stage=""1""></div><div class=""choice-option"" id=""choice-option-3"" ><img src=""images/maybe_new.png"" id=""choice-option-img-3"" class=""choice-option-img"" stage=""1""></div><div class=""choice-option"" id=""choice-option-4"" > <img src=""images/definitely_new.png"" id=""choice-option-img-4"" class=""choice-option-img"" stage=""1""></div></div>","","0","instructions","","","","","","","","",""
"learning-instructions","12","79117","0.0-7.0-0.5","1996","2","""event"",""trial"",""time""
""focus"",""0"",""2""
""fullscreenenter"",""1"",""5972""
","
","""event"",""trial"",""time""
""focus"",""0"",""2""
","""event"",""trial"",""time""
""fullscreenenter"",""1"",""5972""
","
","","","","","","1029","<p> You will have 10 seconds to make each response.  </p><p>  Make sure to respond before time runs out! </p>","","0","instructions","","","","","","","","",""
"learning-instructions","13","90293","0.0-7.0-0.6","1996","2","""event"",""trial"",""time""
""focus"",""0"",""2""
""fullscreenenter"",""1"",""5972""
","
","""event"",""trial"",""time""
""focus"",""0"",""2""
","""event"",""trial"",""time""
""fullscreenenter"",""1"",""5972""
","
","","","","","","3578","<p> Today, you will see each image ONCE only.  </p><p>  That means none of the images will repeat. </p>","","0","instructions","","","","","","","","",""
"learning-instructions","14","105157","0.0-7.0-0.7","1996","2","""event"",""trial"",""time""
""focus"",""0"",""2""
""fullscreenenter"",""1"",""5972""
","
","""event"",""trial"",""time""
""focus"",""0"",""2""
","""event"",""trial"",""time""
""fullscreenenter"",""1"",""5972""
","
","","","","","","2189","<p> Before you play the real game, it is time to practice. </p><p>  Just like in the real game, some of the images in the practice will be ones you have seen before. </p><p>  Others will be entirely new. </p>","","0","instructions","","","","","","","","",""
"html-button-response","15","109671","0.0-8.0","1996","2","""event"",""trial"",""time""
""focus"",""0"",""2""
""fullscreenenter"",""1"",""5972""
","
","""event"",""trial"",""time""
""focus"",""0"",""2""
","""event"",""trial"",""time""
""fullscreenenter"",""1"",""5972""
","
","","","","","","4412","<p> Ready to practice? </p><p> Remember, use the 1, 2, 3, and 4 keys to make your responses. </p>","0","","instructions","","","","","","","","",""
"html-keyboard-response","16","110281","0.0-9.0-0.0","1996","2","""event"",""trial"",""time""
""focus"",""0"",""2""
""fullscreenenter"",""1"",""5972""
","
","""event"",""trial"",""time""
""focus"",""0"",""2""
","""event"",""trial"",""time""
""fullscreenenter"",""1"",""5972""
","
","","","","","","null","<div style=""font-size:60px;"">+</div>","null","","fixation","","","","","","","","",""
"memory-trial","17","113691","0.0-9.0-1.0","1996","2","""event"",""trial"",""time""
""focus"",""0"",""2""
""fullscreenenter"",""1"",""5972""
","
","""event"",""trial"",""time""
""focus"",""0"",""2""
","""event"",""trial"",""time""
""fullscreenenter"",""1"",""5972""
","
","","","","","","2403","images/racket3.png","","","practice","1","definitely_old","","","","","","",""
"html-keyboard-response","18","114193","0.0-9.0-0.1","1996","2","""event"",""trial"",""time""
""focus"",""0"",""2""
""fullscreenenter"",""1"",""5972""
","
","""event"",""trial"",""time""
""focus"",""0"",""2""
","""event"",""trial"",""time""
""fullscreenenter"",""1"",""5972""
","
","","","","","","null","<div style=""font-size:60px;"">+</div>","null","","fixation","","","","","","","","",""
"memory-trial","19","117079","0.0-9.0-1.1","1996","2","""event"",""trial"",""time""
""focus"",""0"",""2""
""fullscreenenter"",""1"",""5972""
","
","""event"",""trial"",""time""
""focus"",""0"",""2""
","""event"",""trial"",""time""
""fullscreenenter"",""1"",""5972""
","
","","","","","","1879","images/ball1.png","","","practice","3","maybe_new","","","","","","",""
"html-keyboard-response","20","117583","0.0-9.0-0.2","1996","2","""event"",""trial"",""time""
""focus"",""0"",""2""
""fullscreenenter"",""1"",""5972""
","
","""event"",""trial"",""time""
""focus"",""0"",""2""
","""event"",""trial"",""time""
""fullscreenenter"",""1"",""5972""
","
","","","","","","null","<div style=""font-size:60px;"">+</div>","null","","fixation","","","","","","","","",""
"memory-trial","21","121330","0.0-9.0-1.2","1996","2","""event"",""trial"",""time""
""focus"",""0"",""2""
""fullscreenenter"",""1"",""5972""
","
","""event"",""trial"",""time""
""focus"",""0"",""2""
","""event"",""trial"",""time""
""fullscreenenter"",""1"",""5972""
","
","","","","","","2741","images/racket1.png","","","practice","1","definitely_old","","","","","","",""
"html-keyboard-response","22","121834","0.0-9.0-0.3","1996","2","""event"",""trial"",""time""
""focus"",""0"",""2""
""fullscreenenter"",""1"",""5972""
","
","""event"",""trial"",""time""
""focus"",""0"",""2""
","""event"",""trial"",""time""
""fullscreenenter"",""1"",""5972""
","
","","","","","","null","<div style=""font-size:60px;"">+</div>","null","","fixation","","","","","","","","",""
"memory-trial","23","125440","0.0-9.0-1.3","1996","2","""event"",""trial"",""time""
""focus"",""0"",""2""
""fullscreenenter"",""1"",""5972""
","
","""event"",""trial"",""time""
""focus"",""0"",""2""
","""event"",""trial"",""time""
""fullscreenenter"",""1"",""5972""
","
","","","","","","2601","images/ball3.png","","","practice","4","definitely_new","","","","","","",""
"html-keyboard-response","24","125943","0.0-9.0-0.4","1996","2","""event"",""trial"",""time""
""focus"",""0"",""2""
""fullscreenenter"",""1"",""5972""
","
","""event"",""trial"",""time""
""focus"",""0"",""2""
","""event"",""trial"",""time""
""fullscreenenter"",""1"",""5972""
","
","","","","","","null","<div style=""font-size:60px;"">+</div>","null","","fixation","","","","","","","","",""
"memory-trial","25","128548","0.0-9.0-1.4","1996","2","""event"",""trial"",""time""
""focus"",""0"",""2""
""fullscreenenter"",""1"",""5972""
","
","""event"",""trial"",""time""
""focus"",""0"",""2""
","""event"",""trial"",""time""
""fullscreenenter"",""1"",""5972""
","
","","","","","","1598","images/ball4.png","","","practice","1","definitely_old","","","","","","",""
"html-keyboard-response","26","129053","0.0-9.0-0.5","1996","2","""event"",""trial"",""time""
""focus"",""0"",""2""
""fullscreenenter"",""1"",""5972""
","
","""event"",""trial"",""time""
""focus"",""0"",""2""
","""event"",""trial"",""time""
""fullscreenenter"",""1"",""5972""
","
","","","","","","null","<div style=""font-size:60px;"">+</div>","null","","fixation","","","","","","","","",""
"memory-trial","27","132340","0.0-9.0-1.5","1996","2","""event"",""trial"",""time""
""focus"",""0"",""2""
""fullscreenenter"",""1"",""5972""
","
","""event"",""trial"",""time""
""focus"",""0"",""2""
","""event"",""trial"",""time""
""fullscreenenter"",""1"",""5972""
","
","","","","","","2281","images/ball2.png","","","practice","2","maybe_old","","","","","","",""
"html-keyboard-response","28","132841","0.0-9.0-0.6","1996","2","""event"",""trial"",""time""
""focus"",""0"",""2""
""fullscreenenter"",""1"",""5972""
","
","""event"",""trial"",""time""
""focus"",""0"",""2""
","""event"",""trial"",""time""
""fullscreenenter"",""1"",""5972""
","
","","","","","","null","<div style=""font-size:60px;"">+</div>","null","","fixation","","","","","","","","",""
"memory-trial","29","136774","0.0-9.0-1.6","1996","2","""event"",""trial"",""time""
""focus"",""0"",""2""
""fullscreenenter"",""1"",""5972""
","
","""event"",""trial"",""time""
""focus"",""0"",""2""
","""event"",""trial"",""time""
""fullscreenenter"",""1"",""5972""
","
","","","","","","2929","images/racket2.png","","","practice","3","maybe_new","","","","","","",""
"html-keyboard-response","30","137281","0.0-9.0-0.7","1996","2","""event"",""trial"",""time""
""focus"",""0"",""2""
""fullscreenenter"",""1"",""5972""
","
","""event"",""trial"",""time""
""focus"",""0"",""2""
","""event"",""trial"",""time""
""fullscreenenter"",""1"",""5972""
","
","","","","","","null","<div style=""font-size:60px;"">+</div>","null","","fixation","","","","","","","","",""
"memory-trial","31","140327","0.0-9.0-1.7","1996","2","""event"",""trial"",""time""
""focus"",""0"",""2""
""fullscreenenter"",""1"",""5972""
","
","""event"",""trial"",""time""
""focus"",""0"",""2""
","""event"",""trial"",""time""
""fullscreenenter"",""1"",""5972""
","
","","","","","","2041","images/racket4.png","","","practice","1","definitely_old","","","","","","",""
"learning-instructions","32","150652","0.0-10.0-0.0","1996","2","""event"",""trial"",""time""
""focus"",""0"",""2""
""fullscreenenter"",""1"",""5972""
","
","""event"",""trial"",""time""
""focus"",""0"",""2""
","""event"",""trial"",""time""
""fullscreenenter"",""1"",""5972""
","
","","","","","","2361","<p> Great! You have completed the practice. </p><p> Before you start, we're going to ask you a few questions about how the game works.  </p>","","0","instructions","","","","","","","","",""
"preload","33","152378","0.0-11.0","1996","2","""event"",""trial"",""time""
""focus"",""0"",""2""
""fullscreenenter"",""1"",""5972""
","
","""event"",""trial"",""time""
""focus"",""0"",""2""
","""event"",""trial"",""time""
""fullscreenenter"",""1"",""5972""
","
","true","false","[]","[]","[]","","","","","","","","","","","","","",""
"comp-q","34","160530","0.0-12.0-0.0","1996","2","""event"",""trial"",""time""
""focus"",""0"",""2""
""fullscreenenter"",""1"",""5972""
","
","""event"",""trial"",""time""
""focus"",""0"",""2""
","""event"",""trial"",""time""
""fullscreenenter"",""1"",""5972""
","
","","","","","","2313","<p> <b> True or False? </b> </p><p> In this game, you will only see each image once. </p>","","0","comp_question","","","true","","","","","",""
"comp-q","35","168462","0.0-12.0-1.0","1996","2","""event"",""trial"",""time""
""focus"",""0"",""2""
""fullscreenenter"",""1"",""5972""
","
","""event"",""trial"",""time""
""focus"",""0"",""2""
","""event"",""trial"",""time""
""fullscreenenter"",""1"",""5972""
","
","","","","","","1584","<p> <b> That's right! </b> You will see many different images <i> one time each </i> in this game. </p>","","0","comp_answer","","","","","","","","",""
"comp-q","36","175254","0.0-12.0-0.1","1996","2","""event"",""trial"",""time""
""focus"",""0"",""2""
""fullscreenenter"",""1"",""5972""
","
","""event"",""trial"",""time""
""focus"",""0"",""2""
","""event"",""trial"",""time""
""fullscreenenter"",""1"",""5972""
","
","","","","","","980","<p> <b> True or False? </b> </p><p> You should use the mouse and click to make your response. </p>","","1","comp_question","","","true","","","","","",""
"comp-q","37","190062","0.0-12.0-1.1","1996","2","""event"",""trial"",""time""
""focus"",""0"",""2""
""fullscreenenter"",""1"",""5972""
","
","""event"",""trial"",""time""
""focus"",""0"",""2""
","""event"",""trial"",""time""
""fullscreenenter"",""1"",""5972""
","
","","","","","","7451","<p><b> That's right! </b> You should use the '1', '2', '3', and '4' keys to make your response. </p>","","0","comp_answer","","","","","","","","",""
"comp-q","38","197614","0.0-12.0-0.2","1996","2","""event"",""trial"",""time""
""focus"",""0"",""2""
""fullscreenenter"",""1"",""5972""
","
","""event"",""trial"",""time""
""focus"",""0"",""2""
","""event"",""trial"",""time""
""fullscreenenter"",""1"",""5972""
","
","","","","","","1549","<p> <b> True or False? </b> </p><p> You will have as much time as you want to make each choice. </p>","","1","comp_question","","","true","","","","","",""
"comp-q","39","208073","0.0-12.0-1.2","1996","2","""event"",""trial"",""time""
""focus"",""0"",""2""
""fullscreenenter"",""1"",""5972""
","
","""event"",""trial"",""time""
""focus"",""0"",""2""
","""event"",""trial"",""time""
""fullscreenenter"",""1"",""5972""
","
","","","","","","5053","<p> <b> That's right! </b> You will only have 10 seconds to make each choice. </p>","","0","comp_answer","","","","","","","","",""
"learning-instructions","40","228426","0.0-13.0","1996","2","""event"",""trial"",""time""
""focus"",""0"",""2""
""fullscreenenter"",""1"",""5972""
","
","""event"",""trial"",""time""
""focus"",""0"",""2""
","""event"",""trial"",""time""
""fullscreenenter"",""1"",""5972""
","
","","","","","","11672","<p> Great! You are now ready to begin the game. </p><p> Remember, use the 1, 2, 3, and 4 keys to make your responses. </p>","","0","instructions","","","","","","","","",""
"preload","41","231659","0.0-14.0","1996","2","""event"",""trial"",""time""
""focus"",""0"",""2""
""fullscreenenter"",""1"",""5972""
","
","""event"",""trial"",""time""
""focus"",""0"",""2""
","""event"",""trial"",""time""
""fullscreenenter"",""1"",""5972""
","
","true","false","[]","[]","[]","","","","","","","","","","","","","",""
"html-keyboard-response","42","232160","0.0-15.0-0.0","1996","2","""event"",""trial"",""time""
""focus"",""0"",""2""
""fullscreenenter"",""1"",""5972""
","
","""event"",""trial"",""time""
""focus"",""0"",""2""
","""event"",""trial"",""time""
""fullscreenenter"",""1"",""5972""
","
","","","","","","null","<div style=""font-size:60px;"">+</div>","null","","fixation","","","","","","","","",""
"memory-trial","43","235806","0.0-15.0-1.0","1996","2","""event"",""trial"",""time""
""focus"",""0"",""2""
""fullscreenenter"",""1"",""5972""
","
","""event"",""trial"",""time""
""focus"",""0"",""2""
","""event"",""trial"",""time""
""fullscreenenter"",""1"",""5972""
","
","","","","","","2640","images/tree1.png","","","memory_trial","1","definitely_old","","","","","","",""
"html-keyboard-response","44","236312","0.0-15.0-0.1","1996","2","""event"",""trial"",""time""
""focus"",""0"",""2""
""fullscreenenter"",""1"",""5972""
","
","""event"",""trial"",""time""
""focus"",""0"",""2""
","""event"",""trial"",""time""
""fullscreenenter"",""1"",""5972""
","
","","","","","","null","<div style=""font-size:60px;"">+</div>","null","","fixation","","","","","","","","",""
"memory-trial","45","239231","0.0-15.0-1.1","1996","2","""event"",""trial"",""time""
""focus"",""0"",""2""
""fullscreenenter"",""1"",""5972""
","
","""event"",""trial"",""time""
""focus"",""0"",""2""
","""event"",""trial"",""time""
""fullscreenenter"",""1"",""5972""
","
","","","","","","1912","images/rabbit3.png","","","memory_trial","2","maybe_old","","","","","","",""
"html-keyboard-response","46","239737","0.0-15.0-0.2","1996","2","""event"",""trial"",""time""
""focus"",""0"",""2""
""fullscreenenter"",""1"",""5972""
","
","""event"",""trial"",""time""
""focus"",""0"",""2""
","""event"",""trial"",""time""
""fullscreenenter"",""1"",""5972""
","
","","","","","","null","<div style=""font-size:60px;"">+</div>","null","","fixation","","","","","","","","",""
"memory-trial","47","242033","0.0-15.0-1.2","1996","2","""event"",""trial"",""time""
""focus"",""0"",""2""
""fullscreenenter"",""1"",""5972""
","
","""event"",""trial"",""time""
""focus"",""0"",""2""
","""event"",""trial"",""time""
""fullscreenenter"",""1"",""5972""
","
","","","","","","1291","images/feline1.png","","","memory_trial","1","definitely_old","","","","","","",""
"html-keyboard-response","48","242539","0.0-15.0-0.3","1996","2","""event"",""trial"",""time""
""focus"",""0"",""2""
""fullscreenenter"",""1"",""5972""
","
","""event"",""trial"",""time""
""focus"",""0"",""2""
","""event"",""trial"",""time""
""fullscreenenter"",""1"",""5972""
","
","","","","","","null","<div style=""font-size:60px;"">+</div>","null","","fixation","","","","","","","","",""
"memory-trial","49","245195","0.0-15.0-1.3","1996","2","""event"",""trial"",""time""
""focus"",""0"",""2""
""fullscreenenter"",""1"",""5972""
","
","""event"",""trial"",""time""
""focus"",""0"",""2""
","""event"",""trial"",""time""
""fullscreenenter"",""1"",""5972""
","
","","","","","","1651","images/rabbit5.png","","","memory_trial","1","definitely_old","","","","","","",""
"html-keyboard-response","50","245697","0.0-15.0-0.4","1996","2","""event"",""trial"",""time""
""focus"",""0"",""2""
""fullscreenenter"",""1"",""5972""
","
","""event"",""trial"",""time""
""focus"",""0"",""2""
","""event"",""trial"",""time""
""fullscreenenter"",""1"",""5972""
","
","","","","","","null","<div style=""font-size:60px;"">+</div>","null","","fixation","","","","","","","","",""
"memory-trial","51","249191","0.0-15.0-1.4","1996","2","""event"",""trial"",""time""
""focus"",""0"",""2""
""fullscreenenter"",""1"",""5972""
","
","""event"",""trial"",""time""
""focus"",""0"",""2""
","""event"",""trial"",""time""
""fullscreenenter"",""1"",""5972""
","
","","","","","","2490","images/goat4.png","","","memory_trial","2","maybe_old","","","","","","",""
"html-keyboard-response","52","249697","0.0-15.0-0.5","1996","2","""event"",""trial"",""time""
""focus"",""0"",""2""
""fullscreenenter"",""1"",""5972""
","
","""event"",""trial"",""time""
""focus"",""0"",""2""
","""event"",""trial"",""time""
""fullscreenenter"",""1"",""5972""
","
","","","","","","null","<div style=""font-size:60px;"">+</div>","null","","fixation","","","","","","","","",""
"memory-trial","53","252425","0.0-15.0-1.5","1996","2","""event"",""trial"",""time""
""focus"",""0"",""2""
""fullscreenenter"",""1"",""5972""
","
","""event"",""trial"",""time""
""focus"",""0"",""2""
","""event"",""trial"",""time""
""fullscreenenter"",""1"",""5972""
","
","","","","","","1722","images/orange4.png","","","memory_trial","1","definitely_old","","","","","","",""
"html-keyboard-response","54","252930","0.0-15.0-0.6","1996","2","""event"",""trial"",""time""
""focus"",""0"",""2""
""fullscreenenter"",""1"",""5972""
","
","""event"",""trial"",""time""
""focus"",""0"",""2""
","""event"",""trial"",""time""
""fullscreenenter"",""1"",""5972""
","
","","","","","","null","<div style=""font-size:60px;"">+</div>","null","","fixation","","","","","","","","",""
"memory-trial","55","255952","0.0-15.0-1.6","1996","2","""event"",""trial"",""time""
""focus"",""0"",""2""
""fullscreenenter"",""1"",""5972""
","
","""event"",""trial"",""time""
""focus"",""0"",""2""
","""event"",""trial"",""time""
""fullscreenenter"",""1"",""5972""
","
","","","","","","2018","images/straw4.png","","","memory_trial","4","definitely_new","","","","","","",""
"html-keyboard-response","56","256459","0.0-15.0-0.7","1996","2","""event"",""trial"",""time""
""focus"",""0"",""2""
""fullscreenenter"",""1"",""5972""
","
","""event"",""trial"",""time""
""focus"",""0"",""2""
","""event"",""trial"",""time""
""fullscreenenter"",""1"",""5972""
","
","","","","","","null","<div style=""font-size:60px;"">+</div>","null","","fixation","","","","","","","","",""
"memory-trial","57","259314","0.0-15.0-1.7","1996","2","""event"",""trial"",""time""
""focus"",""0"",""2""
""fullscreenenter"",""1"",""5972""
","
","""event"",""trial"",""time""
""focus"",""0"",""2""
","""event"",""trial"",""time""
""fullscreenenter"",""1"",""5972""
","
","","","","","","1850","images/rabbit1.png","","","memory_trial","1","definitely_old","","","","","","",""
"html-keyboard-response","58","259820","0.0-15.0-0.8","1996","2","""event"",""trial"",""time""
""focus"",""0"",""2""
""fullscreenenter"",""1"",""5972""
","
","""event"",""trial"",""time""
""focus"",""0"",""2""
","""event"",""trial"",""time""
""fullscreenenter"",""1"",""5972""
","
","","","","","","null","<div style=""font-size:60px;"">+</div>","null","","fixation","","","","","","","","",""
"memory-trial","59","262723","0.0-15.0-1.8","1996","2","""event"",""trial"",""time""
""focus"",""0"",""2""
""fullscreenenter"",""1"",""5972""
","
","""event"",""trial"",""time""
""focus"",""0"",""2""
","""event"",""trial"",""time""
""fullscreenenter"",""1"",""5972""
","
","","","","","","1898","images/sheep1.png","","","memory_trial","4","definitely_new","","","","","","",""
"html-keyboard-response","60","263224","0.0-15.0-0.9","1996","2","""event"",""trial"",""time""
""focus"",""0"",""2""
""fullscreenenter"",""1"",""5972""
","
","""event"",""trial"",""time""
""focus"",""0"",""2""
","""event"",""trial"",""time""
""fullscreenenter"",""1"",""5972""
","
","","","","","","null","<div style=""font-size:60px;"">+</div>","null","","fixation","","","","","","","","",""
"memory-trial","61","266911","0.0-15.0-1.9","1996","2","""event"",""trial"",""time""
""focus"",""0"",""2""
""fullscreenenter"",""1"",""5972""
","
","""event"",""trial"",""time""
""focus"",""0"",""2""
","""event"",""trial"",""time""
""fullscreenenter"",""1"",""5972""
","
","","","","","","2681","images/banana1.png","","","memory_trial","4","definitely_new","","","","","","",""
"html-keyboard-response","62","267416","0.0-15.0-0.10","1996","2","""event"",""trial"",""time""
""focus"",""0"",""2""
""fullscreenenter"",""1"",""5972""
","
","""event"",""trial"",""time""
""focus"",""0"",""2""
","""event"",""trial"",""time""
""fullscreenenter"",""1"",""5972""
","
","","","","","","null","<div style=""font-size:60px;"">+</div>","null","","fixation","","","","","","","","",""
"memory-trial","63","270278","0.0-15.0-1.10","1996","2","""event"",""trial"",""time""
""focus"",""0"",""2""
""fullscreenenter"",""1"",""5972""
","
","""event"",""trial"",""time""
""focus"",""0"",""2""
","""event"",""trial"",""time""
""fullscreenenter"",""1"",""5972""
","
","","","","","","1856","images/bed1.png","","","memory_trial","1","definitely_old","","","","","","",""
"html-keyboard-response","64","270784","0.0-15.0-0.11","1996","2","""event"",""trial"",""time""
""focus"",""0"",""2""
""fullscreenenter"",""1"",""5972""
","
","""event"",""trial"",""time""
""focus"",""0"",""2""
","""event"",""trial"",""time""
""fullscreenenter"",""1"",""5972""
","
","","","","","","null","<div style=""font-size:60px;"">+</div>","null","","fixation","","","","","","","","",""
"memory-trial","65","273621","0.0-15.0-1.11","1996","2","""event"",""trial"",""time""
""focus"",""0"",""2""
""fullscreenenter"",""1"",""5972""
","
","""event"",""trial"",""time""
""focus"",""0"",""2""
","""event"",""trial"",""time""
""fullscreenenter"",""1"",""5972""
","
","","","","","","1832","images/horse2.png","","","memory_trial","1","definitely_old","","","","","","",""
"html-keyboard-response","66","274127","0.0-15.0-0.12","1996","2","""event"",""trial"",""time""
""focus"",""0"",""2""
""fullscreenenter"",""1"",""5972""
","
","""event"",""trial"",""time""
""focus"",""0"",""2""
","""event"",""trial"",""time""
""fullscreenenter"",""1"",""5972""
","
","","","","","","null","<div style=""font-size:60px;"">+</div>","null","","fixation","","","","","","","","",""
"memory-trial","67","278340","0.0-15.0-1.12","1996","2","""event"",""trial"",""time""
""focus"",""0"",""2""
""fullscreenenter"",""1"",""5972""
","
","""event"",""trial"",""time""
""focus"",""0"",""2""
","""event"",""trial"",""time""
""fullscreenenter"",""1"",""5972""
","
","","","","","","3208","images/sheep2.png","","","memory_trial","4","definitely_new","","","","","","",""
"html-keyboard-response","68","278842","0.0-15.0-0.13","1996","2","""event"",""trial"",""time""
""focus"",""0"",""2""
""fullscreenenter"",""1"",""5972""
","
","""event"",""trial"",""time""
""focus"",""0"",""2""
","""event"",""trial"",""time""
""fullscreenenter"",""1"",""5972""
","
","","","","","","null","<div style=""font-size:60px;"">+</div>","null","","fixation","","","","","","","","",""
"memory-trial","69","281320","0.0-15.0-1.13","1996","2","""event"",""trial"",""time""
""focus"",""0"",""2""
""fullscreenenter"",""1"",""5972""
","
","""event"",""trial"",""time""
""focus"",""0"",""2""
","""event"",""trial"",""time""
""fullscreenenter"",""1"",""5972""
","
","","","","","","1472","images/plane4.png","","","memory_trial","1","definitely_old","","","","","","",""
"html-keyboard-response","70","281825","0.0-15.0-0.14","1996","2","""event"",""trial"",""time""
""focus"",""0"",""2""
""fullscreenenter"",""1"",""5972""
","
","""event"",""trial"",""time""
""focus"",""0"",""2""
","""event"",""trial"",""time""
""fullscreenenter"",""1"",""5972""
","
","","","","","","null","<div style=""font-size:60px;"">+</div>","null","","fixation","","","","","","","","",""
"memory-trial","71","284955","0.0-15.0-1.14","1996","2","""event"",""trial"",""time""
""focus"",""0"",""2""
""fullscreenenter"",""1"",""5972""
","
","""event"",""trial"",""time""
""focus"",""0"",""2""
","""event"",""trial"",""time""
""fullscreenenter"",""1"",""5972""
","
","","","","","","2124","images/cactus3.png","","","memory_trial","4","definitely_new","","","","","","",""
"html-keyboard-response","72","285460","0.0-15.0-0.15","1996","2","""event"",""trial"",""time""
""focus"",""0"",""2""
""fullscreenenter"",""1"",""5972""
","
","""event"",""trial"",""time""
""focus"",""0"",""2""
","""event"",""trial"",""time""
""fullscreenenter"",""1"",""5972""
","
","","","","","","null","<div style=""font-size:60px;"">+</div>","null","","fixation","","","","","","","","",""
"memory-trial","73","289449","0.0-15.0-1.15","1996","2","""event"",""trial"",""time""
""focus"",""0"",""2""
""fullscreenenter"",""1"",""5972""
","
","""event"",""trial"",""time""
""focus"",""0"",""2""
","""event"",""trial"",""time""
""fullscreenenter"",""1"",""5972""
","
","","","","","","2983","images/plane3.png","","","memory_trial","4","definitely_new","","","","","","",""
"html-keyboard-response","74","289953","0.0-15.0-0.16","1996","2","""event"",""trial"",""time""
""focus"",""0"",""2""
""fullscreenenter"",""1"",""5972""
","
","""event"",""trial"",""time""
""focus"",""0"",""2""
","""event"",""trial"",""time""
""fullscreenenter"",""1"",""5972""
","
","","","","","","null","<div style=""font-size:60px;"">+</div>","null","","fixation","","","","","","","","",""
"memory-trial","75","292536","0.0-15.0-1.16","1996","2","""event"",""trial"",""time""
""focus"",""0"",""2""
""fullscreenenter"",""1"",""5972""
","
","""event"",""trial"",""time""
""focus"",""0"",""2""
","""event"",""trial"",""time""
""fullscreenenter"",""1"",""5972""
","
","","","","","","1577","images/apple1.png","","","memory_trial","4","definitely_new","","","","","","",""
"html-keyboard-response","76","293037","0.0-15.0-0.17","1996","2","""event"",""trial"",""time""
""focus"",""0"",""2""
""fullscreenenter"",""1"",""5972""
","
","""event"",""trial"",""time""
""focus"",""0"",""2""
","""event"",""trial"",""time""
""fullscreenenter"",""1"",""5972""
","
","","","","","","null","<div style=""font-size:60px;"">+</div>","null","","fixation","","","","","","","","",""
"memory-trial","77","295898","0.0-15.0-1.17","1996","2","""event"",""trial"",""time""
""focus"",""0"",""2""
""fullscreenenter"",""1"",""5972""
","
","""event"",""trial"",""time""
""focus"",""0"",""2""
","""event"",""trial"",""time""
""fullscreenenter"",""1"",""5972""
","
","","","","","","1858","images/cow3.png","","","memory_trial","1","definitely_old","","","","","","",""
"html-keyboard-response","78","296403","0.0-15.0-0.18","1996","2","""event"",""trial"",""time""
""focus"",""0"",""2""
""fullscreenenter"",""1"",""5972""
","
","""event"",""trial"",""time""
""focus"",""0"",""2""
","""event"",""trial"",""time""
""fullscreenenter"",""1"",""5972""
","
","","","","","","null","<div style=""font-size:60px;"">+</div>","null","","fixation","","","","","","","","",""
"memory-trial","79","301071","0.0-15.0-1.18","1996","2","""event"",""trial"",""time""
""focus"",""0"",""2""
""fullscreenenter"",""1"",""5972""
","
","""event"",""trial"",""time""
""focus"",""0"",""2""
","""event"",""trial"",""time""
""fullscreenenter"",""1"",""5972""
","
","","","","","","3663","images/bush5.png","","","memory_trial","4","definitely_new","","","","","","",""
"html-keyboard-response","80","301575","0.0-15.0-0.19","1996","2","""event"",""trial"",""time""
""focus"",""0"",""2""
""fullscreenenter"",""1"",""5972""
","
","""event"",""trial"",""time""
""focus"",""0"",""2""
","""event"",""trial"",""time""
""fullscreenenter"",""1"",""5972""
","
","","","","","","null","<div style=""font-size:60px;"">+</div>","null","","fixation","","","","","","","","",""
"memory-trial","81","304340","0.0-15.0-1.19","1996","2","""event"",""trial"",""time""
""focus"",""0"",""2""
""fullscreenenter"",""1"",""5972""
","
","""event"",""trial"",""time""
""focus"",""0"",""2""
","""event"",""trial"",""time""
""fullscreenenter"",""1"",""5972""
","
","","","","","","1761","images/flower4.png","","","memory_trial","1","definitely_old","","","","","","",""
"html-keyboard-response","82","304846","0.0-15.0-0.20","1996","2","""event"",""trial"",""time""
""focus"",""0"",""2""
""fullscreenenter"",""1"",""5972""
","
","""event"",""trial"",""time""
""focus"",""0"",""2""
","""event"",""trial"",""time""
""fullscreenenter"",""1"",""5972""
","
","","","","","","null","<div style=""font-size:60px;"">+</div>","null","","fixation","","","","","","","","",""
"memory-trial","83","307503","0.0-15.0-1.20","1996","2","""event"",""trial"",""time""
""focus"",""0"",""2""
""fullscreenenter"",""1"",""5972""
","
","""event"",""trial"",""time""
""focus"",""0"",""2""
","""event"",""trial"",""time""
""fullscreenenter"",""1"",""5972""
","
","","","","","","1652","images/truck2.png","","","memory_trial","4","definitely_new","","","","","","",""
"html-keyboard-response","84","308010","0.0-15.0-0.21","1996","2","""event"",""trial"",""time""
""focus"",""0"",""2""
""fullscreenenter"",""1"",""5972""
","
","""event"",""trial"",""time""
""focus"",""0"",""2""
","""event"",""trial"",""time""
""fullscreenenter"",""1"",""5972""
","
","","","","","","null","<div style=""font-size:60px;"">+</div>","null","","fixation","","","","","","","","",""
"memory-trial","85","310944","0.0-15.0-1.21","1996","2","""event"",""trial"",""time""
""focus"",""0"",""2""
""fullscreenenter"",""1"",""5972""
","
","""event"",""trial"",""time""
""focus"",""0"",""2""
","""event"",""trial"",""time""
""fullscreenenter"",""1"",""5972""
","
","","","","","","1929","images/bush4.png","","","memory_trial","1","definitely_old","","","","","","",""
"html-keyboard-response","86","311449","0.0-15.0-0.22","1996","2","""event"",""trial"",""time""
""focus"",""0"",""2""
""fullscreenenter"",""1"",""5972""
","
","""event"",""trial"",""time""
""focus"",""0"",""2""
","""event"",""trial"",""time""
""fullscreenenter"",""1"",""5972""
","
","","","","","","null","<div style=""font-size:60px;"">+</div>","null","","fixation","","","","","","","","",""
"memory-trial","87","314943","0.0-15.0-1.22","1996","2","""event"",""trial"",""time""
""focus"",""0"",""2""
""fullscreenenter"",""1"",""5972""
","
","""event"",""trial"",""time""
""focus"",""0"",""2""
","""event"",""trial"",""time""
""fullscreenenter"",""1"",""5972""
","
","","","","","","2489","images/orange5.png","","","memory_trial","4","definitely_new","","","","","","",""
"html-keyboard-response","88","315448","0.0-15.0-0.23","1996","2","""event"",""trial"",""time""
""focus"",""0"",""2""
""fullscreenenter"",""1"",""5972""
","
","""event"",""trial"",""time""
""focus"",""0"",""2""
","""event"",""trial"",""time""
""fullscreenenter"",""1"",""5972""
","
","","","","","","null","<div style=""font-size:60px;"">+</div>","null","","fixation","","","","","","","","",""
"memory-trial","89","319140","0.0-15.0-1.23","1996","2","""event"",""trial"",""time""
""focus"",""0"",""2""
""fullscreenenter"",""1"",""5972""
","
","""event"",""trial"",""time""
""focus"",""0"",""2""
","""event"",""trial"",""time""
""fullscreenenter"",""1"",""5972""
","
","","","","","","2688","images/chair1.png","","","memory_trial","1","definitely_old","","","","","","",""
"html-keyboard-response","90","319646","0.0-15.0-0.24","1996","2","""event"",""trial"",""time""
""focus"",""0"",""2""
""fullscreenenter"",""1"",""5972""
","
","""event"",""trial"",""time""
""focus"",""0"",""2""
","""event"",""trial"",""time""
""fullscreenenter"",""1"",""5972""
","
","","","","","","null","<div style=""font-size:60px;"">+</div>","null","","fixation","","","","","","","","",""
"memory-trial","91","323462","0.0-15.0-1.24","1996","2","""event"",""trial"",""time""
""focus"",""0"",""2""
""fullscreenenter"",""1"",""5972""
","
","""event"",""trial"",""time""
""focus"",""0"",""2""
","""event"",""trial"",""time""
""fullscreenenter"",""1"",""5972""
","
","","","","","","2811","images/straw1.png","","","memory_trial","4","definitely_new","","","","","","",""
"html-keyboard-response","92","323965","0.0-15.0-0.25","1996","2","""event"",""trial"",""time""
""focus"",""0"",""2""
""fullscreenenter"",""1"",""5972""
","
","""event"",""trial"",""time""
""focus"",""0"",""2""
","""event"",""trial"",""time""
""fullscreenenter"",""1"",""5972""
","
","","","","","","null","<div style=""font-size:60px;"">+</div>","null","","fixation","","","","","","","","",""
"memory-trial","93","329756","0.0-15.0-1.25","1996","2","""event"",""trial"",""time""
""focus"",""0"",""2""
""fullscreenenter"",""1"",""5972""
","
","""event"",""trial"",""time""
""focus"",""0"",""2""
","""event"",""trial"",""time""
""fullscreenenter"",""1"",""5972""
","
","","","","","","4785","images/table3.png","","","memory_trial","4","definitely_new","","","","","","",""
"html-keyboard-response","94","330262","0.0-15.0-0.26","1996","2","""event"",""trial"",""time""
""focus"",""0"",""2""
""fullscreenenter"",""1"",""5972""
","
","""event"",""trial"",""time""
""focus"",""0"",""2""
","""event"",""trial"",""time""
""fullscreenenter"",""1"",""5972""
","
","","","","","","null","<div style=""font-size:60px;"">+</div>","null","","fixation","","","","","","","","",""
"memory-trial","95","333388","0.0-15.0-1.26","1996","2","""event"",""trial"",""time""
""focus"",""0"",""2""
""fullscreenenter"",""1"",""5972""
","
","""event"",""trial"",""time""
""focus"",""0"",""2""
","""event"",""trial"",""time""
""fullscreenenter"",""1"",""5972""
","
","","","","","","2119","images/cactus1.png","","","memory_trial","4","definitely_new","","","","","","",""
"html-keyboard-response","96","333893","0.0-15.0-0.27","1996","2","""event"",""trial"",""time""
""focus"",""0"",""2""
""fullscreenenter"",""1"",""5972""
","
","""event"",""trial"",""time""
""focus"",""0"",""2""
","""event"",""trial"",""time""
""fullscreenenter"",""1"",""5972""
","
","","","","","","null","<div style=""font-size:60px;"">+</div>","null","","fixation","","","","","","","","",""
"memory-trial","97","338020","0.0-15.0-1.27","1996","2","""event"",""trial"",""time""
""focus"",""0"",""2""
""fullscreenenter"",""1"",""5972""
","
","""event"",""trial"",""time""
""focus"",""0"",""2""
","""event"",""trial"",""time""
""fullscreenenter"",""1"",""5972""
","
","","","","","","3121","images/bed2.png","","","memory_trial","1","definitely_old","","","","","","",""
"html-keyboard-response","98","338526","0.0-15.0-0.28","1996","2","""event"",""trial"",""time""
""focus"",""0"",""2""
""fullscreenenter"",""1"",""5972""
","
","""event"",""trial"",""time""
""focus"",""0"",""2""
","""event"",""trial"",""time""
""fullscreenenter"",""1"",""5972""
","
","","","","","","null","<div style=""font-size:60px;"">+</div>","null","","fixation","","","","","","","","",""
"memory-trial","99","341394","0.0-15.0-1.28","1996","2","""event"",""trial"",""time""
""focus"",""0"",""2""
""fullscreenenter"",""1"",""5972""
","
","""event"",""trial"",""time""
""focus"",""0"",""2""
","""event"",""trial"",""time""
""fullscreenenter"",""1"",""5972""
","
","","","","","","1862","images/cactus5.png","","","memory_trial","4","definitely_new","","","","","","",""
"html-keyboard-response","100","341895","0.0-15.0-0.29","1996","2","""event"",""trial"",""time""
""focus"",""0"",""2""
""fullscreenenter"",""1"",""5972""
","
","""event"",""trial"",""time""
""focus"",""0"",""2""
","""event"",""trial"",""time""
""fullscreenenter"",""1"",""5972""
","
","","","","","","null","<div style=""font-size:60px;"">+</div>","null","","fixation","","","","","","","","",""
"memory-trial","101","344078","0.0-15.0-1.29","1996","2","""event"",""trial"",""time""
""focus"",""0"",""2""
""fullscreenenter"",""1"",""5972""
","
","""event"",""trial"",""time""
""focus"",""0"",""2""
","""event"",""trial"",""time""
""fullscreenenter"",""1"",""5972""
","
","","","","","","1179","images/orange1.png","","","memory_trial","4","definitely_new","","","","","","",""
"html-keyboard-response","102","344584","0.0-15.0-0.30","1996","2","""event"",""trial"",""time""
""focus"",""0"",""2""
""fullscreenenter"",""1"",""5972""
","
","""event"",""trial"",""time""
""focus"",""0"",""2""
","""event"",""trial"",""time""
""fullscreenenter"",""1"",""5972""
","
","","","","","","null","<div style=""font-size:60px;"">+</div>","null","","fixation","","","","","","","","",""
"memory-trial","103","347108","0.0-15.0-1.30","1996","2","""event"",""trial"",""time""
""focus"",""0"",""2""
""fullscreenenter"",""1"",""5972""
","
","""event"",""trial"",""time""
""focus"",""0"",""2""
","""event"",""trial"",""time""
""fullscreenenter"",""1"",""5972""
","
","","","","","","1519","images/table5.png","","","memory_trial","4","definitely_new","","","","","","",""
"html-keyboard-response","104","347614","0.0-15.0-0.31","1996","2","""event"",""trial"",""time""
""focus"",""0"",""2""
""fullscreenenter"",""1"",""5972""
","
","""event"",""trial"",""time""
""focus"",""0"",""2""
","""event"",""trial"",""time""
""fullscreenenter"",""1"",""5972""
","
","","","","","","null","<div style=""font-size:60px;"">+</div>","null","","fixation","","","","","","","","",""
"memory-trial","105","350141","0.0-15.0-1.31","1996","2","""event"",""trial"",""time""
""focus"",""0"",""2""
""fullscreenenter"",""1"",""5972""
","
","""event"",""trial"",""time""
""focus"",""0"",""2""
","""event"",""trial"",""time""
""fullscreenenter"",""1"",""5972""
","
","","","","","","1522","images/banana2.png","","","memory_trial","4","definitely_new","","","","","","",""
"html-keyboard-response","106","350648","0.0-15.0-0.32","1996","2","""event"",""trial"",""time""
""focus"",""0"",""2""
""fullscreenenter"",""1"",""5972""
","
","""event"",""trial"",""time""
""focus"",""0"",""2""
","""event"",""trial"",""time""
""fullscreenenter"",""1"",""5972""
","
","","","","","","null","<div style=""font-size:60px;"">+</div>","null","","fixation","","","","","","","","",""
"memory-trial","107","353230","0.0-15.0-1.32","1996","2","""event"",""trial"",""time""
""focus"",""0"",""2""
""fullscreenenter"",""1"",""5972""
","
","""event"",""trial"",""time""
""focus"",""0"",""2""
","""event"",""trial"",""time""
""fullscreenenter"",""1"",""5972""
","
","","","","","","1577","images/flower1.png","","","memory_trial","1","definitely_old","","","","","","",""
"html-keyboard-response","108","353737","0.0-15.0-0.33","1996","2","""event"",""trial"",""time""
""focus"",""0"",""2""
""fullscreenenter"",""1"",""5972""
","
","""event"",""trial"",""time""
""focus"",""0"",""2""
","""event"",""trial"",""time""
""fullscreenenter"",""1"",""5972""
","
","","","","","","null","<div style=""font-size:60px;"">+</div>","null","","fixation","","","","","","","","",""
"memory-trial","109","357116","0.0-15.0-1.33","1996","2","""event"",""trial"",""time""
""focus"",""0"",""2""
""fullscreenenter"",""1"",""5972""
","
","""event"",""trial"",""time""
""focus"",""0"",""2""
","""event"",""trial"",""time""
""fullscreenenter"",""1"",""5972""
","
","","","","","","2373","images/rabbit2.png","","","memory_trial","2","maybe_old","","","","","","",""
"html-keyboard-response","110","357618","0.0-15.0-0.34","1996","2","""event"",""trial"",""time""
""focus"",""0"",""2""
""fullscreenenter"",""1"",""5972""
","
","""event"",""trial"",""time""
""focus"",""0"",""2""
","""event"",""trial"",""time""
""fullscreenenter"",""1"",""5972""
","
","","","","","","null","<div style=""font-size:60px;"">+</div>","null","","fixation","","","","","","","","",""
"memory-trial","111","361163","0.0-15.0-1.34","1996","2","""event"",""trial"",""time""
""focus"",""0"",""2""
""fullscreenenter"",""1"",""5972""
","
","""event"",""trial"",""time""
""focus"",""0"",""2""
","""event"",""trial"",""time""
""fullscreenenter"",""1"",""5972""
","
","","","","","","2540","images/table2.png","","","memory_trial","4","definitely_new","","","","","","",""
"html-keyboard-response","112","361668","0.0-15.0-0.35","1996","2","""event"",""trial"",""time""
""focus"",""0"",""2""
""fullscreenenter"",""1"",""5972""
","
","""event"",""trial"",""time""
""focus"",""0"",""2""
","""event"",""trial"",""time""
""fullscreenenter"",""1"",""5972""
","
","","","","","","null","<div style=""font-size:60px;"">+</div>","null","","fixation","","","","","","","","",""
"memory-trial","113","365076","0.0-15.0-1.35","1996","2","""event"",""trial"",""time""
""focus"",""0"",""2""
""fullscreenenter"",""1"",""5972""
","
","""event"",""trial"",""time""
""focus"",""0"",""2""
","""event"",""trial"",""time""
""fullscreenenter"",""1"",""5972""
","
","","","","","","2402","images/cow4.png","","","memory_trial","2","maybe_old","","","","","","",""
"html-keyboard-response","114","365578","0.0-15.0-0.36","1996","2","""event"",""trial"",""time""
""focus"",""0"",""2""
""fullscreenenter"",""1"",""5972""
","
","""event"",""trial"",""time""
""focus"",""0"",""2""
","""event"",""trial"",""time""
""fullscreenenter"",""1"",""5972""
","
","","","","","","null","<div style=""font-size:60px;"">+</div>","null","","fixation","","","","","","","","",""
"memory-trial","115","367893","0.0-15.0-1.36","1996","2","""event"",""trial"",""time""
""focus"",""0"",""2""
""fullscreenenter"",""1"",""5972""
","
","""event"",""trial"",""time""
""focus"",""0"",""2""
","""event"",""trial"",""time""
""fullscreenenter"",""1"",""5972""
","
","","","","","","1309","images/chair5.png","","","memory_trial","1","definitely_old","","","","","","",""
"html-keyboard-response","116","368396","0.0-15.0-0.37","1996","2","""event"",""trial"",""time""
""focus"",""0"",""2""
""fullscreenenter"",""1"",""5972""
","
","""event"",""trial"",""time""
""focus"",""0"",""2""
","""event"",""trial"",""time""
""fullscreenenter"",""1"",""5972""
","
","","","","","","null","<div style=""font-size:60px;"">+</div>","null","","fixation","","","","","","","","",""
"memory-trial","117","370780","0.0-15.0-1.37","1996","2","""event"",""trial"",""time""
""focus"",""0"",""2""
""fullscreenenter"",""1"",""5972""
","
","""event"",""trial"",""time""
""focus"",""0"",""2""
","""event"",""trial"",""time""
""fullscreenenter"",""1"",""5972""
","
","","","","","","1379","images/horse5.png","","","memory_trial","1","definitely_old","","","","","","",""
"html-keyboard-response","118","371287","0.0-15.0-0.38","1996","2","""event"",""trial"",""time""
""focus"",""0"",""2""
""fullscreenenter"",""1"",""5972""
","
","""event"",""trial"",""time""
""focus"",""0"",""2""
","""event"",""trial"",""time""
""fullscreenenter"",""1"",""5972""
","
","","","","","","null","<div style=""font-size:60px;"">+</div>","null","","fixation","","","","","","","","",""
"memory-trial","119","373549","0.0-15.0-1.38","1996","2","""event"",""trial"",""time""
""focus"",""0"",""2""
""fullscreenenter"",""1"",""5972""
","
","""event"",""trial"",""time""
""focus"",""0"",""2""
","""event"",""trial"",""time""
""fullscreenenter"",""1"",""5972""
","
","","","","","","1258","images/truck3.png","","","memory_trial","4","definitely_new","","","","","","",""
"html-keyboard-response","120","374054","0.0-15.0-0.39","1996","2","""event"",""trial"",""time""
""focus"",""0"",""2""
""fullscreenenter"",""1"",""5972""
","
","""event"",""trial"",""time""
""focus"",""0"",""2""
","""event"",""trial"",""time""
""fullscreenenter"",""1"",""5972""
","
","","","","","","null","<div style=""font-size:60px;"">+</div>","null","","fixation","","","","","","","","",""
"memory-trial","121","377230","0.0-15.0-1.39","1996","2","""event"",""trial"",""time""
""focus"",""0"",""2""
""fullscreenenter"",""1"",""5972""
","
","""event"",""trial"",""time""
""focus"",""0"",""2""
","""event"",""trial"",""time""
""fullscreenenter"",""1"",""5972""
","
","","","","","","2171","images/sofa5.png","","","memory_trial","1","definitely_old","","","","","","",""
"html-keyboard-response","122","377734","0.0-15.0-0.40","1996","2","""event"",""trial"",""time""
""focus"",""0"",""2""
""fullscreenenter"",""1"",""5972""
","
","""event"",""trial"",""time""
""focus"",""0"",""2""
","""event"",""trial"",""time""
""fullscreenenter"",""1"",""5972""
","
","","","","","","null","<div style=""font-size:60px;"">+</div>","null","","fixation","","","","","","","","",""
"memory-trial","123","380049","0.0-15.0-1.40","1996","2","""event"",""trial"",""time""
""focus"",""0"",""2""
""fullscreenenter"",""1"",""5972""
","
","""event"",""trial"",""time""
""focus"",""0"",""2""
","""event"",""trial"",""time""
""fullscreenenter"",""1"",""5972""
","
","","","","","","1310","images/goat2.png","","","memory_trial","4","definitely_new","","","","","","",""
"html-keyboard-response","124","380555","0.0-15.0-0.41","1996","2","""event"",""trial"",""time""
""focus"",""0"",""2""
""fullscreenenter"",""1"",""5972""
","
","""event"",""trial"",""time""
""focus"",""0"",""2""
","""event"",""trial"",""time""
""fullscreenenter"",""1"",""5972""
","
","","","","","","null","<div style=""font-size:60px;"">+</div>","null","","fixation","","","","","","","","",""
"memory-trial","125","383098","0.0-15.0-1.41","1996","2","""event"",""trial"",""time""
""focus"",""0"",""2""
""fullscreenenter"",""1"",""5972""
","
","""event"",""trial"",""time""
""focus"",""0"",""2""
","""event"",""trial"",""time""
""fullscreenenter"",""1"",""5972""
","
","","","","","","1536","images/goat3.png","","","memory_trial","1","definitely_old","","","","","","",""
"html-keyboard-response","126","383603","0.0-15.0-0.42","1996","2","""event"",""trial"",""time""
""focus"",""0"",""2""
""fullscreenenter"",""1"",""5972""
","
","""event"",""trial"",""time""
""focus"",""0"",""2""
","""event"",""trial"",""time""
""fullscreenenter"",""1"",""5972""
","
","","","","","","null","<div style=""font-size:60px;"">+</div>","null","","fixation","","","","","","","","",""
"memory-trial","127","386018","0.0-15.0-1.42","1996","2","""event"",""trial"",""time""
""focus"",""0"",""2""
""fullscreenenter"",""1"",""5972""
","
","""event"",""trial"",""time""
""focus"",""0"",""2""
","""event"",""trial"",""time""
""fullscreenenter"",""1"",""5972""
","
","","","","","","1410","images/dog5.png","","","memory_trial","4","definitely_new","","","","","","",""
"html-keyboard-response","128","386523","0.0-15.0-0.43","1996","2","""event"",""trial"",""time""
""focus"",""0"",""2""
""fullscreenenter"",""1"",""5972""
","
","""event"",""trial"",""time""
""focus"",""0"",""2""
","""event"",""trial"",""time""
""fullscreenenter"",""1"",""5972""
","
","","","","","","null","<div style=""font-size:60px;"">+</div>","null","","fixation","","","","","","","","",""
"memory-trial","129","388880","0.0-15.0-1.43","1996","2","""event"",""trial"",""time""
""focus"",""0"",""2""
""fullscreenenter"",""1"",""5972""
","
","""event"",""trial"",""time""
""focus"",""0"",""2""
","""event"",""trial"",""time""
""fullscreenenter"",""1"",""5972""
","
","","","","","","1351","images/rodent3.png","","","memory_trial","4","definitely_new","","","","","","",""
"html-keyboard-response","130","389381","0.0-15.0-0.44","1996","2","""event"",""trial"",""time""
""focus"",""0"",""2""
""fullscreenenter"",""1"",""5972""
","
","""event"",""trial"",""time""
""focus"",""0"",""2""
","""event"",""trial"",""time""
""fullscreenenter"",""1"",""5972""
","
","","","","","","null","<div style=""font-size:60px;"">+</div>","null","","fixation","","","","","","","","",""
"memory-trial","131","391401","0.0-15.0-1.44","1996","2","""event"",""trial"",""time""
""focus"",""0"",""2""
""fullscreenenter"",""1"",""5972""
","
","""event"",""trial"",""time""
""focus"",""0"",""2""
","""event"",""trial"",""time""
""fullscreenenter"",""1"",""5972""
","
","","","","","","1014","images/apple3.png","","","memory_trial","4","definitely_new","","","","","","",""
"html-keyboard-response","132","391903","0.0-15.0-0.45","1996","2","""event"",""trial"",""time""
""focus"",""0"",""2""
""fullscreenenter"",""1"",""5972""
","
","""event"",""trial"",""time""
""focus"",""0"",""2""
","""event"",""trial"",""time""
""fullscreenenter"",""1"",""5972""
","
","","","","","","null","<div style=""font-size:60px;"">+</div>","null","","fixation","","","","","","","","",""
"memory-trial","133","394010","0.0-15.0-1.45","1996","2","""event"",""trial"",""time""
""focus"",""0"",""2""
""fullscreenenter"",""1"",""5972""
","
","""event"",""trial"",""time""
""focus"",""0"",""2""
","""event"",""trial"",""time""
""fullscreenenter"",""1"",""5972""
","
","","","","","","1103","images/goat1.png","","","memory_trial","4","definitely_new","","","","","","",""
"html-keyboard-response","134","394515","0.0-15.0-0.46","1996","2","""event"",""trial"",""time""
""focus"",""0"",""2""
""fullscreenenter"",""1"",""5972""
","
","""event"",""trial"",""time""
""focus"",""0"",""2""
","""event"",""trial"",""time""
""fullscreenenter"",""1"",""5972""
","
","","","","","","null","<div style=""font-size:60px;"">+</div>","null","","fixation","","","","","","","","",""
"memory-trial","135","397129","0.0-15.0-1.46","1996","2","""event"",""trial"",""time""
""focus"",""0"",""2""
""fullscreenenter"",""1"",""5972""
","
","""event"",""trial"",""time""
""focus"",""0"",""2""
","""event"",""trial"",""time""
""fullscreenenter"",""1"",""5972""
","
","","","","","","1608","images/horse3.png","","","memory_trial","1","definitely_old","","","","","","",""
"html-button-response","136","416902","0.0-15.0-2.46-0.46","1996","2","""event"",""trial"",""time""
""focus"",""0"",""2""
""fullscreenenter"",""1"",""5972""
","
","""event"",""trial"",""time""
""focus"",""0"",""2""
","""event"",""trial"",""time""
""fullscreenenter"",""1"",""5972""
","
","","","","","","19773","<p> Take a break! </p><p> Click the button to continue. </p>","0","","break","","","","","","","","",""
"html-keyboard-response","137","417407","0.0-15.0-0.47","1996","2","""event"",""trial"",""time""
""focus"",""0"",""2""
""fullscreenenter"",""1"",""5972""
","
","""event"",""trial"",""time""
""focus"",""0"",""2""
","""event"",""trial"",""time""
""fullscreenenter"",""1"",""5972""
","
","","","","","","null","<div style=""font-size:60px;"">+</div>","null","","fixation","","","","","","","","",""
"memory-trial","138","419948","0.0-15.0-1.47","1996","2","""event"",""trial"",""time""
""focus"",""0"",""2""
""fullscreenenter"",""1"",""5972""
","
","""event"",""trial"",""time""
""focus"",""0"",""2""
","""event"",""trial"",""time""
""fullscreenenter"",""1"",""5972""
","
","","","","","","1535","images/banana4.png","","","memory_trial","1","definitely_old","","","","","","",""
"html-keyboard-response","139","420453","0.0-15.0-0.48","1996","2","""event"",""trial"",""time""
""focus"",""0"",""2""
""fullscreenenter"",""1"",""5972""
","
","""event"",""trial"",""time""
""focus"",""0"",""2""
","""event"",""trial"",""time""
""fullscreenenter"",""1"",""5972""
","
","","","","","","null","<div style=""font-size:60px;"">+</div>","null","","fixation","","","","","","","","",""
"memory-trial","140","422445","0.0-15.0-1.48","1996","2","""event"",""trial"",""time""
""focus"",""0"",""2""
""fullscreenenter"",""1"",""5972""
","
","""event"",""trial"",""time""
""focus"",""0"",""2""
","""event"",""trial"",""time""
""fullscreenenter"",""1"",""5972""
","
","","","","","","988","images/bush2.png","","","memory_trial","1","definitely_old","","","","","","",""
"html-keyboard-response","141","422952","0.0-15.0-0.49","1996","2","""event"",""trial"",""time""
""focus"",""0"",""2""
""fullscreenenter"",""1"",""5972""
","
","""event"",""trial"",""time""
""focus"",""0"",""2""
","""event"",""trial"",""time""
""fullscreenenter"",""1"",""5972""
","
","","","","","","null","<div style=""font-size:60px;"">+</div>","null","","fixation","","","","","","","","",""
"memory-trial","142","425218","0.0-15.0-1.49","1996","2","""event"",""trial"",""time""
""focus"",""0"",""2""
""fullscreenenter"",""1"",""5972""
","
","""event"",""trial"",""time""
""focus"",""0"",""2""
","""event"",""trial"",""time""
""fullscreenenter"",""1"",""5972""
","
","","","","","","1262","images/cow5.png","","","memory_trial","1","definitely_old","","","","","","",""
"html-keyboard-response","143","425724","0.0-15.0-0.50","1996","2","""event"",""trial"",""time""
""focus"",""0"",""2""
""fullscreenenter"",""1"",""5972""
","
","""event"",""trial"",""time""
""focus"",""0"",""2""
","""event"",""trial"",""time""
""fullscreenenter"",""1"",""5972""
","
","","","","","","null","<div style=""font-size:60px;"">+</div>","null","","fixation","","","","","","","","",""
"memory-trial","144","427741","0.0-15.0-1.50","1996","2","""event"",""trial"",""time""
""focus"",""0"",""2""
""fullscreenenter"",""1"",""5972""
","
","""event"",""trial"",""time""
""focus"",""0"",""2""
","""event"",""trial"",""time""
""fullscreenenter"",""1"",""5972""
","
","","","","","","1012","images/rodent5.png","","","memory_trial","4","definitely_new","","","","","","",""
"html-keyboard-response","145","428247","0.0-15.0-0.51","1996","2","""event"",""trial"",""time""
""focus"",""0"",""2""
""fullscreenenter"",""1"",""5972""
","
","""event"",""trial"",""time""
""focus"",""0"",""2""
","""event"",""trial"",""time""
""fullscreenenter"",""1"",""5972""
","
","","","","","","null","<div style=""font-size:60px;"">+</div>","null","","fixation","","","","","","","","",""
"memory-trial","146","430161","0.0-15.0-1.51","1996","2","""event"",""trial"",""time""
""focus"",""0"",""2""
""fullscreenenter"",""1"",""5972""
","
","""event"",""trial"",""time""
""focus"",""0"",""2""
","""event"",""trial"",""time""
""fullscreenenter"",""1"",""5972""
","
","","","","","","909","images/sofa4.png","","","memory_trial","1","definitely_old","","","","","","",""
"html-keyboard-response","147","430663","0.0-15.0-0.52","1996","2","""event"",""trial"",""time""
""focus"",""0"",""2""
""fullscreenenter"",""1"",""5972""
","
","""event"",""trial"",""time""
""focus"",""0"",""2""
","""event"",""trial"",""time""
""fullscreenenter"",""1"",""5972""
","
","","","","","","null","<div style=""font-size:60px;"">+</div>","null","","fixation","","","","","","","","",""
"memory-trial","148","433231","0.0-15.0-1.52","1996","2","""event"",""trial"",""time""
""focus"",""0"",""2""
""fullscreenenter"",""1"",""5972""
","
","""event"",""trial"",""time""
""focus"",""0"",""2""
","""event"",""trial"",""time""
""fullscreenenter"",""1"",""5972""
","
","","","","","","1562","images/sheep3.png","","","memory_trial","4","definitely_new","","","","","","",""
"html-keyboard-response","149","433737","0.0-15.0-0.53","1996","2","""event"",""trial"",""time""
""focus"",""0"",""2""
""fullscreenenter"",""1"",""5972""
","
","""event"",""trial"",""time""
""focus"",""0"",""2""
","""event"",""trial"",""time""
""fullscreenenter"",""1"",""5972""
","
","","","","","","null","<div style=""font-size:60px;"">+</div>","null","","fixation","","","","","","","","",""
"memory-trial","150","435793","0.0-15.0-1.53","1996","2","""event"",""trial"",""time""
""focus"",""0"",""2""
""fullscreenenter"",""1"",""5972""
","
","""event"",""trial"",""time""
""focus"",""0"",""2""
","""event"",""trial"",""time""
""fullscreenenter"",""1"",""5972""
","
","","","","","","1051","images/table1.png","","","memory_trial","4","definitely_new","","","","","","",""
"html-keyboard-response","151","436300","0.0-15.0-0.54","1996","2","""event"",""trial"",""time""
""focus"",""0"",""2""
""fullscreenenter"",""1"",""5972""
","
","""event"",""trial"",""time""
""focus"",""0"",""2""
","""event"",""trial"",""time""
""fullscreenenter"",""1"",""5972""
","
","","","","","","null","<div style=""font-size:60px;"">+</div>","null","","fixation","","","","","","","","",""
"memory-trial","152","438537","0.0-15.0-1.54","1996","2","""event"",""trial"",""time""
""focus"",""0"",""2""
""fullscreenenter"",""1"",""5972""
","
","""event"",""trial"",""time""
""focus"",""0"",""2""
","""event"",""trial"",""time""
""fullscreenenter"",""1"",""5972""
","
","","","","","","1233","images/sofa1.png","","","memory_trial","1","definitely_old","","","","","","",""
"html-keyboard-response","153","439043","0.0-15.0-0.55","1996","2","""event"",""trial"",""time""
""focus"",""0"",""2""
""fullscreenenter"",""1"",""5972""
","
","""event"",""trial"",""time""
""focus"",""0"",""2""
","""event"",""trial"",""time""
""fullscreenenter"",""1"",""5972""
","
","","","","","","null","<div style=""font-size:60px;"">+</div>","null","","fixation","","","","","","","","",""
"memory-trial","154","441007","0.0-15.0-1.55","1996","2","""event"",""trial"",""time""
""focus"",""0"",""2""
""fullscreenenter"",""1"",""5972""
","
","""event"",""trial"",""time""
""focus"",""0"",""2""
","""event"",""trial"",""time""
""fullscreenenter"",""1"",""5972""
","
","","","","","","957","images/sheep5.png","","","memory_trial","4","definitely_new","","","","","","",""
"html-keyboard-response","155","441513","0.0-15.0-0.56","1996","2","""event"",""trial"",""time""
""focus"",""0"",""2""
""fullscreenenter"",""1"",""5972""
","
","""event"",""trial"",""time""
""focus"",""0"",""2""
","""event"",""trial"",""time""
""fullscreenenter"",""1"",""5972""
","
","","","","","","null","<div style=""font-size:60px;"">+</div>","null","","fixation","","","","","","","","",""
"memory-trial","156","444485","0.0-15.0-1.56","1996","2","""event"",""trial"",""time""
""focus"",""0"",""2""
""fullscreenenter"",""1"",""5972""
","
","""event"",""trial"",""time""
""focus"",""0"",""2""
","""event"",""trial"",""time""
""fullscreenenter"",""1"",""5972""
","
","","","","","","1967","images/cactus4.png","","","memory_trial","4","definitely_new","","","","","","",""
"html-keyboard-response","157","444989","0.0-15.0-0.57","1996","2","""event"",""trial"",""time""
""focus"",""0"",""2""
""fullscreenenter"",""1"",""5972""
","
","""event"",""trial"",""time""
""focus"",""0"",""2""
","""event"",""trial"",""time""
""fullscreenenter"",""1"",""5972""
","
","","","","","","null","<div style=""font-size:60px;"">+</div>","null","","fixation","","","","","","","","",""
"memory-trial","158","448147","0.0-15.0-1.57","1996","2","""event"",""trial"",""time""
""focus"",""0"",""2""
""fullscreenenter"",""1"",""5972""
","
","""event"",""trial"",""time""
""focus"",""0"",""2""
","""event"",""trial"",""time""
""fullscreenenter"",""1"",""5972""
","
","","","","","","2152","images/bed3.png","","","memory_trial","4","definitely_new","","","","","","",""
"html-keyboard-response","159","448650","0.0-15.0-0.58","1996","2","""event"",""trial"",""time""
""focus"",""0"",""2""
""fullscreenenter"",""1"",""5972""
","
","""event"",""trial"",""time""
""focus"",""0"",""2""
","""event"",""trial"",""time""
""fullscreenenter"",""1"",""5972""
","
","","","","","","null","<div style=""font-size:60px;"">+</div>","null","","fixation","","","","","","","","",""
"memory-trial","160","450812","0.0-15.0-1.58","1996","2","""event"",""trial"",""time""
""focus"",""0"",""2""
""fullscreenenter"",""1"",""5972""
","
","""event"",""trial"",""time""
""focus"",""0"",""2""
","""event"",""trial"",""time""
""fullscreenenter"",""1"",""5972""
","
","","","","","","1153","images/chair2.png","","","memory_trial","1","definitely_old","","","","","","",""
"html-keyboard-response","161","451316","0.0-15.0-0.59","1996","2","""event"",""trial"",""time""
""focus"",""0"",""2""
""fullscreenenter"",""1"",""5972""
","
","""event"",""trial"",""time""
""focus"",""0"",""2""
","""event"",""trial"",""time""
""fullscreenenter"",""1"",""5972""
","
","","","","","","null","<div style=""font-size:60px;"">+</div>","null","","fixation","","","","","","","","",""
"memory-trial","162","453290","0.0-15.0-1.59","1996","2","""event"",""trial"",""time""
""focus"",""0"",""2""
""fullscreenenter"",""1"",""5972""
","
","""event"",""trial"",""time""
""focus"",""0"",""2""
","""event"",""trial"",""time""
""fullscreenenter"",""1"",""5972""
","
","","","","","","967","images/straw2.png","","","memory_trial","4","definitely_new","","","","","","",""
"html-keyboard-response","163","453796","0.0-15.0-0.60","1996","2","""event"",""trial"",""time""
""focus"",""0"",""2""
""fullscreenenter"",""1"",""5972""
","
","""event"",""trial"",""time""
""focus"",""0"",""2""
","""event"",""trial"",""time""
""fullscreenenter"",""1"",""5972""
","
","","","","","","null","<div style=""font-size:60px;"">+</div>","null","","fixation","","","","","","","","",""
"memory-trial","164","458244","0.0-15.0-1.60","1996","2","""event"",""trial"",""time""
""focus"",""0"",""2""
""fullscreenenter"",""1"",""5972""
","
","""event"",""trial"",""time""
""focus"",""0"",""2""
","""event"",""trial"",""time""
""fullscreenenter"",""1"",""5972""
","
","","","","","","3443","images/apple2.png","","","memory_trial","1","definitely_old","","","","","","",""
"html-keyboard-response","165","458747","0.0-15.0-0.61","1996","2","""event"",""trial"",""time""
""focus"",""0"",""2""
""fullscreenenter"",""1"",""5972""
","
","""event"",""trial"",""time""
""focus"",""0"",""2""
","""event"",""trial"",""time""
""fullscreenenter"",""1"",""5972""
","
","","","","","","null","<div style=""font-size:60px;"">+</div>","null","","fixation","","","","","","","","",""
"memory-trial","166","461486","0.0-15.0-1.61","1996","2","""event"",""trial"",""time""
""focus"",""0"",""2""
""fullscreenenter"",""1"",""5972""
","
","""event"",""trial"",""time""
""focus"",""0"",""2""
","""event"",""trial"",""time""
""fullscreenenter"",""1"",""5972""
","
","","","","","","1737","images/feline5.png","","","memory_trial","1","definitely_old","","","","","","",""
"html-keyboard-response","167","461992","0.0-15.0-0.62","1996","2","""event"",""trial"",""time""
""focus"",""0"",""2""
""fullscreenenter"",""1"",""5972""
","
","""event"",""trial"",""time""
""focus"",""0"",""2""
","""event"",""trial"",""time""
""fullscreenenter"",""1"",""5972""
","
","","","","","","null","<div style=""font-size:60px;"">+</div>","null","","fixation","","","","","","","","",""
"memory-trial","168","464263","0.0-15.0-1.62","1996","2","""event"",""trial"",""time""
""focus"",""0"",""2""
""fullscreenenter"",""1"",""5972""
","
","""event"",""trial"",""time""
""focus"",""0"",""2""
","""event"",""trial"",""time""
""fullscreenenter"",""1"",""5972""
","
","","","","","","1266","images/train5.png","","","memory_trial","4","definitely_new","","","","","","",""
"html-keyboard-response","169","464767","0.0-15.0-0.63","1996","2","""event"",""trial"",""time""
""focus"",""0"",""2""
""fullscreenenter"",""1"",""5972""
","
","""event"",""trial"",""time""
""focus"",""0"",""2""
","""event"",""trial"",""time""
""fullscreenenter"",""1"",""5972""
","
","","","","","","null","<div style=""font-size:60px;"">+</div>","null","","fixation","","","","","","","","",""
"memory-trial","170","468191","0.0-15.0-1.63","1996","2","""event"",""trial"",""time""
""focus"",""0"",""2""
""fullscreenenter"",""1"",""5972""
","
","""event"",""trial"",""time""
""focus"",""0"",""2""
","""event"",""trial"",""time""
""fullscreenenter"",""1"",""5972""
","
","","","","","","2419","images/plane1.png","","","memory_trial","1","definitely_old","","","","","","",""
"html-keyboard-response","171","468694","0.0-15.0-0.64","1996","2","""event"",""trial"",""time""
""focus"",""0"",""2""
""fullscreenenter"",""1"",""5972""
","
","""event"",""trial"",""time""
""focus"",""0"",""2""
","""event"",""trial"",""time""
""fullscreenenter"",""1"",""5972""
","
","","","","","","null","<div style=""font-size:60px;"">+</div>","null","","fixation","","","","","","","","",""
"memory-trial","172","473573","0.0-15.0-1.64","1996","2","""event"",""trial"",""time""
""focus"",""0"",""2""
""fullscreenenter"",""1"",""5972""
","
","""event"",""trial"",""time""
""focus"",""0"",""2""
","""event"",""trial"",""time""
""fullscreenenter"",""1"",""5972""
","
","","","","","","3874","images/boat2.png","","","memory_trial","4","definitely_new","","","","","","",""
"html-keyboard-response","173","474078","0.0-15.0-0.65","1996","2","""event"",""trial"",""time""
""focus"",""0"",""2""
""fullscreenenter"",""1"",""5972""
","
","""event"",""trial"",""time""
""focus"",""0"",""2""
","""event"",""trial"",""time""
""fullscreenenter"",""1"",""5972""
","
","","","","","","null","<div style=""font-size:60px;"">+</div>","null","","fixation","","","","","","","","",""
"memory-trial","174","477845","0.0-15.0-1.65","1996","2","""event"",""trial"",""time""
""focus"",""0"",""2""
""fullscreenenter"",""1"",""5972""
","
","""event"",""trial"",""time""
""focus"",""0"",""2""
","""event"",""trial"",""time""
""fullscreenenter"",""1"",""5972""
","
","","","","","","2762","images/apple4.png","","","memory_trial","4","definitely_new","","","","","","",""
"html-keyboard-response","175","478349","0.0-15.0-0.66","1996","2","""event"",""trial"",""time""
""focus"",""0"",""2""
""fullscreenenter"",""1"",""5972""
","
","""event"",""trial"",""time""
""focus"",""0"",""2""
","""event"",""trial"",""time""
""fullscreenenter"",""1"",""5972""
","
","","","","","","null","<div style=""font-size:60px;"">+</div>","null","","fixation","","","","","","","","",""
"memory-trial","176","481188","0.0-15.0-1.66","1996","2","""event"",""trial"",""time""
""focus"",""0"",""2""
""fullscreenenter"",""1"",""5972""
","
","""event"",""trial"",""time""
""focus"",""0"",""2""
","""event"",""trial"",""time""
""fullscreenenter"",""1"",""5972""
","
","","","","","","1834","images/cactus2.png","","","memory_trial","4","definitely_new","","","","","","",""
"html-keyboard-response","177","481695","0.0-15.0-0.67","1996","2","""event"",""trial"",""time""
""focus"",""0"",""2""
""fullscreenenter"",""1"",""5972""
","
","""event"",""trial"",""time""
""focus"",""0"",""2""
","""event"",""trial"",""time""
""fullscreenenter"",""1"",""5972""
","
","","","","","","null","<div style=""font-size:60px;"">+</div>","null","","fixation","","","","","","","","",""
"memory-trial","178","483709","0.0-15.0-1.67","1996","2","""event"",""trial"",""time""
""focus"",""0"",""2""
""fullscreenenter"",""1"",""5972""
","
","""event"",""trial"",""time""
""focus"",""0"",""2""
","""event"",""trial"",""time""
""fullscreenenter"",""1"",""5972""
","
","","","","","","1009","images/bed4.png","","","memory_trial","1","definitely_old","","","","","","",""
"html-keyboard-response","179","484211","0.0-15.0-0.68","1996","2","""event"",""trial"",""time""
""focus"",""0"",""2""
""fullscreenenter"",""1"",""5972""
","
","""event"",""trial"",""time""
""focus"",""0"",""2""
","""event"",""trial"",""time""
""fullscreenenter"",""1"",""5972""
","
","","","","","","null","<div style=""font-size:60px;"">+</div>","null","","fixation","","","","","","","","",""
"memory-trial","180","486561","0.0-15.0-1.68","1996","2","""event"",""trial"",""time""
""focus"",""0"",""2""
""fullscreenenter"",""1"",""5972""
","
","""event"",""trial"",""time""
""focus"",""0"",""2""
","""event"",""trial"",""time""
""fullscreenenter"",""1"",""5972""
","
","","","","","","1344","images/bed5.png","","","memory_trial","1","definitely_old","","","","","","",""
"html-keyboard-response","181","487063","0.0-15.0-0.69","1996","2","""event"",""trial"",""time""
""focus"",""0"",""2""
""fullscreenenter"",""1"",""5972""
","
","""event"",""trial"",""time""
""focus"",""0"",""2""
","""event"",""trial"",""time""
""fullscreenenter"",""1"",""5972""
","
","","","","","","null","<div style=""font-size:60px;"">+</div>","null","","fixation","","","","","","","","",""
"memory-trial","182","489239","0.0-15.0-1.69","1996","2","""event"",""trial"",""time""
""focus"",""0"",""2""
""fullscreenenter"",""1"",""5972""
","
","""event"",""trial"",""time""
""focus"",""0"",""2""
","""event"",""trial"",""time""
""fullscreenenter"",""1"",""5972""
","
","","","","","","1171","images/boat3.png","","","memory_trial","4","definitely_new","","","","","","",""
"html-keyboard-response","183","489745","0.0-15.0-0.70","1996","2","""event"",""trial"",""time""
""focus"",""0"",""2""
""fullscreenenter"",""1"",""5972""
","
","""event"",""trial"",""time""
""focus"",""0"",""2""
","""event"",""trial"",""time""
""fullscreenenter"",""1"",""5972""
","
","","","","","","null","<div style=""font-size:60px;"">+</div>","null","","fixation","","","","","","","","",""
"memory-trial","184","492277","0.0-15.0-1.70","1996","2","""event"",""trial"",""time""
""focus"",""0"",""2""
""fullscreenenter"",""1"",""5972""
","
","""event"",""trial"",""time""
""focus"",""0"",""2""
","""event"",""trial"",""time""
""fullscreenenter"",""1"",""5972""
","
","","","","","","1527","images/dog4.png","","","memory_trial","4","definitely_new","","","","","","",""
"html-keyboard-response","185","492783","0.0-15.0-0.71","1996","2","""event"",""trial"",""time""
""focus"",""0"",""2""
""fullscreenenter"",""1"",""5972""
","
","""event"",""trial"",""time""
""focus"",""0"",""2""
","""event"",""trial"",""time""
""fullscreenenter"",""1"",""5972""
","
","","","","","","null","<div style=""font-size:60px;"">+</div>","null","","fixation","","","","","","","","",""
"memory-trial","186","493877","0.0-15.0-1.71","1996","2","""event"",""trial"",""time""
""focus"",""0"",""2""
""fullscreenenter"",""1"",""5972""
","
","""event"",""trial"",""time""
""focus"",""0"",""2""
","""event"",""trial"",""time""
""fullscreenenter"",""1"",""5972""
","
","","","","","","89","images/truck5.png","","","memory_trial","1","definitely_old","","","","","","",""
"html-keyboard-response","187","494381","0.0-15.0-0.72","1996","2","""event"",""trial"",""time""
""focus"",""0"",""2""
""fullscreenenter"",""1"",""5972""
","
","""event"",""trial"",""time""
""focus"",""0"",""2""
","""event"",""trial"",""time""
""fullscreenenter"",""1"",""5972""
","
","","","","","","null","<div style=""font-size:60px;"">+</div>","null","","fixation","","","","","","","","",""
"memory-trial","188","496613","0.0-15.0-1.72","1996","2","""event"",""trial"",""time""
""focus"",""0"",""2""
""fullscreenenter"",""1"",""5972""
","
","""event"",""trial"",""time""
""focus"",""0"",""2""
","""event"",""trial"",""time""
""fullscreenenter"",""1"",""5972""
","
","","","","","","1226","images/flower3.png","","","memory_trial","4","definitely_new","","","","","","",""
"html-keyboard-response","189","497116","0.0-15.0-0.73","1996","2","""event"",""trial"",""time""
""focus"",""0"",""2""
""fullscreenenter"",""1"",""5972""
","
","""event"",""trial"",""time""
""focus"",""0"",""2""
","""event"",""trial"",""time""
""fullscreenenter"",""1"",""5972""
","
","","","","","","null","<div style=""font-size:60px;"">+</div>","null","","fixation","","","","","","","","",""
"memory-trial","190","499464","0.0-15.0-1.73","1996","2","""event"",""trial"",""time""
""focus"",""0"",""2""
""fullscreenenter"",""1"",""5972""
","
","""event"",""trial"",""time""
""focus"",""0"",""2""
","""event"",""trial"",""time""
""fullscreenenter"",""1"",""5972""
","
","","","","","","1342","images/rodent2.png","","","memory_trial","1","definitely_old","","","","","","",""
"html-keyboard-response","191","499966","0.0-15.0-0.74","1996","2","""event"",""trial"",""time""
""focus"",""0"",""2""
""fullscreenenter"",""1"",""5972""
","
","""event"",""trial"",""time""
""focus"",""0"",""2""
","""event"",""trial"",""time""
""fullscreenenter"",""1"",""5972""
","
","","","","","","null","<div style=""font-size:60px;"">+</div>","null","","fixation","","","","","","","","",""
"memory-trial","192","502461","0.0-15.0-1.74","1996","2","""event"",""trial"",""time""
""focus"",""0"",""2""
""fullscreenenter"",""1"",""5972""
","
","""event"",""trial"",""time""
""focus"",""0"",""2""
","""event"",""trial"",""time""
""fullscreenenter"",""1"",""5972""
","
","","","","","","1488","images/sheep4.png","","","memory_trial","4","definitely_new","","","","","","",""
"html-keyboard-response","193","502966","0.0-15.0-0.75","1996","2","""event"",""trial"",""time""
""focus"",""0"",""2""
""fullscreenenter"",""1"",""5972""
","
","""event"",""trial"",""time""
""focus"",""0"",""2""
","""event"",""trial"",""time""
""fullscreenenter"",""1"",""5972""
","
","","","","","","null","<div style=""font-size:60px;"">+</div>","null","","fixation","","","","","","","","",""
"memory-trial","194","505732","0.0-15.0-1.75","1996","2","""event"",""trial"",""time""
""focus"",""0"",""2""
""fullscreenenter"",""1"",""5972""
","
","""event"",""trial"",""time""
""focus"",""0"",""2""
","""event"",""trial"",""time""
""fullscreenenter"",""1"",""5972""
","
","","","","","","1760","images/orange3.png","","","memory_trial","4","definitely_new","","","","","","",""
"html-keyboard-response","195","506237","0.0-15.0-0.76","1996","2","""event"",""trial"",""time""
""focus"",""0"",""2""
""fullscreenenter"",""1"",""5972""
","
","""event"",""trial"",""time""
""focus"",""0"",""2""
","""event"",""trial"",""time""
""fullscreenenter"",""1"",""5972""
","
","","","","","","null","<div style=""font-size:60px;"">+</div>","null","","fixation","","","","","","","","",""
"memory-trial","196","508930","0.0-15.0-1.76","1996","2","""event"",""trial"",""time""
""focus"",""0"",""2""
""fullscreenenter"",""1"",""5972""
","
","""event"",""trial"",""time""
""focus"",""0"",""2""
","""event"",""trial"",""time""
""fullscreenenter"",""1"",""5972""
","
","","","","","","1687","images/tree4.png","","","memory_trial","4","definitely_new","","","","","","",""
"html-keyboard-response","197","509434","0.0-15.0-0.77","1996","2","""event"",""trial"",""time""
""focus"",""0"",""2""
""fullscreenenter"",""1"",""5972""
","
","""event"",""trial"",""time""
""focus"",""0"",""2""
","""event"",""trial"",""time""
""fullscreenenter"",""1"",""5972""
","
","","","","","","null","<div style=""font-size:60px;"">+</div>","null","","fixation","","","","","","","","",""
"memory-trial","198","513547","0.0-15.0-1.77","1996","2","""event"",""trial"",""time""
""focus"",""0"",""2""
""fullscreenenter"",""1"",""5972""
","
","""event"",""trial"",""time""
""focus"",""0"",""2""
","""event"",""trial"",""time""
""fullscreenenter"",""1"",""5972""
","
","","","","","","3108","images/train4.png","","","memory_trial","4","definitely_new","","","","","","",""
"html-keyboard-response","199","514052","0.0-15.0-0.78","1996","2","""event"",""trial"",""time""
""focus"",""0"",""2""
""fullscreenenter"",""1"",""5972""
","
","""event"",""trial"",""time""
""focus"",""0"",""2""
","""event"",""trial"",""time""
""fullscreenenter"",""1"",""5972""
","
","","","","","","null","<div style=""font-size:60px;"">+</div>","null","","fixation","","","","","","","","",""
"memory-trial","200","517575","0.0-15.0-1.78","1996","2","""event"",""trial"",""time""
""focus"",""0"",""2""
""fullscreenenter"",""1"",""5972""
","
","""event"",""trial"",""time""
""focus"",""0"",""2""
","""event"",""trial"",""time""
""fullscreenenter"",""1"",""5972""
","
","","","","","","2518","images/dog1.png","","","memory_trial","4","definitely_new","","","","","","",""
"html-keyboard-response","201","518081","0.0-15.0-0.79","1996","2","""event"",""trial"",""time""
""focus"",""0"",""2""
""fullscreenenter"",""1"",""5972""
","
","""event"",""trial"",""time""
""focus"",""0"",""2""
","""event"",""trial"",""time""
""fullscreenenter"",""1"",""5972""
","
","","","","","","null","<div style=""font-size:60px;"">+</div>","null","","fixation","","","","","","","","",""
"memory-trial","202","520425","0.0-15.0-1.79","1996","2","""event"",""trial"",""time""
""focus"",""0"",""2""
""fullscreenenter"",""1"",""5972""
","
","""event"",""trial"",""time""
""focus"",""0"",""2""
","""event"",""trial"",""time""
""fullscreenenter"",""1"",""5972""
","
","","","","","","1340","images/train1.png","","","memory_trial","1","definitely_old","","","","","","",""
"html-keyboard-response","203","520981","0.0-15.0-0.80","1996","2","""event"",""trial"",""time""
""focus"",""0"",""2""
""fullscreenenter"",""1"",""5972""
","
","""event"",""trial"",""time""
""focus"",""0"",""2""
","""event"",""trial"",""time""
""fullscreenenter"",""1"",""5972""
","
","","","","","","null","<div style=""font-size:60px;"">+</div>","null","","fixation","","","","","","","","",""
"memory-trial","204","524470","0.0-15.0-1.80","1996","2","""event"",""trial"",""time""
""focus"",""0"",""2""
""fullscreenenter"",""1"",""5972""
","
","""event"",""trial"",""time""
""focus"",""0"",""2""
","""event"",""trial"",""time""
""fullscreenenter"",""1"",""5972""
","
","","","","","","2484","images/dog2.png","","","memory_trial","4","definitely_new","","","","","","",""
"html-keyboard-response","205","524976","0.0-15.0-0.81","1996","2","""event"",""trial"",""time""
""focus"",""0"",""2""
""fullscreenenter"",""1"",""5972""
","
","""event"",""trial"",""time""
""focus"",""0"",""2""
","""event"",""trial"",""time""
""fullscreenenter"",""1"",""5972""
","
","","","","","","null","<div style=""font-size:60px;"">+</div>","null","","fixation","","","","","","","","",""
"memory-trial","206","528266","0.0-15.0-1.81","1996","2","""event"",""trial"",""time""
""focus"",""0"",""2""
""fullscreenenter"",""1"",""5972""
","
","""event"",""trial"",""time""
""focus"",""0"",""2""
","""event"",""trial"",""time""
""fullscreenenter"",""1"",""5972""
","
","","","","","","2285","images/truck4.png","","","memory_trial","4","definitely_new","","","","","","",""
"html-keyboard-response","207","528766","0.0-15.0-0.82","1996","2","""event"",""trial"",""time""
""focus"",""0"",""2""
""fullscreenenter"",""1"",""5972""
","
","""event"",""trial"",""time""
""focus"",""0"",""2""
","""event"",""trial"",""time""
""fullscreenenter"",""1"",""5972""
","
","","","","","","null","<div style=""font-size:60px;"">+</div>","null","","fixation","","","","","","","","",""
"memory-trial","208","530999","0.0-15.0-1.82","1996","2","""event"",""trial"",""time""
""focus"",""0"",""2""
""fullscreenenter"",""1"",""5972""
","
","""event"",""trial"",""time""
""focus"",""0"",""2""
","""event"",""trial"",""time""
""fullscreenenter"",""1"",""5972""
","
","","","","","","1228","images/feline3.png","","","memory_trial","1","definitely_old","","","","","","",""
"html-keyboard-response","209","531501","0.0-15.0-0.83","1996","2","""event"",""trial"",""time""
""focus"",""0"",""2""
""fullscreenenter"",""1"",""5972""
","
","""event"",""trial"",""time""
""focus"",""0"",""2""
","""event"",""trial"",""time""
""fullscreenenter"",""1"",""5972""
","
","","","","","","null","<div style=""font-size:60px;"">+</div>","null","","fixation","","","","","","","","",""
"memory-trial","210","533676","0.0-15.0-1.83","1996","2","""event"",""trial"",""time""
""focus"",""0"",""2""
""fullscreenenter"",""1"",""5972""
","
","""event"",""trial"",""time""
""focus"",""0"",""2""
","""event"",""trial"",""time""
""fullscreenenter"",""1"",""5972""
","
","","","","","","1171","images/flower2.png","","","memory_trial","1","definitely_old","","","","","","",""
"html-keyboard-response","211","534182","0.0-15.0-0.84","1996","2","""event"",""trial"",""time""
""focus"",""0"",""2""
""fullscreenenter"",""1"",""5972""
","
","""event"",""trial"",""time""
""focus"",""0"",""2""
","""event"",""trial"",""time""
""fullscreenenter"",""1"",""5972""
","
","","","","","","null","<div style=""font-size:60px;"">+</div>","null","","fixation","","","","","","","","",""
"memory-trial","212","536205","0.0-15.0-1.84","1996","2","""event"",""trial"",""time""
""focus"",""0"",""2""
""fullscreenenter"",""1"",""5972""
","
","""event"",""trial"",""time""
""focus"",""0"",""2""
","""event"",""trial"",""time""
""fullscreenenter"",""1"",""5972""
","
","","","","","","1017","images/train2.png","","","memory_trial","1","definitely_old","","","","","","",""
"html-keyboard-response","213","536710","0.0-15.0-0.85","1996","2","""event"",""trial"",""time""
""focus"",""0"",""2""
""fullscreenenter"",""1"",""5972""
","
","""event"",""trial"",""time""
""focus"",""0"",""2""
","""event"",""trial"",""time""
""fullscreenenter"",""1"",""5972""
","
","","","","","","null","<div style=""font-size:60px;"">+</div>","null","","fixation","","","","","","","","",""
"memory-trial","214","538810","0.0-15.0-1.85","1996","2","""event"",""trial"",""time""
""focus"",""0"",""2""
""fullscreenenter"",""1"",""5972""
","
","""event"",""trial"",""time""
""focus"",""0"",""2""
","""event"",""trial"",""time""
""fullscreenenter"",""1"",""5972""
","
","","","","","","1094","images/sofa3.png","","","memory_trial","1","definitely_old","","","","","","",""
"html-keyboard-response","215","539314","0.0-15.0-0.86","1996","2","""event"",""trial"",""time""
""focus"",""0"",""2""
""fullscreenenter"",""1"",""5972""
","
","""event"",""trial"",""time""
""focus"",""0"",""2""
","""event"",""trial"",""time""
""fullscreenenter"",""1"",""5972""
","
","","","","","","null","<div style=""font-size:60px;"">+</div>","null","","fixation","","","","","","","","",""
"memory-trial","216","541229","0.0-15.0-1.86","1996","2","""event"",""trial"",""time""
""focus"",""0"",""2""
""fullscreenenter"",""1"",""5972""
","
","""event"",""trial"",""time""
""focus"",""0"",""2""
","""event"",""trial"",""time""
""fullscreenenter"",""1"",""5972""
","
","","","","","","908","images/bush1.png","","","memory_trial","1","definitely_old","","","","","","",""
"html-keyboard-response","217","541729","0.0-15.0-0.87","1996","2","""event"",""trial"",""time""
""focus"",""0"",""2""
""fullscreenenter"",""1"",""5972""
","
","""event"",""trial"",""time""
""focus"",""0"",""2""
","""event"",""trial"",""time""
""fullscreenenter"",""1"",""5972""
","
","","","","","","null","<div style=""font-size:60px;"">+</div>","null","","fixation","","","","","","","","",""
"memory-trial","218","543711","0.0-15.0-1.87","1996","2","""event"",""trial"",""time""
""focus"",""0"",""2""
""fullscreenenter"",""1"",""5972""
","
","""event"",""trial"",""time""
""focus"",""0"",""2""
","""event"",""trial"",""time""
""fullscreenenter"",""1"",""5972""
","
","","","","","","977","images/chair4.png","","","memory_trial","4","definitely_new","","","","","","",""
"html-keyboard-response","219","544214","0.0-15.0-0.88","1996","2","""event"",""trial"",""time""
""focus"",""0"",""2""
""fullscreenenter"",""1"",""5972""
","
","""event"",""trial"",""time""
""focus"",""0"",""2""
","""event"",""trial"",""time""
""fullscreenenter"",""1"",""5972""
","
","","","","","","null","<div style=""font-size:60px;"">+</div>","null","","fixation","","","","","","","","",""
"memory-trial","220","546286","0.0-15.0-1.88","1996","2","""event"",""trial"",""time""
""focus"",""0"",""2""
""fullscreenenter"",""1"",""5972""
","
","""event"",""trial"",""time""
""focus"",""0"",""2""
","""event"",""trial"",""time""
""fullscreenenter"",""1"",""5972""
","
","","","","","","1069","images/boat4.png","","","memory_trial","4","definitely_new","","","","","","",""
"html-keyboard-response","221","546790","0.0-15.0-0.89","1996","2","""event"",""trial"",""time""
""focus"",""0"",""2""
""fullscreenenter"",""1"",""5972""
","
","""event"",""trial"",""time""
""focus"",""0"",""2""
","""event"",""trial"",""time""
""fullscreenenter"",""1"",""5972""
","
","","","","","","null","<div style=""font-size:60px;"">+</div>","null","","fixation","","","","","","","","",""
"memory-trial","222","549353","0.0-15.0-1.89","1996","2","""event"",""trial"",""time""
""focus"",""0"",""2""
""fullscreenenter"",""1"",""5972""
","
","""event"",""trial"",""time""
""focus"",""0"",""2""
","""event"",""trial"",""time""
""fullscreenenter"",""1"",""5972""
","
","","","","","","1558","images/banana5.png","","","memory_trial","1","definitely_old","","","","","","",""
"html-keyboard-response","223","549857","0.0-15.0-0.90","1996","2","""event"",""trial"",""time""
""focus"",""0"",""2""
""fullscreenenter"",""1"",""5972""
","
","""event"",""trial"",""time""
""focus"",""0"",""2""
","""event"",""trial"",""time""
""fullscreenenter"",""1"",""5972""
","
","","","","","","null","<div style=""font-size:60px;"">+</div>","null","","fixation","","","","","","","","",""
"memory-trial","224","552647","0.0-15.0-1.90","1996","2","""event"",""trial"",""time""
""focus"",""0"",""2""
""fullscreenenter"",""1"",""5972""
","
","""event"",""trial"",""time""
""focus"",""0"",""2""
","""event"",""trial"",""time""
""fullscreenenter"",""1"",""5972""
","
","","","","","","1789","images/plane5.png","","","memory_trial","4","definitely_new","","","","","","",""
"html-keyboard-response","225","553148","0.0-15.0-0.91","1996","2","""event"",""trial"",""time""
""focus"",""0"",""2""
""fullscreenenter"",""1"",""5972""
","
","""event"",""trial"",""time""
""focus"",""0"",""2""
","""event"",""trial"",""time""
""fullscreenenter"",""1"",""5972""
","
","","","","","","null","<div style=""font-size:60px;"">+</div>","null","","fixation","","","","","","","","",""
"memory-trial","226","555204","0.0-15.0-1.91","1996","2","""event"",""trial"",""time""
""focus"",""0"",""2""
""fullscreenenter"",""1"",""5972""
","
","""event"",""trial"",""time""
""focus"",""0"",""2""
","""event"",""trial"",""time""
""fullscreenenter"",""1"",""5972""
","
","","","","","","1053","images/feline4.png","","","memory_trial","1","definitely_old","","","","","","",""
"html-keyboard-response","227","555705","0.0-15.0-0.92","1996","2","""event"",""trial"",""time""
""focus"",""0"",""2""
""fullscreenenter"",""1"",""5972""
","
","""event"",""trial"",""time""
""focus"",""0"",""2""
","""event"",""trial"",""time""
""fullscreenenter"",""1"",""5972""
","
","","","","","","null","<div style=""font-size:60px;"">+</div>","null","","fixation","","","","","","","","",""
"memory-trial","228","561936","0.0-15.0-1.92","1996","2","""event"",""trial"",""time""
""focus"",""0"",""2""
""fullscreenenter"",""1"",""5972""
","
","""event"",""trial"",""time""
""focus"",""0"",""2""
","""event"",""trial"",""time""
""fullscreenenter"",""1"",""5972""
","
","","","","","","5227","images/rabbit4.png","","","memory_trial","1","definitely_old","","","","","","",""
"html-keyboard-response","229","562437","0.0-15.0-0.93","1996","2","""event"",""trial"",""time""
""focus"",""0"",""2""
""fullscreenenter"",""1"",""5972""
","
","""event"",""trial"",""time""
""focus"",""0"",""2""
","""event"",""trial"",""time""
""fullscreenenter"",""1"",""5972""
","
","","","","","","null","<div style=""font-size:60px;"">+</div>","null","","fixation","","","","","","","","",""
"memory-trial","230","565301","0.0-15.0-1.93","1996","2","""event"",""trial"",""time""
""focus"",""0"",""2""
""fullscreenenter"",""1"",""5972""
","
","""event"",""trial"",""time""
""focus"",""0"",""2""
","""event"",""trial"",""time""
""fullscreenenter"",""1"",""5972""
","
","","","","","","1860","images/plane2.png","","","memory_trial","1","definitely_old","","","","","","",""
"html-keyboard-response","231","565804","0.0-15.0-0.94","1996","2","""event"",""trial"",""time""
""focus"",""0"",""2""
""fullscreenenter"",""1"",""5972""
","
","""event"",""trial"",""time""
""focus"",""0"",""2""
","""event"",""trial"",""time""
""fullscreenenter"",""1"",""5972""
","
","","","","","","null","<div style=""font-size:60px;"">+</div>","null","","fixation","","","","","","","","",""
"memory-trial","232","568773","0.0-15.0-1.94","1996","2","""event"",""trial"",""time""
""focus"",""0"",""2""
""fullscreenenter"",""1"",""5972""
","
","""event"",""trial"",""time""
""focus"",""0"",""2""
","""event"",""trial"",""time""
""fullscreenenter"",""1"",""5972""
","
","","","","","","1966","images/banana3.png","","","memory_trial","4","definitely_new","","","","","","",""
"html-keyboard-response","233","569275","0.0-15.0-0.95","1996","2","""event"",""trial"",""time""
""focus"",""0"",""2""
""fullscreenenter"",""1"",""5972""
","
","""event"",""trial"",""time""
""focus"",""0"",""2""
","""event"",""trial"",""time""
""fullscreenenter"",""1"",""5972""
","
","","","","","","null","<div style=""font-size:60px;"">+</div>","null","","fixation","","","","","","","","",""
"memory-trial","234","571594","0.0-15.0-1.95","1996","2","""event"",""trial"",""time""
""focus"",""0"",""2""
""fullscreenenter"",""1"",""5972""
","
","""event"",""trial"",""time""
""focus"",""0"",""2""
","""event"",""trial"",""time""
""fullscreenenter"",""1"",""5972""
","
","","","","","","1314","images/straw5.png","","","memory_trial","4","definitely_new","","","","","","",""
"html-keyboard-response","235","572098","0.0-15.0-0.96","1996","2","""event"",""trial"",""time""
""focus"",""0"",""2""
""fullscreenenter"",""1"",""5972""
","
","""event"",""trial"",""time""
""focus"",""0"",""2""
","""event"",""trial"",""time""
""fullscreenenter"",""1"",""5972""
","
","","","","","","null","<div style=""font-size:60px;"">+</div>","null","","fixation","","","","","","","","",""
"memory-trial","236","575504","0.0-15.0-1.96","1996","2","""event"",""trial"",""time""
""focus"",""0"",""2""
""fullscreenenter"",""1"",""5972""
","
","""event"",""trial"",""time""
""focus"",""0"",""2""
","""event"",""trial"",""time""
""fullscreenenter"",""1"",""5972""
","
","","","","","","2401","images/sofa2.png","","","memory_trial","1","definitely_old","","","","","","",""
"html-keyboard-response","237","576007","0.0-15.0-0.97","1996","2","""event"",""trial"",""time""
""focus"",""0"",""2""
""fullscreenenter"",""1"",""5972""
","
","""event"",""trial"",""time""
""focus"",""0"",""2""
","""event"",""trial"",""time""
""fullscreenenter"",""1"",""5972""
","
","","","","","","null","<div style=""font-size:60px;"">+</div>","null","","fixation","","","","","","","","",""
"memory-trial","238","579830","0.0-15.0-1.97","1996","2","""event"",""trial"",""time""
""focus"",""0"",""2""
""fullscreenenter"",""1"",""5972""
","
","""event"",""trial"",""time""
""focus"",""0"",""2""
","""event"",""trial"",""time""
""fullscreenenter"",""1"",""5972""
","
","","","","","","2817","images/bush3.png","","","memory_trial","1","definitely_old","","","","","","",""
"html-keyboard-response","239","580334","0.0-15.0-0.98","1996","2","""event"",""trial"",""time""
""focus"",""0"",""2""
""fullscreenenter"",""1"",""5972""
","
","""event"",""trial"",""time""
""focus"",""0"",""2""
","""event"",""trial"",""time""
""fullscreenenter"",""1"",""5972""
","
","","","","","","null","<div style=""font-size:60px;"">+</div>","null","","fixation","","","","","","","","",""
"memory-trial","240","584252","0.0-15.0-1.98","1996","2","""event"",""trial"",""time""
""focus"",""0"",""2""
""fullscreenenter"",""1"",""5972""
","
","""event"",""trial"",""time""
""focus"",""0"",""2""
","""event"",""trial"",""time""
""fullscreenenter"",""1"",""5972""
","
","","","","","","2913","images/tree2.png","","","memory_trial","2","maybe_old","","","","","","",""
"html-keyboard-response","241","584757","0.0-15.0-0.99","1996","2","""event"",""trial"",""time""
""focus"",""0"",""2""
""fullscreenenter"",""1"",""5972""
","
","""event"",""trial"",""time""
""focus"",""0"",""2""
","""event"",""trial"",""time""
""fullscreenenter"",""1"",""5972""
","
","","","","","","null","<div style=""font-size:60px;"">+</div>","null","","fixation","","","","","","","","",""
"memory-trial","242","593073","0.0-15.0-1.99","1996","2","""event"",""trial"",""time""
""focus"",""0"",""2""
""fullscreenenter"",""1"",""5972""
","
","""event"",""trial"",""time""
""focus"",""0"",""2""
","""event"",""trial"",""time""
""fullscreenenter"",""1"",""5972""
","
","","","","","","7311","images/straw3.png","","","memory_trial","4","definitely_new","","","","","","",""
"html-keyboard-response","243","593579","0.0-15.0-0.100","1996","2","""event"",""trial"",""time""
""focus"",""0"",""2""
""fullscreenenter"",""1"",""5972""
","
","""event"",""trial"",""time""
""focus"",""0"",""2""
","""event"",""trial"",""time""
""fullscreenenter"",""1"",""5972""
","
","","","","","","null","<div style=""font-size:60px;"">+</div>","null","","fixation","","","","","","","","",""
"memory-trial","244","600946","0.0-15.0-1.100","1996","2","""event"",""trial"",""time""
""focus"",""0"",""2""
""fullscreenenter"",""1"",""5972""
","
","""event"",""trial"",""time""
""focus"",""0"",""2""
","""event"",""trial"",""time""
""fullscreenenter"",""1"",""5972""
","
","","","","","","6364","images/horse1.png","","","memory_trial","4","definitely_new","","","","","","",""
