"trial_type","trial_index","time_elapsed","internal_node_id","subject_id","task_version","interactions","blur_events","focus_events","fullscreenenter_events","fullscreenexit_events","success","timeout","failed_images","failed_audio","failed_video","rt","stimulus","response","button_pressed","task_part","key_press","answer","correct","left_choice","middle_choice","right_choice","choice_positions","option_selected","block"
"pavlovia","0","7","0.0-0.0","1570","2","""event"",""trial"",""time""
""focus"",""0"",""1""
""fullscreenenter"",""1"",""1814""
","
","""event"",""trial"",""time""
""focus"",""0"",""1""
","""event"",""trial"",""time""
""fullscreenenter"",""1"",""1814""
","
","","","","","","","","","","","","","","","","","","",""
"fullscreen","1","2619","0.0-1.0","1570","2","""event"",""trial"",""time""
""focus"",""0"",""1""
""fullscreenenter"",""1"",""1814""
","
","""event"",""trial"",""time""
""focus"",""0"",""1""
","""event"",""trial"",""time""
""fullscreenenter"",""1"",""1814""
","
","true","","","","","","","","","","","","","","","","","",""
"preload","2","3526","0.0-2.0","1570","2","""event"",""trial"",""time""
""focus"",""0"",""1""
""fullscreenenter"",""1"",""1814""
","
","""event"",""trial"",""time""
""focus"",""0"",""1""
","""event"",""trial"",""time""
""fullscreenenter"",""1"",""1814""
","
","true","false","[]","[]","[]","","","","","","","","","","","","","",""
"audio-keyboard-response","3","5638","0.0-3.0","1570","2","""event"",""trial"",""time""
""focus"",""0"",""1""
""fullscreenenter"",""1"",""1814""
","
","""event"",""trial"",""time""
""focus"",""0"",""1""
","""event"",""trial"",""time""
""fullscreenenter"",""1"",""1814""
","
","","","","","","2109.333333333334","audio/beep_loop.wav"," ","","","","","","","","","","",""
"audio-button-response","4","6964","0.0-4.0","1570","2","""event"",""trial"",""time""
""focus"",""0"",""1""
""fullscreenenter"",""1"",""1814""
","
","""event"",""trial"",""time""
""focus"",""0"",""1""
","""event"",""trial"",""time""
""fullscreenenter"",""1"",""1814""
","
","","","","","","1320","audio/turtle.wav","3","","","","","","","","","","",""
"audio-button-response","5","8731","0.0-5.0","1570","2","""event"",""trial"",""time""
""focus"",""0"",""1""
""fullscreenenter"",""1"",""1814""
","
","""event"",""trial"",""time""
""focus"",""0"",""1""
","""event"",""trial"",""time""
""fullscreenenter"",""1"",""1814""
","
","","","","","","749","audio/shark.wav","2","","","","","","","","","","",""
"preload","6","14627","0.0-6.0","1570","2","""event"",""trial"",""time""
""focus"",""0"",""1""
""fullscreenenter"",""1"",""1814""
","
","""event"",""trial"",""time""
""focus"",""0"",""1""
","""event"",""trial"",""time""
""fullscreenenter"",""1"",""1814""
","
","true","false","[]","[]","[]","","","","","","","","","","","","","",""
"learning-instructions","7","21462","0.0-7.0-0.0","1570","2","""event"",""trial"",""time""
""focus"",""0"",""1""
""fullscreenenter"",""1"",""1814""
","
","""event"",""trial"",""time""
""focus"",""0"",""1""
","""event"",""trial"",""time""
""fullscreenenter"",""1"",""1814""
","
","","","","","","2015","<p> Welcome back! </p><p> Last week, you had to make choices about lots of different items.  </p>","","0","instructions","","","","","","","","",""
"learning-instructions","8","27533","0.0-7.0-0.1","1570","2","""event"",""trial"",""time""
""focus"",""0"",""1""
""fullscreenenter"",""1"",""1814""
","
","""event"",""trial"",""time""
""focus"",""0"",""1""
","""event"",""trial"",""time""
""fullscreenenter"",""1"",""1814""
","
","","","","","","1745","<p> Today, we are going to ask you to try to remember all the items. </p>","","0","instructions","","","","","","","","",""
"learning-instructions","9","38188","0.0-7.0-0.2","1570","2","""event"",""trial"",""time""
""focus"",""0"",""1""
""fullscreenenter"",""1"",""1814""
","
","""event"",""trial"",""time""
""focus"",""0"",""1""
","""event"",""trial"",""time""
""fullscreenenter"",""1"",""1814""
","
","","","","","","509","<p> On every trial, you will see an image. </p><p> The image may be an OLD image you saw during the games last week or it may be a NEW image that was not presented. </p>","","0","instructions","","","","","","","","",""
"learning-instructions","10","47177","0.0-7.0-0.3","1570","2","""event"",""trial"",""time""
""focus"",""0"",""1""
""fullscreenenter"",""1"",""1814""
","
","""event"",""trial"",""time""
""focus"",""0"",""1""
","""event"",""trial"",""time""
""fullscreenenter"",""1"",""1814""
","
","","","","","","484","<p> You need to select whether the image is:  </p><p>  'Definitely old', 'Maybe old', 'Maybe new', or 'Definitely new.'  </p><div class=""mem-choice-instructions-grid""><div class=""choice-option"" id=""choice-option-1"" ><img src=""images/definitely_old_1.png"" id=""choice-option-img-1"" class=""choice-option-img"" stage=""1""></div><div class=""choice-option"" id=""choice-option-2"" ><img src=""images/maybe_old_1.png"" id=""choice-option-img-2"" class=""choice-option-img"" stage=""1""></div><div class=""choice-option"" id=""choice-option-3"" ><img src=""images/maybe_new_1.png"" id=""choice-option-img-3"" class=""choice-option-img"" stage=""1""></div><div class=""choice-option"" id=""choice-option-4"" > <img src=""images/definitely_new_1.png"" id=""choice-option-img-4"" class=""choice-option-img"" stage=""1""></div></div>","","0","instructions","","","","","","","","",""
"learning-instructions","11","54403","0.0-7.0-0.4","1570","2","""event"",""trial"",""time""
""focus"",""0"",""1""
""fullscreenenter"",""1"",""1814""
","
","""event"",""trial"",""time""
""focus"",""0"",""1""
","""event"",""trial"",""time""
""fullscreenenter"",""1"",""1814""
","
","","","","","","521","<p> You should use the 1, 2, 3, and 4 keys to make your responses.  </p><div class=""mem-choice-instructions-grid""><div class=""choice-option"" id=""choice-option-1"" ><img src=""images/definitely_old.png"" id=""choice-option-img-1"" class=""choice-option-img"" stage=""1""></div><div class=""choice-option"" id=""choice-option-2"" ><img src=""images/maybe_old.png"" id=""choice-option-img-2"" class=""choice-option-img"" stage=""1""></div><div class=""choice-option"" id=""choice-option-3"" ><img src=""images/maybe_new.png"" id=""choice-option-img-3"" class=""choice-option-img"" stage=""1""></div><div class=""choice-option"" id=""choice-option-4"" > <img src=""images/definitely_new.png"" id=""choice-option-img-4"" class=""choice-option-img"" stage=""1""></div></div>","","0","instructions","","","","","","","","",""
"learning-instructions","12","61881","0.0-7.0-0.5","1570","2","""event"",""trial"",""time""
""focus"",""0"",""1""
""fullscreenenter"",""1"",""1814""
","
","""event"",""trial"",""time""
""focus"",""0"",""1""
","""event"",""trial"",""time""
""fullscreenenter"",""1"",""1814""
","
","","","","","","708","<p> You will have 10 seconds to make each response.  </p><p>  Make sure to respond before time runs out! </p>","","0","instructions","","","","","","","","",""
"learning-instructions","13","72498","0.0-7.0-0.6","1570","2","""event"",""trial"",""time""
""focus"",""0"",""1""
""fullscreenenter"",""1"",""1814""
","
","""event"",""trial"",""time""
""focus"",""0"",""1""
","""event"",""trial"",""time""
""fullscreenenter"",""1"",""1814""
","
","","","","","","3022","<p> Today, you will see each image ONCE only.  </p><p>  That means none of the images will repeat. </p>","","0","instructions","","","","","","","","",""
"learning-instructions","14","85695","0.0-7.0-0.7","1570","2","""event"",""trial"",""time""
""focus"",""0"",""1""
""fullscreenenter"",""1"",""1814""
","
","""event"",""trial"",""time""
""focus"",""0"",""1""
","""event"",""trial"",""time""
""fullscreenenter"",""1"",""1814""
","
","","","","","","516","<p> Before you play the real game, it is time to practice. </p><p>  Just like in the real game, some of the images in the practice will be ones you have seen before. </p><p>  Others will be entirely new. </p>","","0","instructions","","","","","","","","",""
"html-button-response","15","87484","0.0-8.0","1570","2","""event"",""trial"",""time""
""focus"",""0"",""1""
""fullscreenenter"",""1"",""1814""
","
","""event"",""trial"",""time""
""focus"",""0"",""1""
","""event"",""trial"",""time""
""fullscreenenter"",""1"",""1814""
","
","","","","","","1685","<p> Ready to practice? </p><p> Remember, use the 1, 2, 3, and 4 keys to make your responses. </p>","0","","instructions","","","","","","","","",""
"html-keyboard-response","16","88101","0.0-9.0-0.0","1570","2","""event"",""trial"",""time""
""focus"",""0"",""1""
""fullscreenenter"",""1"",""1814""
","
","""event"",""trial"",""time""
""focus"",""0"",""1""
","""event"",""trial"",""time""
""fullscreenenter"",""1"",""1814""
","
","","","","","","null","<div style=""font-size:60px;"">+</div>","null","","fixation","","","","","","","","",""
"memory-trial","17","91008","0.0-9.0-1.0","1570","2","""event"",""trial"",""time""
""focus"",""0"",""1""
""fullscreenenter"",""1"",""1814""
","
","""event"",""trial"",""time""
""focus"",""0"",""1""
","""event"",""trial"",""time""
""fullscreenenter"",""1"",""1814""
","
","","","","","","1893","images/racket1.png","","","practice","1","definitely_old","","","","","","",""
"html-keyboard-response","18","91516","0.0-9.0-0.1","1570","2","""event"",""trial"",""time""
""focus"",""0"",""1""
""fullscreenenter"",""1"",""1814""
","
","""event"",""trial"",""time""
""focus"",""0"",""1""
","""event"",""trial"",""time""
""fullscreenenter"",""1"",""1814""
","
","","","","","","null","<div style=""font-size:60px;"">+</div>","null","","fixation","","","","","","","","",""
"memory-trial","19","94723","0.0-9.0-1.1","1570","2","""event"",""trial"",""time""
""focus"",""0"",""1""
""fullscreenenter"",""1"",""1814""
","
","""event"",""trial"",""time""
""focus"",""0"",""1""
","""event"",""trial"",""time""
""fullscreenenter"",""1"",""1814""
","
","","","","","","2204","images/racket3.png","","","practice","2","maybe_old","","","","","","",""
"html-keyboard-response","20","95240","0.0-9.0-0.2","1570","2","""event"",""trial"",""time""
""focus"",""0"",""1""
""fullscreenenter"",""1"",""1814""
","
","""event"",""trial"",""time""
""focus"",""0"",""1""
","""event"",""trial"",""time""
""fullscreenenter"",""1"",""1814""
","
","","","","","","null","<div style=""font-size:60px;"">+</div>","null","","fixation","","","","","","","","",""
"memory-trial","21","97794","0.0-9.0-1.2","1570","2","""event"",""trial"",""time""
""focus"",""0"",""1""
""fullscreenenter"",""1"",""1814""
","
","""event"",""trial"",""time""
""focus"",""0"",""1""
","""event"",""trial"",""time""
""fullscreenenter"",""1"",""1814""
","
","","","","","","1543","images/ball3.png","","","practice","3","maybe_new","","","","","","",""
"html-keyboard-response","22","98299","0.0-9.0-0.3","1570","2","""event"",""trial"",""time""
""focus"",""0"",""1""
""fullscreenenter"",""1"",""1814""
","
","""event"",""trial"",""time""
""focus"",""0"",""1""
","""event"",""trial"",""time""
""fullscreenenter"",""1"",""1814""
","
","","","","","","null","<div style=""font-size:60px;"">+</div>","null","","fixation","","","","","","","","",""
"memory-trial","23","100571","0.0-9.0-1.3","1570","2","""event"",""trial"",""time""
""focus"",""0"",""1""
""fullscreenenter"",""1"",""1814""
","
","""event"",""trial"",""time""
""focus"",""0"",""1""
","""event"",""trial"",""time""
""fullscreenenter"",""1"",""1814""
","
","","","","","","1258","images/ball4.png","","","practice","1","definitely_old","","","","","","",""
"html-keyboard-response","24","101076","0.0-9.0-0.4","1570","2","""event"",""trial"",""time""
""focus"",""0"",""1""
""fullscreenenter"",""1"",""1814""
","
","""event"",""trial"",""time""
""focus"",""0"",""1""
","""event"",""trial"",""time""
""fullscreenenter"",""1"",""1814""
","
","","","","","","null","<div style=""font-size:60px;"">+</div>","null","","fixation","","","","","","","","",""
"memory-trial","25","103535","0.0-9.0-1.4","1570","2","""event"",""trial"",""time""
""focus"",""0"",""1""
""fullscreenenter"",""1"",""1814""
","
","""event"",""trial"",""time""
""focus"",""0"",""1""
","""event"",""trial"",""time""
""fullscreenenter"",""1"",""1814""
","
","","","","","","1452","images/ball1.png","","","practice","1","definitely_old","","","","","","",""
"html-keyboard-response","26","104037","0.0-9.0-0.5","1570","2","""event"",""trial"",""time""
""focus"",""0"",""1""
""fullscreenenter"",""1"",""1814""
","
","""event"",""trial"",""time""
""focus"",""0"",""1""
","""event"",""trial"",""time""
""fullscreenenter"",""1"",""1814""
","
","","","","","","null","<div style=""font-size:60px;"">+</div>","null","","fixation","","","","","","","","",""
"memory-trial","27","106401","0.0-9.0-1.5","1570","2","""event"",""trial"",""time""
""focus"",""0"",""1""
""fullscreenenter"",""1"",""1814""
","
","""event"",""trial"",""time""
""focus"",""0"",""1""
","""event"",""trial"",""time""
""fullscreenenter"",""1"",""1814""
","
","","","","","","1359","images/racket2.png","","","practice","1","definitely_old","","","","","","",""
"html-keyboard-response","28","106904","0.0-9.0-0.6","1570","2","""event"",""trial"",""time""
""focus"",""0"",""1""
""fullscreenenter"",""1"",""1814""
","
","""event"",""trial"",""time""
""focus"",""0"",""1""
","""event"",""trial"",""time""
""fullscreenenter"",""1"",""1814""
","
","","","","","","null","<div style=""font-size:60px;"">+</div>","null","","fixation","","","","","","","","",""
"memory-trial","29","109075","0.0-9.0-1.6","1570","2","""event"",""trial"",""time""
""focus"",""0"",""1""
""fullscreenenter"",""1"",""1814""
","
","""event"",""trial"",""time""
""focus"",""0"",""1""
","""event"",""trial"",""time""
""fullscreenenter"",""1"",""1814""
","
","","","","","","1157","images/racket4.png","","","practice","3","maybe_new","","","","","","",""
"html-keyboard-response","30","109581","0.0-9.0-0.7","1570","2","""event"",""trial"",""time""
""focus"",""0"",""1""
""fullscreenenter"",""1"",""1814""
","
","""event"",""trial"",""time""
""focus"",""0"",""1""
","""event"",""trial"",""time""
""fullscreenenter"",""1"",""1814""
","
","","","","","","null","<div style=""font-size:60px;"">+</div>","null","","fixation","","","","","","","","",""
"memory-trial","31","111901","0.0-9.0-1.7","1570","2","""event"",""trial"",""time""
""focus"",""0"",""1""
""fullscreenenter"",""1"",""1814""
","
","""event"",""trial"",""time""
""focus"",""0"",""1""
","""event"",""trial"",""time""
""fullscreenenter"",""1"",""1814""
","
","","","","","","1316","images/ball2.png","","","practice","2","maybe_old","","","","","","",""
"learning-instructions","32","120904","0.0-10.0-0.0","1570","2","""event"",""trial"",""time""
""focus"",""0"",""1""
""fullscreenenter"",""1"",""1814""
","
","""event"",""trial"",""time""
""focus"",""0"",""1""
","""event"",""trial"",""time""
""fullscreenenter"",""1"",""1814""
","
","","","","","","1051","<p> Great! You have completed the practice. </p><p> Before you start, we're going to ask you a few questions about how the game works.  </p>","","0","instructions","","","","","","","","",""
"preload","33","122927","0.0-11.0","1570","2","""event"",""trial"",""time""
""focus"",""0"",""1""
""fullscreenenter"",""1"",""1814""
","
","""event"",""trial"",""time""
""focus"",""0"",""1""
","""event"",""trial"",""time""
""fullscreenenter"",""1"",""1814""
","
","true","false","[]","[]","[]","","","","","","","","","","","","","",""
"comp-q","34","129851","0.0-12.0-0.0","1570","2","""event"",""trial"",""time""
""focus"",""0"",""1""
""fullscreenenter"",""1"",""1814""
","
","""event"",""trial"",""time""
""focus"",""0"",""1""
","""event"",""trial"",""time""
""fullscreenenter"",""1"",""1814""
","
","","","","","","1087","<p> <b> True or False? </b> </p><p> In this game, you will only see each image once. </p>","","0","comp_question","","","true","","","","","",""
"comp-q","35","137216","0.0-12.0-1.0","1570","2","""event"",""trial"",""time""
""focus"",""0"",""1""
""fullscreenenter"",""1"",""1814""
","
","""event"",""trial"",""time""
""focus"",""0"",""1""
","""event"",""trial"",""time""
""fullscreenenter"",""1"",""1814""
","
","","","","","","1010","<p> <b> That's right! </b> You will see many different images <i> one time each </i> in this game. </p>","","0","comp_answer","","","","","","","","",""
"comp-q","36","143541","0.0-12.0-0.1","1570","2","""event"",""trial"",""time""
""focus"",""0"",""1""
""fullscreenenter"",""1"",""1814""
","
","""event"",""trial"",""time""
""focus"",""0"",""1""
","""event"",""trial"",""time""
""fullscreenenter"",""1"",""1814""
","
","","","","","","513","<p> <b> True or False? </b> </p><p> You should use the mouse and click to make your response. </p>","","1","comp_question","","","true","","","","","",""
"comp-q","37","151410","0.0-12.0-1.1","1570","2","""event"",""trial"",""time""
""focus"",""0"",""1""
""fullscreenenter"",""1"",""1814""
","
","""event"",""trial"",""time""
""focus"",""0"",""1""
","""event"",""trial"",""time""
""fullscreenenter"",""1"",""1814""
","
","","","","","","511","<p><b> That's right! </b> You should use the '1', '2', '3', and '4' keys to make your response. </p>","","0","comp_answer","","","","","","","","",""
"comp-q","38","157796","0.0-12.0-0.2","1570","2","""event"",""trial"",""time""
""focus"",""0"",""1""
""fullscreenenter"",""1"",""1814""
","
","""event"",""trial"",""time""
""focus"",""0"",""1""
","""event"",""trial"",""time""
""fullscreenenter"",""1"",""1814""
","
","","","","","","366","<p> <b> True or False? </b> </p><p> You will have as much time as you want to make each choice. </p>","","1","comp_question","","","true","","","","","",""
"comp-q","39","166710","0.0-12.0-1.2","1570","2","""event"",""trial"",""time""
""focus"",""0"",""1""
""fullscreenenter"",""1"",""1814""
","
","""event"",""trial"",""time""
""focus"",""0"",""1""
","""event"",""trial"",""time""
""fullscreenenter"",""1"",""1814""
","
","","","","","","3500","<p> <b> That's right! </b> You will only have 10 seconds to make each choice. </p>","","0","comp_answer","","","","","","","","",""
"learning-instructions","40","177522","0.0-13.0","1570","2","""event"",""trial"",""time""
""focus"",""0"",""1""
""fullscreenenter"",""1"",""1814""
","
","""event"",""trial"",""time""
""focus"",""0"",""1""
","""event"",""trial"",""time""
""fullscreenenter"",""1"",""1814""
","
","","","","","","2120","<p> Great! You are now ready to begin the game. </p><p> Remember, use the 1, 2, 3, and 4 keys to make your responses. </p>","","0","instructions","","","","","","","","",""
"preload","41","180697","0.0-14.0","1570","2","""event"",""trial"",""time""
""focus"",""0"",""1""
""fullscreenenter"",""1"",""1814""
","
","""event"",""trial"",""time""
""focus"",""0"",""1""
","""event"",""trial"",""time""
""fullscreenenter"",""1"",""1814""
","
","true","false","[]","[]","[]","","","","","","","","","","","","","",""
"html-keyboard-response","42","181208","0.0-15.0-0.0","1570","2","""event"",""trial"",""time""
""focus"",""0"",""1""
""fullscreenenter"",""1"",""1814""
","
","""event"",""trial"",""time""
""focus"",""0"",""1""
","""event"",""trial"",""time""
""fullscreenenter"",""1"",""1814""
","
","","","","","","null","<div style=""font-size:60px;"">+</div>","null","","fixation","","","","","","","","",""
"memory-trial","43","183534","0.0-15.0-1.0","1570","2","""event"",""trial"",""time""
""focus"",""0"",""1""
""fullscreenenter"",""1"",""1814""
","
","""event"",""trial"",""time""
""focus"",""0"",""1""
","""event"",""trial"",""time""
""fullscreenenter"",""1"",""1814""
","
","","","","","","1320","images/apple4.png","","","memory_trial","4","definitely_new","","","","","","",""
"html-keyboard-response","44","184040","0.0-15.0-0.1","1570","2","""event"",""trial"",""time""
""focus"",""0"",""1""
""fullscreenenter"",""1"",""1814""
","
","""event"",""trial"",""time""
""focus"",""0"",""1""
","""event"",""trial"",""time""
""fullscreenenter"",""1"",""1814""
","
","","","","","","null","<div style=""font-size:60px;"">+</div>","null","","fixation","","","","","","","","",""
"memory-trial","45","186331","0.0-15.0-1.1","1570","2","""event"",""trial"",""time""
""focus"",""0"",""1""
""fullscreenenter"",""1"",""1814""
","
","""event"",""trial"",""time""
""focus"",""0"",""1""
","""event"",""trial"",""time""
""fullscreenenter"",""1"",""1814""
","
","","","","","","1276","images/banana4.png","","","memory_trial","3","maybe_new","","","","","","",""
"html-keyboard-response","46","186833","0.0-15.0-0.2","1570","2","""event"",""trial"",""time""
""focus"",""0"",""1""
""fullscreenenter"",""1"",""1814""
","
","""event"",""trial"",""time""
""focus"",""0"",""1""
","""event"",""trial"",""time""
""fullscreenenter"",""1"",""1814""
","
","","","","","","null","<div style=""font-size:60px;"">+</div>","null","","fixation","","","","","","","","",""
"memory-trial","47","188866","0.0-15.0-1.2","1570","2","""event"",""trial"",""time""
""focus"",""0"",""1""
""fullscreenenter"",""1"",""1814""
","
","""event"",""trial"",""time""
""focus"",""0"",""1""
","""event"",""trial"",""time""
""fullscreenenter"",""1"",""1814""
","
","","","","","","1019","images/goat4.png","","","memory_trial","4","definitely_new","","","","","","",""
"html-keyboard-response","48","189366","0.0-15.0-0.3","1570","2","""event"",""trial"",""time""
""focus"",""0"",""1""
""fullscreenenter"",""1"",""1814""
","
","""event"",""trial"",""time""
""focus"",""0"",""1""
","""event"",""trial"",""time""
""fullscreenenter"",""1"",""1814""
","
","","","","","","null","<div style=""font-size:60px;"">+</div>","null","","fixation","","","","","","","","",""
"memory-trial","49","191611","0.0-15.0-1.3","1570","2","""event"",""trial"",""time""
""focus"",""0"",""1""
""fullscreenenter"",""1"",""1814""
","
","""event"",""trial"",""time""
""focus"",""0"",""1""
","""event"",""trial"",""time""
""fullscreenenter"",""1"",""1814""
","
","","","","","","1233","images/chair3.png","","","memory_trial","3","maybe_new","","","","","","",""
"html-keyboard-response","50","192116","0.0-15.0-0.4","1570","2","""event"",""trial"",""time""
""focus"",""0"",""1""
""fullscreenenter"",""1"",""1814""
","
","""event"",""trial"",""time""
""focus"",""0"",""1""
","""event"",""trial"",""time""
""fullscreenenter"",""1"",""1814""
","
","","","","","","null","<div style=""font-size:60px;"">+</div>","null","","fixation","","","","","","","","",""
"memory-trial","51","193898","0.0-15.0-1.4","1570","2","""event"",""trial"",""time""
""focus"",""0"",""1""
""fullscreenenter"",""1"",""1814""
","
","""event"",""trial"",""time""
""focus"",""0"",""1""
","""event"",""trial"",""time""
""fullscreenenter"",""1"",""1814""
","
","","","","","","767","images/flower1.png","","","memory_trial","1","definitely_old","","","","","","",""
"html-keyboard-response","52","194399","0.0-15.0-0.5","1570","2","""event"",""trial"",""time""
""focus"",""0"",""1""
""fullscreenenter"",""1"",""1814""
","
","""event"",""trial"",""time""
""focus"",""0"",""1""
","""event"",""trial"",""time""
""fullscreenenter"",""1"",""1814""
","
","","","","","","null","<div style=""font-size:60px;"">+</div>","null","","fixation","","","","","","","","",""
"memory-trial","53","196457","0.0-15.0-1.5","1570","2","""event"",""trial"",""time""
""focus"",""0"",""1""
""fullscreenenter"",""1"",""1814""
","
","""event"",""trial"",""time""
""focus"",""0"",""1""
","""event"",""trial"",""time""
""fullscreenenter"",""1"",""1814""
","
","","","","","","1048","images/rodent4.png","","","memory_trial","2","maybe_old","","","","","","",""
"html-keyboard-response","54","196965","0.0-15.0-0.6","1570","2","""event"",""trial"",""time""
""focus"",""0"",""1""
""fullscreenenter"",""1"",""1814""
","
","""event"",""trial"",""time""
""focus"",""0"",""1""
","""event"",""trial"",""time""
""fullscreenenter"",""1"",""1814""
","
","","","","","","null","<div style=""font-size:60px;"">+</div>","null","","fixation","","","","","","","","",""
"memory-trial","55","199258","0.0-15.0-1.6","1570","2","""event"",""trial"",""time""
""focus"",""0"",""1""
""fullscreenenter"",""1"",""1814""
","
","""event"",""trial"",""time""
""focus"",""0"",""1""
","""event"",""trial"",""time""
""fullscreenenter"",""1"",""1814""
","
","","","","","","1277","images/horse1.png","","","memory_trial","1","definitely_old","","","","","","",""
"html-keyboard-response","56","199758","0.0-15.0-0.7","1570","2","""event"",""trial"",""time""
""focus"",""0"",""1""
""fullscreenenter"",""1"",""1814""
","
","""event"",""trial"",""time""
""focus"",""0"",""1""
","""event"",""trial"",""time""
""fullscreenenter"",""1"",""1814""
","
","","","","","","null","<div style=""font-size:60px;"">+</div>","null","","fixation","","","","","","","","",""
"memory-trial","57","201707","0.0-15.0-1.7","1570","2","""event"",""trial"",""time""
""focus"",""0"",""1""
""fullscreenenter"",""1"",""1814""
","
","""event"",""trial"",""time""
""focus"",""0"",""1""
","""event"",""trial"",""time""
""fullscreenenter"",""1"",""1814""
","
","","","","","","945","images/dog3.png","","","memory_trial","1","definitely_old","","","","","","",""
"html-keyboard-response","58","202212","0.0-15.0-0.8","1570","2","""event"",""trial"",""time""
""focus"",""0"",""1""
""fullscreenenter"",""1"",""1814""
","
","""event"",""trial"",""time""
""focus"",""0"",""1""
","""event"",""trial"",""time""
""fullscreenenter"",""1"",""1814""
","
","","","","","","null","<div style=""font-size:60px;"">+</div>","null","","fixation","","","","","","","","",""
"memory-trial","59","204387","0.0-15.0-1.8","1570","2","""event"",""trial"",""time""
""focus"",""0"",""1""
""fullscreenenter"",""1"",""1814""
","
","""event"",""trial"",""time""
""focus"",""0"",""1""
","""event"",""trial"",""time""
""fullscreenenter"",""1"",""1814""
","
","","","","","","1169","images/apple3.png","","","memory_trial","3","maybe_new","","","","","","",""
"html-keyboard-response","60","204901","0.0-15.0-0.9","1570","2","""event"",""trial"",""time""
""focus"",""0"",""1""
""fullscreenenter"",""1"",""1814""
","
","""event"",""trial"",""time""
""focus"",""0"",""1""
","""event"",""trial"",""time""
""fullscreenenter"",""1"",""1814""
","
","","","","","","null","<div style=""font-size:60px;"">+</div>","null","","fixation","","","","","","","","",""
"memory-trial","61","206751","0.0-15.0-1.9","1570","2","""event"",""trial"",""time""
""focus"",""0"",""1""
""fullscreenenter"",""1"",""1814""
","
","""event"",""trial"",""time""
""focus"",""0"",""1""
","""event"",""trial"",""time""
""fullscreenenter"",""1"",""1814""
","
","","","","","","847","images/rabbit3.png","","","memory_trial","2","maybe_old","","","","","","",""
"html-keyboard-response","62","207252","0.0-15.0-0.10","1570","2","""event"",""trial"",""time""
""focus"",""0"",""1""
""fullscreenenter"",""1"",""1814""
","
","""event"",""trial"",""time""
""focus"",""0"",""1""
","""event"",""trial"",""time""
""fullscreenenter"",""1"",""1814""
","
","","","","","","null","<div style=""font-size:60px;"">+</div>","null","","fixation","","","","","","","","",""
"memory-trial","63","209147","0.0-15.0-1.10","1570","2","""event"",""trial"",""time""
""focus"",""0"",""1""
""fullscreenenter"",""1"",""1814""
","
","""event"",""trial"",""time""
""focus"",""0"",""1""
","""event"",""trial"",""time""
""fullscreenenter"",""1"",""1814""
","
","","","","","","883","images/flower2.png","","","memory_trial","1","definitely_old","","","","","","",""
"html-keyboard-response","64","209649","0.0-15.0-0.11","1570","2","""event"",""trial"",""time""
""focus"",""0"",""1""
""fullscreenenter"",""1"",""1814""
","
","""event"",""trial"",""time""
""focus"",""0"",""1""
","""event"",""trial"",""time""
""fullscreenenter"",""1"",""1814""
","
","","","","","","null","<div style=""font-size:60px;"">+</div>","null","","fixation","","","","","","","","",""
"memory-trial","65","211358","0.0-15.0-1.11","1570","2","""event"",""trial"",""time""
""focus"",""0"",""1""
""fullscreenenter"",""1"",""1814""
","
","""event"",""trial"",""time""
""focus"",""0"",""1""
","""event"",""trial"",""time""
""fullscreenenter"",""1"",""1814""
","
","","","","","","700","images/orange4.png","","","memory_trial","1","definitely_old","","","","","","",""
"html-keyboard-response","66","211867","0.0-15.0-0.12","1570","2","""event"",""trial"",""time""
""focus"",""0"",""1""
""fullscreenenter"",""1"",""1814""
","
","""event"",""trial"",""time""
""focus"",""0"",""1""
","""event"",""trial"",""time""
""fullscreenenter"",""1"",""1814""
","
","","","","","","null","<div style=""font-size:60px;"">+</div>","null","","fixation","","","","","","","","",""
"memory-trial","67","213900","0.0-15.0-1.12","1570","2","""event"",""trial"",""time""
""focus"",""0"",""1""
""fullscreenenter"",""1"",""1814""
","
","""event"",""trial"",""time""
""focus"",""0"",""1""
","""event"",""trial"",""time""
""fullscreenenter"",""1"",""1814""
","
","","","","","","1019","images/boat5.png","","","memory_trial","1","definitely_old","","","","","","",""
"html-keyboard-response","68","214410","0.0-15.0-0.13","1570","2","""event"",""trial"",""time""
""focus"",""0"",""1""
""fullscreenenter"",""1"",""1814""
","
","""event"",""trial"",""time""
""focus"",""0"",""1""
","""event"",""trial"",""time""
""fullscreenenter"",""1"",""1814""
","
","","","","","","null","<div style=""font-size:60px;"">+</div>","null","","fixation","","","","","","","","",""
"memory-trial","69","216581","0.0-15.0-1.13","1570","2","""event"",""trial"",""time""
""focus"",""0"",""1""
""fullscreenenter"",""1"",""1814""
","
","""event"",""trial"",""time""
""focus"",""0"",""1""
","""event"",""trial"",""time""
""fullscreenenter"",""1"",""1814""
","
","","","","","","1160","images/bed5.png","","","memory_trial","2","maybe_old","","","","","","",""
"html-keyboard-response","70","217088","0.0-15.0-0.14","1570","2","""event"",""trial"",""time""
""focus"",""0"",""1""
""fullscreenenter"",""1"",""1814""
","
","""event"",""trial"",""time""
""focus"",""0"",""1""
","""event"",""trial"",""time""
""fullscreenenter"",""1"",""1814""
","
","","","","","","null","<div style=""font-size:60px;"">+</div>","null","","fixation","","","","","","","","",""
"memory-trial","71","219197","0.0-15.0-1.14","1570","2","""event"",""trial"",""time""
""focus"",""0"",""1""
""fullscreenenter"",""1"",""1814""
","
","""event"",""trial"",""time""
""focus"",""0"",""1""
","""event"",""trial"",""time""
""fullscreenenter"",""1"",""1814""
","
","","","","","","1104","images/banana1.png","","","memory_trial","2","maybe_old","","","","","","",""
"html-keyboard-response","72","219700","0.0-15.0-0.15","1570","2","""event"",""trial"",""time""
""focus"",""0"",""1""
""fullscreenenter"",""1"",""1814""
","
","""event"",""trial"",""time""
""focus"",""0"",""1""
","""event"",""trial"",""time""
""fullscreenenter"",""1"",""1814""
","
","","","","","","null","<div style=""font-size:60px;"">+</div>","null","","fixation","","","","","","","","",""
"memory-trial","73","221781","0.0-15.0-1.15","1570","2","""event"",""trial"",""time""
""focus"",""0"",""1""
""fullscreenenter"",""1"",""1814""
","
","""event"",""trial"",""time""
""focus"",""0"",""1""
","""event"",""trial"",""time""
""fullscreenenter"",""1"",""1814""
","
","","","","","","1079","images/truck4.png","","","memory_trial","4","definitely_new","","","","","","",""
"html-keyboard-response","74","222283","0.0-15.0-0.16","1570","2","""event"",""trial"",""time""
""focus"",""0"",""1""
""fullscreenenter"",""1"",""1814""
","
","""event"",""trial"",""time""
""focus"",""0"",""1""
","""event"",""trial"",""time""
""fullscreenenter"",""1"",""1814""
","
","","","","","","null","<div style=""font-size:60px;"">+</div>","null","","fixation","","","","","","","","",""
"memory-trial","75","224145","0.0-15.0-1.16","1570","2","""event"",""trial"",""time""
""focus"",""0"",""1""
""fullscreenenter"",""1"",""1814""
","
","""event"",""trial"",""time""
""focus"",""0"",""1""
","""event"",""trial"",""time""
""fullscreenenter"",""1"",""1814""
","
","","","","","","861","images/goat5.png","","","memory_trial","1","definitely_old","","","","","","",""
"html-keyboard-response","76","224648","0.0-15.0-0.17","1570","2","""event"",""trial"",""time""
""focus"",""0"",""1""
""fullscreenenter"",""1"",""1814""
","
","""event"",""trial"",""time""
""focus"",""0"",""1""
","""event"",""trial"",""time""
""fullscreenenter"",""1"",""1814""
","
","","","","","","null","<div style=""font-size:60px;"">+</div>","null","","fixation","","","","","","","","",""
"memory-trial","77","227307","0.0-15.0-1.17","1570","2","""event"",""trial"",""time""
""focus"",""0"",""1""
""fullscreenenter"",""1"",""1814""
","
","""event"",""trial"",""time""
""focus"",""0"",""1""
","""event"",""trial"",""time""
""fullscreenenter"",""1"",""1814""
","
","","","","","","1645","images/cow3.png","","","memory_trial","4","definitely_new","","","","","","",""
"html-keyboard-response","78","227809","0.0-15.0-0.18","1570","2","""event"",""trial"",""time""
""focus"",""0"",""1""
""fullscreenenter"",""1"",""1814""
","
","""event"",""trial"",""time""
""focus"",""0"",""1""
","""event"",""trial"",""time""
""fullscreenenter"",""1"",""1814""
","
","","","","","","null","<div style=""font-size:60px;"">+</div>","null","","fixation","","","","","","","","",""
"memory-trial","79","229772","0.0-15.0-1.18","1570","2","""event"",""trial"",""time""
""focus"",""0"",""1""
""fullscreenenter"",""1"",""1814""
","
","""event"",""trial"",""time""
""focus"",""0"",""1""
","""event"",""trial"",""time""
""fullscreenenter"",""1"",""1814""
","
","","","","","","953","images/sheep5.png","","","memory_trial","1","definitely_old","","","","","","",""
"html-keyboard-response","80","230288","0.0-15.0-0.19","1570","2","""event"",""trial"",""time""
""focus"",""0"",""1""
""fullscreenenter"",""1"",""1814""
","
","""event"",""trial"",""time""
""focus"",""0"",""1""
","""event"",""trial"",""time""
""fullscreenenter"",""1"",""1814""
","
","","","","","","null","<div style=""font-size:60px;"">+</div>","null","","fixation","","","","","","","","",""
"memory-trial","81","232197","0.0-15.0-1.19","1570","2","""event"",""trial"",""time""
""focus"",""0"",""1""
""fullscreenenter"",""1"",""1814""
","
","""event"",""trial"",""time""
""focus"",""0"",""1""
","""event"",""trial"",""time""
""fullscreenenter"",""1"",""1814""
","
","","","","","","895","images/tree5.png","","","memory_trial","1","definitely_old","","","","","","",""
"html-keyboard-response","82","232703","0.0-15.0-0.20","1570","2","""event"",""trial"",""time""
""focus"",""0"",""1""
""fullscreenenter"",""1"",""1814""
","
","""event"",""trial"",""time""
""focus"",""0"",""1""
","""event"",""trial"",""time""
""fullscreenenter"",""1"",""1814""
","
","","","","","","null","<div style=""font-size:60px;"">+</div>","null","","fixation","","","","","","","","",""
"memory-trial","83","234779","0.0-15.0-1.20","1570","2","""event"",""trial"",""time""
""focus"",""0"",""1""
""fullscreenenter"",""1"",""1814""
","
","""event"",""trial"",""time""
""focus"",""0"",""1""
","""event"",""trial"",""time""
""fullscreenenter"",""1"",""1814""
","
","","","","","","1076","images/feline4.png","","","memory_trial","4","definitely_new","","","","","","",""
"html-keyboard-response","84","235293","0.0-15.0-0.21","1570","2","""event"",""trial"",""time""
""focus"",""0"",""1""
""fullscreenenter"",""1"",""1814""
","
","""event"",""trial"",""time""
""focus"",""0"",""1""
","""event"",""trial"",""time""
""fullscreenenter"",""1"",""1814""
","
","","","","","","null","<div style=""font-size:60px;"">+</div>","null","","fixation","","","","","","","","",""
"memory-trial","85","237328","0.0-15.0-1.21","1570","2","""event"",""trial"",""time""
""focus"",""0"",""1""
""fullscreenenter"",""1"",""1814""
","
","""event"",""trial"",""time""
""focus"",""0"",""1""
","""event"",""trial"",""time""
""fullscreenenter"",""1"",""1814""
","
","","","","","","1019","images/table5.png","","","memory_trial","1","definitely_old","","","","","","",""
"html-keyboard-response","86","237831","0.0-15.0-0.22","1570","2","""event"",""trial"",""time""
""focus"",""0"",""1""
""fullscreenenter"",""1"",""1814""
","
","""event"",""trial"",""time""
""focus"",""0"",""1""
","""event"",""trial"",""time""
""fullscreenenter"",""1"",""1814""
","
","","","","","","null","<div style=""font-size:60px;"">+</div>","null","","fixation","","","","","","","","",""
"memory-trial","87","239498","0.0-15.0-1.22","1570","2","""event"",""trial"",""time""
""focus"",""0"",""1""
""fullscreenenter"",""1"",""1814""
","
","""event"",""trial"",""time""
""focus"",""0"",""1""
","""event"",""trial"",""time""
""fullscreenenter"",""1"",""1814""
","
","","","","","","656","images/banana5.png","","","memory_trial","1","definitely_old","","","","","","",""
"html-keyboard-response","88","240003","0.0-15.0-0.23","1570","2","""event"",""trial"",""time""
""focus"",""0"",""1""
""fullscreenenter"",""1"",""1814""
","
","""event"",""trial"",""time""
""focus"",""0"",""1""
","""event"",""trial"",""time""
""fullscreenenter"",""1"",""1814""
","
","","","","","","null","<div style=""font-size:60px;"">+</div>","null","","fixation","","","","","","","","",""
"memory-trial","89","242178","0.0-15.0-1.23","1570","2","""event"",""trial"",""time""
""focus"",""0"",""1""
""fullscreenenter"",""1"",""1814""
","
","""event"",""trial"",""time""
""focus"",""0"",""1""
","""event"",""trial"",""time""
""fullscreenenter"",""1"",""1814""
","
","","","","","","1159","images/straw3.png","","","memory_trial","1","definitely_old","","","","","","",""
"html-keyboard-response","90","242679","0.0-15.0-0.24","1570","2","""event"",""trial"",""time""
""focus"",""0"",""1""
""fullscreenenter"",""1"",""1814""
","
","""event"",""trial"",""time""
""focus"",""0"",""1""
","""event"",""trial"",""time""
""fullscreenenter"",""1"",""1814""
","
","","","","","","null","<div style=""font-size:60px;"">+</div>","null","","fixation","","","","","","","","",""
"memory-trial","91","244349","0.0-15.0-1.24","1570","2","""event"",""trial"",""time""
""focus"",""0"",""1""
""fullscreenenter"",""1"",""1814""
","
","""event"",""trial"",""time""
""focus"",""0"",""1""
","""event"",""trial"",""time""
""fullscreenenter"",""1"",""1814""
","
","","","","","","666","images/train1.png","","","memory_trial","1","definitely_old","","","","","","",""
"html-keyboard-response","92","244865","0.0-15.0-0.25","1570","2","""event"",""trial"",""time""
""focus"",""0"",""1""
""fullscreenenter"",""1"",""1814""
","
","""event"",""trial"",""time""
""focus"",""0"",""1""
","""event"",""trial"",""time""
""fullscreenenter"",""1"",""1814""
","
","","","","","","null","<div style=""font-size:60px;"">+</div>","null","","fixation","","","","","","","","",""
"memory-trial","93","246630","0.0-15.0-1.25","1570","2","""event"",""trial"",""time""
""focus"",""0"",""1""
""fullscreenenter"",""1"",""1814""
","
","""event"",""trial"",""time""
""focus"",""0"",""1""
","""event"",""trial"",""time""
""fullscreenenter"",""1"",""1814""
","
","","","","","","750","images/rodent3.png","","","memory_trial","1","definitely_old","","","","","","",""
"html-keyboard-response","94","247130","0.0-15.0-0.26","1570","2","""event"",""trial"",""time""
""focus"",""0"",""1""
""fullscreenenter"",""1"",""1814""
","
","""event"",""trial"",""time""
""focus"",""0"",""1""
","""event"",""trial"",""time""
""fullscreenenter"",""1"",""1814""
","
","","","","","","null","<div style=""font-size:60px;"">+</div>","null","","fixation","","","","","","","","",""
"memory-trial","95","248830","0.0-15.0-1.26","1570","2","""event"",""trial"",""time""
""focus"",""0"",""1""
""fullscreenenter"",""1"",""1814""
","
","""event"",""trial"",""time""
""focus"",""0"",""1""
","""event"",""trial"",""time""
""fullscreenenter"",""1"",""1814""
","
","","","","","","692","images/plane3.png","","","memory_trial","4","definitely_new","","","","","","",""
"html-keyboard-response","96","249336","0.0-15.0-0.27","1570","2","""event"",""trial"",""time""
""focus"",""0"",""1""
""fullscreenenter"",""1"",""1814""
","
","""event"",""trial"",""time""
""focus"",""0"",""1""
","""event"",""trial"",""time""
""fullscreenenter"",""1"",""1814""
","
","","","","","","null","<div style=""font-size:60px;"">+</div>","null","","fixation","","","","","","","","",""
"memory-trial","97","251116","0.0-15.0-1.27","1570","2","""event"",""trial"",""time""
""focus"",""0"",""1""
""fullscreenenter"",""1"",""1814""
","
","""event"",""trial"",""time""
""focus"",""0"",""1""
","""event"",""trial"",""time""
""fullscreenenter"",""1"",""1814""
","
","","","","","","771","images/bush2.png","","","memory_trial","1","definitely_old","","","","","","",""
"html-keyboard-response","98","251619","0.0-15.0-0.28","1570","2","""event"",""trial"",""time""
""focus"",""0"",""1""
""fullscreenenter"",""1"",""1814""
","
","""event"",""trial"",""time""
""focus"",""0"",""1""
","""event"",""trial"",""time""
""fullscreenenter"",""1"",""1814""
","
","","","","","","null","<div style=""font-size:60px;"">+</div>","null","","fixation","","","","","","","","",""
"memory-trial","99","253301","0.0-15.0-1.28","1570","2","""event"",""trial"",""time""
""focus"",""0"",""1""
""fullscreenenter"",""1"",""1814""
","
","""event"",""trial"",""time""
""focus"",""0"",""1""
","""event"",""trial"",""time""
""fullscreenenter"",""1"",""1814""
","
","","","","","","667","images/flower5.png","","","memory_trial","1","definitely_old","","","","","","",""
"html-keyboard-response","100","253805","0.0-15.0-0.29","1570","2","""event"",""trial"",""time""
""focus"",""0"",""1""
""fullscreenenter"",""1"",""1814""
","
","""event"",""trial"",""time""
""focus"",""0"",""1""
","""event"",""trial"",""time""
""fullscreenenter"",""1"",""1814""
","
","","","","","","null","<div style=""font-size:60px;"">+</div>","null","","fixation","","","","","","","","",""
"memory-trial","101","255509","0.0-15.0-1.29","1570","2","""event"",""trial"",""time""
""focus"",""0"",""1""
""fullscreenenter"",""1"",""1814""
","
","""event"",""trial"",""time""
""focus"",""0"",""1""
","""event"",""trial"",""time""
""fullscreenenter"",""1"",""1814""
","
","","","","","","696","images/straw2.png","","","memory_trial","1","definitely_old","","","","","","",""
"html-keyboard-response","102","256013","0.0-15.0-0.30","1570","2","""event"",""trial"",""time""
""focus"",""0"",""1""
""fullscreenenter"",""1"",""1814""
","
","""event"",""trial"",""time""
""focus"",""0"",""1""
","""event"",""trial"",""time""
""fullscreenenter"",""1"",""1814""
","
","","","","","","null","<div style=""font-size:60px;"">+</div>","null","","fixation","","","","","","","","",""
"memory-trial","103","257633","0.0-15.0-1.30","1570","2","""event"",""trial"",""time""
""focus"",""0"",""1""
""fullscreenenter"",""1"",""1814""
","
","""event"",""trial"",""time""
""focus"",""0"",""1""
","""event"",""trial"",""time""
""fullscreenenter"",""1"",""1814""
","
","","","","","","605","images/goat1.png","","","memory_trial","1","definitely_old","","","","","","",""
"html-keyboard-response","104","258134","0.0-15.0-0.31","1570","2","""event"",""trial"",""time""
""focus"",""0"",""1""
""fullscreenenter"",""1"",""1814""
","
","""event"",""trial"",""time""
""focus"",""0"",""1""
","""event"",""trial"",""time""
""fullscreenenter"",""1"",""1814""
","
","","","","","","null","<div style=""font-size:60px;"">+</div>","null","","fixation","","","","","","","","",""
"memory-trial","105","260149","0.0-15.0-1.31","1570","2","""event"",""trial"",""time""
""focus"",""0"",""1""
""fullscreenenter"",""1"",""1814""
","
","""event"",""trial"",""time""
""focus"",""0"",""1""
","""event"",""trial"",""time""
""fullscreenenter"",""1"",""1814""
","
","","","","","","1006","images/apple1.png","","","memory_trial","3","maybe_new","","","","","","",""
"html-keyboard-response","106","260648","0.0-15.0-0.32","1570","2","""event"",""trial"",""time""
""focus"",""0"",""1""
""fullscreenenter"",""1"",""1814""
","
","""event"",""trial"",""time""
""focus"",""0"",""1""
","""event"",""trial"",""time""
""fullscreenenter"",""1"",""1814""
","
","","","","","","null","<div style=""font-size:60px;"">+</div>","null","","fixation","","","","","","","","",""
"memory-trial","107","262509","0.0-15.0-1.32","1570","2","""event"",""trial"",""time""
""focus"",""0"",""1""
""fullscreenenter"",""1"",""1814""
","
","""event"",""trial"",""time""
""focus"",""0"",""1""
","""event"",""trial"",""time""
""fullscreenenter"",""1"",""1814""
","
","","","","","","852","images/rabbit4.png","","","memory_trial","2","maybe_old","","","","","","",""
"html-keyboard-response","108","263009","0.0-15.0-0.33","1570","2","""event"",""trial"",""time""
""focus"",""0"",""1""
""fullscreenenter"",""1"",""1814""
","
","""event"",""trial"",""time""
""focus"",""0"",""1""
","""event"",""trial"",""time""
""fullscreenenter"",""1"",""1814""
","
","","","","","","null","<div style=""font-size:60px;"">+</div>","null","","fixation","","","","","","","","",""
"memory-trial","109","265085","0.0-15.0-1.33","1570","2","""event"",""trial"",""time""
""focus"",""0"",""1""
""fullscreenenter"",""1"",""1814""
","
","""event"",""trial"",""time""
""focus"",""0"",""1""
","""event"",""trial"",""time""
""fullscreenenter"",""1"",""1814""
","
","","","","","","1072","images/truck2.png","","","memory_trial","3","maybe_new","","","","","","",""
"html-keyboard-response","110","265589","0.0-15.0-0.34","1570","2","""event"",""trial"",""time""
""focus"",""0"",""1""
""fullscreenenter"",""1"",""1814""
","
","""event"",""trial"",""time""
""focus"",""0"",""1""
","""event"",""trial"",""time""
""fullscreenenter"",""1"",""1814""
","
","","","","","","null","<div style=""font-size:60px;"">+</div>","null","","fixation","","","","","","","","",""
"memory-trial","111","267353","0.0-15.0-1.34","1570","2","""event"",""trial"",""time""
""focus"",""0"",""1""
""fullscreenenter"",""1"",""1814""
","
","""event"",""trial"",""time""
""focus"",""0"",""1""
","""event"",""trial"",""time""
""fullscreenenter"",""1"",""1814""
","
","","","","","","757","images/dog1.png","","","memory_trial","1","definitely_old","","","","","","",""
"html-keyboard-response","112","267856","0.0-15.0-0.35","1570","2","""event"",""trial"",""time""
""focus"",""0"",""1""
""fullscreenenter"",""1"",""1814""
","
","""event"",""trial"",""time""
""focus"",""0"",""1""
","""event"",""trial"",""time""
""fullscreenenter"",""1"",""1814""
","
","","","","","","null","<div style=""font-size:60px;"">+</div>","null","","fixation","","","","","","","","",""
"memory-trial","113","269829","0.0-15.0-1.35","1570","2","""event"",""trial"",""time""
""focus"",""0"",""1""
""fullscreenenter"",""1"",""1814""
","
","""event"",""trial"",""time""
""focus"",""0"",""1""
","""event"",""trial"",""time""
""fullscreenenter"",""1"",""1814""
","
","","","","","","966","images/cow5.png","","","memory_trial","4","definitely_new","","","","","","",""
"html-keyboard-response","114","270343","0.0-15.0-0.36","1570","2","""event"",""trial"",""time""
""focus"",""0"",""1""
""fullscreenenter"",""1"",""1814""
","
","""event"",""trial"",""time""
""focus"",""0"",""1""
","""event"",""trial"",""time""
""fullscreenenter"",""1"",""1814""
","
","","","","","","null","<div style=""font-size:60px;"">+</div>","null","","fixation","","","","","","","","",""
"memory-trial","115","272374","0.0-15.0-1.36","1570","2","""event"",""trial"",""time""
""focus"",""0"",""1""
""fullscreenenter"",""1"",""1814""
","
","""event"",""trial"",""time""
""focus"",""0"",""1""
","""event"",""trial"",""time""
""fullscreenenter"",""1"",""1814""
","
","","","","","","1018","images/feline2.png","","","memory_trial","4","definitely_new","","","","","","",""
"html-keyboard-response","116","272880","0.0-15.0-0.37","1570","2","""event"",""trial"",""time""
""focus"",""0"",""1""
""fullscreenenter"",""1"",""1814""
","
","""event"",""trial"",""time""
""focus"",""0"",""1""
","""event"",""trial"",""time""
""fullscreenenter"",""1"",""1814""
","
","","","","","","null","<div style=""font-size:60px;"">+</div>","null","","fixation","","","","","","","","",""
"memory-trial","117","275083","0.0-15.0-1.37","1570","2","""event"",""trial"",""time""
""focus"",""0"",""1""
""fullscreenenter"",""1"",""1814""
","
","""event"",""trial"",""time""
""focus"",""0"",""1""
","""event"",""trial"",""time""
""fullscreenenter"",""1"",""1814""
","
","","","","","","1195","images/straw4.png","","","memory_trial","4","definitely_new","","","","","","",""
"html-keyboard-response","118","275586","0.0-15.0-0.38","1570","2","""event"",""trial"",""time""
""focus"",""0"",""1""
""fullscreenenter"",""1"",""1814""
","
","""event"",""trial"",""time""
""focus"",""0"",""1""
","""event"",""trial"",""time""
""fullscreenenter"",""1"",""1814""
","
","","","","","","null","<div style=""font-size:60px;"">+</div>","null","","fixation","","","","","","","","",""
"memory-trial","119","278797","0.0-15.0-1.38","1570","2","""event"",""trial"",""time""
""focus"",""0"",""1""
""fullscreenenter"",""1"",""1814""
","
","""event"",""trial"",""time""
""focus"",""0"",""1""
","""event"",""trial"",""time""
""fullscreenenter"",""1"",""1814""
","
","","","","","","2195","images/chair1.png","","","memory_trial","2","maybe_old","","","","","","",""
"html-keyboard-response","120","279302","0.0-15.0-0.39","1570","2","""event"",""trial"",""time""
""focus"",""0"",""1""
""fullscreenenter"",""1"",""1814""
","
","""event"",""trial"",""time""
""focus"",""0"",""1""
","""event"",""trial"",""time""
""fullscreenenter"",""1"",""1814""
","
","","","","","","null","<div style=""font-size:60px;"">+</div>","null","","fixation","","","","","","","","",""
"memory-trial","121","281650","0.0-15.0-1.39","1570","2","""event"",""trial"",""time""
""focus"",""0"",""1""
""fullscreenenter"",""1"",""1814""
","
","""event"",""trial"",""time""
""focus"",""0"",""1""
","""event"",""trial"",""time""
""fullscreenenter"",""1"",""1814""
","
","","","","","","1344","images/boat1.png","","","memory_trial","2","maybe_old","","","","","","",""
"html-keyboard-response","122","282155","0.0-15.0-0.40","1570","2","""event"",""trial"",""time""
""focus"",""0"",""1""
""fullscreenenter"",""1"",""1814""
","
","""event"",""trial"",""time""
""focus"",""0"",""1""
","""event"",""trial"",""time""
""fullscreenenter"",""1"",""1814""
","
","","","","","","null","<div style=""font-size:60px;"">+</div>","null","","fixation","","","","","","","","",""
"memory-trial","123","284151","0.0-15.0-1.40","1570","2","""event"",""trial"",""time""
""focus"",""0"",""1""
""fullscreenenter"",""1"",""1814""
","
","""event"",""trial"",""time""
""focus"",""0"",""1""
","""event"",""trial"",""time""
""fullscreenenter"",""1"",""1814""
","
","","","","","","980","images/cow1.png","","","memory_trial","4","definitely_new","","","","","","",""
"html-keyboard-response","124","284656","0.0-15.0-0.41","1570","2","""event"",""trial"",""time""
""focus"",""0"",""1""
""fullscreenenter"",""1"",""1814""
","
","""event"",""trial"",""time""
""focus"",""0"",""1""
","""event"",""trial"",""time""
""fullscreenenter"",""1"",""1814""
","
","","","","","","null","<div style=""font-size:60px;"">+</div>","null","","fixation","","","","","","","","",""
"memory-trial","125","287056","0.0-15.0-1.41","1570","2","""event"",""trial"",""time""
""focus"",""0"",""1""
""fullscreenenter"",""1"",""1814""
","
","""event"",""trial"",""time""
""focus"",""0"",""1""
","""event"",""trial"",""time""
""fullscreenenter"",""1"",""1814""
","
","","","","","","1397","images/bush1.png","","","memory_trial","4","definitely_new","","","","","","",""
"html-keyboard-response","126","287571","0.0-15.0-0.42","1570","2","""event"",""trial"",""time""
""focus"",""0"",""1""
""fullscreenenter"",""1"",""1814""
","
","""event"",""trial"",""time""
""focus"",""0"",""1""
","""event"",""trial"",""time""
""fullscreenenter"",""1"",""1814""
","
","","","","","","null","<div style=""font-size:60px;"">+</div>","null","","fixation","","","","","","","","",""
"memory-trial","127","289489","0.0-15.0-1.42","1570","2","""event"",""trial"",""time""
""focus"",""0"",""1""
""fullscreenenter"",""1"",""1814""
","
","""event"",""trial"",""time""
""focus"",""0"",""1""
","""event"",""trial"",""time""
""fullscreenenter"",""1"",""1814""
","
","","","","","","905","images/chair2.png","","","memory_trial","1","definitely_old","","","","","","",""
"html-keyboard-response","128","289990","0.0-15.0-0.43","1570","2","""event"",""trial"",""time""
""focus"",""0"",""1""
""fullscreenenter"",""1"",""1814""
","
","""event"",""trial"",""time""
""focus"",""0"",""1""
","""event"",""trial"",""time""
""fullscreenenter"",""1"",""1814""
","
","","","","","","null","<div style=""font-size:60px;"">+</div>","null","","fixation","","","","","","","","",""
"memory-trial","129","291991","0.0-15.0-1.43","1570","2","""event"",""trial"",""time""
""focus"",""0"",""1""
""fullscreenenter"",""1"",""1814""
","
","""event"",""trial"",""time""
""focus"",""0"",""1""
","""event"",""trial"",""time""
""fullscreenenter"",""1"",""1814""
","
","","","","","","994","images/cactus1.png","","","memory_trial","4","definitely_new","","","","","","",""
"html-keyboard-response","130","292508","0.0-15.0-0.44","1570","2","""event"",""trial"",""time""
""focus"",""0"",""1""
""fullscreenenter"",""1"",""1814""
","
","""event"",""trial"",""time""
""focus"",""0"",""1""
","""event"",""trial"",""time""
""fullscreenenter"",""1"",""1814""
","
","","","","","","null","<div style=""font-size:60px;"">+</div>","null","","fixation","","","","","","","","",""
"memory-trial","131","294306","0.0-15.0-1.44","1570","2","""event"",""trial"",""time""
""focus"",""0"",""1""
""fullscreenenter"",""1"",""1814""
","
","""event"",""trial"",""time""
""focus"",""0"",""1""
","""event"",""trial"",""time""
""fullscreenenter"",""1"",""1814""
","
","","","","","","785","images/goat2.png","","","memory_trial","1","definitely_old","","","","","","",""
"html-keyboard-response","132","294806","0.0-15.0-0.45","1570","2","""event"",""trial"",""time""
""focus"",""0"",""1""
""fullscreenenter"",""1"",""1814""
","
","""event"",""trial"",""time""
""focus"",""0"",""1""
","""event"",""trial"",""time""
""fullscreenenter"",""1"",""1814""
","
","","","","","","null","<div style=""font-size:60px;"">+</div>","null","","fixation","","","","","","","","",""
"memory-trial","133","296833","0.0-15.0-1.45","1570","2","""event"",""trial"",""time""
""focus"",""0"",""1""
""fullscreenenter"",""1"",""1814""
","
","""event"",""trial"",""time""
""focus"",""0"",""1""
","""event"",""trial"",""time""
""fullscreenenter"",""1"",""1814""
","
","","","","","","1015","images/tree3.png","","","memory_trial","2","maybe_old","","","","","","",""
"html-keyboard-response","134","297339","0.0-15.0-0.46","1570","2","""event"",""trial"",""time""
""focus"",""0"",""1""
""fullscreenenter"",""1"",""1814""
","
","""event"",""trial"",""time""
""focus"",""0"",""1""
","""event"",""trial"",""time""
""fullscreenenter"",""1"",""1814""
","
","","","","","","null","<div style=""font-size:60px;"">+</div>","null","","fixation","","","","","","","","",""
"memory-trial","135","299254","0.0-15.0-1.46","1570","2","""event"",""trial"",""time""
""focus"",""0"",""1""
""fullscreenenter"",""1"",""1814""
","
","""event"",""trial"",""time""
""focus"",""0"",""1""
","""event"",""trial"",""time""
""fullscreenenter"",""1"",""1814""
","
","","","","","","906","images/feline1.png","","","memory_trial","4","definitely_new","","","","","","",""
"html-button-response","136","301520","0.0-15.0-2.46-0.46","1570","2","""event"",""trial"",""time""
""focus"",""0"",""1""
""fullscreenenter"",""1"",""1814""
","
","""event"",""trial"",""time""
""focus"",""0"",""1""
","""event"",""trial"",""time""
""fullscreenenter"",""1"",""1814""
","
","","","","","","2265","<p> Take a break! </p><p> Click the button to continue. </p>","0","","break","","","","","","","","",""
"html-keyboard-response","137","302021","0.0-15.0-0.47","1570","2","""event"",""trial"",""time""
""focus"",""0"",""1""
""fullscreenenter"",""1"",""1814""
","
","""event"",""trial"",""time""
""focus"",""0"",""1""
","""event"",""trial"",""time""
""fullscreenenter"",""1"",""1814""
","
","","","","","","null","<div style=""font-size:60px;"">+</div>","null","","fixation","","","","","","","","",""
"memory-trial","138","305164","0.0-15.0-1.47","1570","2","""event"",""trial"",""time""
""focus"",""0"",""1""
""fullscreenenter"",""1"",""1814""
","
","""event"",""trial"",""time""
""focus"",""0"",""1""
","""event"",""trial"",""time""
""fullscreenenter"",""1"",""1814""
","
","","","","","","2131","images/apple5.png","","","memory_trial","4","definitely_new","","","","","","",""
"html-keyboard-response","139","305669","0.0-15.0-0.48","1570","2","""event"",""trial"",""time""
""focus"",""0"",""1""
""fullscreenenter"",""1"",""1814""
","
","""event"",""trial"",""time""
""focus"",""0"",""1""
","""event"",""trial"",""time""
""fullscreenenter"",""1"",""1814""
","
","","","","","","null","<div style=""font-size:60px;"">+</div>","null","","fixation","","","","","","","","",""
"memory-trial","140","307473","0.0-15.0-1.48","1570","2","""event"",""trial"",""time""
""focus"",""0"",""1""
""fullscreenenter"",""1"",""1814""
","
","""event"",""trial"",""time""
""focus"",""0"",""1""
","""event"",""trial"",""time""
""fullscreenenter"",""1"",""1814""
","
","","","","","","792","images/bush4.png","","","memory_trial","1","definitely_old","","","","","","",""
"html-keyboard-response","141","307977","0.0-15.0-0.49","1570","2","""event"",""trial"",""time""
""focus"",""0"",""1""
""fullscreenenter"",""1"",""1814""
","
","""event"",""trial"",""time""
""focus"",""0"",""1""
","""event"",""trial"",""time""
""fullscreenenter"",""1"",""1814""
","
","","","","","","null","<div style=""font-size:60px;"">+</div>","null","","fixation","","","","","","","","",""
"memory-trial","142","309613","0.0-15.0-1.49","1570","2","""event"",""trial"",""time""
""focus"",""0"",""1""
""fullscreenenter"",""1"",""1814""
","
","""event"",""trial"",""time""
""focus"",""0"",""1""
","""event"",""trial"",""time""
""fullscreenenter"",""1"",""1814""
","
","","","","","","632","images/horse2.png","","","memory_trial","1","definitely_old","","","","","","",""
"html-keyboard-response","143","310117","0.0-15.0-0.50","1570","2","""event"",""trial"",""time""
""focus"",""0"",""1""
""fullscreenenter"",""1"",""1814""
","
","""event"",""trial"",""time""
""focus"",""0"",""1""
","""event"",""trial"",""time""
""fullscreenenter"",""1"",""1814""
","
","","","","","","null","<div style=""font-size:60px;"">+</div>","null","","fixation","","","","","","","","",""
"memory-trial","144","312315","0.0-15.0-1.50","1570","2","""event"",""trial"",""time""
""focus"",""0"",""1""
""fullscreenenter"",""1"",""1814""
","
","""event"",""trial"",""time""
""focus"",""0"",""1""
","""event"",""trial"",""time""
""fullscreenenter"",""1"",""1814""
","
","","","","","","1188","images/train4.png","","","memory_trial","4","definitely_new","","","","","","",""
"html-keyboard-response","145","312815","0.0-15.0-0.51","1570","2","""event"",""trial"",""time""
""focus"",""0"",""1""
""fullscreenenter"",""1"",""1814""
","
","""event"",""trial"",""time""
""focus"",""0"",""1""
","""event"",""trial"",""time""
""fullscreenenter"",""1"",""1814""
","
","","","","","","null","<div style=""font-size:60px;"">+</div>","null","","fixation","","","","","","","","",""
"memory-trial","146","315012","0.0-15.0-1.51","1570","2","""event"",""trial"",""time""
""focus"",""0"",""1""
""fullscreenenter"",""1"",""1814""
","
","""event"",""trial"",""time""
""focus"",""0"",""1""
","""event"",""trial"",""time""
""fullscreenenter"",""1"",""1814""
","
","","","","","","1196","images/sheep2.png","","","memory_trial","4","definitely_new","","","","","","",""
"html-keyboard-response","147","315521","0.0-15.0-0.52","1570","2","""event"",""trial"",""time""
""focus"",""0"",""1""
""fullscreenenter"",""1"",""1814""
","
","""event"",""trial"",""time""
""focus"",""0"",""1""
","""event"",""trial"",""time""
""fullscreenenter"",""1"",""1814""
","
","","","","","","null","<div style=""font-size:60px;"">+</div>","null","","fixation","","","","","","","","",""
"memory-trial","148","317770","0.0-15.0-1.52","1570","2","""event"",""trial"",""time""
""focus"",""0"",""1""
""fullscreenenter"",""1"",""1814""
","
","""event"",""trial"",""time""
""focus"",""0"",""1""
","""event"",""trial"",""time""
""fullscreenenter"",""1"",""1814""
","
","","","","","","1247","images/cactus3.png","","","memory_trial","4","definitely_new","","","","","","",""
"html-keyboard-response","149","318284","0.0-15.0-0.53","1570","2","""event"",""trial"",""time""
""focus"",""0"",""1""
""fullscreenenter"",""1"",""1814""
","
","""event"",""trial"",""time""
""focus"",""0"",""1""
","""event"",""trial"",""time""
""fullscreenenter"",""1"",""1814""
","
","","","","","","null","<div style=""font-size:60px;"">+</div>","null","","fixation","","","","","","","","",""
"memory-trial","150","319977","0.0-15.0-1.53","1570","2","""event"",""trial"",""time""
""focus"",""0"",""1""
""fullscreenenter"",""1"",""1814""
","
","""event"",""trial"",""time""
""focus"",""0"",""1""
","""event"",""trial"",""time""
""fullscreenenter"",""1"",""1814""
","
","","","","","","692","images/sofa3.png","","","memory_trial","1","definitely_old","","","","","","",""
"html-keyboard-response","151","320491","0.0-15.0-0.54","1570","2","""event"",""trial"",""time""
""focus"",""0"",""1""
""fullscreenenter"",""1"",""1814""
","
","""event"",""trial"",""time""
""focus"",""0"",""1""
","""event"",""trial"",""time""
""fullscreenenter"",""1"",""1814""
","
","","","","","","null","<div style=""font-size:60px;"">+</div>","null","","fixation","","","","","","","","",""
"memory-trial","152","322305","0.0-15.0-1.54","1570","2","""event"",""trial"",""time""
""focus"",""0"",""1""
""fullscreenenter"",""1"",""1814""
","
","""event"",""trial"",""time""
""focus"",""0"",""1""
","""event"",""trial"",""time""
""fullscreenenter"",""1"",""1814""
","
","","","","","","800","images/cactus5.png","","","memory_trial","2","maybe_old","","","","","","",""
"html-keyboard-response","153","322819","0.0-15.0-0.55","1570","2","""event"",""trial"",""time""
""focus"",""0"",""1""
""fullscreenenter"",""1"",""1814""
","
","""event"",""trial"",""time""
""focus"",""0"",""1""
","""event"",""trial"",""time""
""fullscreenenter"",""1"",""1814""
","
","","","","","","null","<div style=""font-size:60px;"">+</div>","null","","fixation","","","","","","","","",""
"memory-trial","154","324915","0.0-15.0-1.55","1570","2","""event"",""trial"",""time""
""focus"",""0"",""1""
""fullscreenenter"",""1"",""1814""
","
","""event"",""trial"",""time""
""focus"",""0"",""1""
","""event"",""trial"",""time""
""fullscreenenter"",""1"",""1814""
","
","","","","","","1092","images/table2.png","","","memory_trial","3","maybe_new","","","","","","",""
"html-keyboard-response","155","325431","0.0-15.0-0.56","1570","2","""event"",""trial"",""time""
""focus"",""0"",""1""
""fullscreenenter"",""1"",""1814""
","
","""event"",""trial"",""time""
""focus"",""0"",""1""
","""event"",""trial"",""time""
""fullscreenenter"",""1"",""1814""
","
","","","","","","null","<div style=""font-size:60px;"">+</div>","null","","fixation","","","","","","","","",""
"memory-trial","156","327873","0.0-15.0-1.56","1570","2","""event"",""trial"",""time""
""focus"",""0"",""1""
""fullscreenenter"",""1"",""1814""
","
","""event"",""trial"",""time""
""focus"",""0"",""1""
","""event"",""trial"",""time""
""fullscreenenter"",""1"",""1814""
","
","","","","","","1436","images/straw1.png","","","memory_trial","3","maybe_new","","","","","","",""
"html-keyboard-response","157","328388","0.0-15.0-0.57","1570","2","""event"",""trial"",""time""
""focus"",""0"",""1""
""fullscreenenter"",""1"",""1814""
","
","""event"",""trial"",""time""
""focus"",""0"",""1""
","""event"",""trial"",""time""
""fullscreenenter"",""1"",""1814""
","
","","","","","","null","<div style=""font-size:60px;"">+</div>","null","","fixation","","","","","","","","",""
"memory-trial","158","330839","0.0-15.0-1.57","1570","2","""event"",""trial"",""time""
""focus"",""0"",""1""
""fullscreenenter"",""1"",""1814""
","
","""event"",""trial"",""time""
""focus"",""0"",""1""
","""event"",""trial"",""time""
""fullscreenenter"",""1"",""1814""
","
","","","","","","1441","images/orange1.png","","","memory_trial","2","maybe_old","","","","","","",""
"html-keyboard-response","159","331344","0.0-15.0-0.58","1570","2","""event"",""trial"",""time""
""focus"",""0"",""1""
""fullscreenenter"",""1"",""1814""
","
","""event"",""trial"",""time""
""focus"",""0"",""1""
","""event"",""trial"",""time""
""fullscreenenter"",""1"",""1814""
","
","","","","","","null","<div style=""font-size:60px;"">+</div>","null","","fixation","","","","","","","","",""
"memory-trial","160","333046","0.0-15.0-1.58","1570","2","""event"",""trial"",""time""
""focus"",""0"",""1""
""fullscreenenter"",""1"",""1814""
","
","""event"",""trial"",""time""
""focus"",""0"",""1""
","""event"",""trial"",""time""
""fullscreenenter"",""1"",""1814""
","
","","","","","","701","images/chair5.png","","","memory_trial","1","definitely_old","","","","","","",""
"html-keyboard-response","161","333552","0.0-15.0-0.59","1570","2","""event"",""trial"",""time""
""focus"",""0"",""1""
""fullscreenenter"",""1"",""1814""
","
","""event"",""trial"",""time""
""focus"",""0"",""1""
","""event"",""trial"",""time""
""fullscreenenter"",""1"",""1814""
","
","","","","","","null","<div style=""font-size:60px;"">+</div>","null","","fixation","","","","","","","","",""
"memory-trial","162","335558","0.0-15.0-1.59","1570","2","""event"",""trial"",""time""
""focus"",""0"",""1""
""fullscreenenter"",""1"",""1814""
","
","""event"",""trial"",""time""
""focus"",""0"",""1""
","""event"",""trial"",""time""
""fullscreenenter"",""1"",""1814""
","
","","","","","","995","images/train5.png","","","memory_trial","1","definitely_old","","","","","","",""
"html-keyboard-response","163","336072","0.0-15.0-0.60","1570","2","""event"",""trial"",""time""
""focus"",""0"",""1""
""fullscreenenter"",""1"",""1814""
","
","""event"",""trial"",""time""
""focus"",""0"",""1""
","""event"",""trial"",""time""
""fullscreenenter"",""1"",""1814""
","
","","","","","","null","<div style=""font-size:60px;"">+</div>","null","","fixation","","","","","","","","",""
"memory-trial","164","338349","0.0-15.0-1.60","1570","2","""event"",""trial"",""time""
""focus"",""0"",""1""
""fullscreenenter"",""1"",""1814""
","
","""event"",""trial"",""time""
""focus"",""0"",""1""
","""event"",""trial"",""time""
""fullscreenenter"",""1"",""1814""
","
","","","","","","1271","images/cow2.png","","","memory_trial","4","definitely_new","","","","","","",""
"html-keyboard-response","165","338851","0.0-15.0-0.61","1570","2","""event"",""trial"",""time""
""focus"",""0"",""1""
""fullscreenenter"",""1"",""1814""
","
","""event"",""trial"",""time""
""focus"",""0"",""1""
","""event"",""trial"",""time""
""fullscreenenter"",""1"",""1814""
","
","","","","","","null","<div style=""font-size:60px;"">+</div>","null","","fixation","","","","","","","","",""
"memory-trial","166","340898","0.0-15.0-1.61","1570","2","""event"",""trial"",""time""
""focus"",""0"",""1""
""fullscreenenter"",""1"",""1814""
","
","""event"",""trial"",""time""
""focus"",""0"",""1""
","""event"",""trial"",""time""
""fullscreenenter"",""1"",""1814""
","
","","","","","","1040","images/tree1.png","","","memory_trial","2","maybe_old","","","","","","",""
"html-keyboard-response","167","341400","0.0-15.0-0.62","1570","2","""event"",""trial"",""time""
""focus"",""0"",""1""
""fullscreenenter"",""1"",""1814""
","
","""event"",""trial"",""time""
""focus"",""0"",""1""
","""event"",""trial"",""time""
""fullscreenenter"",""1"",""1814""
","
","","","","","","null","<div style=""font-size:60px;"">+</div>","null","","fixation","","","","","","","","",""
"memory-trial","168","343148","0.0-15.0-1.62","1570","2","""event"",""trial"",""time""
""focus"",""0"",""1""
""fullscreenenter"",""1"",""1814""
","
","""event"",""trial"",""time""
""focus"",""0"",""1""
","""event"",""trial"",""time""
""fullscreenenter"",""1"",""1814""
","
","","","","","","736","images/tree4.png","","","memory_trial","1","definitely_old","","","","","","",""
"html-keyboard-response","169","343662","0.0-15.0-0.63","1570","2","""event"",""trial"",""time""
""focus"",""0"",""1""
""fullscreenenter"",""1"",""1814""
","
","""event"",""trial"",""time""
""focus"",""0"",""1""
","""event"",""trial"",""time""
""fullscreenenter"",""1"",""1814""
","
","","","","","","null","<div style=""font-size:60px;"">+</div>","null","","fixation","","","","","","","","",""
"memory-trial","170","345550","0.0-15.0-1.63","1570","2","""event"",""trial"",""time""
""focus"",""0"",""1""
""fullscreenenter"",""1"",""1814""
","
","""event"",""trial"",""time""
""focus"",""0"",""1""
","""event"",""trial"",""time""
""fullscreenenter"",""1"",""1814""
","
","","","","","","886","images/straw5.png","","","memory_trial","3","maybe_new","","","","","","",""
"html-keyboard-response","171","346055","0.0-15.0-0.64","1570","2","""event"",""trial"",""time""
""focus"",""0"",""1""
""fullscreenenter"",""1"",""1814""
","
","""event"",""trial"",""time""
""focus"",""0"",""1""
","""event"",""trial"",""time""
""fullscreenenter"",""1"",""1814""
","
","","","","","","null","<div style=""font-size:60px;"">+</div>","null","","fixation","","","","","","","","",""
"memory-trial","172","347788","0.0-15.0-1.64","1570","2","""event"",""trial"",""time""
""focus"",""0"",""1""
""fullscreenenter"",""1"",""1814""
","
","""event"",""trial"",""time""
""focus"",""0"",""1""
","""event"",""trial"",""time""
""fullscreenenter"",""1"",""1814""
","
","","","","","","722","images/rodent5.png","","","memory_trial","1","definitely_old","","","","","","",""
"html-keyboard-response","173","348302","0.0-15.0-0.65","1570","2","""event"",""trial"",""time""
""focus"",""0"",""1""
""fullscreenenter"",""1"",""1814""
","
","""event"",""trial"",""time""
""focus"",""0"",""1""
","""event"",""trial"",""time""
""fullscreenenter"",""1"",""1814""
","
","","","","","","null","<div style=""font-size:60px;"">+</div>","null","","fixation","","","","","","","","",""
"memory-trial","174","350782","0.0-15.0-1.65","1570","2","""event"",""trial"",""time""
""focus"",""0"",""1""
""fullscreenenter"",""1"",""1814""
","
","""event"",""trial"",""time""
""focus"",""0"",""1""
","""event"",""trial"",""time""
""fullscreenenter"",""1"",""1814""
","
","","","","","","1474","images/truck3.png","","","memory_trial","2","maybe_old","","","","","","",""
"html-keyboard-response","175","351285","0.0-15.0-0.66","1570","2","""event"",""trial"",""time""
""focus"",""0"",""1""
""fullscreenenter"",""1"",""1814""
","
","""event"",""trial"",""time""
""focus"",""0"",""1""
","""event"",""trial"",""time""
""fullscreenenter"",""1"",""1814""
","
","","","","","","null","<div style=""font-size:60px;"">+</div>","null","","fixation","","","","","","","","",""
"memory-trial","176","352987","0.0-15.0-1.66","1570","2","""event"",""trial"",""time""
""focus"",""0"",""1""
""fullscreenenter"",""1"",""1814""
","
","""event"",""trial"",""time""
""focus"",""0"",""1""
","""event"",""trial"",""time""
""fullscreenenter"",""1"",""1814""
","
","","","","","","693","images/bush3.png","","","memory_trial","1","definitely_old","","","","","","",""
"html-keyboard-response","177","353487","0.0-15.0-0.67","1570","2","""event"",""trial"",""time""
""focus"",""0"",""1""
""fullscreenenter"",""1"",""1814""
","
","""event"",""trial"",""time""
""focus"",""0"",""1""
","""event"",""trial"",""time""
""fullscreenenter"",""1"",""1814""
","
","","","","","","null","<div style=""font-size:60px;"">+</div>","null","","fixation","","","","","","","","",""
"memory-trial","178","356055","0.0-15.0-1.67","1570","2","""event"",""trial"",""time""
""focus"",""0"",""1""
""fullscreenenter"",""1"",""1814""
","
","""event"",""trial"",""time""
""focus"",""0"",""1""
","""event"",""trial"",""time""
""fullscreenenter"",""1"",""1814""
","
","","","","","","1552","images/bed1.png","","","memory_trial","3","maybe_new","","","","","","",""
"html-keyboard-response","179","356570","0.0-15.0-0.68","1570","2","""event"",""trial"",""time""
""focus"",""0"",""1""
""fullscreenenter"",""1"",""1814""
","
","""event"",""trial"",""time""
""focus"",""0"",""1""
","""event"",""trial"",""time""
""fullscreenenter"",""1"",""1814""
","
","","","","","","null","<div style=""font-size:60px;"">+</div>","null","","fixation","","","","","","","","",""
"memory-trial","180","358436","0.0-15.0-1.68","1570","2","""event"",""trial"",""time""
""focus"",""0"",""1""
""fullscreenenter"",""1"",""1814""
","
","""event"",""trial"",""time""
""focus"",""0"",""1""
","""event"",""trial"",""time""
""fullscreenenter"",""1"",""1814""
","
","","","","","","856","images/rabbit2.png","","","memory_trial","1","definitely_old","","","","","","",""
"html-keyboard-response","181","358944","0.0-15.0-0.69","1570","2","""event"",""trial"",""time""
""focus"",""0"",""1""
""fullscreenenter"",""1"",""1814""
","
","""event"",""trial"",""time""
""focus"",""0"",""1""
","""event"",""trial"",""time""
""fullscreenenter"",""1"",""1814""
","
","","","","","","null","<div style=""font-size:60px;"">+</div>","null","","fixation","","","","","","","","",""
"memory-trial","182","360616","0.0-15.0-1.69","1570","2","""event"",""trial"",""time""
""focus"",""0"",""1""
""fullscreenenter"",""1"",""1814""
","
","""event"",""trial"",""time""
""focus"",""0"",""1""
","""event"",""trial"",""time""
""fullscreenenter"",""1"",""1814""
","
","","","","","","657","images/rodent1.png","","","memory_trial","1","definitely_old","","","","","","",""
"html-keyboard-response","183","361130","0.0-15.0-0.70","1570","2","""event"",""trial"",""time""
""focus"",""0"",""1""
""fullscreenenter"",""1"",""1814""
","
","""event"",""trial"",""time""
""focus"",""0"",""1""
","""event"",""trial"",""time""
""fullscreenenter"",""1"",""1814""
","
","","","","","","null","<div style=""font-size:60px;"">+</div>","null","","fixation","","","","","","","","",""
"memory-trial","184","363271","0.0-15.0-1.70","1570","2","""event"",""trial"",""time""
""focus"",""0"",""1""
""fullscreenenter"",""1"",""1814""
","
","""event"",""trial"",""time""
""focus"",""0"",""1""
","""event"",""trial"",""time""
""fullscreenenter"",""1"",""1814""
","
","","","","","","1128","images/boat3.png","","","memory_trial","3","maybe_new","","","","","","",""
"html-keyboard-response","185","363773","0.0-15.0-0.71","1570","2","""event"",""trial"",""time""
""focus"",""0"",""1""
""fullscreenenter"",""1"",""1814""
","
","""event"",""trial"",""time""
""focus"",""0"",""1""
","""event"",""trial"",""time""
""fullscreenenter"",""1"",""1814""
","
","","","","","","null","<div style=""font-size:60px;"">+</div>","null","","fixation","","","","","","","","",""
"memory-trial","186","365492","0.0-15.0-1.71","1570","2","""event"",""trial"",""time""
""focus"",""0"",""1""
""fullscreenenter"",""1"",""1814""
","
","""event"",""trial"",""time""
""focus"",""0"",""1""
","""event"",""trial"",""time""
""fullscreenenter"",""1"",""1814""
","
","","","","","","712","images/dog4.png","","","memory_trial","1","definitely_old","","","","","","",""
"html-keyboard-response","187","366007","0.0-15.0-0.72","1570","2","""event"",""trial"",""time""
""focus"",""0"",""1""
""fullscreenenter"",""1"",""1814""
","
","""event"",""trial"",""time""
""focus"",""0"",""1""
","""event"",""trial"",""time""
""fullscreenenter"",""1"",""1814""
","
","","","","","","null","<div style=""font-size:60px;"">+</div>","null","","fixation","","","","","","","","",""
"memory-trial","188","368181","0.0-15.0-1.72","1570","2","""event"",""trial"",""time""
""focus"",""0"",""1""
""fullscreenenter"",""1"",""1814""
","
","""event"",""trial"",""time""
""focus"",""0"",""1""
","""event"",""trial"",""time""
""fullscreenenter"",""1"",""1814""
","
","","","","","","1173","images/plane4.png","","","memory_trial","4","definitely_new","","","","","","",""
"html-keyboard-response","189","368696","0.0-15.0-0.73","1570","2","""event"",""trial"",""time""
""focus"",""0"",""1""
""fullscreenenter"",""1"",""1814""
","
","""event"",""trial"",""time""
""focus"",""0"",""1""
","""event"",""trial"",""time""
""fullscreenenter"",""1"",""1814""
","
","","","","","","null","<div style=""font-size:60px;"">+</div>","null","","fixation","","","","","","","","",""
"memory-trial","190","371105","0.0-15.0-1.73","1570","2","""event"",""trial"",""time""
""focus"",""0"",""1""
""fullscreenenter"",""1"",""1814""
","
","""event"",""trial"",""time""
""focus"",""0"",""1""
","""event"",""trial"",""time""
""fullscreenenter"",""1"",""1814""
","
","","","","","","1396","images/sofa1.png","","","memory_trial","3","maybe_new","","","","","","",""
"html-keyboard-response","191","371618","0.0-15.0-0.74","1570","2","""event"",""trial"",""time""
""focus"",""0"",""1""
""fullscreenenter"",""1"",""1814""
","
","""event"",""trial"",""time""
""focus"",""0"",""1""
","""event"",""trial"",""time""
""fullscreenenter"",""1"",""1814""
","
","","","","","","null","<div style=""font-size:60px;"">+</div>","null","","fixation","","","","","","","","",""
"memory-trial","192","373946","0.0-15.0-1.74","1570","2","""event"",""trial"",""time""
""focus"",""0"",""1""
""fullscreenenter"",""1"",""1814""
","
","""event"",""trial"",""time""
""focus"",""0"",""1""
","""event"",""trial"",""time""
""fullscreenenter"",""1"",""1814""
","
","","","","","","1317","images/plane1.png","","","memory_trial","4","definitely_new","","","","","","",""
"html-keyboard-response","193","374462","0.0-15.0-0.75","1570","2","""event"",""trial"",""time""
""focus"",""0"",""1""
""fullscreenenter"",""1"",""1814""
","
","""event"",""trial"",""time""
""focus"",""0"",""1""
","""event"",""trial"",""time""
""fullscreenenter"",""1"",""1814""
","
","","","","","","null","<div style=""font-size:60px;"">+</div>","null","","fixation","","","","","","","","",""
"memory-trial","194","377381","0.0-15.0-1.75","1570","2","""event"",""trial"",""time""
""focus"",""0"",""1""
""fullscreenenter"",""1"",""1814""
","
","""event"",""trial"",""time""
""focus"",""0"",""1""
","""event"",""trial"",""time""
""fullscreenenter"",""1"",""1814""
","
","","","","","","1913","images/bed3.png","","","memory_trial","4","definitely_new","","","","","","",""
"html-keyboard-response","195","377895","0.0-15.0-0.76","1570","2","""event"",""trial"",""time""
""focus"",""0"",""1""
""fullscreenenter"",""1"",""1814""
","
","""event"",""trial"",""time""
""focus"",""0"",""1""
","""event"",""trial"",""time""
""fullscreenenter"",""1"",""1814""
","
","","","","","","null","<div style=""font-size:60px;"">+</div>","null","","fixation","","","","","","","","",""
"memory-trial","196","380339","0.0-15.0-1.76","1570","2","""event"",""trial"",""time""
""focus"",""0"",""1""
""fullscreenenter"",""1"",""1814""
","
","""event"",""trial"",""time""
""focus"",""0"",""1""
","""event"",""trial"",""time""
""fullscreenenter"",""1"",""1814""
","
","","","","","","1439","images/dog2.png","","","memory_trial","1","definitely_old","","","","","","",""
"html-keyboard-response","197","380850","0.0-15.0-0.77","1570","2","""event"",""trial"",""time""
""focus"",""0"",""1""
""fullscreenenter"",""1"",""1814""
","
","""event"",""trial"",""time""
""focus"",""0"",""1""
","""event"",""trial"",""time""
""fullscreenenter"",""1"",""1814""
","
","","","","","","null","<div style=""font-size:60px;"">+</div>","null","","fixation","","","","","","","","",""
"memory-trial","198","382599","0.0-15.0-1.77","1570","2","""event"",""trial"",""time""
""focus"",""0"",""1""
""fullscreenenter"",""1"",""1814""
","
","""event"",""trial"",""time""
""focus"",""0"",""1""
","""event"",""trial"",""time""
""fullscreenenter"",""1"",""1814""
","
","","","","","","735","images/banana2.png","","","memory_trial","1","definitely_old","","","","","","",""
"html-keyboard-response","199","383115","0.0-15.0-0.78","1570","2","""event"",""trial"",""time""
""focus"",""0"",""1""
""fullscreenenter"",""1"",""1814""
","
","""event"",""trial"",""time""
""focus"",""0"",""1""
","""event"",""trial"",""time""
""fullscreenenter"",""1"",""1814""
","
","","","","","","null","<div style=""font-size:60px;"">+</div>","null","","fixation","","","","","","","","",""
"memory-trial","200","384801","0.0-15.0-1.78","1570","2","""event"",""trial"",""time""
""focus"",""0"",""1""
""fullscreenenter"",""1"",""1814""
","
","""event"",""trial"",""time""
""focus"",""0"",""1""
","""event"",""trial"",""time""
""fullscreenenter"",""1"",""1814""
","
","","","","","","682","images/orange2.png","","","memory_trial","1","definitely_old","","","","","","",""
"html-keyboard-response","201","385312","0.0-15.0-0.79","1570","2","""event"",""trial"",""time""
""focus"",""0"",""1""
""fullscreenenter"",""1"",""1814""
","
","""event"",""trial"",""time""
""focus"",""0"",""1""
","""event"",""trial"",""time""
""fullscreenenter"",""1"",""1814""
","
","","","","","","null","<div style=""font-size:60px;"">+</div>","null","","fixation","","","","","","","","",""
"memory-trial","202","387456","0.0-15.0-1.79","1570","2","""event"",""trial"",""time""
""focus"",""0"",""1""
""fullscreenenter"",""1"",""1814""
","
","""event"",""trial"",""time""
""focus"",""0"",""1""
","""event"",""trial"",""time""
""fullscreenenter"",""1"",""1814""
","
","","","","","","1133","images/boat2.png","","","memory_trial","3","maybe_new","","","","","","",""
"html-keyboard-response","203","387963","0.0-15.0-0.80","1570","2","""event"",""trial"",""time""
""focus"",""0"",""1""
""fullscreenenter"",""1"",""1814""
","
","""event"",""trial"",""time""
""focus"",""0"",""1""
","""event"",""trial"",""time""
""fullscreenenter"",""1"",""1814""
","
","","","","","","null","<div style=""font-size:60px;"">+</div>","null","","fixation","","","","","","","","",""
"memory-trial","204","389925","0.0-15.0-1.80","1570","2","""event"",""trial"",""time""
""focus"",""0"",""1""
""fullscreenenter"",""1"",""1814""
","
","""event"",""trial"",""time""
""focus"",""0"",""1""
","""event"",""trial"",""time""
""fullscreenenter"",""1"",""1814""
","
","","","","","","957","images/horse3.png","","","memory_trial","1","definitely_old","","","","","","",""
"html-keyboard-response","205","390428","0.0-15.0-0.81","1570","2","""event"",""trial"",""time""
""focus"",""0"",""1""
""fullscreenenter"",""1"",""1814""
","
","""event"",""trial"",""time""
""focus"",""0"",""1""
","""event"",""trial"",""time""
""fullscreenenter"",""1"",""1814""
","
","","","","","","null","<div style=""font-size:60px;"">+</div>","null","","fixation","","","","","","","","",""
"memory-trial","206","392110","0.0-15.0-1.81","1570","2","""event"",""trial"",""time""
""focus"",""0"",""1""
""fullscreenenter"",""1"",""1814""
","
","""event"",""trial"",""time""
""focus"",""0"",""1""
","""event"",""trial"",""time""
""fullscreenenter"",""1"",""1814""
","
","","","","","","668","images/sheep3.png","","","memory_trial","1","definitely_old","","","","","","",""
"html-keyboard-response","207","392617","0.0-15.0-0.82","1570","2","""event"",""trial"",""time""
""focus"",""0"",""1""
""fullscreenenter"",""1"",""1814""
","
","""event"",""trial"",""time""
""focus"",""0"",""1""
","""event"",""trial"",""time""
""fullscreenenter"",""1"",""1814""
","
","","","","","","null","<div style=""font-size:60px;"">+</div>","null","","fixation","","","","","","","","",""
"memory-trial","208","394902","0.0-15.0-1.82","1570","2","""event"",""trial"",""time""
""focus"",""0"",""1""
""fullscreenenter"",""1"",""1814""
","
","""event"",""trial"",""time""
""focus"",""0"",""1""
","""event"",""trial"",""time""
""fullscreenenter"",""1"",""1814""
","
","","","","","","1269","images/cactus2.png","","","memory_trial","3","maybe_new","","","","","","",""
"html-keyboard-response","209","395408","0.0-15.0-0.83","1570","2","""event"",""trial"",""time""
""focus"",""0"",""1""
""fullscreenenter"",""1"",""1814""
","
","""event"",""trial"",""time""
""focus"",""0"",""1""
","""event"",""trial"",""time""
""fullscreenenter"",""1"",""1814""
","
","","","","","","null","<div style=""font-size:60px;"">+</div>","null","","fixation","","","","","","","","",""
"memory-trial","210","397525","0.0-15.0-1.83","1570","2","""event"",""trial"",""time""
""focus"",""0"",""1""
""fullscreenenter"",""1"",""1814""
","
","""event"",""trial"",""time""
""focus"",""0"",""1""
","""event"",""trial"",""time""
""fullscreenenter"",""1"",""1814""
","
","","","","","","1104","images/rabbit5.png","","","memory_trial","1","definitely_old","","","","","","",""
"html-keyboard-response","211","398031","0.0-15.0-0.84","1570","2","""event"",""trial"",""time""
""focus"",""0"",""1""
""fullscreenenter"",""1"",""1814""
","
","""event"",""trial"",""time""
""focus"",""0"",""1""
","""event"",""trial"",""time""
""fullscreenenter"",""1"",""1814""
","
","","","","","","null","<div style=""font-size:60px;"">+</div>","null","","fixation","","","","","","","","",""
"memory-trial","212","400152","0.0-15.0-1.84","1570","2","""event"",""trial"",""time""
""focus"",""0"",""1""
""fullscreenenter"",""1"",""1814""
","
","""event"",""trial"",""time""
""focus"",""0"",""1""
","""event"",""trial"",""time""
""fullscreenenter"",""1"",""1814""
","
","","","","","","1106","images/tree2.png","","","memory_trial","4","definitely_new","","","","","","",""
"html-keyboard-response","213","400654","0.0-15.0-0.85","1570","2","""event"",""trial"",""time""
""focus"",""0"",""1""
""fullscreenenter"",""1"",""1814""
","
","""event"",""trial"",""time""
""focus"",""0"",""1""
","""event"",""trial"",""time""
""fullscreenenter"",""1"",""1814""
","
","","","","","","null","<div style=""font-size:60px;"">+</div>","null","","fixation","","","","","","","","",""
"memory-trial","214","402780","0.0-15.0-1.85","1570","2","""event"",""trial"",""time""
""focus"",""0"",""1""
""fullscreenenter"",""1"",""1814""
","
","""event"",""trial"",""time""
""focus"",""0"",""1""
","""event"",""trial"",""time""
""fullscreenenter"",""1"",""1814""
","
","","","","","","1125","images/orange5.png","","","memory_trial","2","maybe_old","","","","","","",""
"html-keyboard-response","215","403284","0.0-15.0-0.86","1570","2","""event"",""trial"",""time""
""focus"",""0"",""1""
""fullscreenenter"",""1"",""1814""
","
","""event"",""trial"",""time""
""focus"",""0"",""1""
","""event"",""trial"",""time""
""fullscreenenter"",""1"",""1814""
","
","","","","","","null","<div style=""font-size:60px;"">+</div>","null","","fixation","","","","","","","","",""
"memory-trial","216","405088","0.0-15.0-1.86","1570","2","""event"",""trial"",""time""
""focus"",""0"",""1""
""fullscreenenter"",""1"",""1814""
","
","""event"",""trial"",""time""
""focus"",""0"",""1""
","""event"",""trial"",""time""
""fullscreenenter"",""1"",""1814""
","
","","","","","","800","images/rodent2.png","","","memory_trial","1","definitely_old","","","","","","",""
"html-keyboard-response","217","405603","0.0-15.0-0.87","1570","2","""event"",""trial"",""time""
""focus"",""0"",""1""
""fullscreenenter"",""1"",""1814""
","
","""event"",""trial"",""time""
""focus"",""0"",""1""
","""event"",""trial"",""time""
""fullscreenenter"",""1"",""1814""
","
","","","","","","null","<div style=""font-size:60px;"">+</div>","null","","fixation","","","","","","","","",""
"memory-trial","218","407504","0.0-15.0-1.87","1570","2","""event"",""trial"",""time""
""focus"",""0"",""1""
""fullscreenenter"",""1"",""1814""
","
","""event"",""trial"",""time""
""focus"",""0"",""1""
","""event"",""trial"",""time""
""fullscreenenter"",""1"",""1814""
","
","","","","","","893","images/sofa4.png","","","memory_trial","3","maybe_new","","","","","","",""
"html-keyboard-response","219","408019","0.0-15.0-0.88","1570","2","""event"",""trial"",""time""
""focus"",""0"",""1""
""fullscreenenter"",""1"",""1814""
","
","""event"",""trial"",""time""
""focus"",""0"",""1""
","""event"",""trial"",""time""
""fullscreenenter"",""1"",""1814""
","
","","","","","","null","<div style=""font-size:60px;"">+</div>","null","","fixation","","","","","","","","",""
"memory-trial","220","409746","0.0-15.0-1.88","1570","2","""event"",""trial"",""time""
""focus"",""0"",""1""
""fullscreenenter"",""1"",""1814""
","
","""event"",""trial"",""time""
""focus"",""0"",""1""
","""event"",""trial"",""time""
""fullscreenenter"",""1"",""1814""
","
","","","","","","722","images/chair4.png","","","memory_trial","1","definitely_old","","","","","","",""
"html-keyboard-response","221","410253","0.0-15.0-0.89","1570","2","""event"",""trial"",""time""
""focus"",""0"",""1""
""fullscreenenter"",""1"",""1814""
","
","""event"",""trial"",""time""
""focus"",""0"",""1""
","""event"",""trial"",""time""
""fullscreenenter"",""1"",""1814""
","
","","","","","","null","<div style=""font-size:60px;"">+</div>","null","","fixation","","","","","","","","",""
"memory-trial","222","411943","0.0-15.0-1.89","1570","2","""event"",""trial"",""time""
""focus"",""0"",""1""
""fullscreenenter"",""1"",""1814""
","
","""event"",""trial"",""time""
""focus"",""0"",""1""
","""event"",""trial"",""time""
""fullscreenenter"",""1"",""1814""
","
","","","","","","681","images/truck5.png","","","memory_trial","1","definitely_old","","","","","","",""
"html-keyboard-response","223","412455","0.0-15.0-0.90","1570","2","""event"",""trial"",""time""
""focus"",""0"",""1""
""fullscreenenter"",""1"",""1814""
","
","""event"",""trial"",""time""
""focus"",""0"",""1""
","""event"",""trial"",""time""
""fullscreenenter"",""1"",""1814""
","
","","","","","","null","<div style=""font-size:60px;"">+</div>","null","","fixation","","","","","","","","",""
"memory-trial","224","414425","0.0-15.0-1.90","1570","2","""event"",""trial"",""time""
""focus"",""0"",""1""
""fullscreenenter"",""1"",""1814""
","
","""event"",""trial"",""time""
""focus"",""0"",""1""
","""event"",""trial"",""time""
""fullscreenenter"",""1"",""1814""
","
","","","","","","965","images/sofa2.png","","","memory_trial","2","maybe_old","","","","","","",""
"html-keyboard-response","225","414938","0.0-15.0-0.91","1570","2","""event"",""trial"",""time""
""focus"",""0"",""1""
""fullscreenenter"",""1"",""1814""
","
","""event"",""trial"",""time""
""focus"",""0"",""1""
","""event"",""trial"",""time""
""fullscreenenter"",""1"",""1814""
","
","","","","","","null","<div style=""font-size:60px;"">+</div>","null","","fixation","","","","","","","","",""
"memory-trial","226","416970","0.0-15.0-1.91","1570","2","""event"",""trial"",""time""
""focus"",""0"",""1""
""fullscreenenter"",""1"",""1814""
","
","""event"",""trial"",""time""
""focus"",""0"",""1""
","""event"",""trial"",""time""
""fullscreenenter"",""1"",""1814""
","
","","","","","","1027","images/sofa5.png","","","memory_trial","2","maybe_old","","","","","","",""
"html-keyboard-response","227","417480","0.0-15.0-0.92","1570","2","""event"",""trial"",""time""
""focus"",""0"",""1""
""fullscreenenter"",""1"",""1814""
","
","""event"",""trial"",""time""
""focus"",""0"",""1""
","""event"",""trial"",""time""
""fullscreenenter"",""1"",""1814""
","
","","","","","","null","<div style=""font-size:60px;"">+</div>","null","","fixation","","","","","","","","",""
"memory-trial","228","420211","0.0-15.0-1.92","1570","2","""event"",""trial"",""time""
""focus"",""0"",""1""
""fullscreenenter"",""1"",""1814""
","
","""event"",""trial"",""time""
""focus"",""0"",""1""
","""event"",""trial"",""time""
""fullscreenenter"",""1"",""1814""
","
","","","","","","1720","images/feline3.png","","","memory_trial","4","definitely_new","","","","","","",""
"html-keyboard-response","229","420723","0.0-15.0-0.93","1570","2","""event"",""trial"",""time""
""focus"",""0"",""1""
""fullscreenenter"",""1"",""1814""
","
","""event"",""trial"",""time""
""focus"",""0"",""1""
","""event"",""trial"",""time""
""fullscreenenter"",""1"",""1814""
","
","","","","","","null","<div style=""font-size:60px;"">+</div>","null","","fixation","","","","","","","","",""
"memory-trial","230","422472","0.0-15.0-1.93","1570","2","""event"",""trial"",""time""
""focus"",""0"",""1""
""fullscreenenter"",""1"",""1814""
","
","""event"",""trial"",""time""
""focus"",""0"",""1""
","""event"",""trial"",""time""
""fullscreenenter"",""1"",""1814""
","
","","","","","","747","images/table4.png","","","memory_trial","1","definitely_old","","","","","","",""
"html-keyboard-response","231","422976","0.0-15.0-0.94","1570","2","""event"",""trial"",""time""
""focus"",""0"",""1""
""fullscreenenter"",""1"",""1814""
","
","""event"",""trial"",""time""
""focus"",""0"",""1""
","""event"",""trial"",""time""
""fullscreenenter"",""1"",""1814""
","
","","","","","","null","<div style=""font-size:60px;"">+</div>","null","","fixation","","","","","","","","",""
"memory-trial","232","425108","0.0-15.0-1.94","1570","2","""event"",""trial"",""time""
""focus"",""0"",""1""
""fullscreenenter"",""1"",""1814""
","
","""event"",""trial"",""time""
""focus"",""0"",""1""
","""event"",""trial"",""time""
""fullscreenenter"",""1"",""1814""
","
","","","","","","1127","images/apple2.png","","","memory_trial","2","maybe_old","","","","","","",""
"html-keyboard-response","233","425614","0.0-15.0-0.95","1570","2","""event"",""trial"",""time""
""focus"",""0"",""1""
""fullscreenenter"",""1"",""1814""
","
","""event"",""trial"",""time""
""focus"",""0"",""1""
","""event"",""trial"",""time""
""fullscreenenter"",""1"",""1814""
","
","","","","","","null","<div style=""font-size:60px;"">+</div>","null","","fixation","","","","","","","","",""
"memory-trial","234","427749","0.0-15.0-1.95","1570","2","""event"",""trial"",""time""
""focus"",""0"",""1""
""fullscreenenter"",""1"",""1814""
","
","""event"",""trial"",""time""
""focus"",""0"",""1""
","""event"",""trial"",""time""
""fullscreenenter"",""1"",""1814""
","
","","","","","","1119","images/horse4.png","","","memory_trial","3","maybe_new","","","","","","",""
"html-keyboard-response","235","428254","0.0-15.0-0.96","1570","2","""event"",""trial"",""time""
""focus"",""0"",""1""
""fullscreenenter"",""1"",""1814""
","
","""event"",""trial"",""time""
""focus"",""0"",""1""
","""event"",""trial"",""time""
""fullscreenenter"",""1"",""1814""
","
","","","","","","null","<div style=""font-size:60px;"">+</div>","null","","fixation","","","","","","","","",""
"memory-trial","236","430086","0.0-15.0-1.96","1570","2","""event"",""trial"",""time""
""focus"",""0"",""1""
""fullscreenenter"",""1"",""1814""
","
","""event"",""trial"",""time""
""focus"",""0"",""1""
","""event"",""trial"",""time""
""fullscreenenter"",""1"",""1814""
","
","","","","","","821","images/bed4.png","","","memory_trial","3","maybe_new","","","","","","",""
"html-keyboard-response","237","430602","0.0-15.0-0.97","1570","2","""event"",""trial"",""time""
""focus"",""0"",""1""
""fullscreenenter"",""1"",""1814""
","
","""event"",""trial"",""time""
""focus"",""0"",""1""
","""event"",""trial"",""time""
""fullscreenenter"",""1"",""1814""
","
","","","","","","null","<div style=""font-size:60px;"">+</div>","null","","fixation","","","","","","","","",""
"memory-trial","238","432848","0.0-15.0-1.97","1570","2","""event"",""trial"",""time""
""focus"",""0"",""1""
""fullscreenenter"",""1"",""1814""
","
","""event"",""trial"",""time""
""focus"",""0"",""1""
","""event"",""trial"",""time""
""fullscreenenter"",""1"",""1814""
","
","","","","","","1233","images/table3.png","","","memory_trial","4","definitely_new","","","","","","",""
"html-keyboard-response","239","433356","0.0-15.0-0.98","1570","2","""event"",""trial"",""time""
""focus"",""0"",""1""
""fullscreenenter"",""1"",""1814""
","
","""event"",""trial"",""time""
""focus"",""0"",""1""
","""event"",""trial"",""time""
""fullscreenenter"",""1"",""1814""
","
","","","","","","null","<div style=""font-size:60px;"">+</div>","null","","fixation","","","","","","","","",""
"memory-trial","240","435267","0.0-15.0-1.98","1570","2","""event"",""trial"",""time""
""focus"",""0"",""1""
""fullscreenenter"",""1"",""1814""
","
","""event"",""trial"",""time""
""focus"",""0"",""1""
","""event"",""trial"",""time""
""fullscreenenter"",""1"",""1814""
","
","","","","","","899","images/sheep4.png","","","memory_trial","1","definitely_old","","","","","","",""
"html-keyboard-response","241","435770","0.0-15.0-0.99","1570","2","""event"",""trial"",""time""
""focus"",""0"",""1""
""fullscreenenter"",""1"",""1814""
","
","""event"",""trial"",""time""
""focus"",""0"",""1""
","""event"",""trial"",""time""
""fullscreenenter"",""1"",""1814""
","
","","","","","","null","<div style=""font-size:60px;"">+</div>","null","","fixation","","","","","","","","",""
"memory-trial","242","438170","0.0-15.0-1.99","1570","2","""event"",""trial"",""time""
""focus"",""0"",""1""
""fullscreenenter"",""1"",""1814""
","
","""event"",""trial"",""time""
""focus"",""0"",""1""
","""event"",""trial"",""time""
""fullscreenenter"",""1"",""1814""
","
","","","","","","1393","images/flower4.png","","","memory_trial","3","maybe_new","","","","","","",""
"html-keyboard-response","243","438673","0.0-15.0-0.100","1570","2","""event"",""trial"",""time""
""focus"",""0"",""1""
""fullscreenenter"",""1"",""1814""
","
","""event"",""trial"",""time""
""focus"",""0"",""1""
","""event"",""trial"",""time""
""fullscreenenter"",""1"",""1814""
","
","","","","","","null","<div style=""font-size:60px;"">+</div>","null","","fixation","","","","","","","","",""
"memory-trial","244","440808","0.0-15.0-1.100","1570","2","""event"",""trial"",""time""
""focus"",""0"",""1""
""fullscreenenter"",""1"",""1814""
","
","""event"",""trial"",""time""
""focus"",""0"",""1""
","""event"",""trial"",""time""
""fullscreenenter"",""1"",""1814""
","
","","","","","","1120","images/feline5.png","","","memory_trial","4","definitely_new","","","","","","",""
"html-keyboard-response","245","441321","0.0-15.0-0.101","1570","2","""event"",""trial"",""time""
""focus"",""0"",""1""
""fullscreenenter"",""1"",""1814""
","
","""event"",""trial"",""time""
""focus"",""0"",""1""
","""event"",""trial"",""time""
