"trial_type","trial_index","time_elapsed","internal_node_id","subject_id","task_version","interactions","blur_events","focus_events","fullscreenenter_events","fullscreenexit_events","success","timeout","failed_images","failed_audio","failed_video","rt","stimulus","response","button_pressed","task_part","key_press","answer","correct","left_choice","middle_choice","right_choice","choice_positions","option_selected","block"
"pavlovia","0","6","0.0-0.0","1698","2","""event"",""trial"",""time""
""fullscreenenter"",""1"",""1757""
","
","
","""event"",""trial"",""time""
""fullscreenenter"",""1"",""1757""
","
","","","","","","","","","","","","","","","","","","",""
"fullscreen","1","2698","0.0-1.0","1698","2","""event"",""trial"",""time""
""fullscreenenter"",""1"",""1757""
","
","
","""event"",""trial"",""time""
""fullscreenenter"",""1"",""1757""
","
","true","","","","","","","","","","","","","","","","","",""
"preload","2","3445","0.0-2.0","1698","2","""event"",""trial"",""time""
""fullscreenenter"",""1"",""1757""
""blur"",""3"",""4032""
""focus"",""3"",""13871""
","""event"",""trial"",""time""
""blur"",""3"",""4032""
","""event"",""trial"",""time""
""focus"",""3"",""13871""
","""event"",""trial"",""time""
""fullscreenenter"",""1"",""1757""
","
","true","false","[]","[]","[]","","","","","","","","","","","","","",""
"audio-keyboard-response","3","15435","0.0-3.0","1698","2","""event"",""trial"",""time""
""fullscreenenter"",""1"",""1757""
""blur"",""3"",""4032""
""focus"",""3"",""13871""
","""event"",""trial"",""time""
""blur"",""3"",""4032""
","""event"",""trial"",""time""
""focus"",""3"",""13871""
","""event"",""trial"",""time""
""fullscreenenter"",""1"",""1757""
","
","","","","","","0","audio/beep_loop.wav"," ","","","","","","","","","","",""
"audio-button-response","4","18202","0.0-4.0","1698","2","""event"",""trial"",""time""
""fullscreenenter"",""1"",""1757""
""blur"",""3"",""4032""
""focus"",""3"",""13871""
","""event"",""trial"",""time""
""blur"",""3"",""4032""
","""event"",""trial"",""time""
""focus"",""3"",""13871""
","""event"",""trial"",""time""
""fullscreenenter"",""1"",""1757""
","
","","","","","","2479","audio/turtle.wav","3","","","","","","","","","","",""
"audio-button-response","5","20782","0.0-5.0","1698","2","""event"",""trial"",""time""
""fullscreenenter"",""1"",""1757""
""blur"",""3"",""4032""
""focus"",""3"",""13871""
","""event"",""trial"",""time""
""blur"",""3"",""4032""
","""event"",""trial"",""time""
""focus"",""3"",""13871""
","""event"",""trial"",""time""
""fullscreenenter"",""1"",""1757""
","
","","","","","","1579","audio/shark.wav","2","","","","","","","","","","",""
"preload","6","24336","0.0-6.0","1698","2","""event"",""trial"",""time""
""fullscreenenter"",""1"",""1757""
""blur"",""3"",""4032""
""focus"",""3"",""13871""
","""event"",""trial"",""time""
""blur"",""3"",""4032""
","""event"",""trial"",""time""
""focus"",""3"",""13871""
","""event"",""trial"",""time""
""fullscreenenter"",""1"",""1757""
","
","true","false","[]","[]","[]","","","","","","","","","","","","","",""
"learning-instructions","7","31650","0.0-7.0-0.0","1698","2","""event"",""trial"",""time""
""fullscreenenter"",""1"",""1757""
""blur"",""3"",""4032""
""focus"",""3"",""13871""
","""event"",""trial"",""time""
""blur"",""3"",""4032""
","""event"",""trial"",""time""
""focus"",""3"",""13871""
","""event"",""trial"",""time""
""fullscreenenter"",""1"",""1757""
","
","","","","","","2508","<p> Welcome back! </p><p> Last week, you had to make choices about lots of different items.  </p>","","0","instructions","","","","","","","","",""
"learning-instructions","8","37985","0.0-7.0-0.1","1698","2","""event"",""trial"",""time""
""fullscreenenter"",""1"",""1757""
""blur"",""3"",""4032""
""focus"",""3"",""13871""
","""event"",""trial"",""time""
""blur"",""3"",""4032""
","""event"",""trial"",""time""
""focus"",""3"",""13871""
","""event"",""trial"",""time""
""fullscreenenter"",""1"",""1757""
","
","","","","","","2036","<p> Today, we are going to ask you to try to remember all the items. </p>","","0","instructions","","","","","","","","",""
"learning-instructions","9","48659","0.0-7.0-0.2","1698","2","""event"",""trial"",""time""
""fullscreenenter"",""1"",""1757""
""blur"",""3"",""4032""
""focus"",""3"",""13871""
","""event"",""trial"",""time""
""blur"",""3"",""4032""
","""event"",""trial"",""time""
""focus"",""3"",""13871""
","""event"",""trial"",""time""
""fullscreenenter"",""1"",""1757""
","
","","","","","","543.9999999999927","<p> On every trial, you will see an image. </p><p> The image may be an OLD image you saw during the games last week or it may be a NEW image that was not presented. </p>","","0","instructions","","","","","","","","",""
"learning-instructions","10","57636","0.0-7.0-0.3","1698","2","""event"",""trial"",""time""
""fullscreenenter"",""1"",""1757""
""blur"",""3"",""4032""
""focus"",""3"",""13871""
","""event"",""trial"",""time""
""blur"",""3"",""4032""
","""event"",""trial"",""time""
""focus"",""3"",""13871""
","""event"",""trial"",""time""
""fullscreenenter"",""1"",""1757""
","
","","","","","","482.0000000000073","<p> You need to select whether the image is:  </p><p>  'Definitely old', 'Maybe old', 'Maybe new', or 'Definitely new.'  </p><div class=""mem-choice-instructions-grid""><div class=""choice-option"" id=""choice-option-1"" ><img src=""images/definitely_old_1.png"" id=""choice-option-img-1"" class=""choice-option-img"" stage=""1""></div><div class=""choice-option"" id=""choice-option-2"" ><img src=""images/maybe_old_1.png"" id=""choice-option-img-2"" class=""choice-option-img"" stage=""1""></div><div class=""choice-option"" id=""choice-option-3"" ><img src=""images/maybe_new_1.png"" id=""choice-option-img-3"" class=""choice-option-img"" stage=""1""></div><div class=""choice-option"" id=""choice-option-4"" > <img src=""images/definitely_new_1.png"" id=""choice-option-img-4"" class=""choice-option-img"" stage=""1""></div></div>","","0","instructions","","","","","","","","",""
"learning-instructions","11","64826","0.0-7.0-0.4","1698","2","""event"",""trial"",""time""
""fullscreenenter"",""1"",""1757""
""blur"",""3"",""4032""
""focus"",""3"",""13871""
","""event"",""trial"",""time""
""blur"",""3"",""4032""
","""event"",""trial"",""time""
""focus"",""3"",""13871""
","""event"",""trial"",""time""
""fullscreenenter"",""1"",""1757""
","
","","","","","","503","<p> You should use the 1, 2, 3, and 4 keys to make your responses.  </p><div class=""mem-choice-instructions-grid""><div class=""choice-option"" id=""choice-option-1"" ><img src=""images/definitely_old.png"" id=""choice-option-img-1"" class=""choice-option-img"" stage=""1""></div><div class=""choice-option"" id=""choice-option-2"" ><img src=""images/maybe_old.png"" id=""choice-option-img-2"" class=""choice-option-img"" stage=""1""></div><div class=""choice-option"" id=""choice-option-3"" ><img src=""images/maybe_new.png"" id=""choice-option-img-3"" class=""choice-option-img"" stage=""1""></div><div class=""choice-option"" id=""choice-option-4"" > <img src=""images/definitely_new.png"" id=""choice-option-img-4"" class=""choice-option-img"" stage=""1""></div></div>","","0","instructions","","","","","","","","",""
"learning-instructions","12","73033","0.0-7.0-0.5","1698","2","""event"",""trial"",""time""
""fullscreenenter"",""1"",""1757""
""blur"",""3"",""4032""
""focus"",""3"",""13871""
","""event"",""trial"",""time""
""blur"",""3"",""4032""
","""event"",""trial"",""time""
""focus"",""3"",""13871""
","""event"",""trial"",""time""
""fullscreenenter"",""1"",""1757""
","
","","","","","","1450","<p> You will have 10 seconds to make each response.  </p><p>  Make sure to respond before time runs out! </p>","","0","instructions","","","","","","","","",""
"learning-instructions","13","81015","0.0-7.0-0.6","1698","2","""event"",""trial"",""time""
""fullscreenenter"",""1"",""1757""
""blur"",""3"",""4032""
""focus"",""3"",""13871""
","""event"",""trial"",""time""
""blur"",""3"",""4032""
","""event"",""trial"",""time""
""focus"",""3"",""13871""
","""event"",""trial"",""time""
""fullscreenenter"",""1"",""1757""
","
","","","","","","403","<p> Today, you will see each image ONCE only.  </p><p>  That means none of the images will repeat. </p>","","0","instructions","","","","","","","","",""
"learning-instructions","14","94430","0.0-7.0-0.7","1698","2","""event"",""trial"",""time""
""fullscreenenter"",""1"",""1757""
""blur"",""3"",""4032""
""focus"",""3"",""13871""
","""event"",""trial"",""time""
""blur"",""3"",""4032""
","""event"",""trial"",""time""
""focus"",""3"",""13871""
","""event"",""trial"",""time""
""fullscreenenter"",""1"",""1757""
","
","","","","","","751","<p> Before you play the real game, it is time to practice. </p><p>  Just like in the real game, some of the images in the practice will be ones you have seen before. </p><p>  Others will be entirely new. </p>","","0","instructions","","","","","","","","",""
"html-button-response","15","97845","0.0-8.0","1698","2","""event"",""trial"",""time""
""fullscreenenter"",""1"",""1757""
""blur"",""3"",""4032""
""focus"",""3"",""13871""
","""event"",""trial"",""time""
""blur"",""3"",""4032""
","""event"",""trial"",""time""
""focus"",""3"",""13871""
","""event"",""trial"",""time""
""fullscreenenter"",""1"",""1757""
","
","","","","","","3313","<p> Ready to practice? </p><p> Remember, use the 1, 2, 3, and 4 keys to make your responses. </p>","0","","instructions","","","","","","","","",""
"html-keyboard-response","16","98447","0.0-9.0-0.0","1698","2","""event"",""trial"",""time""
""fullscreenenter"",""1"",""1757""
""blur"",""3"",""4032""
""focus"",""3"",""13871""
","""event"",""trial"",""time""
""blur"",""3"",""4032""
","""event"",""trial"",""time""
""focus"",""3"",""13871""
","""event"",""trial"",""time""
""fullscreenenter"",""1"",""1757""
","
","","","","","","null","<div style=""font-size:60px;"">+</div>","null","","fixation","","","","","","","","",""
"memory-trial","17","102176","0.0-9.0-1.0","1698","2","""event"",""trial"",""time""
""fullscreenenter"",""1"",""1757""
""blur"",""3"",""4032""
""focus"",""3"",""13871""
","""event"",""trial"",""time""
""blur"",""3"",""4032""
","""event"",""trial"",""time""
""focus"",""3"",""13871""
","""event"",""trial"",""time""
""fullscreenenter"",""1"",""1757""
","
","","","","","","2726.0000000000146","images/ball3.png","","","practice","3","maybe_new","","","","","","",""
"html-keyboard-response","18","102677","0.0-9.0-0.1","1698","2","""event"",""trial"",""time""
""fullscreenenter"",""1"",""1757""
""blur"",""3"",""4032""
""focus"",""3"",""13871""
","""event"",""trial"",""time""
""blur"",""3"",""4032""
","""event"",""trial"",""time""
""focus"",""3"",""13871""
","""event"",""trial"",""time""
""fullscreenenter"",""1"",""1757""
","
","","","","","","null","<div style=""font-size:60px;"">+</div>","null","","fixation","","","","","","","","",""
"memory-trial","19","105663","0.0-9.0-1.1","1698","2","""event"",""trial"",""time""
""fullscreenenter"",""1"",""1757""
""blur"",""3"",""4032""
""focus"",""3"",""13871""
","""event"",""trial"",""time""
""blur"",""3"",""4032""
","""event"",""trial"",""time""
""focus"",""3"",""13871""
","""event"",""trial"",""time""
""fullscreenenter"",""1"",""1757""
","
","","","","","","1982.9999999999854","images/ball1.png","","","practice","2","maybe_old","","","","","","",""
"html-keyboard-response","20","106164","0.0-9.0-0.2","1698","2","""event"",""trial"",""time""
""fullscreenenter"",""1"",""1757""
""blur"",""3"",""4032""
""focus"",""3"",""13871""
","""event"",""trial"",""time""
""blur"",""3"",""4032""
","""event"",""trial"",""time""
""focus"",""3"",""13871""
","""event"",""trial"",""time""
""fullscreenenter"",""1"",""1757""
","
","","","","","","null","<div style=""font-size:60px;"">+</div>","null","","fixation","","","","","","","","",""
"memory-trial","21","110740","0.0-9.0-1.2","1698","2","""event"",""trial"",""time""
""fullscreenenter"",""1"",""1757""
""blur"",""3"",""4032""
""focus"",""3"",""13871""
","""event"",""trial"",""time""
""blur"",""3"",""4032""
","""event"",""trial"",""time""
""focus"",""3"",""13871""
","""event"",""trial"",""time""
""fullscreenenter"",""1"",""1757""
","
","","","","","","3575","images/ball2.png","","","practice","2","maybe_old","","","","","","",""
"html-keyboard-response","22","111241","0.0-9.0-0.3","1698","2","""event"",""trial"",""time""
""fullscreenenter"",""1"",""1757""
""blur"",""3"",""4032""
""focus"",""3"",""13871""
","""event"",""trial"",""time""
""blur"",""3"",""4032""
","""event"",""trial"",""time""
""focus"",""3"",""13871""
","""event"",""trial"",""time""
""fullscreenenter"",""1"",""1757""
","
","","","","","","null","<div style=""font-size:60px;"">+</div>","null","","fixation","","","","","","","","",""
"memory-trial","23","114058","0.0-9.0-1.3","1698","2","""event"",""trial"",""time""
""fullscreenenter"",""1"",""1757""
""blur"",""3"",""4032""
""focus"",""3"",""13871""
","""event"",""trial"",""time""
""blur"",""3"",""4032""
","""event"",""trial"",""time""
""focus"",""3"",""13871""
","""event"",""trial"",""time""
""fullscreenenter"",""1"",""1757""
","
","","","","","","1814.0000000000146","images/racket3.png","","","practice","4","definitely_new","","","","","","",""
"html-keyboard-response","24","114560","0.0-9.0-0.4","1698","2","""event"",""trial"",""time""
""fullscreenenter"",""1"",""1757""
""blur"",""3"",""4032""
""focus"",""3"",""13871""
","""event"",""trial"",""time""
""blur"",""3"",""4032""
","""event"",""trial"",""time""
""focus"",""3"",""13871""
","""event"",""trial"",""time""
""fullscreenenter"",""1"",""1757""
","
","","","","","","null","<div style=""font-size:60px;"">+</div>","null","","fixation","","","","","","","","",""
"memory-trial","25","116876","0.0-9.0-1.4","1698","2","""event"",""trial"",""time""
""fullscreenenter"",""1"",""1757""
""blur"",""3"",""4032""
""focus"",""3"",""13871""
","""event"",""trial"",""time""
""blur"",""3"",""4032""
","""event"",""trial"",""time""
""focus"",""3"",""13871""
","""event"",""trial"",""time""
""fullscreenenter"",""1"",""1757""
","
","","","","","","1314","images/racket1.png","","","practice","3","maybe_new","","","","","","",""
"html-keyboard-response","26","117378","0.0-9.0-0.5","1698","2","""event"",""trial"",""time""
""fullscreenenter"",""1"",""1757""
""blur"",""3"",""4032""
""focus"",""3"",""13871""
","""event"",""trial"",""time""
""blur"",""3"",""4032""
","""event"",""trial"",""time""
""focus"",""3"",""13871""
","""event"",""trial"",""time""
""fullscreenenter"",""1"",""1757""
","
","","","","","","null","<div style=""font-size:60px;"">+</div>","null","","fixation","","","","","","","","",""
"memory-trial","27","119521","0.0-9.0-1.5","1698","2","""event"",""trial"",""time""
""fullscreenenter"",""1"",""1757""
""blur"",""3"",""4032""
""focus"",""3"",""13871""
","""event"",""trial"",""time""
""blur"",""3"",""4032""
","""event"",""trial"",""time""
""focus"",""3"",""13871""
","""event"",""trial"",""time""
""fullscreenenter"",""1"",""1757""
","
","","","","","","1141","images/ball4.png","","","practice","3","maybe_new","","","","","","",""
"html-keyboard-response","28","120022","0.0-9.0-0.6","1698","2","""event"",""trial"",""time""
""fullscreenenter"",""1"",""1757""
""blur"",""3"",""4032""
""focus"",""3"",""13871""
","""event"",""trial"",""time""
""blur"",""3"",""4032""
","""event"",""trial"",""time""
""focus"",""3"",""13871""
","""event"",""trial"",""time""
""fullscreenenter"",""1"",""1757""
","
","","","","","","null","<div style=""font-size:60px;"">+</div>","null","","fixation","","","","","","","","",""
"memory-trial","29","122176","0.0-9.0-1.6","1698","2","""event"",""trial"",""time""
""fullscreenenter"",""1"",""1757""
""blur"",""3"",""4032""
""focus"",""3"",""13871""
","""event"",""trial"",""time""
""blur"",""3"",""4032""
","""event"",""trial"",""time""
""focus"",""3"",""13871""
","""event"",""trial"",""time""
""fullscreenenter"",""1"",""1757""
","
","","","","","","1152","images/racket4.png","","","practice","3","maybe_new","","","","","","",""
"html-keyboard-response","30","122676","0.0-9.0-0.7","1698","2","""event"",""trial"",""time""
""fullscreenenter"",""1"",""1757""
""blur"",""3"",""4032""
""focus"",""3"",""13871""
","""event"",""trial"",""time""
""blur"",""3"",""4032""
","""event"",""trial"",""time""
""focus"",""3"",""13871""
","""event"",""trial"",""time""
""fullscreenenter"",""1"",""1757""
","
","","","","","","null","<div style=""font-size:60px;"">+</div>","null","","fixation","","","","","","","","",""
"memory-trial","31","125370","0.0-9.0-1.7","1698","2","""event"",""trial"",""time""
""fullscreenenter"",""1"",""1757""
""blur"",""3"",""4032""
""focus"",""3"",""13871""
","""event"",""trial"",""time""
""blur"",""3"",""4032""
","""event"",""trial"",""time""
""focus"",""3"",""13871""
","""event"",""trial"",""time""
""fullscreenenter"",""1"",""1757""
","
","","","","","","1692","images/racket2.png","","","practice","1","definitely_old","","","","","","",""
"learning-instructions","32","134770","0.0-10.0-0.0","1698","2","""event"",""trial"",""time""
""fullscreenenter"",""1"",""1757""
""blur"",""3"",""4032""
""focus"",""3"",""13871""
","""event"",""trial"",""time""
""blur"",""3"",""4032""
","""event"",""trial"",""time""
""focus"",""3"",""13871""
","""event"",""trial"",""time""
""fullscreenenter"",""1"",""1757""
","
","","","","","","1451","<p> Great! You have completed the practice. </p><p> Before you start, we're going to ask you a few questions about how the game works.  </p>","","0","instructions","","","","","","","","",""
"preload","33","136482","0.0-11.0","1698","2","""event"",""trial"",""time""
""fullscreenenter"",""1"",""1757""
""blur"",""3"",""4032""
""focus"",""3"",""13871""
","""event"",""trial"",""time""
""blur"",""3"",""4032""
","""event"",""trial"",""time""
""focus"",""3"",""13871""
","""event"",""trial"",""time""
""fullscreenenter"",""1"",""1757""
","
","true","false","[]","[]","[]","","","","","","","","","","","","","",""
"comp-q","34","142886","0.0-12.0-0.0","1698","2","""event"",""trial"",""time""
""fullscreenenter"",""1"",""1757""
""blur"",""3"",""4032""
""focus"",""3"",""13871""
","""event"",""trial"",""time""
""blur"",""3"",""4032""
","""event"",""trial"",""time""
""focus"",""3"",""13871""
","""event"",""trial"",""time""
""fullscreenenter"",""1"",""1757""
","
","","","","","","573","<p> <b> True or False? </b> </p><p> In this game, you will only see each image once. </p>","","0","comp_question","","","true","","","","","",""
"comp-q","35","150069","0.0-12.0-1.0","1698","2","""event"",""trial"",""time""
""fullscreenenter"",""1"",""1757""
""blur"",""3"",""4032""
""focus"",""3"",""13871""
","""event"",""trial"",""time""
""blur"",""3"",""4032""
","""event"",""trial"",""time""
""focus"",""3"",""13871""
","""event"",""trial"",""time""
""fullscreenenter"",""1"",""1757""
","
","","","","","","849","<p> <b> That's right! </b> You will see many different images <i> one time each </i> in this game. </p>","","0","comp_answer","","","","","","","","",""
"comp-q","36","157908","0.0-12.0-0.1","1698","2","""event"",""trial"",""time""
""fullscreenenter"",""1"",""1757""
""blur"",""3"",""4032""
""focus"",""3"",""13871""
","""event"",""trial"",""time""
""blur"",""3"",""4032""
","""event"",""trial"",""time""
""focus"",""3"",""13871""
","""event"",""trial"",""time""
""fullscreenenter"",""1"",""1757""
","
","","","","","","2042","<p> <b> True or False? </b> </p><p> You should use the mouse and click to make your response. </p>","","1","comp_question","","","true","","","","","",""
"comp-q","37","166457","0.0-12.0-1.1","1698","2","""event"",""trial"",""time""
""fullscreenenter"",""1"",""1757""
""blur"",""3"",""4032""
""focus"",""3"",""13871""
","""event"",""trial"",""time""
""blur"",""3"",""4032""
","""event"",""trial"",""time""
""focus"",""3"",""13871""
","""event"",""trial"",""time""
""fullscreenenter"",""1"",""1757""
","
","","","","","","1205","<p><b> That's right! </b> You should use the '1', '2', '3', and '4' keys to make your response. </p>","","0","comp_answer","","","","","","","","",""
"comp-q","38","173342","0.0-12.0-0.2","1698","2","""event"",""trial"",""time""
""fullscreenenter"",""1"",""1757""
""blur"",""3"",""4032""
""focus"",""3"",""13871""
","""event"",""trial"",""time""
""blur"",""3"",""4032""
","""event"",""trial"",""time""
""focus"",""3"",""13871""
","""event"",""trial"",""time""
""fullscreenenter"",""1"",""1757""
","
","","","","","","891","<p> <b> True or False? </b> </p><p> You will have as much time as you want to make each choice. </p>","","1","comp_question","","","true","","","","","",""
"comp-q","39","187978","0.0-12.0-1.2","1698","2","""event"",""trial"",""time""
""fullscreenenter"",""1"",""1757""
""blur"",""3"",""4032""
""focus"",""3"",""13871""
","""event"",""trial"",""time""
""blur"",""3"",""4032""
","""event"",""trial"",""time""
""focus"",""3"",""13871""
","""event"",""trial"",""time""
""fullscreenenter"",""1"",""1757""
","
","","","","","","9248","<p> <b> That's right! </b> You will only have 10 seconds to make each choice. </p>","","0","comp_answer","","","","","","","","",""
"learning-instructions","40","199231","0.0-13.0","1698","2","""event"",""trial"",""time""
""fullscreenenter"",""1"",""1757""
""blur"",""3"",""4032""
""focus"",""3"",""13871""
","""event"",""trial"",""time""
""blur"",""3"",""4032""
","""event"",""trial"",""time""
""focus"",""3"",""13871""
","""event"",""trial"",""time""
""fullscreenenter"",""1"",""1757""
","
","","","","","","2586","<p> Great! You are now ready to begin the game. </p><p> Remember, use the 1, 2, 3, and 4 keys to make your responses. </p>","","0","instructions","","","","","","","","",""
"preload","41","202033","0.0-14.0","1698","2","""event"",""trial"",""time""
""fullscreenenter"",""1"",""1757""
""blur"",""3"",""4032""
""focus"",""3"",""13871""
","""event"",""trial"",""time""
""blur"",""3"",""4032""
","""event"",""trial"",""time""
""focus"",""3"",""13871""
","""event"",""trial"",""time""
""fullscreenenter"",""1"",""1757""
","
","true","false","[]","[]","[]","","","","","","","","","","","","","",""
"html-keyboard-response","42","202535","0.0-15.0-0.0","1698","2","""event"",""trial"",""time""
""fullscreenenter"",""1"",""1757""
""blur"",""3"",""4032""
""focus"",""3"",""13871""
","""event"",""trial"",""time""
""blur"",""3"",""4032""
","""event"",""trial"",""time""
""focus"",""3"",""13871""
","""event"",""trial"",""time""
""fullscreenenter"",""1"",""1757""
","
","","","","","","null","<div style=""font-size:60px;"">+</div>","null","","fixation","","","","","","","","",""
"memory-trial","43","205968","0.0-15.0-1.0","1698","2","""event"",""trial"",""time""
""fullscreenenter"",""1"",""1757""
""blur"",""3"",""4032""
""focus"",""3"",""13871""
","""event"",""trial"",""time""
""blur"",""3"",""4032""
","""event"",""trial"",""time""
""focus"",""3"",""13871""
","""event"",""trial"",""time""
""fullscreenenter"",""1"",""1757""
","
","","","","","","2430","images/straw2.png","","","memory_trial","2","maybe_old","","","","","","",""
"html-keyboard-response","44","206470","0.0-15.0-0.1","1698","2","""event"",""trial"",""time""
""fullscreenenter"",""1"",""1757""
""blur"",""3"",""4032""
""focus"",""3"",""13871""
","""event"",""trial"",""time""
""blur"",""3"",""4032""
","""event"",""trial"",""time""
""focus"",""3"",""13871""
","""event"",""trial"",""time""
""fullscreenenter"",""1"",""1757""
","
","","","","","","null","<div style=""font-size:60px;"">+</div>","null","","fixation","","","","","","","","",""
"memory-trial","45","208720","0.0-15.0-1.1","1698","2","""event"",""trial"",""time""
""fullscreenenter"",""1"",""1757""
""blur"",""3"",""4032""
""focus"",""3"",""13871""
","""event"",""trial"",""time""
""blur"",""3"",""4032""
","""event"",""trial"",""time""
""focus"",""3"",""13871""
","""event"",""trial"",""time""
""fullscreenenter"",""1"",""1757""
","
","","","","","","1248","images/bed5.png","","","memory_trial","1","definitely_old","","","","","","",""
"html-keyboard-response","46","209222","0.0-15.0-0.2","1698","2","""event"",""trial"",""time""
""fullscreenenter"",""1"",""1757""
""blur"",""3"",""4032""
""focus"",""3"",""13871""
","""event"",""trial"",""time""
""blur"",""3"",""4032""
","""event"",""trial"",""time""
""focus"",""3"",""13871""
","""event"",""trial"",""time""
""fullscreenenter"",""1"",""1757""
","
","","","","","","null","<div style=""font-size:60px;"">+</div>","null","","fixation","","","","","","","","",""
"memory-trial","47","211762","0.0-15.0-1.2","1698","2","""event"",""trial"",""time""
""fullscreenenter"",""1"",""1757""
""blur"",""3"",""4032""
""focus"",""3"",""13871""
","""event"",""trial"",""time""
""blur"",""3"",""4032""
","""event"",""trial"",""time""
""focus"",""3"",""13871""
","""event"",""trial"",""time""
""fullscreenenter"",""1"",""1757""
","
","","","","","","1539.000000000029","images/flower3.png","","","memory_trial","1","definitely_old","","","","","","",""
"html-keyboard-response","48","212263","0.0-15.0-0.3","1698","2","""event"",""trial"",""time""
""fullscreenenter"",""1"",""1757""
""blur"",""3"",""4032""
""focus"",""3"",""13871""
","""event"",""trial"",""time""
""blur"",""3"",""4032""
","""event"",""trial"",""time""
""focus"",""3"",""13871""
","""event"",""trial"",""time""
""fullscreenenter"",""1"",""1757""
","
","","","","","","null","<div style=""font-size:60px;"">+</div>","null","","fixation","","","","","","","","",""
"memory-trial","49","214280","0.0-15.0-1.3","1698","2","""event"",""trial"",""time""
""fullscreenenter"",""1"",""1757""
""blur"",""3"",""4032""
""focus"",""3"",""13871""
","""event"",""trial"",""time""
""blur"",""3"",""4032""
","""event"",""trial"",""time""
""focus"",""3"",""13871""
","""event"",""trial"",""time""
""fullscreenenter"",""1"",""1757""
","
","","","","","","1014","images/cactus4.png","","","memory_trial","1","definitely_old","","","","","","",""
"html-keyboard-response","50","214782","0.0-15.0-0.4","1698","2","""event"",""trial"",""time""
""fullscreenenter"",""1"",""1757""
""blur"",""3"",""4032""
""focus"",""3"",""13871""
","""event"",""trial"",""time""
""blur"",""3"",""4032""
","""event"",""trial"",""time""
""focus"",""3"",""13871""
","""event"",""trial"",""time""
""fullscreenenter"",""1"",""1757""
","
","","","","","","null","<div style=""font-size:60px;"">+</div>","null","","fixation","","","","","","","","",""
"memory-trial","51","216906","0.0-15.0-1.4","1698","2","""event"",""trial"",""time""
""fullscreenenter"",""1"",""1757""
""blur"",""3"",""4032""
""focus"",""3"",""13871""
","""event"",""trial"",""time""
""blur"",""3"",""4032""
","""event"",""trial"",""time""
""focus"",""3"",""13871""
","""event"",""trial"",""time""
""fullscreenenter"",""1"",""1757""
","
","","","","","","1123","images/bush2.png","","","memory_trial","4","definitely_new","","","","","","",""
"html-keyboard-response","52","217407","0.0-15.0-0.5","1698","2","""event"",""trial"",""time""
""fullscreenenter"",""1"",""1757""
""blur"",""3"",""4032""
""focus"",""3"",""13871""
","""event"",""trial"",""time""
""blur"",""3"",""4032""
","""event"",""trial"",""time""
""focus"",""3"",""13871""
","""event"",""trial"",""time""
""fullscreenenter"",""1"",""1757""
","
","","","","","","null","<div style=""font-size:60px;"">+</div>","null","","fixation","","","","","","","","",""
"memory-trial","53","219427","0.0-15.0-1.5","1698","2","""event"",""trial"",""time""
""fullscreenenter"",""1"",""1757""
""blur"",""3"",""4032""
""focus"",""3"",""13871""
","""event"",""trial"",""time""
""blur"",""3"",""4032""
","""event"",""trial"",""time""
""focus"",""3"",""13871""
","""event"",""trial"",""time""
""fullscreenenter"",""1"",""1757""
","
","","","","","","1019","images/tree5.png","","","memory_trial","4","definitely_new","","","","","","",""
"html-keyboard-response","54","219928","0.0-15.0-0.6","1698","2","""event"",""trial"",""time""
""fullscreenenter"",""1"",""1757""
""blur"",""3"",""4032""
""focus"",""3"",""13871""
","""event"",""trial"",""time""
""blur"",""3"",""4032""
","""event"",""trial"",""time""
""focus"",""3"",""13871""
","""event"",""trial"",""time""
""fullscreenenter"",""1"",""1757""
","
","","","","","","null","<div style=""font-size:60px;"">+</div>","null","","fixation","","","","","","","","",""
"memory-trial","55","222295","0.0-15.0-1.6","1698","2","""event"",""trial"",""time""
""fullscreenenter"",""1"",""1757""
""blur"",""3"",""4032""
""focus"",""3"",""13871""
","""event"",""trial"",""time""
""blur"",""3"",""4032""
","""event"",""trial"",""time""
""focus"",""3"",""13871""
","""event"",""trial"",""time""
""fullscreenenter"",""1"",""1757""
","
","","","","","","1364.999999999971","images/cactus3.png","","","memory_trial","1","definitely_old","","","","","","",""
"html-keyboard-response","56","222796","0.0-15.0-0.7","1698","2","""event"",""trial"",""time""
""fullscreenenter"",""1"",""1757""
""blur"",""3"",""4032""
""focus"",""3"",""13871""
","""event"",""trial"",""time""
""blur"",""3"",""4032""
","""event"",""trial"",""time""
""focus"",""3"",""13871""
","""event"",""trial"",""time""
""fullscreenenter"",""1"",""1757""
","
","","","","","","null","<div style=""font-size:60px;"">+</div>","null","","fixation","","","","","","","","",""
"memory-trial","57","225178","0.0-15.0-1.7","1698","2","""event"",""trial"",""time""
""fullscreenenter"",""1"",""1757""
""blur"",""3"",""4032""
""focus"",""3"",""13871""
","""event"",""trial"",""time""
""blur"",""3"",""4032""
","""event"",""trial"",""time""
""focus"",""3"",""13871""
","""event"",""trial"",""time""
""fullscreenenter"",""1"",""1757""
","
","","","","","","1380","images/apple3.png","","","memory_trial","3","maybe_new","","","","","","",""
"html-keyboard-response","58","225679","0.0-15.0-0.8","1698","2","""event"",""trial"",""time""
""fullscreenenter"",""1"",""1757""
""blur"",""3"",""4032""
""focus"",""3"",""13871""
","""event"",""trial"",""time""
""blur"",""3"",""4032""
","""event"",""trial"",""time""
""focus"",""3"",""13871""
","""event"",""trial"",""time""
""fullscreenenter"",""1"",""1757""
","
","","","","","","null","<div style=""font-size:60px;"">+</div>","null","","fixation","","","","","","","","",""
"memory-trial","59","227875","0.0-15.0-1.8","1698","2","""event"",""trial"",""time""
""fullscreenenter"",""1"",""1757""
""blur"",""3"",""4032""
""focus"",""3"",""13871""
","""event"",""trial"",""time""
""blur"",""3"",""4032""
","""event"",""trial"",""time""
""focus"",""3"",""13871""
","""event"",""trial"",""time""
""fullscreenenter"",""1"",""1757""
","
","","","","","","1194","images/table1.png","","","memory_trial","3","maybe_new","","","","","","",""
"html-keyboard-response","60","228377","0.0-15.0-0.9","1698","2","""event"",""trial"",""time""
""fullscreenenter"",""1"",""1757""
""blur"",""3"",""4032""
""focus"",""3"",""13871""
","""event"",""trial"",""time""
""blur"",""3"",""4032""
","""event"",""trial"",""time""
""focus"",""3"",""13871""
","""event"",""trial"",""time""
""fullscreenenter"",""1"",""1757""
","
","","","","","","null","<div style=""font-size:60px;"">+</div>","null","","fixation","","","","","","","","",""
"memory-trial","61","230573","0.0-15.0-1.9","1698","2","""event"",""trial"",""time""
""fullscreenenter"",""1"",""1757""
""blur"",""3"",""4032""
""focus"",""3"",""13871""
","""event"",""trial"",""time""
""blur"",""3"",""4032""
","""event"",""trial"",""time""
""focus"",""3"",""13871""
","""event"",""trial"",""time""
""fullscreenenter"",""1"",""1757""
","
","","","","","","1195","images/orange1.png","","","memory_trial","2","maybe_old","","","","","","",""
"html-keyboard-response","62","231074","0.0-15.0-0.10","1698","2","""event"",""trial"",""time""
""fullscreenenter"",""1"",""1757""
""blur"",""3"",""4032""
""focus"",""3"",""13871""
","""event"",""trial"",""time""
""blur"",""3"",""4032""
","""event"",""trial"",""time""
""focus"",""3"",""13871""
","""event"",""trial"",""time""
""fullscreenenter"",""1"",""1757""
","
","","","","","","null","<div style=""font-size:60px;"">+</div>","null","","fixation","","","","","","","","",""
"memory-trial","63","233162","0.0-15.0-1.10","1698","2","""event"",""trial"",""time""
""fullscreenenter"",""1"",""1757""
""blur"",""3"",""4032""
""focus"",""3"",""13871""
","""event"",""trial"",""time""
""blur"",""3"",""4032""
","""event"",""trial"",""time""
""focus"",""3"",""13871""
","""event"",""trial"",""time""
""fullscreenenter"",""1"",""1757""
","
","","","","","","1087.000000000029","images/rabbit5.png","","","memory_trial","1","definitely_old","","","","","","",""
"html-keyboard-response","64","233663","0.0-15.0-0.11","1698","2","""event"",""trial"",""time""
""fullscreenenter"",""1"",""1757""
""blur"",""3"",""4032""
""focus"",""3"",""13871""
","""event"",""trial"",""time""
""blur"",""3"",""4032""
","""event"",""trial"",""time""
""focus"",""3"",""13871""
","""event"",""trial"",""time""
""fullscreenenter"",""1"",""1757""
","
","","","","","","null","<div style=""font-size:60px;"">+</div>","null","","fixation","","","","","","","","",""
"memory-trial","65","235638","0.0-15.0-1.11","1698","2","""event"",""trial"",""time""
""fullscreenenter"",""1"",""1757""
""blur"",""3"",""4032""
""focus"",""3"",""13871""
","""event"",""trial"",""time""
""blur"",""3"",""4032""
","""event"",""trial"",""time""
""focus"",""3"",""13871""
","""event"",""trial"",""time""
""fullscreenenter"",""1"",""1757""
","
","","","","","","973","images/bush4.png","","","memory_trial","4","definitely_new","","","","","","",""
"html-keyboard-response","66","236140","0.0-15.0-0.12","1698","2","""event"",""trial"",""time""
""fullscreenenter"",""1"",""1757""
""blur"",""3"",""4032""
""focus"",""3"",""13871""
","""event"",""trial"",""time""
""blur"",""3"",""4032""
","""event"",""trial"",""time""
""focus"",""3"",""13871""
","""event"",""trial"",""time""
""fullscreenenter"",""1"",""1757""
","
","","","","","","null","<div style=""font-size:60px;"">+</div>","null","","fixation","","","","","","","","",""
"memory-trial","67","238822","0.0-15.0-1.12","1698","2","""event"",""trial"",""time""
""fullscreenenter"",""1"",""1757""
""blur"",""3"",""4032""
""focus"",""3"",""13871""
","""event"",""trial"",""time""
""blur"",""3"",""4032""
","""event"",""trial"",""time""
""focus"",""3"",""13871""
","""event"",""trial"",""time""
""fullscreenenter"",""1"",""1757""
","
","","","","","","1681","images/train3.png","","","memory_trial","4","definitely_new","","","","","","",""
"html-keyboard-response","68","239323","0.0-15.0-0.13","1698","2","""event"",""trial"",""time""
""fullscreenenter"",""1"",""1757""
""blur"",""3"",""4032""
""focus"",""3"",""13871""
","""event"",""trial"",""time""
""blur"",""3"",""4032""
","""event"",""trial"",""time""
""focus"",""3"",""13871""
","""event"",""trial"",""time""
""fullscreenenter"",""1"",""1757""
","
","","","","","","null","<div style=""font-size:60px;"">+</div>","null","","fixation","","","","","","","","",""
"memory-trial","69","241933","0.0-15.0-1.13","1698","2","""event"",""trial"",""time""
""fullscreenenter"",""1"",""1757""
""blur"",""3"",""4032""
""focus"",""3"",""13871""
","""event"",""trial"",""time""
""blur"",""3"",""4032""
","""event"",""trial"",""time""
""focus"",""3"",""13871""
","""event"",""trial"",""time""
""fullscreenenter"",""1"",""1757""
","
","","","","","","1609","images/truck2.png","","","memory_trial","2","maybe_old","","","","","","",""
"html-keyboard-response","70","242434","0.0-15.0-0.14","1698","2","""event"",""trial"",""time""
""fullscreenenter"",""1"",""1757""
""blur"",""3"",""4032""
""focus"",""3"",""13871""
","""event"",""trial"",""time""
""blur"",""3"",""4032""
","""event"",""trial"",""time""
""focus"",""3"",""13871""
","""event"",""trial"",""time""
""fullscreenenter"",""1"",""1757""
","
","","","","","","null","<div style=""font-size:60px;"">+</div>","null","","fixation","","","","","","","","",""
"memory-trial","71","244420","0.0-15.0-1.14","1698","2","""event"",""trial"",""time""
""fullscreenenter"",""1"",""1757""
""blur"",""3"",""4032""
""focus"",""3"",""13871""
","""event"",""trial"",""time""
""blur"",""3"",""4032""
","""event"",""trial"",""time""
""focus"",""3"",""13871""
","""event"",""trial"",""time""
""fullscreenenter"",""1"",""1757""
","
","","","","","","982.9999999999709","images/bush1.png","","","memory_trial","3","maybe_new","","","","","","",""
"html-keyboard-response","72","244921","0.0-15.0-0.15","1698","2","""event"",""trial"",""time""
""fullscreenenter"",""1"",""1757""
""blur"",""3"",""4032""
""focus"",""3"",""13871""
","""event"",""trial"",""time""
""blur"",""3"",""4032""
","""event"",""trial"",""time""
""focus"",""3"",""13871""
","""event"",""trial"",""time""
""fullscreenenter"",""1"",""1757""
","
","","","","","","null","<div style=""font-size:60px;"">+</div>","null","","fixation","","","","","","","","",""
"memory-trial","73","247818","0.0-15.0-1.15","1698","2","""event"",""trial"",""time""
""fullscreenenter"",""1"",""1757""
""blur"",""3"",""4032""
""focus"",""3"",""13871""
","""event"",""trial"",""time""
""blur"",""3"",""4032""
","""event"",""trial"",""time""
""focus"",""3"",""13871""
","""event"",""trial"",""time""
""fullscreenenter"",""1"",""1757""
","
","","","","","","1894.000000000029","images/boat1.png","","","memory_trial","2","maybe_old","","","","","","",""
"html-keyboard-response","74","248318","0.0-15.0-0.16","1698","2","""event"",""trial"",""time""
""fullscreenenter"",""1"",""1757""
""blur"",""3"",""4032""
""focus"",""3"",""13871""
","""event"",""trial"",""time""
""blur"",""3"",""4032""
","""event"",""trial"",""time""
""focus"",""3"",""13871""
","""event"",""trial"",""time""
""fullscreenenter"",""1"",""1757""
","
","","","","","","null","<div style=""font-size:60px;"">+</div>","null","","fixation","","","","","","","","",""
"memory-trial","75","250395","0.0-15.0-1.16","1698","2","""event"",""trial"",""time""
""fullscreenenter"",""1"",""1757""
""blur"",""3"",""4032""
""focus"",""3"",""13871""
","""event"",""trial"",""time""
""blur"",""3"",""4032""
","""event"",""trial"",""time""
""focus"",""3"",""13871""
","""event"",""trial"",""time""
""fullscreenenter"",""1"",""1757""
","
","","","","","","1074.000000000029","images/sofa2.png","","","memory_trial","2","maybe_old","","","","","","",""
"html-keyboard-response","76","250896","0.0-15.0-0.17","1698","2","""event"",""trial"",""time""
""fullscreenenter"",""1"",""1757""
""blur"",""3"",""4032""
""focus"",""3"",""13871""
","""event"",""trial"",""time""
""blur"",""3"",""4032""
","""event"",""trial"",""time""
""focus"",""3"",""13871""
","""event"",""trial"",""time""
""fullscreenenter"",""1"",""1757""
","
","","","","","","null","<div style=""font-size:60px;"">+</div>","null","","fixation","","","","","","","","",""
"memory-trial","77","253407","0.0-15.0-1.17","1698","2","""event"",""trial"",""time""
""fullscreenenter"",""1"",""1757""
""blur"",""3"",""4032""
""focus"",""3"",""13871""
","""event"",""trial"",""time""
""blur"",""3"",""4032""
","""event"",""trial"",""time""
""focus"",""3"",""13871""
","""event"",""trial"",""time""
""fullscreenenter"",""1"",""1757""
","
","","","","","","1509","images/cow3.png","","","memory_trial","2","maybe_old","","","","","","",""
"html-keyboard-response","78","253909","0.0-15.0-0.18","1698","2","""event"",""trial"",""time""
""fullscreenenter"",""1"",""1757""
""blur"",""3"",""4032""
""focus"",""3"",""13871""
","""event"",""trial"",""time""
""blur"",""3"",""4032""
","""event"",""trial"",""time""
""focus"",""3"",""13871""
","""event"",""trial"",""time""
""fullscreenenter"",""1"",""1757""
","
","","","","","","null","<div style=""font-size:60px;"">+</div>","null","","fixation","","","","","","","","",""
"memory-trial","79","257156","0.0-15.0-1.18","1698","2","""event"",""trial"",""time""
""fullscreenenter"",""1"",""1757""
""blur"",""3"",""4032""
""focus"",""3"",""13871""
","""event"",""trial"",""time""
""blur"",""3"",""4032""
","""event"",""trial"",""time""
""focus"",""3"",""13871""
","""event"",""trial"",""time""
""fullscreenenter"",""1"",""1757""
","
","","","","","","2245","images/goat3.png","","","memory_trial","3","maybe_new","","","","","","",""
"html-keyboard-response","80","257658","0.0-15.0-0.19","1698","2","""event"",""trial"",""time""
""fullscreenenter"",""1"",""1757""
""blur"",""3"",""4032""
""focus"",""3"",""13871""
","""event"",""trial"",""time""
""blur"",""3"",""4032""
","""event"",""trial"",""time""
""focus"",""3"",""13871""
","""event"",""trial"",""time""
""fullscreenenter"",""1"",""1757""
","
","","","","","","null","<div style=""font-size:60px;"">+</div>","null","","fixation","","","","","","","","",""
"memory-trial","81","259627","0.0-15.0-1.19","1698","2","""event"",""trial"",""time""
""fullscreenenter"",""1"",""1757""
""blur"",""3"",""4032""
""focus"",""3"",""13871""
","""event"",""trial"",""time""
""blur"",""3"",""4032""
","""event"",""trial"",""time""
""focus"",""3"",""13871""
","""event"",""trial"",""time""
""fullscreenenter"",""1"",""1757""
","
","","","","","","967.9999999999709","images/horse4.png","","","memory_trial","2","maybe_old","","","","","","",""
"html-keyboard-response","82","260128","0.0-15.0-0.20","1698","2","""event"",""trial"",""time""
""fullscreenenter"",""1"",""1757""
""blur"",""3"",""4032""
""focus"",""3"",""13871""
","""event"",""trial"",""time""
""blur"",""3"",""4032""
","""event"",""trial"",""time""
""focus"",""3"",""13871""
","""event"",""trial"",""time""
""fullscreenenter"",""1"",""1757""
","
","","","","","","null","<div style=""font-size:60px;"">+</div>","null","","fixation","","","","","","","","",""
"memory-trial","83","262379","0.0-15.0-1.20","1698","2","""event"",""trial"",""time""
""fullscreenenter"",""1"",""1757""
""blur"",""3"",""4032""
""focus"",""3"",""13871""
","""event"",""trial"",""time""
""blur"",""3"",""4032""
","""event"",""trial"",""time""
""focus"",""3"",""13871""
","""event"",""trial"",""time""
""fullscreenenter"",""1"",""1757""
","
","","","","","","1249","images/chair4.png","","","memory_trial","4","definitely_new","","","","","","",""
"html-keyboard-response","84","262880","0.0-15.0-0.21","1698","2","""event"",""trial"",""time""
""fullscreenenter"",""1"",""1757""
""blur"",""3"",""4032""
""focus"",""3"",""13871""
","""event"",""trial"",""time""
""blur"",""3"",""4032""
","""event"",""trial"",""time""
""focus"",""3"",""13871""
","""event"",""trial"",""time""
""fullscreenenter"",""1"",""1757""
","
","","","","","","null","<div style=""font-size:60px;"">+</div>","null","","fixation","","","","","","","","",""
"memory-trial","85","265408","0.0-15.0-1.21","1698","2","""event"",""trial"",""time""
""fullscreenenter"",""1"",""1757""
""blur"",""3"",""4032""
""focus"",""3"",""13871""
","""event"",""trial"",""time""
""blur"",""3"",""4032""
","""event"",""trial"",""time""
""focus"",""3"",""13871""
","""event"",""trial"",""time""
""fullscreenenter"",""1"",""1757""
","
","","","","","","1527","images/feline5.png","","","memory_trial","4","definitely_new","","","","","","",""
"html-keyboard-response","86","265910","0.0-15.0-0.22","1698","2","""event"",""trial"",""time""
""fullscreenenter"",""1"",""1757""
""blur"",""3"",""4032""
""focus"",""3"",""13871""
","""event"",""trial"",""time""
""blur"",""3"",""4032""
","""event"",""trial"",""time""
""focus"",""3"",""13871""
","""event"",""trial"",""time""
""fullscreenenter"",""1"",""1757""
","
","","","","","","null","<div style=""font-size:60px;"">+</div>","null","","fixation","","","","","","","","",""
"memory-trial","87","268717","0.0-15.0-1.22","1698","2","""event"",""trial"",""time""
""fullscreenenter"",""1"",""1757""
""blur"",""3"",""4032""
""focus"",""3"",""13871""
","""event"",""trial"",""time""
""blur"",""3"",""4032""
","""event"",""trial"",""time""
""focus"",""3"",""13871""
","""event"",""trial"",""time""
""fullscreenenter"",""1"",""1757""
","
","","","","","","1806","images/boat4.png","","","memory_trial","2","maybe_old","","","","","","",""
"html-keyboard-response","88","269219","0.0-15.0-0.23","1698","2","""event"",""trial"",""time""
""fullscreenenter"",""1"",""1757""
""blur"",""3"",""4032""
""focus"",""3"",""13871""
","""event"",""trial"",""time""
""blur"",""3"",""4032""
","""event"",""trial"",""time""
""focus"",""3"",""13871""
","""event"",""trial"",""time""
""fullscreenenter"",""1"",""1757""
","
","","","","","","null","<div style=""font-size:60px;"">+</div>","null","","fixation","","","","","","","","",""
"memory-trial","89","271771","0.0-15.0-1.23","1698","2","""event"",""trial"",""time""
""fullscreenenter"",""1"",""1757""
""blur"",""3"",""4032""
""focus"",""3"",""13871""
","""event"",""trial"",""time""
""blur"",""3"",""4032""
","""event"",""trial"",""time""
""focus"",""3"",""13871""
","""event"",""trial"",""time""
""fullscreenenter"",""1"",""1757""
","
","","","","","","1551","images/bush5.png","","","memory_trial","4","definitely_new","","","","","","",""
"html-keyboard-response","90","272272","0.0-15.0-0.24","1698","2","""event"",""trial"",""time""
""fullscreenenter"",""1"",""1757""
""blur"",""3"",""4032""
""focus"",""3"",""13871""
","""event"",""trial"",""time""
""blur"",""3"",""4032""
","""event"",""trial"",""time""
""focus"",""3"",""13871""
","""event"",""trial"",""time""
""fullscreenenter"",""1"",""1757""
","
","","","","","","null","<div style=""font-size:60px;"">+</div>","null","","fixation","","","","","","","","",""
"memory-trial","91","275659","0.0-15.0-1.24","1698","2","""event"",""trial"",""time""
""fullscreenenter"",""1"",""1757""
""blur"",""3"",""4032""
""focus"",""3"",""13871""
","""event"",""trial"",""time""
""blur"",""3"",""4032""
","""event"",""trial"",""time""
""focus"",""3"",""13871""
","""event"",""trial"",""time""
""fullscreenenter"",""1"",""1757""
","
","","","","","","2385","images/rodent1.png","","","memory_trial","2","maybe_old","","","","","","",""
"html-keyboard-response","92","276161","0.0-15.0-0.25","1698","2","""event"",""trial"",""time""
""fullscreenenter"",""1"",""1757""
""blur"",""3"",""4032""
""focus"",""3"",""13871""
","""event"",""trial"",""time""
""blur"",""3"",""4032""
","""event"",""trial"",""time""
""focus"",""3"",""13871""
","""event"",""trial"",""time""
""fullscreenenter"",""1"",""1757""
","
","","","","","","null","<div style=""font-size:60px;"">+</div>","null","","fixation","","","","","","","","",""
"memory-trial","93","279459","0.0-15.0-1.25","1698","2","""event"",""trial"",""time""
""fullscreenenter"",""1"",""1757""
""blur"",""3"",""4032""
""focus"",""3"",""13871""
","""event"",""trial"",""time""
""blur"",""3"",""4032""
","""event"",""trial"",""time""
""focus"",""3"",""13871""
","""event"",""trial"",""time""
""fullscreenenter"",""1"",""1757""
","
","","","","","","2295","images/truck4.png","","","memory_trial","4","definitely_new","","","","","","",""
"html-keyboard-response","94","279961","0.0-15.0-0.26","1698","2","""event"",""trial"",""time""
""fullscreenenter"",""1"",""1757""
""blur"",""3"",""4032""
""focus"",""3"",""13871""
","""event"",""trial"",""time""
""blur"",""3"",""4032""
","""event"",""trial"",""time""
""focus"",""3"",""13871""
","""event"",""trial"",""time""
""fullscreenenter"",""1"",""1757""
","
","","","","","","null","<div style=""font-size:60px;"">+</div>","null","","fixation","","","","","","","","",""
"memory-trial","95","282226","0.0-15.0-1.26","1698","2","""event"",""trial"",""time""
""fullscreenenter"",""1"",""1757""
""blur"",""3"",""4032""
""focus"",""3"",""13871""
","""event"",""trial"",""time""
""blur"",""3"",""4032""
","""event"",""trial"",""time""
""focus"",""3"",""13871""
","""event"",""trial"",""time""
""fullscreenenter"",""1"",""1757""
","
","","","","","","1263","images/chair2.png","","","memory_trial","2","maybe_old","","","","","","",""
"html-keyboard-response","96","282727","0.0-15.0-0.27","1698","2","""event"",""trial"",""time""
""fullscreenenter"",""1"",""1757""
""blur"",""3"",""4032""
""focus"",""3"",""13871""
","""event"",""trial"",""time""
""blur"",""3"",""4032""
","""event"",""trial"",""time""
""focus"",""3"",""13871""
","""event"",""trial"",""time""
""fullscreenenter"",""1"",""1757""
","
","","","","","","null","<div style=""font-size:60px;"">+</div>","null","","fixation","","","","","","","","",""
"memory-trial","97","284902","0.0-15.0-1.27","1698","2","""event"",""trial"",""time""
""fullscreenenter"",""1"",""1757""
""blur"",""3"",""4032""
""focus"",""3"",""13871""
","""event"",""trial"",""time""
""blur"",""3"",""4032""
","""event"",""trial"",""time""
""focus"",""3"",""13871""
","""event"",""trial"",""time""
""fullscreenenter"",""1"",""1757""
","
","","","","","","1173","images/rabbit1.png","","","memory_trial","2","maybe_old","","","","","","",""
"html-keyboard-response","98","285403","0.0-15.0-0.28","1698","2","""event"",""trial"",""time""
""fullscreenenter"",""1"",""1757""
""blur"",""3"",""4032""
""focus"",""3"",""13871""
","""event"",""trial"",""time""
""blur"",""3"",""4032""
","""event"",""trial"",""time""
""focus"",""3"",""13871""
","""event"",""trial"",""time""
""fullscreenenter"",""1"",""1757""
","
","","","","","","null","<div style=""font-size:60px;"">+</div>","null","","fixation","","","","","","","","",""
"memory-trial","99","287715","0.0-15.0-1.28","1698","2","""event"",""trial"",""time""
""fullscreenenter"",""1"",""1757""
""blur"",""3"",""4032""
""focus"",""3"",""13871""
","""event"",""trial"",""time""
""blur"",""3"",""4032""
","""event"",""trial"",""time""
""focus"",""3"",""13871""
","""event"",""trial"",""time""
""fullscreenenter"",""1"",""1757""
","
","","","","","","1310","images/dog2.png","","","memory_trial","4","definitely_new","","","","","","",""
"html-keyboard-response","100","288216","0.0-15.0-0.29","1698","2","""event"",""trial"",""time""
""fullscreenenter"",""1"",""1757""
""blur"",""3"",""4032""
""focus"",""3"",""13871""
","""event"",""trial"",""time""
""blur"",""3"",""4032""
","""event"",""trial"",""time""
""focus"",""3"",""13871""
","""event"",""trial"",""time""
""fullscreenenter"",""1"",""1757""
","
","","","","","","null","<div style=""font-size:60px;"">+</div>","null","","fixation","","","","","","","","",""
"memory-trial","101","290251","0.0-15.0-1.29","1698","2","""event"",""trial"",""time""
""fullscreenenter"",""1"",""1757""
""blur"",""3"",""4032""
""focus"",""3"",""13871""
","""event"",""trial"",""time""
""blur"",""3"",""4032""
","""event"",""trial"",""time""
""focus"",""3"",""13871""
","""event"",""trial"",""time""
""fullscreenenter"",""1"",""1757""
","
","","","","","","1032","images/horse2.png","","","memory_trial","1","definitely_old","","","","","","",""
"html-keyboard-response","102","290751","0.0-15.0-0.30","1698","2","""event"",""trial"",""time""
""fullscreenenter"",""1"",""1757""
""blur"",""3"",""4032""
""focus"",""3"",""13871""
","""event"",""trial"",""time""
""blur"",""3"",""4032""
","""event"",""trial"",""time""
""focus"",""3"",""13871""
","""event"",""trial"",""time""
""fullscreenenter"",""1"",""1757""
","
","","","","","","null","<div style=""font-size:60px;"">+</div>","null","","fixation","","","","","","","","",""
"memory-trial","103","292913","0.0-15.0-1.30","1698","2","""event"",""trial"",""time""
""fullscreenenter"",""1"",""1757""
""blur"",""3"",""4032""
""focus"",""3"",""13871""
","""event"",""trial"",""time""
""blur"",""3"",""4032""
","""event"",""trial"",""time""
""focus"",""3"",""13871""
","""event"",""trial"",""time""
""fullscreenenter"",""1"",""1757""
","
","","","","","","1158","images/cow2.png","","","memory_trial","4","definitely_new","","","","","","",""
"html-keyboard-response","104","293414","0.0-15.0-0.31","1698","2","""event"",""trial"",""time""
""fullscreenenter"",""1"",""1757""
""blur"",""3"",""4032""
""focus"",""3"",""13871""
","""event"",""trial"",""time""
""blur"",""3"",""4032""
","""event"",""trial"",""time""
""focus"",""3"",""13871""
","""event"",""trial"",""time""
""fullscreenenter"",""1"",""1757""
","
","","","","","","null","<div style=""font-size:60px;"">+</div>","null","","fixation","","","","","","","","",""
"memory-trial","105","295432","0.0-15.0-1.31","1698","2","""event"",""trial"",""time""
""fullscreenenter"",""1"",""1757""
""blur"",""3"",""4032""
""focus"",""3"",""13871""
","""event"",""trial"",""time""
""blur"",""3"",""4032""
","""event"",""trial"",""time""
""focus"",""3"",""13871""
","""event"",""trial"",""time""
""fullscreenenter"",""1"",""1757""
","
","","","","","","1015","images/train2.png","","","memory_trial","4","definitely_new","","","","","","",""
"html-keyboard-response","106","295934","0.0-15.0-0.32","1698","2","""event"",""trial"",""time""
""fullscreenenter"",""1"",""1757""
""blur"",""3"",""4032""
""focus"",""3"",""13871""
","""event"",""trial"",""time""
""blur"",""3"",""4032""
","""event"",""trial"",""time""
""focus"",""3"",""13871""
","""event"",""trial"",""time""
""fullscreenenter"",""1"",""1757""
","
","","","","","","null","<div style=""font-size:60px;"">+</div>","null","","fixation","","","","","","","","",""
"memory-trial","107","298175","0.0-15.0-1.32","1698","2","""event"",""trial"",""time""
""fullscreenenter"",""1"",""1757""
""blur"",""3"",""4032""
""focus"",""3"",""13871""
","""event"",""trial"",""time""
""blur"",""3"",""4032""
","""event"",""trial"",""time""
""focus"",""3"",""13871""
","""event"",""trial"",""time""
""fullscreenenter"",""1"",""1757""
","
","","","","","","1240","images/apple2.png","","","memory_trial","4","definitely_new","","","","","","",""
"html-keyboard-response","108","298677","0.0-15.0-0.33","1698","2","""event"",""trial"",""time""
""fullscreenenter"",""1"",""1757""
""blur"",""3"",""4032""
""focus"",""3"",""13871""
","""event"",""trial"",""time""
""blur"",""3"",""4032""
","""event"",""trial"",""time""
""focus"",""3"",""13871""
","""event"",""trial"",""time""
""fullscreenenter"",""1"",""1757""
","
","","","","","","null","<div style=""font-size:60px;"">+</div>","null","","fixation","","","","","","","","",""
"memory-trial","109","300682","0.0-15.0-1.33","1698","2","""event"",""trial"",""time""
""fullscreenenter"",""1"",""1757""
""blur"",""3"",""4032""
""focus"",""3"",""13871""
","""event"",""trial"",""time""
""blur"",""3"",""4032""
","""event"",""trial"",""time""
""focus"",""3"",""13871""
","""event"",""trial"",""time""
""fullscreenenter"",""1"",""1757""
","
","","","","","","1004","images/rodent5.png","","","memory_trial","1","definitely_old","","","","","","",""
"html-keyboard-response","110","301184","0.0-15.0-0.34","1698","2","""event"",""trial"",""time""
""fullscreenenter"",""1"",""1757""
""blur"",""3"",""4032""
""focus"",""3"",""13871""
","""event"",""trial"",""time""
""blur"",""3"",""4032""
","""event"",""trial"",""time""
""focus"",""3"",""13871""
","""event"",""trial"",""time""
""fullscreenenter"",""1"",""1757""
","
","","","","","","null","<div style=""font-size:60px;"">+</div>","null","","fixation","","","","","","","","",""
"memory-trial","111","303228","0.0-15.0-1.34","1698","2","""event"",""trial"",""time""
""fullscreenenter"",""1"",""1757""
""blur"",""3"",""4032""
""focus"",""3"",""13871""
","""event"",""trial"",""time""
""blur"",""3"",""4032""
","""event"",""trial"",""time""
""focus"",""3"",""13871""
","""event"",""trial"",""time""
""fullscreenenter"",""1"",""1757""
","
","","","","","","1042","images/sheep2.png","","","memory_trial","4","definitely_new","","","","","","",""
"html-keyboard-response","112","303730","0.0-15.0-0.35","1698","2","""event"",""trial"",""time""
""fullscreenenter"",""1"",""1757""
""blur"",""3"",""4032""
""focus"",""3"",""13871""
","""event"",""trial"",""time""
""blur"",""3"",""4032""
","""event"",""trial"",""time""
""focus"",""3"",""13871""
","""event"",""trial"",""time""
""fullscreenenter"",""1"",""1757""
","
","","","","","","null","<div style=""font-size:60px;"">+</div>","null","","fixation","","","","","","","","",""
"memory-trial","113","305898","0.0-15.0-1.35","1698","2","""event"",""trial"",""time""
""fullscreenenter"",""1"",""1757""
""blur"",""3"",""4032""
""focus"",""3"",""13871""
","""event"",""trial"",""time""
""blur"",""3"",""4032""
","""event"",""trial"",""time""
""focus"",""3"",""13871""
","""event"",""trial"",""time""
""fullscreenenter"",""1"",""1757""
","
","","","","","","1166","images/feline4.png","","","memory_trial","1","definitely_old","","","","","","",""
"html-keyboard-response","114","306400","0.0-15.0-0.36","1698","2","""event"",""trial"",""time""
""fullscreenenter"",""1"",""1757""
""blur"",""3"",""4032""
""focus"",""3"",""13871""
","""event"",""trial"",""time""
""blur"",""3"",""4032""
","""event"",""trial"",""time""
""focus"",""3"",""13871""
","""event"",""trial"",""time""
""fullscreenenter"",""1"",""1757""
","
","","","","","","null","<div style=""font-size:60px;"">+</div>","null","","fixation","","","","","","","","",""
"memory-trial","115","309920","0.0-15.0-1.36","1698","2","""event"",""trial"",""time""
""fullscreenenter"",""1"",""1757""
""blur"",""3"",""4032""
""focus"",""3"",""13871""
","""event"",""trial"",""time""
""blur"",""3"",""4032""
","""event"",""trial"",""time""
""focus"",""3"",""13871""
","""event"",""trial"",""time""
""fullscreenenter"",""1"",""1757""
","
","","","","","","2517","images/rodent4.png","","","memory_trial","3","maybe_new","","","","","","",""
"html-keyboard-response","116","310421","0.0-15.0-0.37","1698","2","""event"",""trial"",""time""
""fullscreenenter"",""1"",""1757""
""blur"",""3"",""4032""
""focus"",""3"",""13871""
","""event"",""trial"",""time""
""blur"",""3"",""4032""
","""event"",""trial"",""time""
""focus"",""3"",""13871""
","""event"",""trial"",""time""
""fullscreenenter"",""1"",""1757""
","
","","","","","","null","<div style=""font-size:60px;"">+</div>","null","","fixation","","","","","","","","",""
"memory-trial","117","312988","0.0-15.0-1.37","1698","2","""event"",""trial"",""time""
""fullscreenenter"",""1"",""1757""
""blur"",""3"",""4032""
""focus"",""3"",""13871""
","""event"",""trial"",""time""
""blur"",""3"",""4032""
","""event"",""trial"",""time""
""focus"",""3"",""13871""
","""event"",""trial"",""time""
""fullscreenenter"",""1"",""1757""
","
","","","","","","1564.0000000000582","images/feline3.png","","","memory_trial","2","maybe_old","","","","","","",""
"html-keyboard-response","118","313488","0.0-15.0-0.38","1698","2","""event"",""trial"",""time""
""fullscreenenter"",""1"",""1757""
""blur"",""3"",""4032""
""focus"",""3"",""13871""
","""event"",""trial"",""time""
""blur"",""3"",""4032""
","""event"",""trial"",""time""
""focus"",""3"",""13871""
","""event"",""trial"",""time""
""fullscreenenter"",""1"",""1757""
","
","","","","","","null","<div style=""font-size:60px;"">+</div>","null","","fixation","","","","","","","","",""
"memory-trial","119","316617","0.0-15.0-1.38","1698","2","""event"",""trial"",""time""
""fullscreenenter"",""1"",""1757""
""blur"",""3"",""4032""
""focus"",""3"",""13871""
","""event"",""trial"",""time""
""blur"",""3"",""4032""
","""event"",""trial"",""time""
""focus"",""3"",""13871""
","""event"",""trial"",""time""
""fullscreenenter"",""1"",""1757""
","
","","","","","","2127","images/feline2.png","","","memory_trial","2","maybe_old","","","","","","",""
"html-keyboard-response","120","317119","0.0-15.0-0.39","1698","2","""event"",""trial"",""time""
""fullscreenenter"",""1"",""1757""
""blur"",""3"",""4032""
""focus"",""3"",""13871""
","""event"",""trial"",""time""
""blur"",""3"",""4032""
","""event"",""trial"",""time""
""focus"",""3"",""13871""
","""event"",""trial"",""time""
""fullscreenenter"",""1"",""1757""
","
","","","","","","null","<div style=""font-size:60px;"">+</div>","null","","fixation","","","","","","","","",""
"memory-trial","121","320057","0.0-15.0-1.39","1698","2","""event"",""trial"",""time""
""fullscreenenter"",""1"",""1757""
""blur"",""3"",""4032""
""focus"",""3"",""13871""
","""event"",""trial"",""time""
""blur"",""3"",""4032""
","""event"",""trial"",""time""
""focus"",""3"",""13871""
","""event"",""trial"",""time""
""fullscreenenter"",""1"",""1757""
","
","","","","","","1934","images/flower1.png","","","memory_trial","4","definitely_new","","","","","","",""
"html-keyboard-response","122","320559","0.0-15.0-0.40","1698","2","""event"",""trial"",""time""
""fullscreenenter"",""1"",""1757""
""blur"",""3"",""4032""
""focus"",""3"",""13871""
","""event"",""trial"",""time""
""blur"",""3"",""4032""
","""event"",""trial"",""time""
""focus"",""3"",""13871""
","""event"",""trial"",""time""
""fullscreenenter"",""1"",""1757""
","
","","","","","","null","<div style=""font-size:60px;"">+</div>","null","","fixation","","","","","","","","",""
"memory-trial","123","323216","0.0-15.0-1.40","1698","2","""event"",""trial"",""time""
""fullscreenenter"",""1"",""1757""
""blur"",""3"",""4032""
""focus"",""3"",""13871""
","""event"",""trial"",""time""
""blur"",""3"",""4032""
","""event"",""trial"",""time""
""focus"",""3"",""13871""
","""event"",""trial"",""time""
""fullscreenenter"",""1"",""1757""
","
","","","","","","1655","images/boat5.png","","","memory_trial","3","maybe_new","","","","","","",""
"html-keyboard-response","124","323717","0.0-15.0-0.41","1698","2","""event"",""trial"",""time""
""fullscreenenter"",""1"",""1757""
""blur"",""3"",""4032""
""focus"",""3"",""13871""
","""event"",""trial"",""time""
""blur"",""3"",""4032""
","""event"",""trial"",""time""
""focus"",""3"",""13871""
","""event"",""trial"",""time""
""fullscreenenter"",""1"",""1757""
","
","","","","","","null","<div style=""font-size:60px;"">+</div>","null","","fixation","","","","","","","","",""
"memory-trial","125","327492","0.0-15.0-1.41","1698","2","""event"",""trial"",""time""
""fullscreenenter"",""1"",""1757""
""blur"",""3"",""4032""
""focus"",""3"",""13871""
","""event"",""trial"",""time""
""blur"",""3"",""4032""
","""event"",""trial"",""time""
""focus"",""3"",""13871""
","""event"",""trial"",""time""
""fullscreenenter"",""1"",""1757""
","
","","","","","","2773","images/banana1.png","","","memory_trial","3","maybe_new","","","","","","",""
"html-keyboard-response","126","327992","0.0-15.0-0.42","1698","2","""event"",""trial"",""time""
""fullscreenenter"",""1"",""1757""
""blur"",""3"",""4032""
""focus"",""3"",""13871""
","""event"",""trial"",""time""
""blur"",""3"",""4032""
","""event"",""trial"",""time""
""focus"",""3"",""13871""
","""event"",""trial"",""time""
""fullscreenenter"",""1"",""1757""
","
","","","","","","null","<div style=""font-size:60px;"">+</div>","null","","fixation","","","","","","","","",""
"memory-trial","127","330822","0.0-15.0-1.42","1698","2","""event"",""trial"",""time""
""fullscreenenter"",""1"",""1757""
""blur"",""3"",""4032""
""focus"",""3"",""13871""
","""event"",""trial"",""time""
""blur"",""3"",""4032""
","""event"",""trial"",""time""
""focus"",""3"",""13871""
","""event"",""trial"",""time""
""fullscreenenter"",""1"",""1757""
","
","","","","","","1827","images/orange3.png","","","memory_trial","2","maybe_old","","","","","","",""
"html-keyboard-response","128","331324","0.0-15.0-0.43","1698","2","""event"",""trial"",""time""
""fullscreenenter"",""1"",""1757""
""blur"",""3"",""4032""
""focus"",""3"",""13871""
","""event"",""trial"",""time""
""blur"",""3"",""4032""
","""event"",""trial"",""time""
""focus"",""3"",""13871""
","""event"",""trial"",""time""
""fullscreenenter"",""1"",""1757""
","
","","","","","","null","<div style=""font-size:60px;"">+</div>","null","","fixation","","","","","","","","",""
"memory-trial","129","333578","0.0-15.0-1.43","1698","2","""event"",""trial"",""time""
""fullscreenenter"",""1"",""1757""
""blur"",""3"",""4032""
""focus"",""3"",""13871""
","""event"",""trial"",""time""
""blur"",""3"",""4032""
","""event"",""trial"",""time""
""focus"",""3"",""13871""
","""event"",""trial"",""time""
""fullscreenenter"",""1"",""1757""
","
","","","","","","1253","images/apple5.png","","","memory_trial","4","definitely_new","","","","","","",""
"html-keyboard-response","130","334079","0.0-15.0-0.44","1698","2","""event"",""trial"",""time""
""fullscreenenter"",""1"",""1757""
""blur"",""3"",""4032""
""focus"",""3"",""13871""
","""event"",""trial"",""time""
""blur"",""3"",""4032""
","""event"",""trial"",""time""
""focus"",""3"",""13871""
","""event"",""trial"",""time""
""fullscreenenter"",""1"",""1757""
","
","","","","","","null","<div style=""font-size:60px;"">+</div>","null","","fixation","","","","","","","","",""
"memory-trial","131","337504","0.0-15.0-1.44","1698","2","""event"",""trial"",""time""
""fullscreenenter"",""1"",""1757""
""blur"",""3"",""4032""
""focus"",""3"",""13871""
","""event"",""trial"",""time""
""blur"",""3"",""4032""
","""event"",""trial"",""time""
""focus"",""3"",""13871""
","""event"",""trial"",""time""
""fullscreenenter"",""1"",""1757""
","
","","","","","","2424","images/sheep1.png","","","memory_trial","3","maybe_new","","","","","","",""
"html-keyboard-response","132","338006","0.0-15.0-0.45","1698","2","""event"",""trial"",""time""
""fullscreenenter"",""1"",""1757""
""blur"",""3"",""4032""
""focus"",""3"",""13871""
","""event"",""trial"",""time""
""blur"",""3"",""4032""
","""event"",""trial"",""time""
""focus"",""3"",""13871""
","""event"",""trial"",""time""
""fullscreenenter"",""1"",""1757""
","
","","","","","","null","<div style=""font-size:60px;"">+</div>","null","","fixation","","","","","","","","",""
"memory-trial","133","340383","0.0-15.0-1.45","1698","2","""event"",""trial"",""time""
""fullscreenenter"",""1"",""1757""
""blur"",""3"",""4032""
""focus"",""3"",""13871""
","""event"",""trial"",""time""
""blur"",""3"",""4032""
","""event"",""trial"",""time""
""focus"",""3"",""13871""
","""event"",""trial"",""time""
""fullscreenenter"",""1"",""1757""
","
","","","","","","1375","images/chair5.png","","","memory_trial","3","maybe_new","","","","","","",""
"html-keyboard-response","134","340885","0.0-15.0-0.46","1698","2","""event"",""trial"",""time""
""fullscreenenter"",""1"",""1757""
""blur"",""3"",""4032""
""focus"",""3"",""13871""
","""event"",""trial"",""time""
""blur"",""3"",""4032""
","""event"",""trial"",""time""
""focus"",""3"",""13871""
","""event"",""trial"",""time""
""fullscreenenter"",""1"",""1757""
","
","","","","","","null","<div style=""font-size:60px;"">+</div>","null","","fixation","","","","","","","","",""
"memory-trial","135","343238","0.0-15.0-1.46","1698","2","""event"",""trial"",""time""
""fullscreenenter"",""1"",""1757""
""blur"",""3"",""4032""
""focus"",""3"",""13871""
","""event"",""trial"",""time""
""blur"",""3"",""4032""
","""event"",""trial"",""time""
""focus"",""3"",""13871""
","""event"",""trial"",""time""
""fullscreenenter"",""1"",""1757""
","
","","","","","","1351","images/bed2.png","","","memory_trial","3","maybe_new","","","","","","",""
"html-button-response","136","346507","0.0-15.0-2.46-0.46","1698","2","""event"",""trial"",""time""
""fullscreenenter"",""1"",""1757""
""blur"",""3"",""4032""
""focus"",""3"",""13871""
","""event"",""trial"",""time""
""blur"",""3"",""4032""
","""event"",""trial"",""time""
""focus"",""3"",""13871""
","""event"",""trial"",""time""
""fullscreenenter"",""1"",""1757""
","
","","","","","","3267","<p> Take a break! </p><p> Click the button to continue. </p>","0","","break","","","","","","","","",""
"html-keyboard-response","137","347009","0.0-15.0-0.47","1698","2","""event"",""trial"",""time""
""fullscreenenter"",""1"",""1757""
""blur"",""3"",""4032""
""focus"",""3"",""13871""
","""event"",""trial"",""time""
""blur"",""3"",""4032""
","""event"",""trial"",""time""
""focus"",""3"",""13871""
","""event"",""trial"",""time""
""fullscreenenter"",""1"",""1757""
","
","","","","","","null","<div style=""font-size:60px;"">+</div>","null","","fixation","","","","","","","","",""
"memory-trial","138","351291","0.0-15.0-1.47","1698","2","""event"",""trial"",""time""
""fullscreenenter"",""1"",""1757""
""blur"",""3"",""4032""
""focus"",""3"",""13871""
","""event"",""trial"",""time""
""blur"",""3"",""4032""
","""event"",""trial"",""time""
""focus"",""3"",""13871""
","""event"",""trial"",""time""
""fullscreenenter"",""1"",""1757""
","
","","","","","","3279","images/boat3.png","","","memory_trial","4","definitely_new","","","","","","",""
"html-keyboard-response","139","351793","0.0-15.0-0.48","1698","2","""event"",""trial"",""time""
""fullscreenenter"",""1"",""1757""
""blur"",""3"",""4032""
""focus"",""3"",""13871""
","""event"",""trial"",""time""
""blur"",""3"",""4032""
","""event"",""trial"",""time""
""focus"",""3"",""13871""
","""event"",""trial"",""time""
""fullscreenenter"",""1"",""1757""
","
","","","","","","null","<div style=""font-size:60px;"">+</div>","null","","fixation","","","","","","","","",""
"memory-trial","140","353995","0.0-15.0-1.48","1698","2","""event"",""trial"",""time""
""fullscreenenter"",""1"",""1757""
""blur"",""3"",""4032""
""focus"",""3"",""13871""
","""event"",""trial"",""time""
""blur"",""3"",""4032""
","""event"",""trial"",""time""
""focus"",""3"",""13871""
","""event"",""trial"",""time""
""fullscreenenter"",""1"",""1757""
","
","","","","","","1199","images/truck5.png","","","memory_trial","4","definitely_new","","","","","","",""
"html-keyboard-response","141","354496","0.0-15.0-0.49","1698","2","""event"",""trial"",""time""
""fullscreenenter"",""1"",""1757""
""blur"",""3"",""4032""
""focus"",""3"",""13871""
","""event"",""trial"",""time""
""blur"",""3"",""4032""
","""event"",""trial"",""time""
""focus"",""3"",""13871""
","""event"",""trial"",""time""
""fullscreenenter"",""1"",""1757""
","
","","","","","","null","<div style=""font-size:60px;"">+</div>","null","","fixation","","","","","","","","",""
"memory-trial","142","356762","0.0-15.0-1.49","1698","2","""event"",""trial"",""time""
""fullscreenenter"",""1"",""1757""
""blur"",""3"",""4032""
""focus"",""3"",""13871""
","""event"",""trial"",""time""
""blur"",""3"",""4032""
","""event"",""trial"",""time""
""focus"",""3"",""13871""
","""event"",""trial"",""time""
""fullscreenenter"",""1"",""1757""
","
","","","","","","1264","images/cow5.png","","","memory_trial","1","definitely_old","","","","","","",""
"html-keyboard-response","143","357263","0.0-15.0-0.50","1698","2","""event"",""trial"",""time""
""fullscreenenter"",""1"",""1757""
""blur"",""3"",""4032""
""focus"",""3"",""13871""
","""event"",""trial"",""time""
""blur"",""3"",""4032""
","""event"",""trial"",""time""
""focus"",""3"",""13871""
","""event"",""trial"",""time""
""fullscreenenter"",""1"",""1757""
","
","","","","","","null","<div style=""font-size:60px;"">+</div>","null","","fixation","","","","","","","","",""
"memory-trial","144","359188","0.0-15.0-1.50","1698","2","""event"",""trial"",""time""
""fullscreenenter"",""1"",""1757""
""blur"",""3"",""4032""
""focus"",""3"",""13871""
","""event"",""trial"",""time""
""blur"",""3"",""4032""
","""event"",""trial"",""time""
""focus"",""3"",""13871""
","""event"",""trial"",""time""
""fullscreenenter"",""1"",""1757""
","
","","","","","","923","images/tree2.png","","","memory_trial","4","definitely_new","","","","","","",""
"html-keyboard-response","145","359689","0.0-15.0-0.51","1698","2","""event"",""trial"",""time""
""fullscreenenter"",""1"",""1757""
""blur"",""3"",""4032""
""focus"",""3"",""13871""
","""event"",""trial"",""time""
""blur"",""3"",""4032""
","""event"",""trial"",""time""
""focus"",""3"",""13871""
","""event"",""trial"",""time""
""fullscreenenter"",""1"",""1757""
","
","","","","","","null","<div style=""font-size:60px;"">+</div>","null","","fixation","","","","","","","","",""
"memory-trial","146","361685","0.0-15.0-1.51","1698","2","""event"",""trial"",""time""
""fullscreenenter"",""1"",""1757""
""blur"",""3"",""4032""
""focus"",""3"",""13871""
","""event"",""trial"",""time""
""blur"",""3"",""4032""
","""event"",""trial"",""time""
""focus"",""3"",""13871""
","""event"",""trial"",""time""
""fullscreenenter"",""1"",""1757""
","
","","","","","","994.0000000000582","images/plane5.png","","","memory_trial","4","definitely_new","","","","","","",""
"html-keyboard-response","147","362187","0.0-15.0-0.52","1698","2","""event"",""trial"",""time""
""fullscreenenter"",""1"",""1757""
""blur"",""3"",""4032""
""focus"",""3"",""13871""
","""event"",""trial"",""time""
""blur"",""3"",""4032""
","""event"",""trial"",""time""
""focus"",""3"",""13871""
","""event"",""trial"",""time""
""fullscreenenter"",""1"",""1757""
","
","","","","","","null","<div style=""font-size:60px;"">+</div>","null","","fixation","","","","","","","","",""
"memory-trial","148","364215","0.0-15.0-1.52","1698","2","""event"",""trial"",""time""
""fullscreenenter"",""1"",""1757""
""blur"",""3"",""4032""
""focus"",""3"",""13871""
","""event"",""trial"",""time""
""blur"",""3"",""4032""
","""event"",""trial"",""time""
""focus"",""3"",""13871""
","""event"",""trial"",""time""
""fullscreenenter"",""1"",""1757""
","
","","","","","","1025","images/table4.png","","","memory_trial","4","definitely_new","","","","","","",""
"html-keyboard-response","149","364717","0.0-15.0-0.53","1698","2","""event"",""trial"",""time""
""fullscreenenter"",""1"",""1757""
""blur"",""3"",""4032""
""focus"",""3"",""13871""
","""event"",""trial"",""time""
""blur"",""3"",""4032""
","""event"",""trial"",""time""
""focus"",""3"",""13871""
","""event"",""trial"",""time""
""fullscreenenter"",""1"",""1757""
","
","","","","","","null","<div style=""font-size:60px;"">+</div>","null","","fixation","","","","","","","","",""
"memory-trial","150","367201","0.0-15.0-1.53","1698","2","""event"",""trial"",""time""
""fullscreenenter"",""1"",""1757""
""blur"",""3"",""4032""
""focus"",""3"",""13871""
","""event"",""trial"",""time""
""blur"",""3"",""4032""
","""event"",""trial"",""time""
""focus"",""3"",""13871""
","""event"",""trial"",""time""
""fullscreenenter"",""1"",""1757""
","
","","","","","","1483","images/sofa4.png","","","memory_trial","2","maybe_old","","","","","","",""
"html-keyboard-response","151","367702","0.0-15.0-0.54","1698","2","""event"",""trial"",""time""
""fullscreenenter"",""1"",""1757""
""blur"",""3"",""4032""
""focus"",""3"",""13871""
","""event"",""trial"",""time""
""blur"",""3"",""4032""
","""event"",""trial"",""time""
""focus"",""3"",""13871""
","""event"",""trial"",""time""
""fullscreenenter"",""1"",""1757""
","
","","","","","","null","<div style=""font-size:60px;"">+</div>","null","","fixation","","","","","","","","",""
"memory-trial","152","370001","0.0-15.0-1.54","1698","2","""event"",""trial"",""time""
""fullscreenenter"",""1"",""1757""
""blur"",""3"",""4032""
""focus"",""3"",""13871""
","""event"",""trial"",""time""
""blur"",""3"",""4032""
","""event"",""trial"",""time""
""focus"",""3"",""13871""
","""event"",""trial"",""time""
""fullscreenenter"",""1"",""1757""
","
","","","","","","1296.0000000000582","images/cow1.png","","","memory_trial","2","maybe_old","","","","","","",""
"html-keyboard-response","153","370502","0.0-15.0-0.55","1698","2","""event"",""trial"",""time""
""fullscreenenter"",""1"",""1757""
""blur"",""3"",""4032""
""focus"",""3"",""13871""
","""event"",""trial"",""time""
""blur"",""3"",""4032""
","""event"",""trial"",""time""
""focus"",""3"",""13871""
","""event"",""trial"",""time""
""fullscreenenter"",""1"",""1757""
","
","","","","","","null","<div style=""font-size:60px;"">+</div>","null","","fixation","","","","","","","","",""
"memory-trial","154","372552","0.0-15.0-1.55","1698","2","""event"",""trial"",""time""
""fullscreenenter"",""1"",""1757""
""blur"",""3"",""4032""
""focus"",""3"",""13871""
","""event"",""trial"",""time""
""blur"",""3"",""4032""
","""event"",""trial"",""time""
""focus"",""3"",""13871""
","""event"",""trial"",""time""
""fullscreenenter"",""1"",""1757""
","
","","","","","","1048","images/train4.png","","","memory_trial","4","definitely_new","","","","","","",""
"html-keyboard-response","155","373053","0.0-15.0-0.56","1698","2","""event"",""trial"",""time""
""fullscreenenter"",""1"",""1757""
""blur"",""3"",""4032""
""focus"",""3"",""13871""
","""event"",""trial"",""time""
""blur"",""3"",""4032""
","""event"",""trial"",""time""
""focus"",""3"",""13871""
","""event"",""trial"",""time""
""fullscreenenter"",""1"",""1757""
","
","","","","","","null","<div style=""font-size:60px;"">+</div>","null","","fixation","","","","","","","","",""
"memory-trial","156","375397","0.0-15.0-1.56","1698","2","""event"",""trial"",""time""
""fullscreenenter"",""1"",""1757""
""blur"",""3"",""4032""
""focus"",""3"",""13871""
","""event"",""trial"",""time""
""blur"",""3"",""4032""
","""event"",""trial"",""time""
""focus"",""3"",""13871""
","""event"",""trial"",""time""
""fullscreenenter"",""1"",""1757""
","
","","","","","","1342","images/straw1.png","","","memory_trial","2","maybe_old","","","","","","",""
"html-keyboard-response","157","375899","0.0-15.0-0.57","1698","2","""event"",""trial"",""time""
""fullscreenenter"",""1"",""1757""
""blur"",""3"",""4032""
""focus"",""3"",""13871""
","""event"",""trial"",""time""
""blur"",""3"",""4032""
","""event"",""trial"",""time""
""focus"",""3"",""13871""
","""event"",""trial"",""time""
""fullscreenenter"",""1"",""1757""
","
","","","","","","null","<div style=""font-size:60px;"">+</div>","null","","fixation","","","","","","","","",""
"memory-trial","158","378938","0.0-15.0-1.57","1698","2","""event"",""trial"",""time""
""fullscreenenter"",""1"",""1757""
""blur"",""3"",""4032""
""focus"",""3"",""13871""
","""event"",""trial"",""time""
""blur"",""3"",""4032""
","""event"",""trial"",""time""
""focus"",""3"",""13871""
","""event"",""trial"",""time""
""fullscreenenter"",""1"",""1757""
","
","","","","","","2037","images/cactus2.png","","","memory_trial","3","maybe_new","","","","","","",""
"html-keyboard-response","159","379440","0.0-15.0-0.58","1698","2","""event"",""trial"",""time""
""fullscreenenter"",""1"",""1757""
""blur"",""3"",""4032""
""focus"",""3"",""13871""
","""event"",""trial"",""time""
""blur"",""3"",""4032""
","""event"",""trial"",""time""
""focus"",""3"",""13871""
","""event"",""trial"",""time""
""fullscreenenter"",""1"",""1757""
","
","","","","","","null","<div style=""font-size:60px;"">+</div>","null","","fixation","","","","","","","","",""
"memory-trial","160","381962","0.0-15.0-1.58","1698","2","""event"",""trial"",""time""
""fullscreenenter"",""1"",""1757""
""blur"",""3"",""4032""
""focus"",""3"",""13871""
","""event"",""trial"",""time""
""blur"",""3"",""4032""
","""event"",""trial"",""time""
""focus"",""3"",""13871""
","""event"",""trial"",""time""
""fullscreenenter"",""1"",""1757""
","
","","","","","","1521","images/train5.png","","","memory_trial","2","maybe_old","","","","","","",""
"html-keyboard-response","161","382464","0.0-15.0-0.59","1698","2","""event"",""trial"",""time""
""fullscreenenter"",""1"",""1757""
""blur"",""3"",""4032""
""focus"",""3"",""13871""
","""event"",""trial"",""time""
""blur"",""3"",""4032""
","""event"",""trial"",""time""
""focus"",""3"",""13871""
","""event"",""trial"",""time""
""fullscreenenter"",""1"",""1757""
","
","","","","","","null","<div style=""font-size:60px;"">+</div>","null","","fixation","","","","","","","","",""
"memory-trial","162","384825","0.0-15.0-1.59","1698","2","""event"",""trial"",""time""
""fullscreenenter"",""1"",""1757""
""blur"",""3"",""4032""
""focus"",""3"",""13871""
","""event"",""trial"",""time""
""blur"",""3"",""4032""
","""event"",""trial"",""time""
""focus"",""3"",""13871""
","""event"",""trial"",""time""
""fullscreenenter"",""1"",""1757""
","
","","","","","","1359","images/straw4.png","","","memory_trial","3","maybe_new","","","","","","",""
"html-keyboard-response","163","385326","0.0-15.0-0.60","1698","2","""event"",""trial"",""time""
""fullscreenenter"",""1"",""1757""
""blur"",""3"",""4032""
""focus"",""3"",""13871""
","""event"",""trial"",""time""
""blur"",""3"",""4032""
","""event"",""trial"",""time""
""focus"",""3"",""13871""
","""event"",""trial"",""time""
""fullscreenenter"",""1"",""1757""
","
","","","","","","null","<div style=""font-size:60px;"">+</div>","null","","fixation","","","","","","","","",""
"memory-trial","164","387432","0.0-15.0-1.60","1698","2","""event"",""trial"",""time""
""fullscreenenter"",""1"",""1757""
""blur"",""3"",""4032""
""focus"",""3"",""13871""
","""event"",""trial"",""time""
""blur"",""3"",""4032""
","""event"",""trial"",""time""
""focus"",""3"",""13871""
","""event"",""trial"",""time""
""fullscreenenter"",""1"",""1757""
","
","","","","","","1103","images/banana2.png","","","memory_trial","2","maybe_old","","","","","","",""
"html-keyboard-response","165","387933","0.0-15.0-0.61","1698","2","""event"",""trial"",""time""
""fullscreenenter"",""1"",""1757""
""blur"",""3"",""4032""
""focus"",""3"",""13871""
","""event"",""trial"",""time""
""blur"",""3"",""4032""
","""event"",""trial"",""time""
""focus"",""3"",""13871""
","""event"",""trial"",""time""
""fullscreenenter"",""1"",""1757""
","
","","","","","","null","<div style=""font-size:60px;"">+</div>","null","","fixation","","","","","","","","",""
"memory-trial","166","389979","0.0-15.0-1.61","1698","2","""event"",""trial"",""time""
""fullscreenenter"",""1"",""1757""
""blur"",""3"",""4032""
""focus"",""3"",""13871""
","""event"",""trial"",""time""
""blur"",""3"",""4032""
","""event"",""trial"",""time""
""focus"",""3"",""13871""
","""event"",""trial"",""time""
""fullscreenenter"",""1"",""1757""
","
","","","","","","1044","images/straw3.png","","","memory_trial","2","maybe_old","","","","","","",""
"html-keyboard-response","167","390481","0.0-15.0-0.62","1698","2","""event"",""trial"",""time""
""fullscreenenter"",""1"",""1757""
""blur"",""3"",""4032""
""focus"",""3"",""13871""
","""event"",""trial"",""time""
""blur"",""3"",""4032""
","""event"",""trial"",""time""
""focus"",""3"",""13871""
","""event"",""trial"",""time""
""fullscreenenter"",""1"",""1757""
","
","","","","","","null","<div style=""font-size:60px;"">+</div>","null","","fixation","","","","","","","","",""
"memory-trial","168","392646","0.0-15.0-1.62","1698","2","""event"",""trial"",""time""
""fullscreenenter"",""1"",""1757""
""blur"",""3"",""4032""
""focus"",""3"",""13871""
","""event"",""trial"",""time""
""blur"",""3"",""4032""
","""event"",""trial"",""time""
""focus"",""3"",""13871""
","""event"",""trial"",""time""
""fullscreenenter"",""1"",""1757""
","
","","","","","","1163","images/flower4.png","","","memory_trial","2","maybe_old","","","","","","",""
"html-keyboard-response","169","393148","0.0-15.0-0.63","1698","2","""event"",""trial"",""time""
""fullscreenenter"",""1"",""1757""
""blur"",""3"",""4032""
""focus"",""3"",""13871""
","""event"",""trial"",""time""
""blur"",""3"",""4032""
","""event"",""trial"",""time""
""focus"",""3"",""13871""
","""event"",""trial"",""time""
""fullscreenenter"",""1"",""1757""
","
","","","","","","null","<div style=""font-size:60px;"">+</div>","null","","fixation","","","","","","","","",""
"memory-trial","170","396836","0.0-15.0-1.63","1698","2","""event"",""trial"",""time""
""fullscreenenter"",""1"",""1757""
""blur"",""3"",""4032""
""focus"",""3"",""13871""
","""event"",""trial"",""time""
""blur"",""3"",""4032""
","""event"",""trial"",""time""
""focus"",""3"",""13871""
","""event"",""trial"",""time""
""fullscreenenter"",""1"",""1757""
","
","","","","","","2686.999999999942","images/bed4.png","","","memory_trial","1","definitely_old","","","","","","",""
"html-keyboard-response","171","397337","0.0-15.0-0.64","1698","2","""event"",""trial"",""time""
""fullscreenenter"",""1"",""1757""
""blur"",""3"",""4032""
""focus"",""3"",""13871""
","""event"",""trial"",""time""
""blur"",""3"",""4032""
","""event"",""trial"",""time""
""focus"",""3"",""13871""
","""event"",""trial"",""time""
""fullscreenenter"",""1"",""1757""
","
","","","","","","null","<div style=""font-size:60px;"">+</div>","null","","fixation","","","","","","","","",""
"memory-trial","172","399912","0.0-15.0-1.64","1698","2","""event"",""trial"",""time""
""fullscreenenter"",""1"",""1757""
""blur"",""3"",""4032""
""focus"",""3"",""13871""
","""event"",""trial"",""time""
""blur"",""3"",""4032""
","""event"",""trial"",""time""
""focus"",""3"",""13871""
","""event"",""trial"",""time""
""fullscreenenter"",""1"",""1757""
","
","","","","","","1573.0000000000582","images/sofa3.png","","","memory_trial","4","definitely_new","","","","","","",""
"html-keyboard-response","173","400413","0.0-15.0-0.65","1698","2","""event"",""trial"",""time""
""fullscreenenter"",""1"",""1757""
""blur"",""3"",""4032""
""focus"",""3"",""13871""
","""event"",""trial"",""time""
""blur"",""3"",""4032""
","""event"",""trial"",""time""
""focus"",""3"",""13871""
","""event"",""trial"",""time""
""fullscreenenter"",""1"",""1757""
","
","","","","","","null","<div style=""font-size:60px;"">+</div>","null","","fixation","","","","","","","","",""
"memory-trial","174","402966","0.0-15.0-1.65","1698","2","""event"",""trial"",""time""
""fullscreenenter"",""1"",""1757""
""blur"",""3"",""4032""
""focus"",""3"",""13871""
","""event"",""trial"",""time""
""blur"",""3"",""4032""
","""event"",""trial"",""time""
""focus"",""3"",""13871""
","""event"",""trial"",""time""
""fullscreenenter"",""1"",""1757""
","
","","","","","","1551","images/goat1.png","","","memory_trial","3","maybe_new","","","","","","",""
"html-keyboard-response","175","403469","0.0-15.0-0.66","1698","2","""event"",""trial"",""time""
""fullscreenenter"",""1"",""1757""
""blur"",""3"",""4032""
""focus"",""3"",""13871""
","""event"",""trial"",""time""
""blur"",""3"",""4032""
","""event"",""trial"",""time""
""focus"",""3"",""13871""
","""event"",""trial"",""time""
""fullscreenenter"",""1"",""1757""
","
","","","","","","null","<div style=""font-size:60px;"">+</div>","null","","fixation","","","","","","","","",""
"memory-trial","176","406025","0.0-15.0-1.66","1698","2","""event"",""trial"",""time""
""fullscreenenter"",""1"",""1757""
""blur"",""3"",""4032""
""focus"",""3"",""13871""
","""event"",""trial"",""time""
""blur"",""3"",""4032""
","""event"",""trial"",""time""
""focus"",""3"",""13871""
","""event"",""trial"",""time""
""fullscreenenter"",""1"",""1757""
","
","","","","","","1551.9999999999418","images/bush3.png","","","memory_trial","4","definitely_new","","","","","","",""
"html-keyboard-response","177","406527","0.0-15.0-0.67","1698","2","""event"",""trial"",""time""
""fullscreenenter"",""1"",""1757""
""blur"",""3"",""4032""
""focus"",""3"",""13871""
","""event"",""trial"",""time""
""blur"",""3"",""4032""
","""event"",""trial"",""time""
""focus"",""3"",""13871""
","""event"",""trial"",""time""
""fullscreenenter"",""1"",""1757""
","
","","","","","","null","<div style=""font-size:60px;"">+</div>","null","","fixation","","","","","","","","",""
"memory-trial","178","410642","0.0-15.0-1.67","1698","2","""event"",""trial"",""time""
""fullscreenenter"",""1"",""1757""
""blur"",""3"",""4032""
""focus"",""3"",""13871""
","""event"",""trial"",""time""
""blur"",""3"",""4032""
","""event"",""trial"",""time""
""focus"",""3"",""13871""
","""event"",""trial"",""time""
""fullscreenenter"",""1"",""1757""
","
","","","","","","3114","images/flower2.png","","","memory_trial","3","maybe_new","","","","","","",""
"html-keyboard-response","179","411144","0.0-15.0-0.68","1698","2","""event"",""trial"",""time""
""fullscreenenter"",""1"",""1757""
""blur"",""3"",""4032""
""focus"",""3"",""13871""
","""event"",""trial"",""time""
""blur"",""3"",""4032""
","""event"",""trial"",""time""
""focus"",""3"",""13871""
","""event"",""trial"",""time""
""fullscreenenter"",""1"",""1757""
","
","","","","","","null","<div style=""font-size:60px;"">+</div>","null","","fixation","","","","","","","","",""
"memory-trial","180","413517","0.0-15.0-1.68","1698","2","""event"",""trial"",""time""
""fullscreenenter"",""1"",""1757""
""blur"",""3"",""4032""
""focus"",""3"",""13871""
","""event"",""trial"",""time""
""blur"",""3"",""4032""
","""event"",""trial"",""time""
""focus"",""3"",""13871""
","""event"",""trial"",""time""
""fullscreenenter"",""1"",""1757""
","
","","","","","","1372","images/apple4.png","","","memory_trial","4","definitely_new","","","","","","",""
"html-keyboard-response","181","414018","0.0-15.0-0.69","1698","2","""event"",""trial"",""time""
""fullscreenenter"",""1"",""1757""
""blur"",""3"",""4032""
""focus"",""3"",""13871""
","""event"",""trial"",""time""
""blur"",""3"",""4032""
","""event"",""trial"",""time""
""focus"",""3"",""13871""
","""event"",""trial"",""time""
""fullscreenenter"",""1"",""1757""
","
","","","","","","null","<div style=""font-size:60px;"">+</div>","null","","fixation","","","","","","","","",""
"memory-trial","182","416693","0.0-15.0-1.69","1698","2","""event"",""trial"",""time""
""fullscreenenter"",""1"",""1757""
""blur"",""3"",""4032""
""focus"",""3"",""13871""
","""event"",""trial"",""time""
""blur"",""3"",""4032""
","""event"",""trial"",""time""
""focus"",""3"",""13871""
","""event"",""trial"",""time""
""fullscreenenter"",""1"",""1757""
","
","","","","","","1672.9999999999418","images/goat4.png","","","memory_trial","2","maybe_old","","","","","","",""
"html-keyboard-response","183","417194","0.0-15.0-0.70","1698","2","""event"",""trial"",""time""
""fullscreenenter"",""1"",""1757""
""blur"",""3"",""4032""
""focus"",""3"",""13871""
","""event"",""trial"",""time""
""blur"",""3"",""4032""
","""event"",""trial"",""time""
""focus"",""3"",""13871""
","""event"",""trial"",""time""
""fullscreenenter"",""1"",""1757""
","
","","","","","","null","<div style=""font-size:60px;"">+</div>","null","","fixation","","","","","","","","",""
"memory-trial","184","419271","0.0-15.0-1.70","1698","2","""event"",""trial"",""time""
""fullscreenenter"",""1"",""1757""
""blur"",""3"",""4032""
""focus"",""3"",""13871""
","""event"",""trial"",""time""
""blur"",""3"",""4032""
","""event"",""trial"",""time""
""focus"",""3"",""13871""
","""event"",""trial"",""time""
""fullscreenenter"",""1"",""1757""
","
","","","","","","1074.0000000000582","images/orange4.png","","","memory_trial","2","maybe_old","","","","","","",""
"html-keyboard-response","185","419772","0.0-15.0-0.71","1698","2","""event"",""trial"",""time""
""fullscreenenter"",""1"",""1757""
""blur"",""3"",""4032""
""focus"",""3"",""13871""
","""event"",""trial"",""time""
""blur"",""3"",""4032""
","""event"",""trial"",""time""
""focus"",""3"",""13871""
","""event"",""trial"",""time""
""fullscreenenter"",""1"",""1757""
","
","","","","","","null","<div style=""font-size:60px;"">+</div>","null","","fixation","","","","","","","","",""
"memory-trial","186","421798","0.0-15.0-1.71","1698","2","""event"",""trial"",""time""
""fullscreenenter"",""1"",""1757""
""blur"",""3"",""4032""
""focus"",""3"",""13871""
","""event"",""trial"",""time""
""blur"",""3"",""4032""
","""event"",""trial"",""time""
""focus"",""3"",""13871""
","""event"",""trial"",""time""
""fullscreenenter"",""1"",""1757""
","
","","","","","","1024","images/rodent3.png","","","memory_trial","1","definitely_old","","","","","","",""
"html-keyboard-response","187","422299","0.0-15.0-0.72","1698","2","""event"",""trial"",""time""
""fullscreenenter"",""1"",""1757""
""blur"",""3"",""4032""
""focus"",""3"",""13871""
","""event"",""trial"",""time""
""blur"",""3"",""4032""
","""event"",""trial"",""time""
""focus"",""3"",""13871""
","""event"",""trial"",""time""
""fullscreenenter"",""1"",""1757""
","
","","","","","","null","<div style=""font-size:60px;"">+</div>","null","","fixation","","","","","","","","",""
"memory-trial","188","425355","0.0-15.0-1.72","1698","2","""event"",""trial"",""time""
""fullscreenenter"",""1"",""1757""
""blur"",""3"",""4032""
""focus"",""3"",""13871""
","""event"",""trial"",""time""
""blur"",""3"",""4032""
","""event"",""trial"",""time""
""focus"",""3"",""13871""
","""event"",""trial"",""time""
""fullscreenenter"",""1"",""1757""
","
","","","","","","2055","images/sheep5.png","","","memory_trial","4","definitely_new","","","","","","",""
"html-keyboard-response","189","425857","0.0-15.0-0.73","1698","2","""event"",""trial"",""time""
""fullscreenenter"",""1"",""1757""
""blur"",""3"",""4032""
""focus"",""3"",""13871""
","""event"",""trial"",""time""
""blur"",""3"",""4032""
","""event"",""trial"",""time""
""focus"",""3"",""13871""
","""event"",""trial"",""time""
""fullscreenenter"",""1"",""1757""
","
","","","","","","null","<div style=""font-size:60px;"">+</div>","null","","fixation","","","","","","","","",""
"memory-trial","190","430670","0.0-15.0-1.73","1698","2","""event"",""trial"",""time""
""fullscreenenter"",""1"",""1757""
""blur"",""3"",""4032""
""focus"",""3"",""13871""
","""event"",""trial"",""time""
""blur"",""3"",""4032""
","""event"",""trial"",""time""
""focus"",""3"",""13871""
","""event"",""trial"",""time""
""fullscreenenter"",""1"",""1757""
","
","","","","","","3810.999999999942","images/orange2.png","","","memory_trial","2","maybe_old","","","","","","",""
"html-keyboard-response","191","431171","0.0-15.0-0.74","1698","2","""event"",""trial"",""time""
""fullscreenenter"",""1"",""1757""
""blur"",""3"",""4032""
""focus"",""3"",""13871""
","""event"",""trial"",""time""
""blur"",""3"",""4032""
","""event"",""trial"",""time""
""focus"",""3"",""13871""
","""event"",""trial"",""time""
""fullscreenenter"",""1"",""1757""
","
","","","","","","null","<div style=""font-size:60px;"">+</div>","null","","fixation","","","","","","","","",""
"memory-trial","192","433170","0.0-15.0-1.74","1698","2","""event"",""trial"",""time""
""fullscreenenter"",""1"",""1757""
""blur"",""3"",""4032""
""focus"",""3"",""13871""
","""event"",""trial"",""time""
""blur"",""3"",""4032""
","""event"",""trial"",""time""
""focus"",""3"",""13871""
","""event"",""trial"",""time""
""fullscreenenter"",""1"",""1757""
","
","","","","","","997","images/truck1.png","","","memory_trial","4","definitely_new","","","","","","",""
"html-keyboard-response","193","433671","0.0-15.0-0.75","1698","2","""event"",""trial"",""time""
""fullscreenenter"",""1"",""1757""
""blur"",""3"",""4032""
""focus"",""3"",""13871""
","""event"",""trial"",""time""
""blur"",""3"",""4032""
","""event"",""trial"",""time""
""focus"",""3"",""13871""
","""event"",""trial"",""time""
""fullscreenenter"",""1"",""1757""
","
","","","","","","null","<div style=""font-size:60px;"">+</div>","null","","fixation","","","","","","","","",""
"memory-trial","194","437749","0.0-15.0-1.75","1698","2","""event"",""trial"",""time""
""fullscreenenter"",""1"",""1757""
""blur"",""3"",""4032""
""focus"",""3"",""13871""
","""event"",""trial"",""time""
""blur"",""3"",""4032""
","""event"",""trial"",""time""
""focus"",""3"",""13871""
","""event"",""trial"",""time""
""fullscreenenter"",""1"",""1757""
","
","","","","","","3076","images/tree1.png","","","memory_trial","2","maybe_old","","","","","","",""
"html-keyboard-response","195","438251","0.0-15.0-0.76","1698","2","""event"",""trial"",""time""
""fullscreenenter"",""1"",""1757""
""blur"",""3"",""4032""
""focus"",""3"",""13871""
","""event"",""trial"",""time""
""blur"",""3"",""4032""
","""event"",""trial"",""time""
""focus"",""3"",""13871""
","""event"",""trial"",""time""
""fullscreenenter"",""1"",""1757""
","
","","","","","","null","<div style=""font-size:60px;"">+</div>","null","","fixation","","","","","","","","",""
"memory-trial","196","440320","0.0-15.0-1.76","1698","2","""event"",""trial"",""time""
""fullscreenenter"",""1"",""1757""
""blur"",""3"",""4032""
""focus"",""3"",""13871""
","""event"",""trial"",""time""
""blur"",""3"",""4032""
","""event"",""trial"",""time""
""focus"",""3"",""13871""
","""event"",""trial"",""time""
""fullscreenenter"",""1"",""1757""
","
","","","","","","1067","images/table3.png","","","memory_trial","4","definitely_new","","","","","","",""
"html-keyboard-response","197","440821","0.0-15.0-0.77","1698","2","""event"",""trial"",""time""
""fullscreenenter"",""1"",""1757""
""blur"",""3"",""4032""
""focus"",""3"",""13871""
","""event"",""trial"",""time""
""blur"",""3"",""4032""
","""event"",""trial"",""time""
""focus"",""3"",""13871""
","""event"",""trial"",""time""
""fullscreenenter"",""1"",""1757""
","
","","","","","","null","<div style=""font-size:60px;"">+</div>","null","","fixation","","","","","","","","",""
"memory-trial","198","443518","0.0-15.0-1.77","1698","2","""event"",""trial"",""time""
""fullscreenenter"",""1"",""1757""
""blur"",""3"",""4032""
""focus"",""3"",""13871""
","""event"",""trial"",""time""
""blur"",""3"",""4032""
","""event"",""trial"",""time""
""focus"",""3"",""13871""
","""event"",""trial"",""time""
""fullscreenenter"",""1"",""1757""
","
","","","","","","1695","images/goat5.png","","","memory_trial","2","maybe_old","","","","","","",""
"html-keyboard-response","199","444019","0.0-15.0-0.78","1698","2","""event"",""trial"",""time""
""fullscreenenter"",""1"",""1757""
""blur"",""3"",""4032""
""focus"",""3"",""13871""
","""event"",""trial"",""time""
""blur"",""3"",""4032""
","""event"",""trial"",""time""
""focus"",""3"",""13871""
","""event"",""trial"",""time""
""fullscreenenter"",""1"",""1757""
","
","","","","","","null","<div style=""font-size:60px;"">+</div>","null","","fixation","","","","","","","","",""
"memory-trial","200","446301","0.0-15.0-1.78","1698","2","""event"",""trial"",""time""
""fullscreenenter"",""1"",""1757""
""blur"",""3"",""4032""
""focus"",""3"",""13871""
","""event"",""trial"",""time""
""blur"",""3"",""4032""
","""event"",""trial"",""time""
""focus"",""3"",""13871""
","""event"",""trial"",""time""
""fullscreenenter"",""1"",""1757""
","
","","","","","","1280.9999999999418","images/goat2.png","","","memory_trial","4","definitely_new","","","","","","",""
"html-keyboard-response","201","446802","0.0-15.0-0.79","1698","2","""event"",""trial"",""time""
""fullscreenenter"",""1"",""1757""
""blur"",""3"",""4032""
""focus"",""3"",""13871""
","""event"",""trial"",""time""
""blur"",""3"",""4032""
","""event"",""trial"",""time""
""focus"",""3"",""13871""
","""event"",""trial"",""time""
""fullscreenenter"",""1"",""1757""
","
","","","","","","null","<div style=""font-size:60px;"">+</div>","null","","fixation","","","","","","","","",""
