"trial_type","trial_index","time_elapsed","internal_node_id","subject_id","task_version","interactions","blur_events","focus_events","fullscreenenter_events","fullscreenexit_events","success","timeout","failed_images","failed_audio","failed_video","rt","stimulus","response","button_pressed","task_part","key_press","answer","correct","left_choice","middle_choice","right_choice","choice_positions","option_selected","block"
"pavlovia","0","9","0.0-0.0","1695","2","""event"",""trial"",""time""
""blur"",""1"",""3152""
""focus"",""1"",""3652""
""fullscreenenter"",""1"",""3695""
","""event"",""trial"",""time""
""blur"",""1"",""3152""
","""event"",""trial"",""time""
""focus"",""1"",""3652""
","""event"",""trial"",""time""
""fullscreenenter"",""1"",""3695""
","
","","","","","","","","","","","","","","","","","","",""
"fullscreen","1","4678","0.0-1.0","1695","2","""event"",""trial"",""time""
""blur"",""1"",""3152""
""focus"",""1"",""3652""
""fullscreenenter"",""1"",""3695""
","""event"",""trial"",""time""
""blur"",""1"",""3152""
","""event"",""trial"",""time""
""focus"",""1"",""3652""
","""event"",""trial"",""time""
""fullscreenenter"",""1"",""3695""
","
","true","","","","","","","","","","","","","","","","","",""
"preload","2","4732","0.0-2.0","1695","2","""event"",""trial"",""time""
""blur"",""1"",""3152""
""focus"",""1"",""3652""
""fullscreenenter"",""1"",""3695""
""blur"",""3"",""9890""
""focus"",""3"",""10306""
","""event"",""trial"",""time""
""blur"",""1"",""3152""
""blur"",""3"",""9890""
","""event"",""trial"",""time""
""focus"",""1"",""3652""
""focus"",""3"",""10306""
","""event"",""trial"",""time""
""fullscreenenter"",""1"",""3695""
","
","true","false","[]","[]","[]","","","","","","","","","","","","","",""
"audio-keyboard-response","3","10573","0.0-3.0","1695","2","""event"",""trial"",""time""
""blur"",""1"",""3152""
""focus"",""1"",""3652""
""fullscreenenter"",""1"",""3695""
""blur"",""3"",""9890""
""focus"",""3"",""10306""
","""event"",""trial"",""time""
""blur"",""1"",""3152""
""blur"",""3"",""9890""
","""event"",""trial"",""time""
""focus"",""1"",""3652""
""focus"",""3"",""10306""
","""event"",""trial"",""time""
""fullscreenenter"",""1"",""3695""
","
","","","","","","4690.666666666667","audio/beep_loop.wav"," ","","","","","","","","","","",""
"audio-button-response","4","11848","0.0-4.0","1695","2","""event"",""trial"",""time""
""blur"",""1"",""3152""
""focus"",""1"",""3652""
""fullscreenenter"",""1"",""3695""
""blur"",""3"",""9890""
""focus"",""3"",""10306""
","""event"",""trial"",""time""
""blur"",""1"",""3152""
""blur"",""3"",""9890""
","""event"",""trial"",""time""
""focus"",""1"",""3652""
""focus"",""3"",""10306""
","""event"",""trial"",""time""
""fullscreenenter"",""1"",""3695""
","
","","","","","","1269","audio/turtle.wav","3","","","","","","","","","","",""
"audio-button-response","5","17055","0.0-5.0","1695","2","""event"",""trial"",""time""
""blur"",""1"",""3152""
""focus"",""1"",""3652""
""fullscreenenter"",""1"",""3695""
""blur"",""3"",""9890""
""focus"",""3"",""10306""
","""event"",""trial"",""time""
""blur"",""1"",""3152""
""blur"",""3"",""9890""
","""event"",""trial"",""time""
""focus"",""1"",""3652""
""focus"",""3"",""10306""
","""event"",""trial"",""time""
""fullscreenenter"",""1"",""3695""
","
","","","","","","4189","audio/shark.wav","2","","","","","","","","","","",""
"preload","6","18482","0.0-6.0","1695","2","""event"",""trial"",""time""
""blur"",""1"",""3152""
""focus"",""1"",""3652""
""fullscreenenter"",""1"",""3695""
""blur"",""3"",""9890""
""focus"",""3"",""10306""
","""event"",""trial"",""time""
""blur"",""1"",""3152""
""blur"",""3"",""9890""
","""event"",""trial"",""time""
""focus"",""1"",""3652""
""focus"",""3"",""10306""
","""event"",""trial"",""time""
""fullscreenenter"",""1"",""3695""
","
","true","false","[]","[]","[]","","","","","","","","","","","","","",""
"learning-instructions","7","25569","0.0-7.0-0.0","1695","2","""event"",""trial"",""time""
""blur"",""1"",""3152""
""focus"",""1"",""3652""
""fullscreenenter"",""1"",""3695""
""blur"",""3"",""9890""
""focus"",""3"",""10306""
","""event"",""trial"",""time""
""blur"",""1"",""3152""
""blur"",""3"",""9890""
","""event"",""trial"",""time""
""focus"",""1"",""3652""
""focus"",""3"",""10306""
","""event"",""trial"",""time""
""fullscreenenter"",""1"",""3695""
","
","","","","","","2277.7999999970198","<p> Welcome back! </p><p> Last week, you had to make choices about lots of different items.  </p>","","0","instructions","","","","","","","","",""
"learning-instructions","8","38134","0.0-7.0-0.1","1695","2","""event"",""trial"",""time""
""blur"",""1"",""3152""
""focus"",""1"",""3652""
""fullscreenenter"",""1"",""3695""
""blur"",""3"",""9890""
""focus"",""3"",""10306""
","""event"",""trial"",""time""
""blur"",""1"",""3152""
""blur"",""3"",""9890""
","""event"",""trial"",""time""
""focus"",""1"",""3652""
""focus"",""3"",""10306""
","""event"",""trial"",""time""
""fullscreenenter"",""1"",""3695""
","
","","","","","","8243.89999999106","<p> Today, we are going to ask you to try to remember all the items. </p>","","0","instructions","","","","","","","","",""
"learning-instructions","9","50329","0.0-7.0-0.2","1695","2","""event"",""trial"",""time""
""blur"",""1"",""3152""
""focus"",""1"",""3652""
""fullscreenenter"",""1"",""3695""
""blur"",""3"",""9890""
""focus"",""3"",""10306""
","""event"",""trial"",""time""
""blur"",""1"",""3152""
""blur"",""3"",""9890""
","""event"",""trial"",""time""
""focus"",""1"",""3652""
""focus"",""3"",""10306""
","""event"",""trial"",""time""
""fullscreenenter"",""1"",""3695""
","
","","","","","","2048.3999999910593","<p> On every trial, you will see an image. </p><p> The image may be an OLD image you saw during the games last week or it may be a NEW image that was not presented. </p>","","0","instructions","","","","","","","","",""
"learning-instructions","10","80193","0.0-7.0-0.3","1695","2","""event"",""trial"",""time""
""blur"",""1"",""3152""
""focus"",""1"",""3652""
""fullscreenenter"",""1"",""3695""
""blur"",""3"",""9890""
""focus"",""3"",""10306""
","""event"",""trial"",""time""
""blur"",""1"",""3152""
""blur"",""3"",""9890""
","""event"",""trial"",""time""
""focus"",""1"",""3652""
""focus"",""3"",""10306""
","""event"",""trial"",""time""
""fullscreenenter"",""1"",""3695""
","
","","","","","","21371.40000000596","<p> You need to select whether the image is:  </p><p>  'Definitely old', 'Maybe old', 'Maybe new', or 'Definitely new.'  </p><div class=""mem-choice-instructions-grid""><div class=""choice-option"" id=""choice-option-1"" ><img src=""images/definitely_old_1.png"" id=""choice-option-img-1"" class=""choice-option-img"" stage=""1""></div><div class=""choice-option"" id=""choice-option-2"" ><img src=""images/maybe_old_1.png"" id=""choice-option-img-2"" class=""choice-option-img"" stage=""1""></div><div class=""choice-option"" id=""choice-option-3"" ><img src=""images/maybe_new_1.png"" id=""choice-option-img-3"" class=""choice-option-img"" stage=""1""></div><div class=""choice-option"" id=""choice-option-4"" > <img src=""images/definitely_new_1.png"" id=""choice-option-img-4"" class=""choice-option-img"" stage=""1""></div></div>","","0","instructions","","","","","","","","",""
"learning-instructions","11","104214","0.0-7.0-0.4","1695","2","""event"",""trial"",""time""
""blur"",""1"",""3152""
""focus"",""1"",""3652""
""fullscreenenter"",""1"",""3695""
""blur"",""3"",""9890""
""focus"",""3"",""10306""
","""event"",""trial"",""time""
""blur"",""1"",""3152""
""blur"",""3"",""9890""
","""event"",""trial"",""time""
""focus"",""1"",""3652""
""focus"",""3"",""10306""
","""event"",""trial"",""time""
""fullscreenenter"",""1"",""3695""
","
","","","","","","17333","<p> You should use the 1, 2, 3, and 4 keys to make your responses.  </p><div class=""mem-choice-instructions-grid""><div class=""choice-option"" id=""choice-option-1"" ><img src=""images/definitely_old.png"" id=""choice-option-img-1"" class=""choice-option-img"" stage=""1""></div><div class=""choice-option"" id=""choice-option-2"" ><img src=""images/maybe_old.png"" id=""choice-option-img-2"" class=""choice-option-img"" stage=""1""></div><div class=""choice-option"" id=""choice-option-3"" ><img src=""images/maybe_new.png"" id=""choice-option-img-3"" class=""choice-option-img"" stage=""1""></div><div class=""choice-option"" id=""choice-option-4"" > <img src=""images/definitely_new.png"" id=""choice-option-img-4"" class=""choice-option-img"" stage=""1""></div></div>","","0","instructions","","","","","","","","",""
"learning-instructions","12","131165","0.0-7.0-0.5","1695","2","""event"",""trial"",""time""
""blur"",""1"",""3152""
""focus"",""1"",""3652""
""fullscreenenter"",""1"",""3695""
""blur"",""3"",""9890""
""focus"",""3"",""10306""
","""event"",""trial"",""time""
""blur"",""1"",""3152""
""blur"",""3"",""9890""
","""event"",""trial"",""time""
""focus"",""1"",""3652""
""focus"",""3"",""10306""
","""event"",""trial"",""time""
""fullscreenenter"",""1"",""3695""
","
","","","","","","20183.40000000596","<p> You will have 10 seconds to make each response.  </p><p>  Make sure to respond before time runs out! </p>","","0","instructions","","","","","","","","",""
"learning-instructions","13","153540","0.0-7.0-0.6","1695","2","""event"",""trial"",""time""
""blur"",""1"",""3152""
""focus"",""1"",""3652""
""fullscreenenter"",""1"",""3695""
""blur"",""3"",""9890""
""focus"",""3"",""10306""
","""event"",""trial"",""time""
""blur"",""1"",""3152""
""blur"",""3"",""9890""
","""event"",""trial"",""time""
""focus"",""1"",""3652""
""focus"",""3"",""10306""
","""event"",""trial"",""time""
""fullscreenenter"",""1"",""3695""
","
","","","","","","14789.90000000596","<p> Today, you will see each image ONCE only.  </p><p>  That means none of the images will repeat. </p>","","0","instructions","","","","","","","","",""
"learning-instructions","14","173539","0.0-7.0-0.7","1695","2","""event"",""trial"",""time""
""blur"",""1"",""3152""
""focus"",""1"",""3652""
""fullscreenenter"",""1"",""3695""
""blur"",""3"",""9890""
""focus"",""3"",""10306""
","""event"",""trial"",""time""
""blur"",""1"",""3152""
""blur"",""3"",""9890""
","""event"",""trial"",""time""
""focus"",""1"",""3652""
""focus"",""3"",""10306""
","""event"",""trial"",""time""
""fullscreenenter"",""1"",""3695""
","
","","","","","","7318.9000000059605","<p> Before you play the real game, it is time to practice. </p><p>  Just like in the real game, some of the images in the practice will be ones you have seen before. </p><p>  Others will be entirely new. </p>","","0","instructions","","","","","","","","",""
"html-button-response","15","204302","0.0-8.0","1695","2","""event"",""trial"",""time""
""blur"",""1"",""3152""
""focus"",""1"",""3652""
""fullscreenenter"",""1"",""3695""
""blur"",""3"",""9890""
""focus"",""3"",""10306""
","""event"",""trial"",""time""
""blur"",""1"",""3152""
""blur"",""3"",""9890""
","""event"",""trial"",""time""
""focus"",""1"",""3652""
""focus"",""3"",""10306""
","""event"",""trial"",""time""
""fullscreenenter"",""1"",""3695""
","
","","","","","","30652.10000000894","<p> Ready to practice? </p><p> Remember, use the 1, 2, 3, and 4 keys to make your responses. </p>","0","","instructions","","","","","","","","",""
"html-keyboard-response","16","204907","0.0-9.0-0.0","1695","2","""event"",""trial"",""time""
""blur"",""1"",""3152""
""focus"",""1"",""3652""
""fullscreenenter"",""1"",""3695""
""blur"",""3"",""9890""
""focus"",""3"",""10306""
","""event"",""trial"",""time""
""blur"",""1"",""3152""
""blur"",""3"",""9890""
","""event"",""trial"",""time""
""focus"",""1"",""3652""
""focus"",""3"",""10306""
","""event"",""trial"",""time""
""fullscreenenter"",""1"",""3695""
","
","","","","","","null","<div style=""font-size:60px;"">+</div>","null","","fixation","","","","","","","","",""
"memory-trial","17","208565","0.0-9.0-1.0","1695","2","""event"",""trial"",""time""
""blur"",""1"",""3152""
""focus"",""1"",""3652""
""fullscreenenter"",""1"",""3695""
""blur"",""3"",""9890""
""focus"",""3"",""10306""
","""event"",""trial"",""time""
""blur"",""1"",""3152""
""blur"",""3"",""9890""
","""event"",""trial"",""time""
""focus"",""1"",""3652""
""focus"",""3"",""10306""
","""event"",""trial"",""time""
""fullscreenenter"",""1"",""3695""
","
","","","","","","2650.6000000089407","images/ball1.png","","","practice","3","maybe_new","","","","","","",""
"html-keyboard-response","18","209068","0.0-9.0-0.1","1695","2","""event"",""trial"",""time""
""blur"",""1"",""3152""
""focus"",""1"",""3652""
""fullscreenenter"",""1"",""3695""
""blur"",""3"",""9890""
""focus"",""3"",""10306""
","""event"",""trial"",""time""
""blur"",""1"",""3152""
""blur"",""3"",""9890""
","""event"",""trial"",""time""
""focus"",""1"",""3652""
""focus"",""3"",""10306""
","""event"",""trial"",""time""
""fullscreenenter"",""1"",""3695""
","
","","","","","","null","<div style=""font-size:60px;"">+</div>","null","","fixation","","","","","","","","",""
"memory-trial","19","212563","0.0-9.0-1.1","1695","2","""event"",""trial"",""time""
""blur"",""1"",""3152""
""focus"",""1"",""3652""
""fullscreenenter"",""1"",""3695""
""blur"",""3"",""9890""
""focus"",""3"",""10306""
","""event"",""trial"",""time""
""blur"",""1"",""3152""
""blur"",""3"",""9890""
","""event"",""trial"",""time""
""focus"",""1"",""3652""
""focus"",""3"",""10306""
","""event"",""trial"",""time""
""fullscreenenter"",""1"",""3695""
","
","","","","","","2489.5","images/racket3.png","","","practice","2","maybe_old","","","","","","",""
"html-keyboard-response","20","213064","0.0-9.0-0.2","1695","2","""event"",""trial"",""time""
""blur"",""1"",""3152""
""focus"",""1"",""3652""
""fullscreenenter"",""1"",""3695""
""blur"",""3"",""9890""
""focus"",""3"",""10306""
","""event"",""trial"",""time""
""blur"",""1"",""3152""
""blur"",""3"",""9890""
","""event"",""trial"",""time""
""focus"",""1"",""3652""
""focus"",""3"",""10306""
","""event"",""trial"",""time""
""fullscreenenter"",""1"",""3695""
","
","","","","","","null","<div style=""font-size:60px;"">+</div>","null","","fixation","","","","","","","","",""
"memory-trial","21","217409","0.0-9.0-1.2","1695","2","""event"",""trial"",""time""
""blur"",""1"",""3152""
""focus"",""1"",""3652""
""fullscreenenter"",""1"",""3695""
""blur"",""3"",""9890""
""focus"",""3"",""10306""
","""event"",""trial"",""time""
""blur"",""1"",""3152""
""blur"",""3"",""9890""
","""event"",""trial"",""time""
""focus"",""1"",""3652""
""focus"",""3"",""10306""
","""event"",""trial"",""time""
""fullscreenenter"",""1"",""3695""
","
","","","","","","3339.1000000089407","images/racket2.png","","","practice","2","maybe_old","","","","","","",""
"html-keyboard-response","22","217912","0.0-9.0-0.3","1695","2","""event"",""trial"",""time""
""blur"",""1"",""3152""
""focus"",""1"",""3652""
""fullscreenenter"",""1"",""3695""
""blur"",""3"",""9890""
""focus"",""3"",""10306""
","""event"",""trial"",""time""
""blur"",""1"",""3152""
""blur"",""3"",""9890""
","""event"",""trial"",""time""
""focus"",""1"",""3652""
""focus"",""3"",""10306""
","""event"",""trial"",""time""
""fullscreenenter"",""1"",""3695""
","
","","","","","","null","<div style=""font-size:60px;"">+</div>","null","","fixation","","","","","","","","",""
"memory-trial","23","220915","0.0-9.0-1.3","1695","2","""event"",""trial"",""time""
""blur"",""1"",""3152""
""focus"",""1"",""3652""
""fullscreenenter"",""1"",""3695""
""blur"",""3"",""9890""
""focus"",""3"",""10306""
","""event"",""trial"",""time""
""blur"",""1"",""3152""
""blur"",""3"",""9890""
","""event"",""trial"",""time""
""focus"",""1"",""3652""
""focus"",""3"",""10306""
","""event"",""trial"",""time""
""fullscreenenter"",""1"",""3695""
","
","","","","","","1997.5999999940395","images/ball3.png","","","practice","3","maybe_new","","","","","","",""
"html-keyboard-response","24","221423","0.0-9.0-0.4","1695","2","""event"",""trial"",""time""
""blur"",""1"",""3152""
""focus"",""1"",""3652""
""fullscreenenter"",""1"",""3695""
""blur"",""3"",""9890""
""focus"",""3"",""10306""
","""event"",""trial"",""time""
""blur"",""1"",""3152""
""blur"",""3"",""9890""
","""event"",""trial"",""time""
""focus"",""1"",""3652""
""focus"",""3"",""10306""
","""event"",""trial"",""time""
""fullscreenenter"",""1"",""3695""
","
","","","","","","null","<div style=""font-size:60px;"">+</div>","null","","fixation","","","","","","","","",""
"memory-trial","25","225036","0.0-9.0-1.4","1695","2","""event"",""trial"",""time""
""blur"",""1"",""3152""
""focus"",""1"",""3652""
""fullscreenenter"",""1"",""3695""
""blur"",""3"",""9890""
""focus"",""3"",""10306""
","""event"",""trial"",""time""
""blur"",""1"",""3152""
""blur"",""3"",""9890""
","""event"",""trial"",""time""
""focus"",""1"",""3652""
""focus"",""3"",""10306""
","""event"",""trial"",""time""
""fullscreenenter"",""1"",""3695""
","
","","","","","","2607.4000000059605","images/racket1.png","","","practice","2","maybe_old","","","","","","",""
"html-keyboard-response","26","225539","0.0-9.0-0.5","1695","2","""event"",""trial"",""time""
""blur"",""1"",""3152""
""focus"",""1"",""3652""
""fullscreenenter"",""1"",""3695""
""blur"",""3"",""9890""
""focus"",""3"",""10306""
","""event"",""trial"",""time""
""blur"",""1"",""3152""
""blur"",""3"",""9890""
","""event"",""trial"",""time""
""focus"",""1"",""3652""
""focus"",""3"",""10306""
","""event"",""trial"",""time""
""fullscreenenter"",""1"",""3695""
","
","","","","","","null","<div style=""font-size:60px;"">+</div>","null","","fixation","","","","","","","","",""
"memory-trial","27","230057","0.0-9.0-1.5","1695","2","""event"",""trial"",""time""
""blur"",""1"",""3152""
""focus"",""1"",""3652""
""fullscreenenter"",""1"",""3695""
""blur"",""3"",""9890""
""focus"",""3"",""10306""
","""event"",""trial"",""time""
""blur"",""1"",""3152""
""blur"",""3"",""9890""
","""event"",""trial"",""time""
""focus"",""1"",""3652""
""focus"",""3"",""10306""
","""event"",""trial"",""time""
""fullscreenenter"",""1"",""3695""
","
","","","","","","3512.1000000089407","images/ball2.png","","","practice","3","maybe_new","","","","","","",""
"html-keyboard-response","28","230559","0.0-9.0-0.6","1695","2","""event"",""trial"",""time""
""blur"",""1"",""3152""
""focus"",""1"",""3652""
""fullscreenenter"",""1"",""3695""
""blur"",""3"",""9890""
""focus"",""3"",""10306""
","""event"",""trial"",""time""
""blur"",""1"",""3152""
""blur"",""3"",""9890""
","""event"",""trial"",""time""
""focus"",""1"",""3652""
""focus"",""3"",""10306""
","""event"",""trial"",""time""
""fullscreenenter"",""1"",""3695""
","
","","","","","","null","<div style=""font-size:60px;"">+</div>","null","","fixation","","","","","","","","",""
"memory-trial","29","233941","0.0-9.0-1.6","1695","2","""event"",""trial"",""time""
""blur"",""1"",""3152""
""focus"",""1"",""3652""
""fullscreenenter"",""1"",""3695""
""blur"",""3"",""9890""
""focus"",""3"",""10306""
","""event"",""trial"",""time""
""blur"",""1"",""3152""
""blur"",""3"",""9890""
","""event"",""trial"",""time""
""focus"",""1"",""3652""
""focus"",""3"",""10306""
","""event"",""trial"",""time""
""fullscreenenter"",""1"",""3695""
","
","","","","","","2377.3999999910593","images/ball4.png","","","practice","3","maybe_new","","","","","","",""
"html-keyboard-response","30","234443","0.0-9.0-0.7","1695","2","""event"",""trial"",""time""
""blur"",""1"",""3152""
""focus"",""1"",""3652""
""fullscreenenter"",""1"",""3695""
""blur"",""3"",""9890""
""focus"",""3"",""10306""
","""event"",""trial"",""time""
""blur"",""1"",""3152""
""blur"",""3"",""9890""
","""event"",""trial"",""time""
""focus"",""1"",""3652""
""focus"",""3"",""10306""
","""event"",""trial"",""time""
""fullscreenenter"",""1"",""3695""
","
","","","","","","null","<div style=""font-size:60px;"">+</div>","null","","fixation","","","","","","","","",""
"memory-trial","31","236953","0.0-9.0-1.7","1695","2","""event"",""trial"",""time""
""blur"",""1"",""3152""
""focus"",""1"",""3652""
""fullscreenenter"",""1"",""3695""
""blur"",""3"",""9890""
""focus"",""3"",""10306""
","""event"",""trial"",""time""
""blur"",""1"",""3152""
""blur"",""3"",""9890""
","""event"",""trial"",""time""
""focus"",""1"",""3652""
""focus"",""3"",""10306""
","""event"",""trial"",""time""
""fullscreenenter"",""1"",""3695""
","
","","","","","","1504.0999999940395","images/racket4.png","","","practice","2","maybe_old","","","","","","",""
"learning-instructions","32","249183","0.0-10.0-0.0","1695","2","""event"",""trial"",""time""
""blur"",""1"",""3152""
""focus"",""1"",""3652""
""fullscreenenter"",""1"",""3695""
""blur"",""3"",""9890""
""focus"",""3"",""10306""
","""event"",""trial"",""time""
""blur"",""1"",""3152""
""blur"",""3"",""9890""
","""event"",""trial"",""time""
""focus"",""1"",""3652""
""focus"",""3"",""10306""
","""event"",""trial"",""time""
""fullscreenenter"",""1"",""3695""
","
","","","","","","3118.5","<p> Great! You have completed the practice. </p><p> Before you start, we're going to ask you a few questions about how the game works.  </p>","","0","instructions","","","","","","","","",""
"preload","33","249576","0.0-11.0","1695","2","""event"",""trial"",""time""
""blur"",""1"",""3152""
""focus"",""1"",""3652""
""fullscreenenter"",""1"",""3695""
""blur"",""3"",""9890""
""focus"",""3"",""10306""
","""event"",""trial"",""time""
""blur"",""1"",""3152""
""blur"",""3"",""9890""
","""event"",""trial"",""time""
""focus"",""1"",""3652""
""focus"",""3"",""10306""
","""event"",""trial"",""time""
""fullscreenenter"",""1"",""3695""
","
","true","false","[]","[]","[]","","","","","","","","","","","","","",""
"comp-q","34","257044","0.0-12.0-0.0","1695","2","""event"",""trial"",""time""
""blur"",""1"",""3152""
""focus"",""1"",""3652""
""fullscreenenter"",""1"",""3695""
""blur"",""3"",""9890""
""focus"",""3"",""10306""
","""event"",""trial"",""time""
""blur"",""1"",""3152""
""blur"",""3"",""9890""
","""event"",""trial"",""time""
""focus"",""1"",""3652""
""focus"",""3"",""10306""
","""event"",""trial"",""time""
""fullscreenenter"",""1"",""3695""
","
","","","","","","1639.6000000089407","<p> <b> True or False? </b> </p><p> In this game, you will only see each image once. </p>","","0","comp_question","","","true","","","","","",""
"comp-q","35","264879","0.0-12.0-1.0","1695","2","""event"",""trial"",""time""
""blur"",""1"",""3152""
""focus"",""1"",""3652""
""fullscreenenter"",""1"",""3695""
""blur"",""3"",""9890""
""focus"",""3"",""10306""
","""event"",""trial"",""time""
""blur"",""1"",""3152""
""blur"",""3"",""9890""
","""event"",""trial"",""time""
""focus"",""1"",""3652""
""focus"",""3"",""10306""
","""event"",""trial"",""time""
""fullscreenenter"",""1"",""3695""
","
","","","","","","1476.2999999970198","<p> <b> That's right! </b> You will see many different images <i> one time each </i> in this game. </p>","","0","comp_answer","","","","","","","","",""
"comp-q","36","272203","0.0-12.0-0.1","1695","2","""event"",""trial"",""time""
""blur"",""1"",""3152""
""focus"",""1"",""3652""
""fullscreenenter"",""1"",""3695""
""blur"",""3"",""9890""
""focus"",""3"",""10306""
","""event"",""trial"",""time""
""blur"",""1"",""3152""
""blur"",""3"",""9890""
","""event"",""trial"",""time""
""focus"",""1"",""3652""
""focus"",""3"",""10306""
","""event"",""trial"",""time""
""fullscreenenter"",""1"",""3695""
","
","","","","","","1519.5","<p> <b> True or False? </b> </p><p> You should use the mouse and click to make your response. </p>","","1","comp_question","","","true","","","","","",""
"comp-q","37","283998","0.0-12.0-1.1","1695","2","""event"",""trial"",""time""
""blur"",""1"",""3152""
""focus"",""1"",""3652""
""fullscreenenter"",""1"",""3695""
""blur"",""3"",""9890""
""focus"",""3"",""10306""
","""event"",""trial"",""time""
""blur"",""1"",""3152""
""blur"",""3"",""9890""
","""event"",""trial"",""time""
""focus"",""1"",""3652""
""focus"",""3"",""10306""
","""event"",""trial"",""time""
""fullscreenenter"",""1"",""3695""
","
","","","","","","4434.29999999702","<p><b> That's right! </b> You should use the '1', '2', '3', and '4' keys to make your response. </p>","","0","comp_answer","","","","","","","","",""
"comp-q","38","304183","0.0-12.0-0.2","1695","2","""event"",""trial"",""time""
""blur"",""1"",""3152""
""focus"",""1"",""3652""
""fullscreenenter"",""1"",""3695""
""blur"",""3"",""9890""
""focus"",""3"",""10306""
","""event"",""trial"",""time""
""blur"",""1"",""3152""
""blur"",""3"",""9890""
","""event"",""trial"",""time""
""focus"",""1"",""3652""
""focus"",""3"",""10306""
","""event"",""trial"",""time""
""fullscreenenter"",""1"",""3695""
","
","","","","","","14189.20000000298","<p> <b> True or False? </b> </p><p> You will have as much time as you want to make each choice. </p>","","1","comp_question","","","true","","","","","",""
"comp-q","39","317664","0.0-12.0-1.2","1695","2","""event"",""trial"",""time""
""blur"",""1"",""3152""
""focus"",""1"",""3652""
""fullscreenenter"",""1"",""3695""
""blur"",""3"",""9890""
""focus"",""3"",""10306""
","""event"",""trial"",""time""
""blur"",""1"",""3152""
""blur"",""3"",""9890""
","""event"",""trial"",""time""
""focus"",""1"",""3652""
""focus"",""3"",""10306""
","""event"",""trial"",""time""
""fullscreenenter"",""1"",""3695""
","
","","","","","","8090.70000000298","<p> <b> That's right! </b> You will only have 10 seconds to make each choice. </p>","","0","comp_answer","","","","","","","","",""
"learning-instructions","40","351484","0.0-13.0","1695","2","""event"",""trial"",""time""
""blur"",""1"",""3152""
""focus"",""1"",""3652""
""fullscreenenter"",""1"",""3695""
""blur"",""3"",""9890""
""focus"",""3"",""10306""
","""event"",""trial"",""time""
""blur"",""1"",""3152""
""blur"",""3"",""9890""
","""event"",""trial"",""time""
""focus"",""1"",""3652""
""focus"",""3"",""10306""
","""event"",""trial"",""time""
""fullscreenenter"",""1"",""3695""
","
","","","","","","25151.29999999702","<p> Great! You are now ready to begin the game. </p><p> Remember, use the 1, 2, 3, and 4 keys to make your responses. </p>","","0","instructions","","","","","","","","",""
"preload","41","351946","0.0-14.0","1695","2","""event"",""trial"",""time""
""blur"",""1"",""3152""
""focus"",""1"",""3652""
""fullscreenenter"",""1"",""3695""
""blur"",""3"",""9890""
""focus"",""3"",""10306""
","""event"",""trial"",""time""
""blur"",""1"",""3152""
""blur"",""3"",""9890""
","""event"",""trial"",""time""
""focus"",""1"",""3652""
""focus"",""3"",""10306""
","""event"",""trial"",""time""
""fullscreenenter"",""1"",""3695""
","
","true","false","[]","[]","[]","","","","","","","","","","","","","",""
"html-keyboard-response","42","352451","0.0-15.0-0.0","1695","2","""event"",""trial"",""time""
""blur"",""1"",""3152""
""focus"",""1"",""3652""
""fullscreenenter"",""1"",""3695""
""blur"",""3"",""9890""
""focus"",""3"",""10306""
","""event"",""trial"",""time""
""blur"",""1"",""3152""
""blur"",""3"",""9890""
","""event"",""trial"",""time""
""focus"",""1"",""3652""
""focus"",""3"",""10306""
","""event"",""trial"",""time""
""fullscreenenter"",""1"",""3695""
","
","","","","","","null","<div style=""font-size:60px;"">+</div>","null","","fixation","","","","","","","","",""
"memory-trial","43","355496","0.0-15.0-1.0","1695","2","""event"",""trial"",""time""
""blur"",""1"",""3152""
""focus"",""1"",""3652""
""fullscreenenter"",""1"",""3695""
""blur"",""3"",""9890""
""focus"",""3"",""10306""
","""event"",""trial"",""time""
""blur"",""1"",""3152""
""blur"",""3"",""9890""
","""event"",""trial"",""time""
""focus"",""1"",""3652""
""focus"",""3"",""10306""
","""event"",""trial"",""time""
""fullscreenenter"",""1"",""3695""
","
","","","","","","2023.800000011921","images/chair5.png","","","memory_trial","1","definitely_old","","","","","","",""
"html-keyboard-response","44","356011","0.0-15.0-0.1","1695","2","""event"",""trial"",""time""
""blur"",""1"",""3152""
""focus"",""1"",""3652""
""fullscreenenter"",""1"",""3695""
""blur"",""3"",""9890""
""focus"",""3"",""10306""
","""event"",""trial"",""time""
""blur"",""1"",""3152""
""blur"",""3"",""9890""
","""event"",""trial"",""time""
""focus"",""1"",""3652""
""focus"",""3"",""10306""
","""event"",""trial"",""time""
""fullscreenenter"",""1"",""3695""
","
","","","","","","null","<div style=""font-size:60px;"">+</div>","null","","fixation","","","","","","","","",""
"memory-trial","45","359572","0.0-15.0-1.1","1695","2","""event"",""trial"",""time""
""blur"",""1"",""3152""
""focus"",""1"",""3652""
""fullscreenenter"",""1"",""3695""
""blur"",""3"",""9890""
""focus"",""3"",""10306""
","""event"",""trial"",""time""
""blur"",""1"",""3152""
""blur"",""3"",""9890""
","""event"",""trial"",""time""
""focus"",""1"",""3652""
""focus"",""3"",""10306""
","""event"",""trial"",""time""
""fullscreenenter"",""1"",""3695""
","
","","","","","","2557.2999999970198","images/rabbit3.png","","","memory_trial","3","maybe_new","","","","","","",""
"html-keyboard-response","46","360077","0.0-15.0-0.2","1695","2","""event"",""trial"",""time""
""blur"",""1"",""3152""
""focus"",""1"",""3652""
""fullscreenenter"",""1"",""3695""
""blur"",""3"",""9890""
""focus"",""3"",""10306""
","""event"",""trial"",""time""
""blur"",""1"",""3152""
""blur"",""3"",""9890""
","""event"",""trial"",""time""
""focus"",""1"",""3652""
""focus"",""3"",""10306""
","""event"",""trial"",""time""
""fullscreenenter"",""1"",""3695""
","
","","","","","","null","<div style=""font-size:60px;"">+</div>","null","","fixation","","","","","","","","",""
"memory-trial","47","362145","0.0-15.0-1.2","1695","2","""event"",""trial"",""time""
""blur"",""1"",""3152""
""focus"",""1"",""3652""
""fullscreenenter"",""1"",""3695""
""blur"",""3"",""9890""
""focus"",""3"",""10306""
","""event"",""trial"",""time""
""blur"",""1"",""3152""
""blur"",""3"",""9890""
","""event"",""trial"",""time""
""focus"",""1"",""3652""
""focus"",""3"",""10306""
","""event"",""trial"",""time""
""fullscreenenter"",""1"",""3695""
","
","","","","","","1059.5","images/table5.png","","","memory_trial","1","definitely_old","","","","","","",""
"html-keyboard-response","48","362647","0.0-15.0-0.3","1695","2","""event"",""trial"",""time""
""blur"",""1"",""3152""
""focus"",""1"",""3652""
""fullscreenenter"",""1"",""3695""
""blur"",""3"",""9890""
""focus"",""3"",""10306""
","""event"",""trial"",""time""
""blur"",""1"",""3152""
""blur"",""3"",""9890""
","""event"",""trial"",""time""
""focus"",""1"",""3652""
""focus"",""3"",""10306""
","""event"",""trial"",""time""
""fullscreenenter"",""1"",""3695""
","
","","","","","","null","<div style=""font-size:60px;"">+</div>","null","","fixation","","","","","","","","",""
"memory-trial","49","364974","0.0-15.0-1.3","1695","2","""event"",""trial"",""time""
""blur"",""1"",""3152""
""focus"",""1"",""3652""
""fullscreenenter"",""1"",""3695""
""blur"",""3"",""9890""
""focus"",""3"",""10306""
","""event"",""trial"",""time""
""blur"",""1"",""3152""
""blur"",""3"",""9890""
","""event"",""trial"",""time""
""focus"",""1"",""3652""
""focus"",""3"",""10306""
","""event"",""trial"",""time""
""fullscreenenter"",""1"",""3695""
","
","","","","","","1320.1000000089407","images/plane4.png","","","memory_trial","2","maybe_old","","","","","","",""
"html-keyboard-response","50","365476","0.0-15.0-0.4","1695","2","""event"",""trial"",""time""
""blur"",""1"",""3152""
""focus"",""1"",""3652""
""fullscreenenter"",""1"",""3695""
""blur"",""3"",""9890""
""focus"",""3"",""10306""
","""event"",""trial"",""time""
""blur"",""1"",""3152""
""blur"",""3"",""9890""
","""event"",""trial"",""time""
""focus"",""1"",""3652""
""focus"",""3"",""10306""
","""event"",""trial"",""time""
""fullscreenenter"",""1"",""3695""
","
","","","","","","null","<div style=""font-size:60px;"">+</div>","null","","fixation","","","","","","","","",""
"memory-trial","51","367421","0.0-15.0-1.4","1695","2","""event"",""trial"",""time""
""blur"",""1"",""3152""
""focus"",""1"",""3652""
""fullscreenenter"",""1"",""3695""
""blur"",""3"",""9890""
""focus"",""3"",""10306""
","""event"",""trial"",""time""
""blur"",""1"",""3152""
""blur"",""3"",""9890""
","""event"",""trial"",""time""
""focus"",""1"",""3652""
""focus"",""3"",""10306""
","""event"",""trial"",""time""
""fullscreenenter"",""1"",""3695""
","
","","","","","","940.8000000119209","images/plane1.png","","","memory_trial","1","definitely_old","","","","","","",""
"html-keyboard-response","52","367924","0.0-15.0-0.5","1695","2","""event"",""trial"",""time""
""blur"",""1"",""3152""
""focus"",""1"",""3652""
""fullscreenenter"",""1"",""3695""
""blur"",""3"",""9890""
""focus"",""3"",""10306""
","""event"",""trial"",""time""
""blur"",""1"",""3152""
""blur"",""3"",""9890""
","""event"",""trial"",""time""
""focus"",""1"",""3652""
""focus"",""3"",""10306""
","""event"",""trial"",""time""
""fullscreenenter"",""1"",""3695""
","
","","","","","","null","<div style=""font-size:60px;"">+</div>","null","","fixation","","","","","","","","",""
"memory-trial","53","372802","0.0-15.0-1.5","1695","2","""event"",""trial"",""time""
""blur"",""1"",""3152""
""focus"",""1"",""3652""
""fullscreenenter"",""1"",""3695""
""blur"",""3"",""9890""
""focus"",""3"",""10306""
","""event"",""trial"",""time""
""blur"",""1"",""3152""
""blur"",""3"",""9890""
","""event"",""trial"",""time""
""focus"",""1"",""3652""
""focus"",""3"",""10306""
","""event"",""trial"",""time""
""fullscreenenter"",""1"",""3695""
","
","","","","","","3873.5","images/orange2.png","","","memory_trial","3","maybe_new","","","","","","",""
"html-keyboard-response","54","373305","0.0-15.0-0.6","1695","2","""event"",""trial"",""time""
""blur"",""1"",""3152""
""focus"",""1"",""3652""
""fullscreenenter"",""1"",""3695""
""blur"",""3"",""9890""
""focus"",""3"",""10306""
","""event"",""trial"",""time""
""blur"",""1"",""3152""
""blur"",""3"",""9890""
","""event"",""trial"",""time""
""focus"",""1"",""3652""
""focus"",""3"",""10306""
","""event"",""trial"",""time""
""fullscreenenter"",""1"",""3695""
","
","","","","","","null","<div style=""font-size:60px;"">+</div>","null","","fixation","","","","","","","","",""
"memory-trial","55","376403","0.0-15.0-1.6","1695","2","""event"",""trial"",""time""
""blur"",""1"",""3152""
""focus"",""1"",""3652""
""fullscreenenter"",""1"",""3695""
""blur"",""3"",""9890""
""focus"",""3"",""10306""
","""event"",""trial"",""time""
""blur"",""1"",""3152""
""blur"",""3"",""9890""
","""event"",""trial"",""time""
""focus"",""1"",""3652""
""focus"",""3"",""10306""
","""event"",""trial"",""time""
""fullscreenenter"",""1"",""3695""
","
","","","","","","2092.0999999940395","images/cow4.png","","","memory_trial","3","maybe_new","","","","","","",""
"html-keyboard-response","56","376917","0.0-15.0-0.7","1695","2","""event"",""trial"",""time""
""blur"",""1"",""3152""
""focus"",""1"",""3652""
""fullscreenenter"",""1"",""3695""
""blur"",""3"",""9890""
""focus"",""3"",""10306""
","""event"",""trial"",""time""
""blur"",""1"",""3152""
""blur"",""3"",""9890""
","""event"",""trial"",""time""
""focus"",""1"",""3652""
""focus"",""3"",""10306""
","""event"",""trial"",""time""
""fullscreenenter"",""1"",""3695""
","
","","","","","","null","<div style=""font-size:60px;"">+</div>","null","","fixation","","","","","","","","",""
"memory-trial","57","379874","0.0-15.0-1.7","1695","2","""event"",""trial"",""time""
""blur"",""1"",""3152""
""focus"",""1"",""3652""
""fullscreenenter"",""1"",""3695""
""blur"",""3"",""9890""
""focus"",""3"",""10306""
","""event"",""trial"",""time""
""blur"",""1"",""3152""
""blur"",""3"",""9890""
","""event"",""trial"",""time""
""focus"",""1"",""3652""
""focus"",""3"",""10306""
","""event"",""trial"",""time""
""fullscreenenter"",""1"",""3695""
","
","","","","","","1942.2999999970198","images/sofa1.png","","","memory_trial","2","maybe_old","","","","","","",""
"html-keyboard-response","58","380376","0.0-15.0-0.8","1695","2","""event"",""trial"",""time""
""blur"",""1"",""3152""
""focus"",""1"",""3652""
""fullscreenenter"",""1"",""3695""
""blur"",""3"",""9890""
""focus"",""3"",""10306""
","""event"",""trial"",""time""
""blur"",""1"",""3152""
""blur"",""3"",""9890""
","""event"",""trial"",""time""
""focus"",""1"",""3652""
""focus"",""3"",""10306""
","""event"",""trial"",""time""
""fullscreenenter"",""1"",""3695""
","
","","","","","","null","<div style=""font-size:60px;"">+</div>","null","","fixation","","","","","","","","",""
"memory-trial","59","383411","0.0-15.0-1.8","1695","2","""event"",""trial"",""time""
""blur"",""1"",""3152""
""focus"",""1"",""3652""
""fullscreenenter"",""1"",""3695""
""blur"",""3"",""9890""
""focus"",""3"",""10306""
","""event"",""trial"",""time""
""blur"",""1"",""3152""
""blur"",""3"",""9890""
","""event"",""trial"",""time""
""focus"",""1"",""3652""
""focus"",""3"",""10306""
","""event"",""trial"",""time""
""fullscreenenter"",""1"",""3695""
","
","","","","","","2029.5999999940395","images/feline2.png","","","memory_trial","1","definitely_old","","","","","","",""
"html-keyboard-response","60","383913","0.0-15.0-0.9","1695","2","""event"",""trial"",""time""
""blur"",""1"",""3152""
""focus"",""1"",""3652""
""fullscreenenter"",""1"",""3695""
""blur"",""3"",""9890""
""focus"",""3"",""10306""
","""event"",""trial"",""time""
""blur"",""1"",""3152""
""blur"",""3"",""9890""
","""event"",""trial"",""time""
""focus"",""1"",""3652""
""focus"",""3"",""10306""
","""event"",""trial"",""time""
""fullscreenenter"",""1"",""3695""
","
","","","","","","null","<div style=""font-size:60px;"">+</div>","null","","fixation","","","","","","","","",""
"memory-trial","61","386736","0.0-15.0-1.9","1695","2","""event"",""trial"",""time""
""blur"",""1"",""3152""
""focus"",""1"",""3652""
""fullscreenenter"",""1"",""3695""
""blur"",""3"",""9890""
""focus"",""3"",""10306""
","""event"",""trial"",""time""
""blur"",""1"",""3152""
""blur"",""3"",""9890""
","""event"",""trial"",""time""
""focus"",""1"",""3652""
""focus"",""3"",""10306""
","""event"",""trial"",""time""
""fullscreenenter"",""1"",""3695""
","
","","","","","","1816.7999999970198","images/rodent2.png","","","memory_trial","2","maybe_old","","","","","","",""
"html-keyboard-response","62","387238","0.0-15.0-0.10","1695","2","""event"",""trial"",""time""
""blur"",""1"",""3152""
""focus"",""1"",""3652""
""fullscreenenter"",""1"",""3695""
""blur"",""3"",""9890""
""focus"",""3"",""10306""
","""event"",""trial"",""time""
""blur"",""1"",""3152""
""blur"",""3"",""9890""
","""event"",""trial"",""time""
""focus"",""1"",""3652""
""focus"",""3"",""10306""
","""event"",""trial"",""time""
""fullscreenenter"",""1"",""3695""
","
","","","","","","null","<div style=""font-size:60px;"">+</div>","null","","fixation","","","","","","","","",""
"memory-trial","63","390322","0.0-15.0-1.10","1695","2","""event"",""trial"",""time""
""blur"",""1"",""3152""
""focus"",""1"",""3652""
""fullscreenenter"",""1"",""3695""
""blur"",""3"",""9890""
""focus"",""3"",""10306""
","""event"",""trial"",""time""
""blur"",""1"",""3152""
""blur"",""3"",""9890""
","""event"",""trial"",""time""
""focus"",""1"",""3652""
""focus"",""3"",""10306""
","""event"",""trial"",""time""
""fullscreenenter"",""1"",""3695""
","
","","","","","","2078.9000000059605","images/cactus3.png","","","memory_trial","2","maybe_old","","","","","","",""
"html-keyboard-response","64","390825","0.0-15.0-0.11","1695","2","""event"",""trial"",""time""
""blur"",""1"",""3152""
""focus"",""1"",""3652""
""fullscreenenter"",""1"",""3695""
""blur"",""3"",""9890""
""focus"",""3"",""10306""
","""event"",""trial"",""time""
""blur"",""1"",""3152""
""blur"",""3"",""9890""
","""event"",""trial"",""time""
""focus"",""1"",""3652""
""focus"",""3"",""10306""
","""event"",""trial"",""time""
""fullscreenenter"",""1"",""3695""
","
","","","","","","null","<div style=""font-size:60px;"">+</div>","null","","fixation","","","","","","","","",""
"memory-trial","65","395810","0.0-15.0-1.11","1695","2","""event"",""trial"",""time""
""blur"",""1"",""3152""
""focus"",""1"",""3652""
""fullscreenenter"",""1"",""3695""
""blur"",""3"",""9890""
""focus"",""3"",""10306""
","""event"",""trial"",""time""
""blur"",""1"",""3152""
""blur"",""3"",""9890""
","""event"",""trial"",""time""
""focus"",""1"",""3652""
""focus"",""3"",""10306""
","""event"",""trial"",""time""
""fullscreenenter"",""1"",""3695""
","
","","","","","","3979.800000011921","images/rabbit5.png","","","memory_trial","2","maybe_old","","","","","","",""
"html-keyboard-response","66","396313","0.0-15.0-0.12","1695","2","""event"",""trial"",""time""
""blur"",""1"",""3152""
""focus"",""1"",""3652""
""fullscreenenter"",""1"",""3695""
""blur"",""3"",""9890""
""focus"",""3"",""10306""
","""event"",""trial"",""time""
""blur"",""1"",""3152""
""blur"",""3"",""9890""
","""event"",""trial"",""time""
""focus"",""1"",""3652""
""focus"",""3"",""10306""
","""event"",""trial"",""time""
""fullscreenenter"",""1"",""3695""
","
","","","","","","null","<div style=""font-size:60px;"">+</div>","null","","fixation","","","","","","","","",""
"memory-trial","67","399078","0.0-15.0-1.12","1695","2","""event"",""trial"",""time""
""blur"",""1"",""3152""
""focus"",""1"",""3652""
""fullscreenenter"",""1"",""3695""
""blur"",""3"",""9890""
""focus"",""3"",""10306""
","""event"",""trial"",""time""
""blur"",""1"",""3152""
""blur"",""3"",""9890""
","""event"",""trial"",""time""
""focus"",""1"",""3652""
""focus"",""3"",""10306""
","""event"",""trial"",""time""
""fullscreenenter"",""1"",""3695""
","
","","","","","","1759.7999999970198","images/flower5.png","","","memory_trial","3","maybe_new","","","","","","",""
"html-keyboard-response","68","399582","0.0-15.0-0.13","1695","2","""event"",""trial"",""time""
""blur"",""1"",""3152""
""focus"",""1"",""3652""
""fullscreenenter"",""1"",""3695""
""blur"",""3"",""9890""
""focus"",""3"",""10306""
","""event"",""trial"",""time""
""blur"",""1"",""3152""
""blur"",""3"",""9890""
","""event"",""trial"",""time""
""focus"",""1"",""3652""
""focus"",""3"",""10306""
","""event"",""trial"",""time""
""fullscreenenter"",""1"",""3695""
","
","","","","","","null","<div style=""font-size:60px;"">+</div>","null","","fixation","","","","","","","","",""
"memory-trial","69","402483","0.0-15.0-1.13","1695","2","""event"",""trial"",""time""
""blur"",""1"",""3152""
""focus"",""1"",""3652""
""fullscreenenter"",""1"",""3695""
""blur"",""3"",""9890""
""focus"",""3"",""10306""
","""event"",""trial"",""time""
""blur"",""1"",""3152""
""blur"",""3"",""9890""
","""event"",""trial"",""time""
""focus"",""1"",""3652""
""focus"",""3"",""10306""
","""event"",""trial"",""time""
""fullscreenenter"",""1"",""3695""
","
","","","","","","1894.7000000029802","images/straw5.png","","","memory_trial","3","maybe_new","","","","","","",""
"html-keyboard-response","70","402985","0.0-15.0-0.14","1695","2","""event"",""trial"",""time""
""blur"",""1"",""3152""
""focus"",""1"",""3652""
""fullscreenenter"",""1"",""3695""
""blur"",""3"",""9890""
""focus"",""3"",""10306""
","""event"",""trial"",""time""
""blur"",""1"",""3152""
""blur"",""3"",""9890""
","""event"",""trial"",""time""
""focus"",""1"",""3652""
""focus"",""3"",""10306""
","""event"",""trial"",""time""
""fullscreenenter"",""1"",""3695""
","
","","","","","","null","<div style=""font-size:60px;"">+</div>","null","","fixation","","","","","","","","",""
"memory-trial","71","406199","0.0-15.0-1.14","1695","2","""event"",""trial"",""time""
""blur"",""1"",""3152""
""focus"",""1"",""3652""
""fullscreenenter"",""1"",""3695""
""blur"",""3"",""9890""
""focus"",""3"",""10306""
","""event"",""trial"",""time""
""blur"",""1"",""3152""
""blur"",""3"",""9890""
","""event"",""trial"",""time""
""focus"",""1"",""3652""
""focus"",""3"",""10306""
","""event"",""trial"",""time""
""fullscreenenter"",""1"",""3695""
","
","","","","","","2209.2999999970198","images/table3.png","","","memory_trial","1","definitely_old","","","","","","",""
"html-keyboard-response","72","406702","0.0-15.0-0.15","1695","2","""event"",""trial"",""time""
""blur"",""1"",""3152""
""focus"",""1"",""3652""
""fullscreenenter"",""1"",""3695""
""blur"",""3"",""9890""
""focus"",""3"",""10306""
","""event"",""trial"",""time""
""blur"",""1"",""3152""
""blur"",""3"",""9890""
","""event"",""trial"",""time""
""focus"",""1"",""3652""
""focus"",""3"",""10306""
","""event"",""trial"",""time""
""fullscreenenter"",""1"",""3695""
","
","","","","","","null","<div style=""font-size:60px;"">+</div>","null","","fixation","","","","","","","","",""
"memory-trial","73","409366","0.0-15.0-1.15","1695","2","""event"",""trial"",""time""
""blur"",""1"",""3152""
""focus"",""1"",""3652""
""fullscreenenter"",""1"",""3695""
""blur"",""3"",""9890""
""focus"",""3"",""10306""
","""event"",""trial"",""time""
""blur"",""1"",""3152""
""blur"",""3"",""9890""
","""event"",""trial"",""time""
""focus"",""1"",""3652""
""focus"",""3"",""10306""
","""event"",""trial"",""time""
""fullscreenenter"",""1"",""3695""
","
","","","","","","1658.5","images/horse2.png","","","memory_trial","3","maybe_new","","","","","","",""
"html-keyboard-response","74","409868","0.0-15.0-0.16","1695","2","""event"",""trial"",""time""
""blur"",""1"",""3152""
""focus"",""1"",""3652""
""fullscreenenter"",""1"",""3695""
""blur"",""3"",""9890""
""focus"",""3"",""10306""
","""event"",""trial"",""time""
""blur"",""1"",""3152""
""blur"",""3"",""9890""
","""event"",""trial"",""time""
""focus"",""1"",""3652""
""focus"",""3"",""10306""
","""event"",""trial"",""time""
""fullscreenenter"",""1"",""3695""
","
","","","","","","null","<div style=""font-size:60px;"">+</div>","null","","fixation","","","","","","","","",""
"memory-trial","75","412880","0.0-15.0-1.16","1695","2","""event"",""trial"",""time""
""blur"",""1"",""3152""
""focus"",""1"",""3652""
""fullscreenenter"",""1"",""3695""
""blur"",""3"",""9890""
""focus"",""3"",""10306""
","""event"",""trial"",""time""
""blur"",""1"",""3152""
""blur"",""3"",""9890""
","""event"",""trial"",""time""
""focus"",""1"",""3652""
""focus"",""3"",""10306""
","""event"",""trial"",""time""
""fullscreenenter"",""1"",""3695""
","
","","","","","","2008.5","images/chair4.png","","","memory_trial","3","maybe_new","","","","","","",""
"html-keyboard-response","76","413383","0.0-15.0-0.17","1695","2","""event"",""trial"",""time""
""blur"",""1"",""3152""
""focus"",""1"",""3652""
""fullscreenenter"",""1"",""3695""
""blur"",""3"",""9890""
""focus"",""3"",""10306""
","""event"",""trial"",""time""
""blur"",""1"",""3152""
""blur"",""3"",""9890""
","""event"",""trial"",""time""
""focus"",""1"",""3652""
""focus"",""3"",""10306""
","""event"",""trial"",""time""
""fullscreenenter"",""1"",""3695""
","
","","","","","","null","<div style=""font-size:60px;"">+</div>","null","","fixation","","","","","","","","",""
"memory-trial","77","416788","0.0-15.0-1.17","1695","2","""event"",""trial"",""time""
""blur"",""1"",""3152""
""focus"",""1"",""3652""
""fullscreenenter"",""1"",""3695""
""blur"",""3"",""9890""
""focus"",""3"",""10306""
","""event"",""trial"",""time""
""blur"",""1"",""3152""
""blur"",""3"",""9890""
","""event"",""trial"",""time""
""focus"",""1"",""3652""
""focus"",""3"",""10306""
","""event"",""trial"",""time""
""fullscreenenter"",""1"",""3695""
","
","","","","","","2399.4000000059605","images/goat3.png","","","memory_trial","4","definitely_new","","","","","","",""
"html-keyboard-response","78","417292","0.0-15.0-0.18","1695","2","""event"",""trial"",""time""
""blur"",""1"",""3152""
""focus"",""1"",""3652""
""fullscreenenter"",""1"",""3695""
""blur"",""3"",""9890""
""focus"",""3"",""10306""
","""event"",""trial"",""time""
""blur"",""1"",""3152""
""blur"",""3"",""9890""
","""event"",""trial"",""time""
""focus"",""1"",""3652""
""focus"",""3"",""10306""
","""event"",""trial"",""time""
""fullscreenenter"",""1"",""3695""
","
","","","","","","null","<div style=""font-size:60px;"">+</div>","null","","fixation","","","","","","","","",""
"memory-trial","79","420538","0.0-15.0-1.18","1695","2","""event"",""trial"",""time""
""blur"",""1"",""3152""
""focus"",""1"",""3652""
""fullscreenenter"",""1"",""3695""
""blur"",""3"",""9890""
""focus"",""3"",""10306""
","""event"",""trial"",""time""
""blur"",""1"",""3152""
""blur"",""3"",""9890""
","""event"",""trial"",""time""
""focus"",""1"",""3652""
""focus"",""3"",""10306""
","""event"",""trial"",""time""
""fullscreenenter"",""1"",""3695""
","
","","","","","","2241.300000011921","images/sofa5.png","","","memory_trial","3","maybe_new","","","","","","",""
"html-keyboard-response","80","421041","0.0-15.0-0.19","1695","2","""event"",""trial"",""time""
""blur"",""1"",""3152""
""focus"",""1"",""3652""
""fullscreenenter"",""1"",""3695""
""blur"",""3"",""9890""
""focus"",""3"",""10306""
","""event"",""trial"",""time""
""blur"",""1"",""3152""
""blur"",""3"",""9890""
","""event"",""trial"",""time""
""focus"",""1"",""3652""
""focus"",""3"",""10306""
","""event"",""trial"",""time""
""fullscreenenter"",""1"",""3695""
","
","","","","","","null","<div style=""font-size:60px;"">+</div>","null","","fixation","","","","","","","","",""
"memory-trial","81","424230","0.0-15.0-1.19","1695","2","""event"",""trial"",""time""
""blur"",""1"",""3152""
""focus"",""1"",""3652""
""fullscreenenter"",""1"",""3695""
""blur"",""3"",""9890""
""focus"",""3"",""10306""
","""event"",""trial"",""time""
""blur"",""1"",""3152""
""blur"",""3"",""9890""
","""event"",""trial"",""time""
""focus"",""1"",""3652""
""focus"",""3"",""10306""
","""event"",""trial"",""time""
""fullscreenenter"",""1"",""3695""
","
","","","","","","2183.7000000029802","images/boat2.png","","","memory_trial","3","maybe_new","","","","","","",""
"html-keyboard-response","82","424732","0.0-15.0-0.20","1695","2","""event"",""trial"",""time""
""blur"",""1"",""3152""
""focus"",""1"",""3652""
""fullscreenenter"",""1"",""3695""
""blur"",""3"",""9890""
""focus"",""3"",""10306""
","""event"",""trial"",""time""
""blur"",""1"",""3152""
""blur"",""3"",""9890""
","""event"",""trial"",""time""
""focus"",""1"",""3652""
""focus"",""3"",""10306""
","""event"",""trial"",""time""
""fullscreenenter"",""1"",""3695""
","
","","","","","","null","<div style=""font-size:60px;"">+</div>","null","","fixation","","","","","","","","",""
"memory-trial","83","429177","0.0-15.0-1.20","1695","2","""event"",""trial"",""time""
""blur"",""1"",""3152""
""focus"",""1"",""3652""
""fullscreenenter"",""1"",""3695""
""blur"",""3"",""9890""
""focus"",""3"",""10306""
","""event"",""trial"",""time""
""blur"",""1"",""3152""
""blur"",""3"",""9890""
","""event"",""trial"",""time""
""focus"",""1"",""3652""
""focus"",""3"",""10306""
","""event"",""trial"",""time""
""fullscreenenter"",""1"",""3695""
","
","","","","","","3439.5","images/rodent1.png","","","memory_trial","2","maybe_old","","","","","","",""
"html-keyboard-response","84","429679","0.0-15.0-0.21","1695","2","""event"",""trial"",""time""
""blur"",""1"",""3152""
""focus"",""1"",""3652""
""fullscreenenter"",""1"",""3695""
""blur"",""3"",""9890""
""focus"",""3"",""10306""
","""event"",""trial"",""time""
""blur"",""1"",""3152""
""blur"",""3"",""9890""
","""event"",""trial"",""time""
""focus"",""1"",""3652""
""focus"",""3"",""10306""
","""event"",""trial"",""time""
""fullscreenenter"",""1"",""3695""
","
","","","","","","null","<div style=""font-size:60px;"">+</div>","null","","fixation","","","","","","","","",""
"memory-trial","85","433629","0.0-15.0-1.21","1695","2","""event"",""trial"",""time""
""blur"",""1"",""3152""
""focus"",""1"",""3652""
""fullscreenenter"",""1"",""3695""
""blur"",""3"",""9890""
""focus"",""3"",""10306""
","""event"",""trial"",""time""
""blur"",""1"",""3152""
""blur"",""3"",""9890""
","""event"",""trial"",""time""
""focus"",""1"",""3652""
""focus"",""3"",""10306""
","""event"",""trial"",""time""
""fullscreenenter"",""1"",""3695""
","
","","","","","","2944.7000000029802","images/orange4.png","","","memory_trial","4","definitely_new","","","","","","",""
"html-keyboard-response","86","434132","0.0-15.0-0.22","1695","2","""event"",""trial"",""time""
""blur"",""1"",""3152""
""focus"",""1"",""3652""
""fullscreenenter"",""1"",""3695""
""blur"",""3"",""9890""
""focus"",""3"",""10306""
","""event"",""trial"",""time""
""blur"",""1"",""3152""
""blur"",""3"",""9890""
","""event"",""trial"",""time""
""focus"",""1"",""3652""
""focus"",""3"",""10306""
","""event"",""trial"",""time""
""fullscreenenter"",""1"",""3695""
","
","","","","","","null","<div style=""font-size:60px;"">+</div>","null","","fixation","","","","","","","","",""
"memory-trial","87","437739","0.0-15.0-1.22","1695","2","""event"",""trial"",""time""
""blur"",""1"",""3152""
""focus"",""1"",""3652""
""fullscreenenter"",""1"",""3695""
""blur"",""3"",""9890""
""focus"",""3"",""10306""
","""event"",""trial"",""time""
""blur"",""1"",""3152""
""blur"",""3"",""9890""
","""event"",""trial"",""time""
""focus"",""1"",""3652""
""focus"",""3"",""10306""
","""event"",""trial"",""time""
""fullscreenenter"",""1"",""3695""
","
","","","","","","2600.5","images/bush1.png","","","memory_trial","2","maybe_old","","","","","","",""
"html-keyboard-response","88","438241","0.0-15.0-0.23","1695","2","""event"",""trial"",""time""
""blur"",""1"",""3152""
""focus"",""1"",""3652""
""fullscreenenter"",""1"",""3695""
""blur"",""3"",""9890""
""focus"",""3"",""10306""
","""event"",""trial"",""time""
""blur"",""1"",""3152""
""blur"",""3"",""9890""
","""event"",""trial"",""time""
""focus"",""1"",""3652""
""focus"",""3"",""10306""
","""event"",""trial"",""time""
""fullscreenenter"",""1"",""3695""
","
","","","","","","null","<div style=""font-size:60px;"">+</div>","null","","fixation","","","","","","","","",""
"memory-trial","89","442537","0.0-15.0-1.23","1695","2","""event"",""trial"",""time""
""blur"",""1"",""3152""
""focus"",""1"",""3652""
""fullscreenenter"",""1"",""3695""
""blur"",""3"",""9890""
""focus"",""3"",""10306""
","""event"",""trial"",""time""
""blur"",""1"",""3152""
""blur"",""3"",""9890""
","""event"",""trial"",""time""
""focus"",""1"",""3652""
""focus"",""3"",""10306""
","""event"",""trial"",""time""
""fullscreenenter"",""1"",""3695""
","
","","","","","","3291.7999999970198","images/sofa4.png","","","memory_trial","1","definitely_old","","","","","","",""
"html-keyboard-response","90","443039","0.0-15.0-0.24","1695","2","""event"",""trial"",""time""
""blur"",""1"",""3152""
""focus"",""1"",""3652""
""fullscreenenter"",""1"",""3695""
""blur"",""3"",""9890""
""focus"",""3"",""10306""
","""event"",""trial"",""time""
""blur"",""1"",""3152""
""blur"",""3"",""9890""
","""event"",""trial"",""time""
""focus"",""1"",""3652""
""focus"",""3"",""10306""
","""event"",""trial"",""time""
""fullscreenenter"",""1"",""3695""
","
","","","","","","null","<div style=""font-size:60px;"">+</div>","null","","fixation","","","","","","","","",""
"memory-trial","91","446049","0.0-15.0-1.24","1695","2","""event"",""trial"",""time""
""blur"",""1"",""3152""
""focus"",""1"",""3652""
""fullscreenenter"",""1"",""3695""
""blur"",""3"",""9890""
""focus"",""3"",""10306""
","""event"",""trial"",""time""
""blur"",""1"",""3152""
""blur"",""3"",""9890""
","""event"",""trial"",""time""
""focus"",""1"",""3652""
""focus"",""3"",""10306""
","""event"",""trial"",""time""
""fullscreenenter"",""1"",""3695""
","
","","","","","","2004","images/tree3.png","","","memory_trial","3","maybe_new","","","","","","",""
"html-keyboard-response","92","446551","0.0-15.0-0.25","1695","2","""event"",""trial"",""time""
""blur"",""1"",""3152""
""focus"",""1"",""3652""
""fullscreenenter"",""1"",""3695""
""blur"",""3"",""9890""
""focus"",""3"",""10306""
","""event"",""trial"",""time""
""blur"",""1"",""3152""
""blur"",""3"",""9890""
","""event"",""trial"",""time""
""focus"",""1"",""3652""
""focus"",""3"",""10306""
","""event"",""trial"",""time""
""fullscreenenter"",""1"",""3695""
","
","","","","","","null","<div style=""font-size:60px;"">+</div>","null","","fixation","","","","","","","","",""
"memory-trial","93","450286","0.0-15.0-1.25","1695","2","""event"",""trial"",""time""
""blur"",""1"",""3152""
""focus"",""1"",""3652""
""fullscreenenter"",""1"",""3695""
""blur"",""3"",""9890""
""focus"",""3"",""10306""
","""event"",""trial"",""time""
""blur"",""1"",""3152""
""blur"",""3"",""9890""
","""event"",""trial"",""time""
""focus"",""1"",""3652""
""focus"",""3"",""10306""
","""event"",""trial"",""time""
""fullscreenenter"",""1"",""3695""
","
","","","","","","2729.0999999940395","images/flower4.png","","","memory_trial","3","maybe_new","","","","","","",""
"html-keyboard-response","94","450788","0.0-15.0-0.26","1695","2","""event"",""trial"",""time""
""blur"",""1"",""3152""
""focus"",""1"",""3652""
""fullscreenenter"",""1"",""3695""
""blur"",""3"",""9890""
""focus"",""3"",""10306""
","""event"",""trial"",""time""
""blur"",""1"",""3152""
""blur"",""3"",""9890""
","""event"",""trial"",""time""
""focus"",""1"",""3652""
""focus"",""3"",""10306""
","""event"",""trial"",""time""
""fullscreenenter"",""1"",""3695""
","
","","","","","","null","<div style=""font-size:60px;"">+</div>","null","","fixation","","","","","","","","",""
"memory-trial","95","453746","0.0-15.0-1.26","1695","2","""event"",""trial"",""time""
""blur"",""1"",""3152""
""focus"",""1"",""3652""
""fullscreenenter"",""1"",""3695""
""blur"",""3"",""9890""
""focus"",""3"",""10306""
","""event"",""trial"",""time""
""blur"",""1"",""3152""
""blur"",""3"",""9890""
","""event"",""trial"",""time""
""focus"",""1"",""3652""
""focus"",""3"",""10306""
","""event"",""trial"",""time""
""fullscreenenter"",""1"",""3695""
","
","","","","","","1953.5","images/dog1.png","","","memory_trial","3","maybe_new","","","","","","",""
"html-keyboard-response","96","454248","0.0-15.0-0.27","1695","2","""event"",""trial"",""time""
""blur"",""1"",""3152""
""focus"",""1"",""3652""
""fullscreenenter"",""1"",""3695""
""blur"",""3"",""9890""
""focus"",""3"",""10306""
","""event"",""trial"",""time""
""blur"",""1"",""3152""
""blur"",""3"",""9890""
","""event"",""trial"",""time""
""focus"",""1"",""3652""
""focus"",""3"",""10306""
","""event"",""trial"",""time""
""fullscreenenter"",""1"",""3695""
","
","","","","","","null","<div style=""font-size:60px;"">+</div>","null","","fixation","","","","","","","","",""
"memory-trial","97","457282","0.0-15.0-1.27","1695","2","""event"",""trial"",""time""
""blur"",""1"",""3152""
""focus"",""1"",""3652""
""fullscreenenter"",""1"",""3695""
""blur"",""3"",""9890""
""focus"",""3"",""10306""
","""event"",""trial"",""time""
""blur"",""1"",""3152""
""blur"",""3"",""9890""
","""event"",""trial"",""time""
""focus"",""1"",""3652""
""focus"",""3"",""10306""
","""event"",""trial"",""time""
""fullscreenenter"",""1"",""3695""
","
","","","","","","2028.800000011921","images/flower3.png","","","memory_trial","3","maybe_new","","","","","","",""
"html-keyboard-response","98","457784","0.0-15.0-0.28","1695","2","""event"",""trial"",""time""
""blur"",""1"",""3152""
""focus"",""1"",""3652""
""fullscreenenter"",""1"",""3695""
""blur"",""3"",""9890""
""focus"",""3"",""10306""
","""event"",""trial"",""time""
""blur"",""1"",""3152""
""blur"",""3"",""9890""
","""event"",""trial"",""time""
""focus"",""1"",""3652""
""focus"",""3"",""10306""
","""event"",""trial"",""time""
""fullscreenenter"",""1"",""3695""
","
","","","","","","null","<div style=""font-size:60px;"">+</div>","null","","fixation","","","","","","","","",""
"memory-trial","99","460458","0.0-15.0-1.28","1695","2","""event"",""trial"",""time""
""blur"",""1"",""3152""
""focus"",""1"",""3652""
""fullscreenenter"",""1"",""3695""
""blur"",""3"",""9890""
""focus"",""3"",""10306""
","""event"",""trial"",""time""
""blur"",""1"",""3152""
""blur"",""3"",""9890""
","""event"",""trial"",""time""
""focus"",""1"",""3652""
""focus"",""3"",""10306""
","""event"",""trial"",""time""
""fullscreenenter"",""1"",""3695""
","
","","","","","","1669","images/sheep3.png","","","memory_trial","2","maybe_old","","","","","","",""
"html-keyboard-response","100","460961","0.0-15.0-0.29","1695","2","""event"",""trial"",""time""
""blur"",""1"",""3152""
""focus"",""1"",""3652""
""fullscreenenter"",""1"",""3695""
""blur"",""3"",""9890""
""focus"",""3"",""10306""
","""event"",""trial"",""time""
""blur"",""1"",""3152""
""blur"",""3"",""9890""
","""event"",""trial"",""time""
""focus"",""1"",""3652""
""focus"",""3"",""10306""
","""event"",""trial"",""time""
""fullscreenenter"",""1"",""3695""
","
","","","","","","null","<div style=""font-size:60px;"">+</div>","null","","fixation","","","","","","","","",""
"memory-trial","101","463504","0.0-15.0-1.29","1695","2","""event"",""trial"",""time""
""blur"",""1"",""3152""
""focus"",""1"",""3652""
""fullscreenenter"",""1"",""3695""
""blur"",""3"",""9890""
""focus"",""3"",""10306""
","""event"",""trial"",""time""
""blur"",""1"",""3152""
""blur"",""3"",""9890""
","""event"",""trial"",""time""
""focus"",""1"",""3652""
""focus"",""3"",""10306""
","""event"",""trial"",""time""
""fullscreenenter"",""1"",""3695""
","
","","","","","","1537.2999999970198","images/sheep1.png","","","memory_trial","1","definitely_old","","","","","","",""
"html-keyboard-response","102","464006","0.0-15.0-0.30","1695","2","""event"",""trial"",""time""
""blur"",""1"",""3152""
""focus"",""1"",""3652""
""fullscreenenter"",""1"",""3695""
""blur"",""3"",""9890""
""focus"",""3"",""10306""
","""event"",""trial"",""time""
""blur"",""1"",""3152""
""blur"",""3"",""9890""
","""event"",""trial"",""time""
""focus"",""1"",""3652""
""focus"",""3"",""10306""
","""event"",""trial"",""time""
""fullscreenenter"",""1"",""3695""
","
","","","","","","null","<div style=""font-size:60px;"">+</div>","null","","fixation","","","","","","","","",""
"memory-trial","103","467155","0.0-15.0-1.30","1695","2","""event"",""trial"",""time""
""blur"",""1"",""3152""
""focus"",""1"",""3652""
""fullscreenenter"",""1"",""3695""
""blur"",""3"",""9890""
""focus"",""3"",""10306""
","""event"",""trial"",""time""
""blur"",""1"",""3152""
""blur"",""3"",""9890""
","""event"",""trial"",""time""
""focus"",""1"",""3652""
""focus"",""3"",""10306""
","""event"",""trial"",""time""
""fullscreenenter"",""1"",""3695""
","
","","","","","","2144.7000000029802","images/feline1.png","","","memory_trial","1","definitely_old","","","","","","",""
"html-keyboard-response","104","467659","0.0-15.0-0.31","1695","2","""event"",""trial"",""time""
""blur"",""1"",""3152""
""focus"",""1"",""3652""
""fullscreenenter"",""1"",""3695""
""blur"",""3"",""9890""
""focus"",""3"",""10306""
","""event"",""trial"",""time""
""blur"",""1"",""3152""
""blur"",""3"",""9890""
","""event"",""trial"",""time""
""focus"",""1"",""3652""
""focus"",""3"",""10306""
","""event"",""trial"",""time""
""fullscreenenter"",""1"",""3695""
","
","","","","","","null","<div style=""font-size:60px;"">+</div>","null","","fixation","","","","","","","","",""
"memory-trial","105","470680","0.0-15.0-1.31","1695","2","""event"",""trial"",""time""
""blur"",""1"",""3152""
""focus"",""1"",""3652""
""fullscreenenter"",""1"",""3695""
""blur"",""3"",""9890""
""focus"",""3"",""10306""
","""event"",""trial"",""time""
""blur"",""1"",""3152""
""blur"",""3"",""9890""
","""event"",""trial"",""time""
""focus"",""1"",""3652""
""focus"",""3"",""10306""
","""event"",""trial"",""time""
""fullscreenenter"",""1"",""3695""
","
","","","","","","2015.6000000089407","images/tree5.png","","","memory_trial","2","maybe_old","","","","","","",""
"html-keyboard-response","106","471182","0.0-15.0-0.32","1695","2","""event"",""trial"",""time""
""blur"",""1"",""3152""
""focus"",""1"",""3652""
""fullscreenenter"",""1"",""3695""
""blur"",""3"",""9890""
""focus"",""3"",""10306""
","""event"",""trial"",""time""
""blur"",""1"",""3152""
""blur"",""3"",""9890""
","""event"",""trial"",""time""
""focus"",""1"",""3652""
""focus"",""3"",""10306""
","""event"",""trial"",""time""
""fullscreenenter"",""1"",""3695""
","
","","","","","","null","<div style=""font-size:60px;"">+</div>","null","","fixation","","","","","","","","",""
"memory-trial","107","473961","0.0-15.0-1.32","1695","2","""event"",""trial"",""time""
""blur"",""1"",""3152""
""focus"",""1"",""3652""
""fullscreenenter"",""1"",""3695""
""blur"",""3"",""9890""
""focus"",""3"",""10306""
","""event"",""trial"",""time""
""blur"",""1"",""3152""
""blur"",""3"",""9890""
","""event"",""trial"",""time""
""focus"",""1"",""3652""
""focus"",""3"",""10306""
","""event"",""trial"",""time""
""fullscreenenter"",""1"",""3695""
","
","","","","","","1772.3999999910593","images/flower1.png","","","memory_trial","3","maybe_new","","","","","","",""
"html-keyboard-response","108","474464","0.0-15.0-0.33","1695","2","""event"",""trial"",""time""
""blur"",""1"",""3152""
""focus"",""1"",""3652""
""fullscreenenter"",""1"",""3695""
""blur"",""3"",""9890""
""focus"",""3"",""10306""
","""event"",""trial"",""time""
""blur"",""1"",""3152""
""blur"",""3"",""9890""
","""event"",""trial"",""time""
""focus"",""1"",""3652""
""focus"",""3"",""10306""
","""event"",""trial"",""time""
""fullscreenenter"",""1"",""3695""
","
","","","","","","null","<div style=""font-size:60px;"">+</div>","null","","fixation","","","","","","","","",""
"memory-trial","109","477146","0.0-15.0-1.33","1695","2","""event"",""trial"",""time""
""blur"",""1"",""3152""
""focus"",""1"",""3652""
""fullscreenenter"",""1"",""3695""
""blur"",""3"",""9890""
""focus"",""3"",""10306""
","""event"",""trial"",""time""
""blur"",""1"",""3152""
""blur"",""3"",""9890""
","""event"",""trial"",""time""
""focus"",""1"",""3652""
""focus"",""3"",""10306""
","""event"",""trial"",""time""
""fullscreenenter"",""1"",""3695""
","
","","","","","","1676.9000000059605","images/apple5.png","","","memory_trial","4","definitely_new","","","","","","",""
"html-keyboard-response","110","477648","0.0-15.0-0.34","1695","2","""event"",""trial"",""time""
""blur"",""1"",""3152""
""focus"",""1"",""3652""
""fullscreenenter"",""1"",""3695""
""blur"",""3"",""9890""
""focus"",""3"",""10306""
","""event"",""trial"",""time""
""blur"",""1"",""3152""
""blur"",""3"",""9890""
","""event"",""trial"",""time""
""focus"",""1"",""3652""
""focus"",""3"",""10306""
","""event"",""trial"",""time""
""fullscreenenter"",""1"",""3695""
","
","","","","","","null","<div style=""font-size:60px;"">+</div>","null","","fixation","","","","","","","","",""
"memory-trial","111","482256","0.0-15.0-1.34","1695","2","""event"",""trial"",""time""
""blur"",""1"",""3152""
""focus"",""1"",""3652""
""fullscreenenter"",""1"",""3695""
""blur"",""3"",""9890""
""focus"",""3"",""10306""
","""event"",""trial"",""time""
""blur"",""1"",""3152""
""blur"",""3"",""9890""
","""event"",""trial"",""time""
""focus"",""1"",""3652""
""focus"",""3"",""10306""
","""event"",""trial"",""time""
""fullscreenenter"",""1"",""3695""
","
","","","","","","3600.4000000059605","images/horse1.png","","","memory_trial","2","maybe_old","","","","","","",""
"html-keyboard-response","112","482757","0.0-15.0-0.35","1695","2","""event"",""trial"",""time""
""blur"",""1"",""3152""
""focus"",""1"",""3652""
""fullscreenenter"",""1"",""3695""
""blur"",""3"",""9890""
""focus"",""3"",""10306""
","""event"",""trial"",""time""
""blur"",""1"",""3152""
""blur"",""3"",""9890""
","""event"",""trial"",""time""
""focus"",""1"",""3652""
""focus"",""3"",""10306""
","""event"",""trial"",""time""
""fullscreenenter"",""1"",""3695""
","
","","","","","","null","<div style=""font-size:60px;"">+</div>","null","","fixation","","","","","","","","",""
"memory-trial","113","486827","0.0-15.0-1.35","1695","2","""event"",""trial"",""time""
""blur"",""1"",""3152""
""focus"",""1"",""3652""
""fullscreenenter"",""1"",""3695""
""blur"",""3"",""9890""
""focus"",""3"",""10306""
","""event"",""trial"",""time""
""blur"",""1"",""3152""
""blur"",""3"",""9890""
","""event"",""trial"",""time""
""focus"",""1"",""3652""
""focus"",""3"",""10306""
","""event"",""trial"",""time""
""fullscreenenter"",""1"",""3695""
","
","","","","","","3063.7999999970198","images/bush4.png","","","memory_trial","3","maybe_new","","","","","","",""
"html-keyboard-response","114","487329","0.0-15.0-0.36","1695","2","""event"",""trial"",""time""
""blur"",""1"",""3152""
""focus"",""1"",""3652""
""fullscreenenter"",""1"",""3695""
""blur"",""3"",""9890""
""focus"",""3"",""10306""
","""event"",""trial"",""time""
""blur"",""1"",""3152""
""blur"",""3"",""9890""
","""event"",""trial"",""time""
""focus"",""1"",""3652""
""focus"",""3"",""10306""
","""event"",""trial"",""time""
""fullscreenenter"",""1"",""3695""
","
","","","","","","null","<div style=""font-size:60px;"">+</div>","null","","fixation","","","","","","","","",""
"memory-trial","115","490949","0.0-15.0-1.36","1695","2","""event"",""trial"",""time""
""blur"",""1"",""3152""
""focus"",""1"",""3652""
""fullscreenenter"",""1"",""3695""
""blur"",""3"",""9890""
""focus"",""3"",""10306""
","""event"",""trial"",""time""
""blur"",""1"",""3152""
""blur"",""3"",""9890""
","""event"",""trial"",""time""
""focus"",""1"",""3652""
""focus"",""3"",""10306""
","""event"",""trial"",""time""
""fullscreenenter"",""1"",""3695""
","
","","","","","","2614.2999999970198","images/train5.png","","","memory_trial","2","maybe_old","","","","","","",""
"html-keyboard-response","116","491451","0.0-15.0-0.37","1695","2","""event"",""trial"",""time""
""blur"",""1"",""3152""
""focus"",""1"",""3652""
""fullscreenenter"",""1"",""3695""
""blur"",""3"",""9890""
""focus"",""3"",""10306""
","""event"",""trial"",""time""
""blur"",""1"",""3152""
""blur"",""3"",""9890""
","""event"",""trial"",""time""
""focus"",""1"",""3652""
""focus"",""3"",""10306""
","""event"",""trial"",""time""
""fullscreenenter"",""1"",""3695""
","
","","","","","","null","<div style=""font-size:60px;"">+</div>","null","","fixation","","","","","","","","",""
"memory-trial","117","494254","0.0-15.0-1.37","1695","2","""event"",""trial"",""time""
""blur"",""1"",""3152""
""focus"",""1"",""3652""
""fullscreenenter"",""1"",""3695""
""blur"",""3"",""9890""
""focus"",""3"",""10306""
","""event"",""trial"",""time""
""blur"",""1"",""3152""
""blur"",""3"",""9890""
","""event"",""trial"",""time""
""focus"",""1"",""3652""
""focus"",""3"",""10306""
","""event"",""trial"",""time""
""fullscreenenter"",""1"",""3695""
","
","","","","","","1797.300000011921","images/boat1.png","","","memory_trial","1","definitely_old","","","","","","",""
"html-keyboard-response","118","494766","0.0-15.0-0.38","1695","2","""event"",""trial"",""time""
""blur"",""1"",""3152""
""focus"",""1"",""3652""
""fullscreenenter"",""1"",""3695""
""blur"",""3"",""9890""
""focus"",""3"",""10306""
","""event"",""trial"",""time""
""blur"",""1"",""3152""
""blur"",""3"",""9890""
","""event"",""trial"",""time""
""focus"",""1"",""3652""
""focus"",""3"",""10306""
","""event"",""trial"",""time""
""fullscreenenter"",""1"",""3695""
","
","","","","","","null","<div style=""font-size:60px;"">+</div>","null","","fixation","","","","","","","","",""
"memory-trial","119","497995","0.0-15.0-1.38","1695","2","""event"",""trial"",""time""
""blur"",""1"",""3152""
""focus"",""1"",""3652""
""fullscreenenter"",""1"",""3695""
""blur"",""3"",""9890""
""focus"",""3"",""10306""
","""event"",""trial"",""time""
""blur"",""1"",""3152""
""blur"",""3"",""9890""
","""event"",""trial"",""time""
""focus"",""1"",""3652""
""focus"",""3"",""10306""
","""event"",""trial"",""time""
""fullscreenenter"",""1"",""3695""
","
","","","","","","2222.9000000059605","images/cactus1.png","","","memory_trial","3","maybe_new","","","","","","",""
"html-keyboard-response","120","498497","0.0-15.0-0.39","1695","2","""event"",""trial"",""time""
""blur"",""1"",""3152""
""focus"",""1"",""3652""
""fullscreenenter"",""1"",""3695""
""blur"",""3"",""9890""
""focus"",""3"",""10306""
","""event"",""trial"",""time""
""blur"",""1"",""3152""
""blur"",""3"",""9890""
","""event"",""trial"",""time""
""focus"",""1"",""3652""
""focus"",""3"",""10306""
","""event"",""trial"",""time""
""fullscreenenter"",""1"",""3695""
","
","","","","","","null","<div style=""font-size:60px;"">+</div>","null","","fixation","","","","","","","","",""
"memory-trial","121","503036","0.0-15.0-1.39","1695","2","""event"",""trial"",""time""
""blur"",""1"",""3152""
""focus"",""1"",""3652""
""fullscreenenter"",""1"",""3695""
""blur"",""3"",""9890""
""focus"",""3"",""10306""
","""event"",""trial"",""time""
""blur"",""1"",""3152""
""blur"",""3"",""9890""
","""event"",""trial"",""time""
""focus"",""1"",""3652""
""focus"",""3"",""10306""
","""event"",""trial"",""time""
""fullscreenenter"",""1"",""3695""
","
","","","","","","3535.1000000089407","images/cactus2.png","","","memory_trial","4","definitely_new","","","","","","",""
"html-keyboard-response","122","503538","0.0-15.0-0.40","1695","2","""event"",""trial"",""time""
""blur"",""1"",""3152""
""focus"",""1"",""3652""
""fullscreenenter"",""1"",""3695""
""blur"",""3"",""9890""
""focus"",""3"",""10306""
","""event"",""trial"",""time""
""blur"",""1"",""3152""
""blur"",""3"",""9890""
","""event"",""trial"",""time""
""focus"",""1"",""3652""
""focus"",""3"",""10306""
","""event"",""trial"",""time""
""fullscreenenter"",""1"",""3695""
","
","","","","","","null","<div style=""font-size:60px;"">+</div>","null","","fixation","","","","","","","","",""
"memory-trial","123","506311","0.0-15.0-1.40","1695","2","""event"",""trial"",""time""
""blur"",""1"",""3152""
""focus"",""1"",""3652""
""fullscreenenter"",""1"",""3695""
""blur"",""3"",""9890""
""focus"",""3"",""10306""
","""event"",""trial"",""time""
""blur"",""1"",""3152""
""blur"",""3"",""9890""
","""event"",""trial"",""time""
""focus"",""1"",""3652""
""focus"",""3"",""10306""
","""event"",""trial"",""time""
""fullscreenenter"",""1"",""3695""
","
","","","","","","1767.9000000059605","images/sofa2.png","","","memory_trial","1","definitely_old","","","","","","",""
"html-keyboard-response","124","506814","0.0-15.0-0.41","1695","2","""event"",""trial"",""time""
""blur"",""1"",""3152""
""focus"",""1"",""3652""
""fullscreenenter"",""1"",""3695""
""blur"",""3"",""9890""
""focus"",""3"",""10306""
","""event"",""trial"",""time""
""blur"",""1"",""3152""
""blur"",""3"",""9890""
","""event"",""trial"",""time""
""focus"",""1"",""3652""
""focus"",""3"",""10306""
","""event"",""trial"",""time""
""fullscreenenter"",""1"",""3695""
","
","","","","","","null","<div style=""font-size:60px;"">+</div>","null","","fixation","","","","","","","","",""
"memory-trial","125","509231","0.0-15.0-1.41","1695","2","""event"",""trial"",""time""
""blur"",""1"",""3152""
""focus"",""1"",""3652""
""fullscreenenter"",""1"",""3695""
""blur"",""3"",""9890""
""focus"",""3"",""10306""
","""event"",""trial"",""time""
""blur"",""1"",""3152""
""blur"",""3"",""9890""
","""event"",""trial"",""time""
""focus"",""1"",""3652""
""focus"",""3"",""10306""
","""event"",""trial"",""time""
""fullscreenenter"",""1"",""3695""
","
","","","","","","1412.8999999910593","images/bed4.png","","","memory_trial","2","maybe_old","","","","","","",""
"html-keyboard-response","126","509733","0.0-15.0-0.42","1695","2","""event"",""trial"",""time""
""blur"",""1"",""3152""
""focus"",""1"",""3652""
""fullscreenenter"",""1"",""3695""
""blur"",""3"",""9890""
""focus"",""3"",""10306""
","""event"",""trial"",""time""
""blur"",""1"",""3152""
""blur"",""3"",""9890""
","""event"",""trial"",""time""
""focus"",""1"",""3652""
""focus"",""3"",""10306""
","""event"",""trial"",""time""
""fullscreenenter"",""1"",""3695""
","
","","","","","","null","<div style=""font-size:60px;"">+</div>","null","","fixation","","","","","","","","",""
"memory-trial","127","515191","0.0-15.0-1.42","1695","2","""event"",""trial"",""time""
""blur"",""1"",""3152""
""focus"",""1"",""3652""
""fullscreenenter"",""1"",""3695""
""blur"",""3"",""9890""
""focus"",""3"",""10306""
","""event"",""trial"",""time""
""blur"",""1"",""3152""
""blur"",""3"",""9890""
","""event"",""trial"",""time""
""focus"",""1"",""3652""
""focus"",""3"",""10306""
","""event"",""trial"",""time""
""fullscreenenter"",""1"",""3695""
","
","","","","","","4453.9000000059605","images/truck1.png","","","memory_trial","4","definitely_new","","","","","","",""
"html-keyboard-response","128","515703","0.0-15.0-0.43","1695","2","""event"",""trial"",""time""
""blur"",""1"",""3152""
""focus"",""1"",""3652""
""fullscreenenter"",""1"",""3695""
""blur"",""3"",""9890""
""focus"",""3"",""10306""
","""event"",""trial"",""time""
""blur"",""1"",""3152""
""blur"",""3"",""9890""
","""event"",""trial"",""time""
""focus"",""1"",""3652""
""focus"",""3"",""10306""
","""event"",""trial"",""time""
""fullscreenenter"",""1"",""3695""
","
","","","","","","null","<div style=""font-size:60px;"">+</div>","null","","fixation","","","","","","","","",""
"memory-trial","129","519129","0.0-15.0-1.43","1695","2","""event"",""trial"",""time""
""blur"",""1"",""3152""
""focus"",""1"",""3652""
""fullscreenenter"",""1"",""3695""
""blur"",""3"",""9890""
""focus"",""3"",""10306""
","""event"",""trial"",""time""
""blur"",""1"",""3152""
""blur"",""3"",""9890""
","""event"",""trial"",""time""
""focus"",""1"",""3652""
""focus"",""3"",""10306""
","""event"",""trial"",""time""
""fullscreenenter"",""1"",""3695""
","
","","","","","","2420.300000011921","images/rabbit1.png","","","memory_trial","2","maybe_old","","","","","","",""
"html-keyboard-response","130","519631","0.0-15.0-0.44","1695","2","""event"",""trial"",""time""
""blur"",""1"",""3152""
""focus"",""1"",""3652""
""fullscreenenter"",""1"",""3695""
""blur"",""3"",""9890""
""focus"",""3"",""10306""
","""event"",""trial"",""time""
""blur"",""1"",""3152""
""blur"",""3"",""9890""
","""event"",""trial"",""time""
""focus"",""1"",""3652""
""focus"",""3"",""10306""
","""event"",""trial"",""time""
""fullscreenenter"",""1"",""3695""
","
","","","","","","null","<div style=""font-size:60px;"">+</div>","null","","fixation","","","","","","","","",""
"memory-trial","131","522853","0.0-15.0-1.44","1695","2","""event"",""trial"",""time""
""blur"",""1"",""3152""
""focus"",""1"",""3652""
""fullscreenenter"",""1"",""3695""
""blur"",""3"",""9890""
""focus"",""3"",""10306""
","""event"",""trial"",""time""
""blur"",""1"",""3152""
""blur"",""3"",""9890""
","""event"",""trial"",""time""
""focus"",""1"",""3652""
""focus"",""3"",""10306""
","""event"",""trial"",""time""
""fullscreenenter"",""1"",""3695""
","
","","","","","","2215.4000000059605","images/tree1.png","","","memory_trial","2","maybe_old","","","","","","",""
"html-keyboard-response","132","523356","0.0-15.0-0.45","1695","2","""event"",""trial"",""time""
""blur"",""1"",""3152""
""focus"",""1"",""3652""
""fullscreenenter"",""1"",""3695""
""blur"",""3"",""9890""
""focus"",""3"",""10306""
","""event"",""trial"",""time""
""blur"",""1"",""3152""
""blur"",""3"",""9890""
","""event"",""trial"",""time""
""focus"",""1"",""3652""
""focus"",""3"",""10306""
","""event"",""trial"",""time""
""fullscreenenter"",""1"",""3695""
","
","","","","","","null","<div style=""font-size:60px;"">+</div>","null","","fixation","","","","","","","","",""
"memory-trial","133","526932","0.0-15.0-1.45","1695","2","""event"",""trial"",""time""
""blur"",""1"",""3152""
""focus"",""1"",""3652""
""fullscreenenter"",""1"",""3695""
""blur"",""3"",""9890""
""focus"",""3"",""10306""
","""event"",""trial"",""time""
""blur"",""1"",""3152""
""blur"",""3"",""9890""
","""event"",""trial"",""time""
""focus"",""1"",""3652""
""focus"",""3"",""10306""
","""event"",""trial"",""time""
""fullscreenenter"",""1"",""3695""
","
","","","","","","2570.5","images/orange5.png","","","memory_trial","3","maybe_new","","","","","","",""
"html-keyboard-response","134","527434","0.0-15.0-0.46","1695","2","""event"",""trial"",""time""
""blur"",""1"",""3152""
""focus"",""1"",""3652""
""fullscreenenter"",""1"",""3695""
""blur"",""3"",""9890""
""focus"",""3"",""10306""
","""event"",""trial"",""time""
""blur"",""1"",""3152""
""blur"",""3"",""9890""
","""event"",""trial"",""time""
""focus"",""1"",""3652""
""focus"",""3"",""10306""
","""event"",""trial"",""time""
""fullscreenenter"",""1"",""3695""
","
","","","","","","null","<div style=""font-size:60px;"">+</div>","null","","fixation","","","","","","","","",""
"memory-trial","135","532887","0.0-15.0-1.46","1695","2","""event"",""trial"",""time""
""blur"",""1"",""3152""
""focus"",""1"",""3652""
""fullscreenenter"",""1"",""3695""
""blur"",""3"",""9890""
""focus"",""3"",""10306""
","""event"",""trial"",""time""
""blur"",""1"",""3152""
""blur"",""3"",""9890""
","""event"",""trial"",""time""
""focus"",""1"",""3652""
""focus"",""3"",""10306""
","""event"",""trial"",""time""
""fullscreenenter"",""1"",""3695""
","
","","","","","","4447.70000000298","images/table1.png","","","memory_trial","3","maybe_new","","","","","","",""
"html-button-response","136","534869","0.0-15.0-2.46-0.46","1695","2","""event"",""trial"",""time""
""blur"",""1"",""3152""
""focus"",""1"",""3652""
""fullscreenenter"",""1"",""3695""
""blur"",""3"",""9890""
""focus"",""3"",""10306""
","""event"",""trial"",""time""
""blur"",""1"",""3152""
""blur"",""3"",""9890""
","""event"",""trial"",""time""
""focus"",""1"",""3652""
""focus"",""3"",""10306""
","""event"",""trial"",""time""
""fullscreenenter"",""1"",""3695""
","
","","","","","","1981.2000000029802","<p> Take a break! </p><p> Click the button to continue. </p>","0","","break","","","","","","","","",""
"html-keyboard-response","137","535370","0.0-15.0-0.47","1695","2","""event"",""trial"",""time""
""blur"",""1"",""3152""
""focus"",""1"",""3652""
""fullscreenenter"",""1"",""3695""
""blur"",""3"",""9890""
""focus"",""3"",""10306""
","""event"",""trial"",""time""
""blur"",""1"",""3152""
""blur"",""3"",""9890""
","""event"",""trial"",""time""
""focus"",""1"",""3652""
""focus"",""3"",""10306""
","""event"",""trial"",""time""
""fullscreenenter"",""1"",""3695""
","
","","","","","","null","<div style=""font-size:60px;"">+</div>","null","","fixation","","","","","","","","",""
"memory-trial","138","538123","0.0-15.0-1.47","1695","2","""event"",""trial"",""time""
""blur"",""1"",""3152""
""focus"",""1"",""3652""
""fullscreenenter"",""1"",""3695""
""blur"",""3"",""9890""
""focus"",""3"",""10306""
","""event"",""trial"",""time""
""blur"",""1"",""3152""
""blur"",""3"",""9890""
","""event"",""trial"",""time""
""focus"",""1"",""3652""
""focus"",""3"",""10306""
","""event"",""trial"",""time""
""fullscreenenter"",""1"",""3695""
","
","","","","","","1749.1000000089407","images/goat1.png","","","memory_trial","3","maybe_new","","","","","","",""
"html-keyboard-response","139","538626","0.0-15.0-0.48","1695","2","""event"",""trial"",""time""
""blur"",""1"",""3152""
""focus"",""1"",""3652""
""fullscreenenter"",""1"",""3695""
""blur"",""3"",""9890""
""focus"",""3"",""10306""
","""event"",""trial"",""time""
""blur"",""1"",""3152""
""blur"",""3"",""9890""
","""event"",""trial"",""time""
""focus"",""1"",""3652""
""focus"",""3"",""10306""
","""event"",""trial"",""time""
""fullscreenenter"",""1"",""3695""
","
","","","","","","null","<div style=""font-size:60px;"">+</div>","null","","fixation","","","","","","","","",""
"memory-trial","140","541154","0.0-15.0-1.48","1695","2","""event"",""trial"",""time""
""blur"",""1"",""3152""
""focus"",""1"",""3652""
""fullscreenenter"",""1"",""3695""
""blur"",""3"",""9890""
""focus"",""3"",""10306""
","""event"",""trial"",""time""
""blur"",""1"",""3152""
""blur"",""3"",""9890""
","""event"",""trial"",""time""
""focus"",""1"",""3652""
""focus"",""3"",""10306""
","""event"",""trial"",""time""
""fullscreenenter"",""1"",""3695""
","
","","","","","","1523.5","images/boat3.png","","","memory_trial","3","maybe_new","","","","","","",""
"html-keyboard-response","141","541658","0.0-15.0-0.49","1695","2","""event"",""trial"",""time""
""blur"",""1"",""3152""
""focus"",""1"",""3652""
""fullscreenenter"",""1"",""3695""
""blur"",""3"",""9890""
""focus"",""3"",""10306""
","""event"",""trial"",""time""
""blur"",""1"",""3152""
""blur"",""3"",""9890""
","""event"",""trial"",""time""
""focus"",""1"",""3652""
""focus"",""3"",""10306""
","""event"",""trial"",""time""
""fullscreenenter"",""1"",""3695""
","
","","","","","","null","<div style=""font-size:60px;"">+</div>","null","","fixation","","","","","","","","",""
"memory-trial","142","544611","0.0-15.0-1.49","1695","2","""event"",""trial"",""time""
""blur"",""1"",""3152""
""focus"",""1"",""3652""
""fullscreenenter"",""1"",""3695""
""blur"",""3"",""9890""
""focus"",""3"",""10306""
","""event"",""trial"",""time""
""blur"",""1"",""3152""
""blur"",""3"",""9890""
","""event"",""trial"",""time""
""focus"",""1"",""3652""
""focus"",""3"",""10306""
","""event"",""trial"",""time""
""fullscreenenter"",""1"",""3695""
","
","","","","","","1949.5999999940395","images/train1.png","","","memory_trial","1","definitely_old","","","","","","",""
"html-keyboard-response","143","545113","0.0-15.0-0.50","1695","2","""event"",""trial"",""time""
""blur"",""1"",""3152""
""focus"",""1"",""3652""
""fullscreenenter"",""1"",""3695""
""blur"",""3"",""9890""
""focus"",""3"",""10306""
","""event"",""trial"",""time""
""blur"",""1"",""3152""
""blur"",""3"",""9890""
","""event"",""trial"",""time""
""focus"",""1"",""3652""
""focus"",""3"",""10306""
","""event"",""trial"",""time""
""fullscreenenter"",""1"",""3695""
","
","","","","","","null","<div style=""font-size:60px;"">+</div>","null","","fixation","","","","","","","","",""
"memory-trial","144","548066","0.0-15.0-1.50","1695","2","""event"",""trial"",""time""
""blur"",""1"",""3152""
""focus"",""1"",""3652""
""fullscreenenter"",""1"",""3695""
""blur"",""3"",""9890""
""focus"",""3"",""10306""
","""event"",""trial"",""time""
""blur"",""1"",""3152""
""blur"",""3"",""9890""
","""event"",""trial"",""time""
""focus"",""1"",""3652""
""focus"",""3"",""10306""
","""event"",""trial"",""time""
""fullscreenenter"",""1"",""3695""
","
","","","","","","1946.5","images/apple1.png","","","memory_trial","4","definitely_new","","","","","","",""
"html-keyboard-response","145","548568","0.0-15.0-0.51","1695","2","""event"",""trial"",""time""
""blur"",""1"",""3152""
""focus"",""1"",""3652""
""fullscreenenter"",""1"",""3695""
""blur"",""3"",""9890""
""focus"",""3"",""10306""
","""event"",""trial"",""time""
""blur"",""1"",""3152""
""blur"",""3"",""9890""
","""event"",""trial"",""time""
""focus"",""1"",""3652""
""focus"",""3"",""10306""
","""event"",""trial"",""time""
""fullscreenenter"",""1"",""3695""
","
","","","","","","null","<div style=""font-size:60px;"">+</div>","null","","fixation","","","","","","","","",""
"memory-trial","146","551697","0.0-15.0-1.51","1695","2","""event"",""trial"",""time""
""blur"",""1"",""3152""
""focus"",""1"",""3652""
""fullscreenenter"",""1"",""3695""
""blur"",""3"",""9890""
""focus"",""3"",""10306""
","""event"",""trial"",""time""
""blur"",""1"",""3152""
""blur"",""3"",""9890""
","""event"",""trial"",""time""
""focus"",""1"",""3652""
""focus"",""3"",""10306""
","""event"",""trial"",""time""
""fullscreenenter"",""1"",""3695""
","
","","","","","","2124.8999999910593","images/goat5.png","","","memory_trial","3","maybe_new","","","","","","",""
"html-keyboard-response","147","552200","0.0-15.0-0.52","1695","2","""event"",""trial"",""time""
""blur"",""1"",""3152""
""focus"",""1"",""3652""
""fullscreenenter"",""1"",""3695""
""blur"",""3"",""9890""
""focus"",""3"",""10306""
","""event"",""trial"",""time""
""blur"",""1"",""3152""
""blur"",""3"",""9890""
","""event"",""trial"",""time""
""focus"",""1"",""3652""
""focus"",""3"",""10306""
","""event"",""trial"",""time""
""fullscreenenter"",""1"",""3695""
","
","","","","","","null","<div style=""font-size:60px;"">+</div>","null","","fixation","","","","","","","","",""
"memory-trial","148","555998","0.0-15.0-1.52","1695","2","""event"",""trial"",""time""
""blur"",""1"",""3152""
""focus"",""1"",""3652""
""fullscreenenter"",""1"",""3695""
""blur"",""3"",""9890""
""focus"",""3"",""10306""
","""event"",""trial"",""time""
""blur"",""1"",""3152""
""blur"",""3"",""9890""
","""event"",""trial"",""time""
""focus"",""1"",""3652""
""focus"",""3"",""10306""
","""event"",""trial"",""time""
""fullscreenenter"",""1"",""3695""
","
","","","","","","2790.7999999970198","images/plane5.png","","","memory_trial","2","maybe_old","","","","","","",""
"html-keyboard-response","149","556500","0.0-15.0-0.53","1695","2","""event"",""trial"",""time""
""blur"",""1"",""3152""
""focus"",""1"",""3652""
""fullscreenenter"",""1"",""3695""
""blur"",""3"",""9890""
""focus"",""3"",""10306""
","""event"",""trial"",""time""
""blur"",""1"",""3152""
""blur"",""3"",""9890""
","""event"",""trial"",""time""
""focus"",""1"",""3652""
""focus"",""3"",""10306""
","""event"",""trial"",""time""
""fullscreenenter"",""1"",""3695""
","
","","","","","","null","<div style=""font-size:60px;"">+</div>","null","","fixation","","","","","","","","",""
"memory-trial","150","561460","0.0-15.0-1.53","1695","2","""event"",""trial"",""time""
""blur"",""1"",""3152""
""focus"",""1"",""3652""
""fullscreenenter"",""1"",""3695""
""blur"",""3"",""9890""
""focus"",""3"",""10306""
","""event"",""trial"",""time""
""blur"",""1"",""3152""
""blur"",""3"",""9890""
","""event"",""trial"",""time""
""focus"",""1"",""3652""
""focus"",""3"",""10306""
","""event"",""trial"",""time""
""fullscreenenter"",""1"",""3695""
","
","","","","","","3954.8999999910593","images/horse5.png","","","memory_trial","4","definitely_new","","","","","","",""
"html-keyboard-response","151","561962","0.0-15.0-0.54","1695","2","""event"",""trial"",""time""
""blur"",""1"",""3152""
""focus"",""1"",""3652""
""fullscreenenter"",""1"",""3695""
""blur"",""3"",""9890""
""focus"",""3"",""10306""
","""event"",""trial"",""time""
""blur"",""1"",""3152""
""blur"",""3"",""9890""
","""event"",""trial"",""time""
""focus"",""1"",""3652""
""focus"",""3"",""10306""
","""event"",""trial"",""time""
""fullscreenenter"",""1"",""3695""
","
","","","","","","null","<div style=""font-size:60px;"">+</div>","null","","fixation","","","","","","","","",""
"memory-trial","152","567010","0.0-15.0-1.54","1695","2","""event"",""trial"",""time""
""blur"",""1"",""3152""
""focus"",""1"",""3652""
""fullscreenenter"",""1"",""3695""
""blur"",""3"",""9890""
""focus"",""3"",""10306""
","""event"",""trial"",""time""
""blur"",""1"",""3152""
""blur"",""3"",""9890""
","""event"",""trial"",""time""
""focus"",""1"",""3652""
""focus"",""3"",""10306""
","""event"",""trial"",""time""
""fullscreenenter"",""1"",""3695""
","
","","","","","","4042.5999999940395","images/goat4.png","","","memory_trial","4","definitely_new","","","","","","",""
"html-keyboard-response","153","567513","0.0-15.0-0.55","1695","2","""event"",""trial"",""time""
""blur"",""1"",""3152""
""focus"",""1"",""3652""
""fullscreenenter"",""1"",""3695""
""blur"",""3"",""9890""
""focus"",""3"",""10306""
","""event"",""trial"",""time""
""blur"",""1"",""3152""
""blur"",""3"",""9890""
","""event"",""trial"",""time""
""focus"",""1"",""3652""
""focus"",""3"",""10306""
","""event"",""trial"",""time""
""fullscreenenter"",""1"",""3695""
","
","","","","","","null","<div style=""font-size:60px;"">+</div>","null","","fixation","","","","","","","","",""
"memory-trial","154","572719","0.0-15.0-1.55","1695","2","""event"",""trial"",""time""
""blur"",""1"",""3152""
""focus"",""1"",""3652""
""fullscreenenter"",""1"",""3695""
""blur"",""3"",""9890""
""focus"",""3"",""10306""
","""event"",""trial"",""time""
""blur"",""1"",""3152""
""blur"",""3"",""9890""
","""event"",""trial"",""time""
""focus"",""1"",""3652""
""focus"",""3"",""10306""
","""event"",""trial"",""time""
""fullscreenenter"",""1"",""3695""
","
","","","","","","4200.600000008941","images/dog3.png","","","memory_trial","2","maybe_old","","","","","","",""
"html-keyboard-response","155","573221","0.0-15.0-0.56","1695","2","""event"",""trial"",""time""
""blur"",""1"",""3152""
""focus"",""1"",""3652""
""fullscreenenter"",""1"",""3695""
""blur"",""3"",""9890""
""focus"",""3"",""10306""
","""event"",""trial"",""time""
""blur"",""1"",""3152""
""blur"",""3"",""9890""
","""event"",""trial"",""time""
""focus"",""1"",""3652""
""focus"",""3"",""10306""
","""event"",""trial"",""time""
""fullscreenenter"",""1"",""3695""
","
","","","","","","null","<div style=""font-size:60px;"">+</div>","null","","fixation","","","","","","","","",""
"memory-trial","156","575670","0.0-15.0-1.56","1695","2","""event"",""trial"",""time""
""blur"",""1"",""3152""
""focus"",""1"",""3652""
""fullscreenenter"",""1"",""3695""
""blur"",""3"",""9890""
""focus"",""3"",""10306""
","""event"",""trial"",""time""
""blur"",""1"",""3152""
""blur"",""3"",""9890""
","""event"",""trial"",""time""
""focus"",""1"",""3652""
""focus"",""3"",""10306""
","""event"",""trial"",""time""
""fullscreenenter"",""1"",""3695""
","
","","","","","","1442.5999999940395","images/straw3.png","","","memory_trial","2","maybe_old","","","","","","",""
"html-keyboard-response","157","576172","0.0-15.0-0.57","1695","2","""event"",""trial"",""time""
""blur"",""1"",""3152""
""focus"",""1"",""3652""
""fullscreenenter"",""1"",""3695""
""blur"",""3"",""9890""
""focus"",""3"",""10306""
","""event"",""trial"",""time""
""blur"",""1"",""3152""
""blur"",""3"",""9890""
","""event"",""trial"",""time""
""focus"",""1"",""3652""
""focus"",""3"",""10306""
","""event"",""trial"",""time""
""fullscreenenter"",""1"",""3695""
","
","","","","","","null","<div style=""font-size:60px;"">+</div>","null","","fixation","","","","","","","","",""
"memory-trial","158","580488","0.0-15.0-1.57","1695","2","""event"",""trial"",""time""
""blur"",""1"",""3152""
""focus"",""1"",""3652""
""fullscreenenter"",""1"",""3695""
""blur"",""3"",""9890""
""focus"",""3"",""10306""
","""event"",""trial"",""time""
""blur"",""1"",""3152""
""blur"",""3"",""9890""
","""event"",""trial"",""time""
""focus"",""1"",""3652""
""focus"",""3"",""10306""
","""event"",""trial"",""time""
""fullscreenenter"",""1"",""3695""
","
","","","","","","3311.7999999970198","images/dog5.png","","","memory_trial","4","definitely_new","","","","","","",""
"html-keyboard-response","159","580991","0.0-15.0-0.58","1695","2","""event"",""trial"",""time""
""blur"",""1"",""3152""
""focus"",""1"",""3652""
""fullscreenenter"",""1"",""3695""
""blur"",""3"",""9890""
""focus"",""3"",""10306""
","""event"",""trial"",""time""
""blur"",""1"",""3152""
""blur"",""3"",""9890""
","""event"",""trial"",""time""
""focus"",""1"",""3652""
""focus"",""3"",""10306""
","""event"",""trial"",""time""
""fullscreenenter"",""1"",""3695""
","
","","","","","","null","<div style=""font-size:60px;"">+</div>","null","","fixation","","","","","","","","",""
"memory-trial","160","584146","0.0-15.0-1.58","1695","2","""event"",""trial"",""time""
""blur"",""1"",""3152""
""focus"",""1"",""3652""
""fullscreenenter"",""1"",""3695""
""blur"",""3"",""9890""
""focus"",""3"",""10306""
","""event"",""trial"",""time""
""blur"",""1"",""3152""
""blur"",""3"",""9890""
","""event"",""trial"",""time""
""focus"",""1"",""3652""
""focus"",""3"",""10306""
","""event"",""trial"",""time""
""fullscreenenter"",""1"",""3695""
","
","","","","","","2138.5999999940395","images/rodent4.png","","","memory_trial","2","maybe_old","","","","","","",""
"html-keyboard-response","161","584648","0.0-15.0-0.59","1695","2","""event"",""trial"",""time""
""blur"",""1"",""3152""
""focus"",""1"",""3652""
""fullscreenenter"",""1"",""3695""
""blur"",""3"",""9890""
""focus"",""3"",""10306""
","""event"",""trial"",""time""
""blur"",""1"",""3152""
""blur"",""3"",""9890""
","""event"",""trial"",""time""
""focus"",""1"",""3652""
""focus"",""3"",""10306""
","""event"",""trial"",""time""
""fullscreenenter"",""1"",""3695""
","
","","","","","","null","<div style=""font-size:60px;"">+</div>","null","","fixation","","","","","","","","",""
"memory-trial","162","589148","0.0-15.0-1.59","1695","2","""event"",""trial"",""time""
""blur"",""1"",""3152""
""focus"",""1"",""3652""
""fullscreenenter"",""1"",""3695""
""blur"",""3"",""9890""
""focus"",""3"",""10306""
","""event"",""trial"",""time""
""blur"",""1"",""3152""
""blur"",""3"",""9890""
","""event"",""trial"",""time""
""focus"",""1"",""3652""
""focus"",""3"",""10306""
","""event"",""trial"",""time""
""fullscreenenter"",""1"",""3695""
","
","","","","","","3494.8999999910593","images/train4.png","","","memory_trial","4","definitely_new","","","","","","",""
"html-keyboard-response","163","589650","0.0-15.0-0.60","1695","2","""event"",""trial"",""time""
""blur"",""1"",""3152""
""focus"",""1"",""3652""
""fullscreenenter"",""1"",""3695""
""blur"",""3"",""9890""
""focus"",""3"",""10306""
","""event"",""trial"",""time""
""blur"",""1"",""3152""
""blur"",""3"",""9890""
","""event"",""trial"",""time""
""focus"",""1"",""3652""
""focus"",""3"",""10306""
","""event"",""trial"",""time""
""fullscreenenter"",""1"",""3695""
","
","","","","","","null","<div style=""font-size:60px;"">+</div>","null","","fixation","","","","","","","","",""
"memory-trial","164","593213","0.0-15.0-1.60","1695","2","""event"",""trial"",""time""
""blur"",""1"",""3152""
""focus"",""1"",""3652""
""fullscreenenter"",""1"",""3695""
""blur"",""3"",""9890""
""focus"",""3"",""10306""
","""event"",""trial"",""time""
""blur"",""1"",""3152""
""blur"",""3"",""9890""
","""event"",""trial"",""time""
""focus"",""1"",""3652""
""focus"",""3"",""10306""
","""event"",""trial"",""time""
""fullscreenenter"",""1"",""3695""
","
","","","","","","2558.5999999940395","images/cow2.png","","","memory_trial","2","maybe_old","","","","","","",""
"html-keyboard-response","165","593716","0.0-15.0-0.61","1695","2","""event"",""trial"",""time""
""blur"",""1"",""3152""
""focus"",""1"",""3652""
""fullscreenenter"",""1"",""3695""
""blur"",""3"",""9890""
""focus"",""3"",""10306""
