"trial_type","trial_index","time_elapsed","internal_node_id","subject_id","task_version","interactions","blur_events","focus_events","fullscreenenter_events","fullscreenexit_events","success","timeout","failed_images","failed_audio","failed_video","rt","stimulus","response","button_pressed","task_part","key_press","answer","correct","left_choice","middle_choice","right_choice","choice_positions","option_selected","block"
"pavlovia","0","6","0.0-0.0","1928","2","""event"",""trial"",""time""
""fullscreenenter"",""1"",""4001""
","
","
","""event"",""trial"",""time""
""fullscreenenter"",""1"",""4001""
","
","","","","","","","","","","","","","","","","","","",""
"fullscreen","1","4976","0.0-1.0","1928","2","""event"",""trial"",""time""
""fullscreenenter"",""1"",""4001""
","
","
","""event"",""trial"",""time""
""fullscreenenter"",""1"",""4001""
","
","true","","","","","","","","","","","","","","","","","",""
"preload","2","6154","0.0-2.0","1928","2","""event"",""trial"",""time""
""fullscreenenter"",""1"",""4001""
","
","
","""event"",""trial"",""time""
""fullscreenenter"",""1"",""4001""
","
","true","false","[]","[]","[]","","","","","","","","","","","","","",""
"audio-keyboard-response","3","9756","0.0-3.0","1928","2","""event"",""trial"",""time""
""fullscreenenter"",""1"",""4001""
","
","
","""event"",""trial"",""time""
""fullscreenenter"",""1"",""4001""
","
","","","","","","3599.9999999999995","audio/beep_loop.wav","audiovolumedown","","","","","","","","","","",""
"audio-button-response","4","12927","0.0-4.0","1928","2","""event"",""trial"",""time""
""fullscreenenter"",""1"",""4001""
","
","
","""event"",""trial"",""time""
""fullscreenenter"",""1"",""4001""
","
","","","","","","3171","audio/turtle.wav","3","","","","","","","","","","",""
"audio-button-response","5","16211","0.0-5.0","1928","2","""event"",""trial"",""time""
""fullscreenenter"",""1"",""4001""
","
","
","""event"",""trial"",""time""
""fullscreenenter"",""1"",""4001""
","
","","","","","","2291","audio/shark.wav","2","","","","","","","","","","",""
"preload","6","26095","0.0-6.0","1928","2","""event"",""trial"",""time""
""fullscreenenter"",""1"",""4001""
","
","
","""event"",""trial"",""time""
""fullscreenenter"",""1"",""4001""
","
","true","false","[]","[]","[]","","","","","","","","","","","","","",""
"learning-instructions","7","34807","0.0-7.0-0.0","1928","2","""event"",""trial"",""time""
""fullscreenenter"",""1"",""4001""
","
","
","""event"",""trial"",""time""
""fullscreenenter"",""1"",""4001""
","
","","","","","","3904.1999999284744","<p> Welcome back! </p><p> Last week, you had to make choices about lots of different items.  </p>","","0","instructions","","","","","","","","",""
"learning-instructions","8","40792","0.0-7.0-0.1","1928","2","""event"",""trial"",""time""
""fullscreenenter"",""1"",""4001""
","
","
","""event"",""trial"",""time""
""fullscreenenter"",""1"",""4001""
","
","","","","","","1670.1000000238419","<p> Today, we are going to ask you to try to remember all the items. </p>","","0","instructions","","","","","","","","",""
"learning-instructions","9","52146","0.0-7.0-0.2","1928","2","""event"",""trial"",""time""
""fullscreenenter"",""1"",""4001""
","
","
","""event"",""trial"",""time""
""fullscreenenter"",""1"",""4001""
","
","","","","","","1214.6000000238419","<p> On every trial, you will see an image. </p><p> The image may be an OLD image you saw during the games last week or it may be a NEW image that was not presented. </p>","","0","instructions","","","","","","","","",""
"learning-instructions","10","61543","0.0-7.0-0.3","1928","2","""event"",""trial"",""time""
""fullscreenenter"",""1"",""4001""
","
","
","""event"",""trial"",""time""
""fullscreenenter"",""1"",""4001""
","
","","","","","","889.6999999284744","<p> You need to select whether the image is:  </p><p>  'Definitely old', 'Maybe old', 'Maybe new', or 'Definitely new.'  </p><div class=""mem-choice-instructions-grid""><div class=""choice-option"" id=""choice-option-1"" ><img src=""images/definitely_old_1.png"" id=""choice-option-img-1"" class=""choice-option-img"" stage=""1""></div><div class=""choice-option"" id=""choice-option-2"" ><img src=""images/maybe_old_1.png"" id=""choice-option-img-2"" class=""choice-option-img"" stage=""1""></div><div class=""choice-option"" id=""choice-option-3"" ><img src=""images/maybe_new_1.png"" id=""choice-option-img-3"" class=""choice-option-img"" stage=""1""></div><div class=""choice-option"" id=""choice-option-4"" > <img src=""images/definitely_new_1.png"" id=""choice-option-img-4"" class=""choice-option-img"" stage=""1""></div></div>","","0","instructions","","","","","","","","",""
"learning-instructions","11","70247","0.0-7.0-0.4","1928","2","""event"",""trial"",""time""
""fullscreenenter"",""1"",""4001""
","
","
","""event"",""trial"",""time""
""fullscreenenter"",""1"",""4001""
","
","","","","","","2003.8000000715256","<p> You should use the 1, 2, 3, and 4 keys to make your responses.  </p><div class=""mem-choice-instructions-grid""><div class=""choice-option"" id=""choice-option-1"" ><img src=""images/definitely_old.png"" id=""choice-option-img-1"" class=""choice-option-img"" stage=""1""></div><div class=""choice-option"" id=""choice-option-2"" ><img src=""images/maybe_old.png"" id=""choice-option-img-2"" class=""choice-option-img"" stage=""1""></div><div class=""choice-option"" id=""choice-option-3"" ><img src=""images/maybe_new.png"" id=""choice-option-img-3"" class=""choice-option-img"" stage=""1""></div><div class=""choice-option"" id=""choice-option-4"" > <img src=""images/definitely_new.png"" id=""choice-option-img-4"" class=""choice-option-img"" stage=""1""></div></div>","","0","instructions","","","","","","","","",""
"learning-instructions","12","78424","0.0-7.0-0.5","1928","2","""event"",""trial"",""time""
""fullscreenenter"",""1"",""4001""
","
","
","""event"",""trial"",""time""
""fullscreenenter"",""1"",""4001""
","
","","","","","","1411.6000000238419","<p> You will have 10 seconds to make each response.  </p><p>  Make sure to respond before time runs out! </p>","","0","instructions","","","","","","","","",""
"learning-instructions","13","86950","0.0-7.0-0.6","1928","2","""event"",""trial"",""time""
""fullscreenenter"",""1"",""4001""
","
","
","""event"",""trial"",""time""
""fullscreenenter"",""1"",""4001""
","
","","","","","","938.1999999284744","<p> Today, you will see each image ONCE only.  </p><p>  That means none of the images will repeat. </p>","","0","instructions","","","","","","","","",""
"learning-instructions","14","101273","0.0-7.0-0.7","1928","2","""event"",""trial"",""time""
""fullscreenenter"",""1"",""4001""
","
","
","""event"",""trial"",""time""
""fullscreenenter"",""1"",""4001""
","
","","","","","","1640.6000000238419","<p> Before you play the real game, it is time to practice. </p><p>  Just like in the real game, some of the images in the practice will be ones you have seen before. </p><p>  Others will be entirely new. </p>","","0","instructions","","","","","","","","",""
"html-button-response","15","103932","0.0-8.0","1928","2","""event"",""trial"",""time""
""fullscreenenter"",""1"",""4001""
","
","
","""event"",""trial"",""time""
""fullscreenenter"",""1"",""4001""
","
","","","","","","2549.100000023842","<p> Ready to practice? </p><p> Remember, use the 1, 2, 3, and 4 keys to make your responses. </p>","0","","instructions","","","","","","","","",""
"html-keyboard-response","16","104537","0.0-9.0-0.0","1928","2","""event"",""trial"",""time""
""fullscreenenter"",""1"",""4001""
","
","
","""event"",""trial"",""time""
""fullscreenenter"",""1"",""4001""
","
","","","","","","null","<div style=""font-size:60px;"">+</div>","null","","fixation","","","","","","","","",""
"memory-trial","17","108790","0.0-9.0-1.0","1928","2","""event"",""trial"",""time""
""fullscreenenter"",""1"",""4001""
","
","
","""event"",""trial"",""time""
""fullscreenenter"",""1"",""4001""
","
","","","","","","3237.600000023842","images/ball4.png","","","practice","1","definitely_old","","","","","","",""
"html-keyboard-response","18","109300","0.0-9.0-0.1","1928","2","""event"",""trial"",""time""
""fullscreenenter"",""1"",""4001""
","
","
","""event"",""trial"",""time""
""fullscreenenter"",""1"",""4001""
","
","","","","","","null","<div style=""font-size:60px;"">+</div>","null","","fixation","","","","","","","","",""
"memory-trial","19","113863","0.0-9.0-1.1","1928","2","""event"",""trial"",""time""
""fullscreenenter"",""1"",""4001""
","
","
","""event"",""trial"",""time""
""fullscreenenter"",""1"",""4001""
","
","","","","","","3553.6999999284744","images/racket2.png","","","practice","4","definitely_new","","","","","","",""
"html-keyboard-response","20","114376","0.0-9.0-0.2","1928","2","""event"",""trial"",""time""
""fullscreenenter"",""1"",""4001""
","
","
","""event"",""trial"",""time""
""fullscreenenter"",""1"",""4001""
","
","","","","","","null","<div style=""font-size:60px;"">+</div>","null","","fixation","","","","","","","","",""
"memory-trial","21","119330","0.0-9.0-1.2","1928","2","""event"",""trial"",""time""
""fullscreenenter"",""1"",""4001""
","
","
","""event"",""trial"",""time""
""fullscreenenter"",""1"",""4001""
","
","","","","","","3938.2000000476837","images/racket1.png","","","practice","2","maybe_old","","","","","","",""
"html-keyboard-response","22","119843","0.0-9.0-0.3","1928","2","""event"",""trial"",""time""
""fullscreenenter"",""1"",""4001""
","
","
","""event"",""trial"",""time""
""fullscreenenter"",""1"",""4001""
","
","","","","","","null","<div style=""font-size:60px;"">+</div>","null","","fixation","","","","","","","","",""
"memory-trial","23","124344","0.0-9.0-1.3","1928","2","""event"",""trial"",""time""
""fullscreenenter"",""1"",""4001""
","
","
","""event"",""trial"",""time""
""fullscreenenter"",""1"",""4001""
","
","","","","","","3490.2999999523163","images/ball3.png","","","practice","1","definitely_old","","","","","","",""
"html-keyboard-response","24","124857","0.0-9.0-0.4","1928","2","""event"",""trial"",""time""
""fullscreenenter"",""1"",""4001""
","
","
","""event"",""trial"",""time""
""fullscreenenter"",""1"",""4001""
","
","","","","","","null","<div style=""font-size:60px;"">+</div>","null","","fixation","","","","","","","","",""
"memory-trial","25","127318","0.0-9.0-1.4","1928","2","""event"",""trial"",""time""
""fullscreenenter"",""1"",""4001""
","
","
","""event"",""trial"",""time""
""fullscreenenter"",""1"",""4001""
","
","","","","","","1456.1999999284744","images/ball1.png","","","practice","1","definitely_old","","","","","","",""
"html-keyboard-response","26","127829","0.0-9.0-0.5","1928","2","""event"",""trial"",""time""
""fullscreenenter"",""1"",""4001""
","
","
","""event"",""trial"",""time""
""fullscreenenter"",""1"",""4001""
","
","","","","","","null","<div style=""font-size:60px;"">+</div>","null","","fixation","","","","","","","","",""
"memory-trial","27","130137","0.0-9.0-1.5","1928","2","""event"",""trial"",""time""
""fullscreenenter"",""1"",""4001""
","
","
","""event"",""trial"",""time""
""fullscreenenter"",""1"",""4001""
","
","","","","","","1305.2999999523163","images/ball2.png","","","practice","1","definitely_old","","","","","","",""
"html-keyboard-response","28","130640","0.0-9.0-0.6","1928","2","""event"",""trial"",""time""
""fullscreenenter"",""1"",""4001""
","
","
","""event"",""trial"",""time""
""fullscreenenter"",""1"",""4001""
","
","","","","","","null","<div style=""font-size:60px;"">+</div>","null","","fixation","","","","","","","","",""
"memory-trial","29","133598","0.0-9.0-1.6","1928","2","""event"",""trial"",""time""
""fullscreenenter"",""1"",""4001""
","
","
","""event"",""trial"",""time""
""fullscreenenter"",""1"",""4001""
","
","","","","","","1954.4000000953674","images/racket4.png","","","practice","4","definitely_new","","","","","","",""
"html-keyboard-response","30","134100","0.0-9.0-0.7","1928","2","""event"",""trial"",""time""
""fullscreenenter"",""1"",""4001""
","
","
","""event"",""trial"",""time""
""fullscreenenter"",""1"",""4001""
","
","","","","","","null","<div style=""font-size:60px;"">+</div>","null","","fixation","","","","","","","","",""
"memory-trial","31","136617","0.0-9.0-1.7","1928","2","""event"",""trial"",""time""
""fullscreenenter"",""1"",""4001""
","
","
","""event"",""trial"",""time""
""fullscreenenter"",""1"",""4001""
","
","","","","","","1512.7000000476837","images/racket3.png","","","practice","4","definitely_new","","","","","","",""
"learning-instructions","32","146130","0.0-10.0-0.0","1928","2","""event"",""trial"",""time""
""fullscreenenter"",""1"",""4001""
","
","
","""event"",""trial"",""time""
""fullscreenenter"",""1"",""4001""
","
","","","","","","1355.6000000238419","<p> Great! You have completed the practice. </p><p> Before you start, we're going to ask you a few questions about how the game works.  </p>","","0","instructions","","","","","","","","",""
"preload","33","150867","0.0-11.0","1928","2","""event"",""trial"",""time""
""fullscreenenter"",""1"",""4001""
","
","
","""event"",""trial"",""time""
""fullscreenenter"",""1"",""4001""
","
","true","false","[]","[]","[]","","","","","","","","","","","","","",""
"comp-q","34","158933","0.0-12.0-0.0","1928","2","""event"",""trial"",""time""
""fullscreenenter"",""1"",""4001""
","
","
","""event"",""trial"",""time""
""fullscreenenter"",""1"",""4001""
","
","","","","","","2237.100000023842","<p> <b> True or False? </b> </p><p> In this game, you will only see each image once. </p>","","0","comp_question","","","true","","","","","",""
"comp-q","35","166749","0.0-12.0-1.0","1928","2","""event"",""trial"",""time""
""fullscreenenter"",""1"",""4001""
","
","
","""event"",""trial"",""time""
""fullscreenenter"",""1"",""4001""
","
","","","","","","1484","<p> <b> That's right! </b> You will see many different images <i> one time each </i> in this game. </p>","","0","comp_answer","","","","","","","","",""
"comp-q","36","174205","0.0-12.0-0.1","1928","2","""event"",""trial"",""time""
""fullscreenenter"",""1"",""4001""
","
","
","""event"",""trial"",""time""
""fullscreenenter"",""1"",""4001""
","
","","","","","","1649","<p> <b> True or False? </b> </p><p> You should use the mouse and click to make your response. </p>","","1","comp_question","","","true","","","","","",""
"comp-q","37","183071","0.0-12.0-1.1","1928","2","""event"",""trial"",""time""
""fullscreenenter"",""1"",""4001""
","
","
","""event"",""trial"",""time""
""fullscreenenter"",""1"",""4001""
","
","","","","","","1515.2999999523163","<p><b> That's right! </b> You should use the '1', '2', '3', and '4' keys to make your response. </p>","","0","comp_answer","","","","","","","","",""
"comp-q","38","189976","0.0-12.0-0.2","1928","2","""event"",""trial"",""time""
""fullscreenenter"",""1"",""4001""
","
","
","""event"",""trial"",""time""
""fullscreenenter"",""1"",""4001""
","
","","","","","","911.7000000476837","<p> <b> True or False? </b> </p><p> You will have as much time as you want to make each choice. </p>","","1","comp_question","","","true","","","","","",""
"comp-q","39","196537","0.0-12.0-1.2","1928","2","""event"",""trial"",""time""
""fullscreenenter"",""1"",""4001""
","
","
","""event"",""trial"",""time""
""fullscreenenter"",""1"",""4001""
","
","","","","","","1152","<p> <b> That's right! </b> You will only have 10 seconds to make each choice. </p>","","0","comp_answer","","","","","","","","",""
"learning-instructions","40","206667","0.0-13.0","1928","2","""event"",""trial"",""time""
""fullscreenenter"",""1"",""4001""
","
","
","""event"",""trial"",""time""
""fullscreenenter"",""1"",""4001""
","
","","","","","","1460.8999999761581","<p> Great! You are now ready to begin the game. </p><p> Remember, use the 1, 2, 3, and 4 keys to make your responses. </p>","","0","instructions","","","","","","","","",""
"preload","41","221478","0.0-14.0","1928","2","""event"",""trial"",""time""
""fullscreenenter"",""1"",""4001""
","
","
","""event"",""trial"",""time""
""fullscreenenter"",""1"",""4001""
","
","true","false","[]","[]","[]","","","","","","","","","","","","","",""
"html-keyboard-response","42","221988","0.0-15.0-0.0","1928","2","""event"",""trial"",""time""
""fullscreenenter"",""1"",""4001""
","
","
","""event"",""trial"",""time""
""fullscreenenter"",""1"",""4001""
","
","","","","","","null","<div style=""font-size:60px;"">+</div>","null","","fixation","","","","","","","","",""
"memory-trial","43","226292","0.0-15.0-1.0","1928","2","""event"",""trial"",""time""
""fullscreenenter"",""1"",""4001""
","
","
","""event"",""trial"",""time""
""fullscreenenter"",""1"",""4001""
","
","","","","","","3297.1999999284744","images/cow3.png","","","memory_trial","1","definitely_old","","","","","","",""
"html-keyboard-response","44","226805","0.0-15.0-0.1","1928","2","""event"",""trial"",""time""
""fullscreenenter"",""1"",""4001""
","
","
","""event"",""trial"",""time""
""fullscreenenter"",""1"",""4001""
","
","","","","","","null","<div style=""font-size:60px;"">+</div>","null","","fixation","","","","","","","","",""
"memory-trial","45","229822","0.0-15.0-1.1","1928","2","""event"",""trial"",""time""
""fullscreenenter"",""1"",""4001""
","
","
","""event"",""trial"",""time""
""fullscreenenter"",""1"",""4001""
","
","","","","","","2010.1000000238419","images/bush5.png","","","memory_trial","4","definitely_new","","","","","","",""
"html-keyboard-response","46","230335","0.0-15.0-0.2","1928","2","""event"",""trial"",""time""
""fullscreenenter"",""1"",""4001""
","
","
","""event"",""trial"",""time""
""fullscreenenter"",""1"",""4001""
","
","","","","","","null","<div style=""font-size:60px;"">+</div>","null","","fixation","","","","","","","","",""
"memory-trial","47","233843","0.0-15.0-1.2","1928","2","""event"",""trial"",""time""
""fullscreenenter"",""1"",""4001""
","
","
","""event"",""trial"",""time""
""fullscreenenter"",""1"",""4001""
","
","","","","","","2490","images/orange2.png","","","memory_trial","1","definitely_old","","","","","","",""
"html-keyboard-response","48","234355","0.0-15.0-0.3","1928","2","""event"",""trial"",""time""
""fullscreenenter"",""1"",""4001""
","
","
","""event"",""trial"",""time""
""fullscreenenter"",""1"",""4001""
","
","","","","","","null","<div style=""font-size:60px;"">+</div>","null","","fixation","","","","","","","","",""
"memory-trial","49","238460","0.0-15.0-1.3","1928","2","""event"",""trial"",""time""
""fullscreenenter"",""1"",""4001""
","
","
","""event"",""trial"",""time""
""fullscreenenter"",""1"",""4001""
","
","","","","","","3100.100000023842","images/dog1.png","","","memory_trial","4","definitely_new","","","","","","",""
"html-keyboard-response","50","238962","0.0-15.0-0.4","1928","2","""event"",""trial"",""time""
""fullscreenenter"",""1"",""4001""
","
","
","""event"",""trial"",""time""
""fullscreenenter"",""1"",""4001""
","
","","","","","","null","<div style=""font-size:60px;"">+</div>","null","","fixation","","","","","","","","",""
"memory-trial","51","241659","0.0-15.0-1.4","1928","2","""event"",""trial"",""time""
""fullscreenenter"",""1"",""4001""
","
","
","""event"",""trial"",""time""
""fullscreenenter"",""1"",""4001""
","
","","","","","","1693.1000000238419","images/rodent5.png","","","memory_trial","1","definitely_old","","","","","","",""
"html-keyboard-response","52","242161","0.0-15.0-0.5","1928","2","""event"",""trial"",""time""
""fullscreenenter"",""1"",""4001""
","
","
","""event"",""trial"",""time""
""fullscreenenter"",""1"",""4001""
","
","","","","","","null","<div style=""font-size:60px;"">+</div>","null","","fixation","","","","","","","","",""
"memory-trial","53","246908","0.0-15.0-1.5","1928","2","""event"",""trial"",""time""
""fullscreenenter"",""1"",""4001""
","
","
","""event"",""trial"",""time""
""fullscreenenter"",""1"",""4001""
","
","","","","","","3743.899999976158","images/train3.png","","","memory_trial","2","maybe_old","","","","","","",""
"html-keyboard-response","54","247420","0.0-15.0-0.6","1928","2","""event"",""trial"",""time""
""fullscreenenter"",""1"",""4001""
","
","
","""event"",""trial"",""time""
""fullscreenenter"",""1"",""4001""
","
","","","","","","null","<div style=""font-size:60px;"">+</div>","null","","fixation","","","","","","","","",""
"memory-trial","55","252159","0.0-15.0-1.6","1928","2","""event"",""trial"",""time""
""fullscreenenter"",""1"",""4001""
","
","
","""event"",""trial"",""time""
""fullscreenenter"",""1"",""4001""
","
","","","","","","3735.2999999523163","images/sheep5.png","","","memory_trial","3","maybe_new","","","","","","",""
"html-keyboard-response","56","252662","0.0-15.0-0.7","1928","2","""event"",""trial"",""time""
""fullscreenenter"",""1"",""4001""
","
","
","""event"",""trial"",""time""
""fullscreenenter"",""1"",""4001""
","
","","","","","","null","<div style=""font-size:60px;"">+</div>","null","","fixation","","","","","","","","",""
"memory-trial","57","257408","0.0-15.0-1.7","1928","2","""event"",""trial"",""time""
""fullscreenenter"",""1"",""4001""
","
","
","""event"",""trial"",""time""
""fullscreenenter"",""1"",""4001""
","
","","","","","","3743.399999976158","images/apple2.png","","","memory_trial","4","definitely_new","","","","","","",""
"html-keyboard-response","58","257910","0.0-15.0-0.8","1928","2","""event"",""trial"",""time""
""fullscreenenter"",""1"",""4001""
","
","
","""event"",""trial"",""time""
""fullscreenenter"",""1"",""4001""
","
","","","","","","null","<div style=""font-size:60px;"">+</div>","null","","fixation","","","","","","","","",""
"memory-trial","59","260289","0.0-15.0-1.8","1928","2","""event"",""trial"",""time""
""fullscreenenter"",""1"",""4001""
","
","
","""event"",""trial"",""time""
""fullscreenenter"",""1"",""4001""
","
","","","","","","1374.6999999284744","images/rabbit2.png","","","memory_trial","1","definitely_old","","","","","","",""
"html-keyboard-response","60","260791","0.0-15.0-0.9","1928","2","""event"",""trial"",""time""
""fullscreenenter"",""1"",""4001""
","
","
","""event"",""trial"",""time""
""fullscreenenter"",""1"",""4001""
","
","","","","","","null","<div style=""font-size:60px;"">+</div>","null","","fixation","","","","","","","","",""
"memory-trial","61","263699","0.0-15.0-1.9","1928","2","""event"",""trial"",""time""
""fullscreenenter"",""1"",""4001""
","
","
","""event"",""trial"",""time""
""fullscreenenter"",""1"",""4001""
","
","","","","","","1904.2999999523163","images/chair4.png","","","memory_trial","4","definitely_new","","","","","","",""
"html-keyboard-response","62","264201","0.0-15.0-0.10","1928","2","""event"",""trial"",""time""
""fullscreenenter"",""1"",""4001""
","
","
","""event"",""trial"",""time""
""fullscreenenter"",""1"",""4001""
","
","","","","","","null","<div style=""font-size:60px;"">+</div>","null","","fixation","","","","","","","","",""
"memory-trial","63","267108","0.0-15.0-1.10","1928","2","""event"",""trial"",""time""
""fullscreenenter"",""1"",""4001""
","
","
","""event"",""trial"",""time""
""fullscreenenter"",""1"",""4001""
","
","","","","","","1903.8000000715256","images/horse1.png","","","memory_trial","1","definitely_old","","","","","","",""
"html-keyboard-response","64","267610","0.0-15.0-0.11","1928","2","""event"",""trial"",""time""
""fullscreenenter"",""1"",""4001""
","
","
","""event"",""trial"",""time""
""fullscreenenter"",""1"",""4001""
","
","","","","","","null","<div style=""font-size:60px;"">+</div>","null","","fixation","","","","","","","","",""
"memory-trial","65","270168","0.0-15.0-1.11","1928","2","""event"",""trial"",""time""
""fullscreenenter"",""1"",""4001""
","
","
","""event"",""trial"",""time""
""fullscreenenter"",""1"",""4001""
","
","","","","","","1555.8999999761581","images/flower5.png","","","memory_trial","1","definitely_old","","","","","","",""
"html-keyboard-response","66","270671","0.0-15.0-0.12","1928","2","""event"",""trial"",""time""
""fullscreenenter"",""1"",""4001""
","
","
","""event"",""trial"",""time""
""fullscreenenter"",""1"",""4001""
","
","","","","","","null","<div style=""font-size:60px;"">+</div>","null","","fixation","","","","","","","","",""
"memory-trial","67","273869","0.0-15.0-1.12","1928","2","""event"",""trial"",""time""
""fullscreenenter"",""1"",""4001""
","
","
","""event"",""trial"",""time""
""fullscreenenter"",""1"",""4001""
","
","","","","","","2194.9000000953674","images/cactus2.png","","","memory_trial","4","definitely_new","","","","","","",""
"html-keyboard-response","68","274371","0.0-15.0-0.13","1928","2","""event"",""trial"",""time""
""fullscreenenter"",""1"",""4001""
","
","
","""event"",""trial"",""time""
""fullscreenenter"",""1"",""4001""
","
","","","","","","null","<div style=""font-size:60px;"">+</div>","null","","fixation","","","","","","","","",""
"memory-trial","69","276659","0.0-15.0-1.13","1928","2","""event"",""trial"",""time""
""fullscreenenter"",""1"",""4001""
","
","
","""event"",""trial"",""time""
""fullscreenenter"",""1"",""4001""
","
","","","","","","1284","images/boat5.png","","","memory_trial","4","definitely_new","","","","","","",""
"html-keyboard-response","70","277161","0.0-15.0-0.14","1928","2","""event"",""trial"",""time""
""fullscreenenter"",""1"",""4001""
","
","
","""event"",""trial"",""time""
""fullscreenenter"",""1"",""4001""
","
","","","","","","null","<div style=""font-size:60px;"">+</div>","null","","fixation","","","","","","","","",""
"memory-trial","71","280879","0.0-15.0-1.14","1928","2","""event"",""trial"",""time""
""fullscreenenter"",""1"",""4001""
","
","
","""event"",""trial"",""time""
""fullscreenenter"",""1"",""4001""
","
","","","","","","2713.899999976158","images/flower3.png","","","memory_trial","3","maybe_new","","","","","","",""
"html-keyboard-response","72","281381","0.0-15.0-0.15","1928","2","""event"",""trial"",""time""
""fullscreenenter"",""1"",""4001""
","
","
","""event"",""trial"",""time""
""fullscreenenter"",""1"",""4001""
","
","","","","","","null","<div style=""font-size:60px;"">+</div>","null","","fixation","","","","","","","","",""
"memory-trial","73","283820","0.0-15.0-1.15","1928","2","""event"",""trial"",""time""
""fullscreenenter"",""1"",""4001""
","
","
","""event"",""trial"",""time""
""fullscreenenter"",""1"",""4001""
","
","","","","","","1434","images/table5.png","","","memory_trial","1","definitely_old","","","","","","",""
"html-keyboard-response","74","284323","0.0-15.0-0.16","1928","2","""event"",""trial"",""time""
""fullscreenenter"",""1"",""4001""
","
","
","""event"",""trial"",""time""
""fullscreenenter"",""1"",""4001""
","
","","","","","","null","<div style=""font-size:60px;"">+</div>","null","","fixation","","","","","","","","",""
"memory-trial","75","286440","0.0-15.0-1.16","1928","2","""event"",""trial"",""time""
""fullscreenenter"",""1"",""4001""
","
","
","""event"",""trial"",""time""
""fullscreenenter"",""1"",""4001""
","
","","","","","","1113","images/chair5.png","","","memory_trial","1","definitely_old","","","","","","",""
"html-keyboard-response","76","286942","0.0-15.0-0.17","1928","2","""event"",""trial"",""time""
""fullscreenenter"",""1"",""4001""
","
","
","""event"",""trial"",""time""
""fullscreenenter"",""1"",""4001""
","
","","","","","","null","<div style=""font-size:60px;"">+</div>","null","","fixation","","","","","","","","",""
"memory-trial","77","289199","0.0-15.0-1.17","1928","2","""event"",""trial"",""time""
""fullscreenenter"",""1"",""4001""
","
","
","""event"",""trial"",""time""
""fullscreenenter"",""1"",""4001""
","
","","","","","","1253.6999999284744","images/rabbit3.png","","","memory_trial","1","definitely_old","","","","","","",""
"html-keyboard-response","78","289701","0.0-15.0-0.18","1928","2","""event"",""trial"",""time""
""fullscreenenter"",""1"",""4001""
","
","
","""event"",""trial"",""time""
""fullscreenenter"",""1"",""4001""
","
","","","","","","null","<div style=""font-size:60px;"">+</div>","null","","fixation","","","","","","","","",""
"memory-trial","79","292419","0.0-15.0-1.18","1928","2","""event"",""trial"",""time""
""fullscreenenter"",""1"",""4001""
","
","
","""event"",""trial"",""time""
""fullscreenenter"",""1"",""4001""
","
","","","","","","1715.5","images/boat4.png","","","memory_trial","4","definitely_new","","","","","","",""
"html-keyboard-response","80","292921","0.0-15.0-0.19","1928","2","""event"",""trial"",""time""
""fullscreenenter"",""1"",""4001""
","
","
","""event"",""trial"",""time""
""fullscreenenter"",""1"",""4001""
","
","","","","","","null","<div style=""font-size:60px;"">+</div>","null","","fixation","","","","","","","","",""
"memory-trial","81","295379","0.0-15.0-1.19","1928","2","""event"",""trial"",""time""
""fullscreenenter"",""1"",""4001""
","
","
","""event"",""trial"",""time""
""fullscreenenter"",""1"",""4001""
","
","","","","","","1454.7000000476837","images/sheep4.png","","","memory_trial","1","definitely_old","","","","","","",""
"html-keyboard-response","82","295881","0.0-15.0-0.20","1928","2","""event"",""trial"",""time""
""fullscreenenter"",""1"",""4001""
","
","
","""event"",""trial"",""time""
""fullscreenenter"",""1"",""4001""
","
","","","","","","null","<div style=""font-size:60px;"">+</div>","null","","fixation","","","","","","","","",""
"memory-trial","83","300699","0.0-15.0-1.20","1928","2","""event"",""trial"",""time""
""fullscreenenter"",""1"",""4001""
","
","
","""event"",""trial"",""time""
""fullscreenenter"",""1"",""4001""
","
","","","","","","3815.7999999523163","images/goat1.png","","","memory_trial","4","definitely_new","","","","","","",""
"html-keyboard-response","84","301201","0.0-15.0-0.21","1928","2","""event"",""trial"",""time""
""fullscreenenter"",""1"",""4001""
","
","
","""event"",""trial"",""time""
""fullscreenenter"",""1"",""4001""
","
","","","","","","null","<div style=""font-size:60px;"">+</div>","null","","fixation","","","","","","","","",""
"memory-trial","85","303928","0.0-15.0-1.21","1928","2","""event"",""trial"",""time""
""fullscreenenter"",""1"",""4001""
","
","
","""event"",""trial"",""time""
""fullscreenenter"",""1"",""4001""
","
","","","","","","1723.8999999761581","images/dog2.png","","","memory_trial","1","definitely_old","","","","","","",""
"html-keyboard-response","86","304430","0.0-15.0-0.22","1928","2","""event"",""trial"",""time""
""fullscreenenter"",""1"",""4001""
","
","
","""event"",""trial"",""time""
""fullscreenenter"",""1"",""4001""
","
","","","","","","null","<div style=""font-size:60px;"">+</div>","null","","fixation","","","","","","","","",""
"memory-trial","87","306359","0.0-15.0-1.22","1928","2","""event"",""trial"",""time""
""fullscreenenter"",""1"",""4001""
","
","
","""event"",""trial"",""time""
""fullscreenenter"",""1"",""4001""
","
","","","","","","925.3999999761581","images/chair2.png","","","memory_trial","1","definitely_old","","","","","","",""
"html-keyboard-response","88","306861","0.0-15.0-0.23","1928","2","""event"",""trial"",""time""
""fullscreenenter"",""1"",""4001""
","
","
","""event"",""trial"",""time""
""fullscreenenter"",""1"",""4001""
","
","","","","","","null","<div style=""font-size:60px;"">+</div>","null","","fixation","","","","","","","","",""
"memory-trial","89","309699","0.0-15.0-1.23","1928","2","""event"",""trial"",""time""
""fullscreenenter"",""1"",""4001""
","
","
","""event"",""trial"",""time""
""fullscreenenter"",""1"",""4001""
","
","","","","","","1835.0999999046326","images/sheep3.png","","","memory_trial","4","definitely_new","","","","","","",""
"html-keyboard-response","90","310200","0.0-15.0-0.24","1928","2","""event"",""trial"",""time""
""fullscreenenter"",""1"",""4001""
","
","
","""event"",""trial"",""time""
""fullscreenenter"",""1"",""4001""
","
","","","","","","null","<div style=""font-size:60px;"">+</div>","null","","fixation","","","","","","","","",""
"memory-trial","91","313110","0.0-15.0-1.24","1928","2","""event"",""trial"",""time""
""fullscreenenter"",""1"",""4001""
","
","
","""event"",""trial"",""time""
""fullscreenenter"",""1"",""4001""
","
","","","","","","1905.9000000953674","images/cactus5.png","","","memory_trial","1","definitely_old","","","","","","",""
"html-keyboard-response","92","313612","0.0-15.0-0.25","1928","2","""event"",""trial"",""time""
""fullscreenenter"",""1"",""4001""
","
","
","""event"",""trial"",""time""
""fullscreenenter"",""1"",""4001""
","
","","","","","","null","<div style=""font-size:60px;"">+</div>","null","","fixation","","","","","","","","",""
"memory-trial","93","316460","0.0-15.0-1.25","1928","2","""event"",""trial"",""time""
""fullscreenenter"",""1"",""4001""
","
","
","""event"",""trial"",""time""
""fullscreenenter"",""1"",""4001""
","
","","","","","","1844.6000000238419","images/straw2.png","","","memory_trial","4","definitely_new","","","","","","",""
"html-keyboard-response","94","316962","0.0-15.0-0.26","1928","2","""event"",""trial"",""time""
""fullscreenenter"",""1"",""4001""
","
","
","""event"",""trial"",""time""
""fullscreenenter"",""1"",""4001""
","
","","","","","","null","<div style=""font-size:60px;"">+</div>","null","","fixation","","","","","","","","",""
"memory-trial","95","319270","0.0-15.0-1.26","1928","2","""event"",""trial"",""time""
""fullscreenenter"",""1"",""4001""
","
","
","""event"",""trial"",""time""
""fullscreenenter"",""1"",""4001""
","
","","","","","","1303.7000000476837","images/apple1.png","","","memory_trial","1","definitely_old","","","","","","",""
"html-keyboard-response","96","319771","0.0-15.0-0.27","1928","2","""event"",""trial"",""time""
""fullscreenenter"",""1"",""4001""
","
","
","""event"",""trial"",""time""
""fullscreenenter"",""1"",""4001""
","
","","","","","","null","<div style=""font-size:60px;"">+</div>","null","","fixation","","","","","","","","",""
"memory-trial","97","322329","0.0-15.0-1.27","1928","2","""event"",""trial"",""time""
""fullscreenenter"",""1"",""4001""
","
","
","""event"",""trial"",""time""
""fullscreenenter"",""1"",""4001""
","
","","","","","","1555","images/dog5.png","","","memory_trial","4","definitely_new","","","","","","",""
"html-keyboard-response","98","322831","0.0-15.0-0.28","1928","2","""event"",""trial"",""time""
""fullscreenenter"",""1"",""4001""
","
","
","""event"",""trial"",""time""
""fullscreenenter"",""1"",""4001""
","
","","","","","","null","<div style=""font-size:60px;"">+</div>","null","","fixation","","","","","","","","",""
"memory-trial","99","325529","0.0-15.0-1.28","1928","2","""event"",""trial"",""time""
""fullscreenenter"",""1"",""4001""
","
","
","""event"",""trial"",""time""
""fullscreenenter"",""1"",""4001""
","
","","","","","","1695.2000000476837","images/straw4.png","","","memory_trial","4","definitely_new","","","","","","",""
"html-keyboard-response","100","326031","0.0-15.0-0.29","1928","2","""event"",""trial"",""time""
""fullscreenenter"",""1"",""4001""
","
","
","""event"",""trial"",""time""
""fullscreenenter"",""1"",""4001""
","
","","","","","","null","<div style=""font-size:60px;"">+</div>","null","","fixation","","","","","","","","",""
"memory-trial","101","328279","0.0-15.0-1.29","1928","2","""event"",""trial"",""time""
""fullscreenenter"",""1"",""4001""
","
","
","""event"",""trial"",""time""
""fullscreenenter"",""1"",""4001""
","
","","","","","","1245.4000000953674","images/plane3.png","","","memory_trial","1","definitely_old","","","","","","",""
"html-keyboard-response","102","328780","0.0-15.0-0.30","1928","2","""event"",""trial"",""time""
""fullscreenenter"",""1"",""4001""
","
","
","""event"",""trial"",""time""
""fullscreenenter"",""1"",""4001""
","
","","","","","","null","<div style=""font-size:60px;"">+</div>","null","","fixation","","","","","","","","",""
"memory-trial","103","330819","0.0-15.0-1.30","1928","2","""event"",""trial"",""time""
""fullscreenenter"",""1"",""4001""
","
","
","""event"",""trial"",""time""
""fullscreenenter"",""1"",""4001""
","
","","","","","","1035.9000000953674","images/rodent3.png","","","memory_trial","1","definitely_old","","","","","","",""
"html-keyboard-response","104","331321","0.0-15.0-0.31","1928","2","""event"",""trial"",""time""
""fullscreenenter"",""1"",""4001""
","
","
","""event"",""trial"",""time""
""fullscreenenter"",""1"",""4001""
","
","","","","","","null","<div style=""font-size:60px;"">+</div>","null","","fixation","","","","","","","","",""
"memory-trial","105","333404","0.0-15.0-1.31","1928","2","""event"",""trial"",""time""
""fullscreenenter"",""1"",""4001""
","
","
","""event"",""trial"",""time""
""fullscreenenter"",""1"",""4001""
","
","","","","","","1065.1999999284744","images/truck3.png","","","memory_trial","1","definitely_old","","","","","","",""
"html-keyboard-response","106","333905","0.0-15.0-0.32","1928","2","""event"",""trial"",""time""
""fullscreenenter"",""1"",""4001""
","
","
","""event"",""trial"",""time""
""fullscreenenter"",""1"",""4001""
","
","","","","","","null","<div style=""font-size:60px;"">+</div>","null","","fixation","","","","","","","","",""
"memory-trial","107","336149","0.0-15.0-1.32","1928","2","""event"",""trial"",""time""
""fullscreenenter"",""1"",""4001""
","
","
","""event"",""trial"",""time""
""fullscreenenter"",""1"",""4001""
","
","","","","","","1240.9000000953674","images/orange1.png","","","memory_trial","1","definitely_old","","","","","","",""
"html-keyboard-response","108","336651","0.0-15.0-0.33","1928","2","""event"",""trial"",""time""
""fullscreenenter"",""1"",""4001""
","
","
","""event"",""trial"",""time""
""fullscreenenter"",""1"",""4001""
","
","","","","","","null","<div style=""font-size:60px;"">+</div>","null","","fixation","","","","","","","","",""
"memory-trial","109","339180","0.0-15.0-1.33","1928","2","""event"",""trial"",""time""
""fullscreenenter"",""1"",""4001""
","
","
","""event"",""trial"",""time""
""fullscreenenter"",""1"",""4001""
","
","","","","","","1524.1000000238419","images/sofa3.png","","","memory_trial","4","definitely_new","","","","","","",""
"html-keyboard-response","110","339681","0.0-15.0-0.34","1928","2","""event"",""trial"",""time""
""fullscreenenter"",""1"",""4001""
","
","
","""event"",""trial"",""time""
""fullscreenenter"",""1"",""4001""
","
","","","","","","null","<div style=""font-size:60px;"">+</div>","null","","fixation","","","","","","","","",""
"memory-trial","111","343579","0.0-15.0-1.34","1928","2","""event"",""trial"",""time""
""fullscreenenter"",""1"",""4001""
","
","
","""event"",""trial"",""time""
""fullscreenenter"",""1"",""4001""
","
","","","","","","2895.2999999523163","images/banana2.png","","","memory_trial","2","maybe_old","","","","","","",""
"html-keyboard-response","112","344081","0.0-15.0-0.35","1928","2","""event"",""trial"",""time""
""fullscreenenter"",""1"",""4001""
","
","
","""event"",""trial"",""time""
""fullscreenenter"",""1"",""4001""
","
","","","","","","null","<div style=""font-size:60px;"">+</div>","null","","fixation","","","","","","","","",""
"memory-trial","113","345980","0.0-15.0-1.35","1928","2","""event"",""trial"",""time""
""fullscreenenter"",""1"",""4001""
","
","
","""event"",""trial"",""time""
""fullscreenenter"",""1"",""4001""
","
","","","","","","894.6000000238419","images/rodent1.png","","","memory_trial","1","definitely_old","","","","","","",""
"html-keyboard-response","114","346482","0.0-15.0-0.36","1928","2","""event"",""trial"",""time""
""fullscreenenter"",""1"",""4001""
","
","
","""event"",""trial"",""time""
""fullscreenenter"",""1"",""4001""
","
","","","","","","null","<div style=""font-size:60px;"">+</div>","null","","fixation","","","","","","","","",""
"memory-trial","115","348569","0.0-15.0-1.36","1928","2","""event"",""trial"",""time""
""fullscreenenter"",""1"",""4001""
","
","
","""event"",""trial"",""time""
""fullscreenenter"",""1"",""4001""
","
","","","","","","1084.7000000476837","images/feline4.png","","","memory_trial","1","definitely_old","","","","","","",""
"html-keyboard-response","116","349071","0.0-15.0-0.37","1928","2","""event"",""trial"",""time""
""fullscreenenter"",""1"",""4001""
","
","
","""event"",""trial"",""time""
""fullscreenenter"",""1"",""4001""
","
","","","","","","null","<div style=""font-size:60px;"">+</div>","null","","fixation","","","","","","","","",""
"memory-trial","117","351110","0.0-15.0-1.37","1928","2","""event"",""trial"",""time""
""fullscreenenter"",""1"",""4001""
","
","
","""event"",""trial"",""time""
""fullscreenenter"",""1"",""4001""
","
","","","","","","1035.6000000238419","images/plane4.png","","","memory_trial","1","definitely_old","","","","","","",""
"html-keyboard-response","118","351612","0.0-15.0-0.38","1928","2","""event"",""trial"",""time""
""fullscreenenter"",""1"",""4001""
","
","
","""event"",""trial"",""time""
""fullscreenenter"",""1"",""4001""
","
","","","","","","null","<div style=""font-size:60px;"">+</div>","null","","fixation","","","","","","","","",""
"memory-trial","119","353959","0.0-15.0-1.38","1928","2","""event"",""trial"",""time""
""fullscreenenter"",""1"",""4001""
","
","
","""event"",""trial"",""time""
""fullscreenenter"",""1"",""4001""
","
","","","","","","1344.0999999046326","images/chair3.png","","","memory_trial","4","definitely_new","","","","","","",""
"html-keyboard-response","120","354461","0.0-15.0-0.39","1928","2","""event"",""trial"",""time""
""fullscreenenter"",""1"",""4001""
","
","
","""event"",""trial"",""time""
""fullscreenenter"",""1"",""4001""
","
","","","","","","null","<div style=""font-size:60px;"">+</div>","null","","fixation","","","","","","","","",""
"memory-trial","121","356519","0.0-15.0-1.39","1928","2","""event"",""trial"",""time""
""fullscreenenter"",""1"",""4001""
","
","
","""event"",""trial"",""time""
""fullscreenenter"",""1"",""4001""
","
","","","","","","1055","images/bush2.png","","","memory_trial","4","definitely_new","","","","","","",""
"html-keyboard-response","122","357022","0.0-15.0-0.40","1928","2","""event"",""trial"",""time""
""fullscreenenter"",""1"",""4001""
","
","
","""event"",""trial"",""time""
""fullscreenenter"",""1"",""4001""
","
","","","","","","null","<div style=""font-size:60px;"">+</div>","null","","fixation","","","","","","","","",""
"memory-trial","123","359018","0.0-15.0-1.40","1928","2","""event"",""trial"",""time""
""fullscreenenter"",""1"",""4001""
","
","
","""event"",""trial"",""time""
""fullscreenenter"",""1"",""4001""
","
","","","","","","994.2999999523163","images/train1.png","","","memory_trial","1","definitely_old","","","","","","",""
"html-keyboard-response","124","359521","0.0-15.0-0.41","1928","2","""event"",""trial"",""time""
""fullscreenenter"",""1"",""4001""
","
","
","""event"",""trial"",""time""
""fullscreenenter"",""1"",""4001""
","
","","","","","","null","<div style=""font-size:60px;"">+</div>","null","","fixation","","","","","","","","",""
"memory-trial","125","362049","0.0-15.0-1.41","1928","2","""event"",""trial"",""time""
""fullscreenenter"",""1"",""4001""
","
","
","""event"",""trial"",""time""
""fullscreenenter"",""1"",""4001""
","
","","","","","","1526","images/tree5.png","","","memory_trial","4","definitely_new","","","","","","",""
"html-keyboard-response","126","362550","0.0-15.0-0.42","1928","2","""event"",""trial"",""time""
""fullscreenenter"",""1"",""4001""
","
","
","""event"",""trial"",""time""
""fullscreenenter"",""1"",""4001""
","
","","","","","","null","<div style=""font-size:60px;"">+</div>","null","","fixation","","","","","","","","",""
"memory-trial","127","365809","0.0-15.0-1.42","1928","2","""event"",""trial"",""time""
""fullscreenenter"",""1"",""4001""
","
","
","""event"",""trial"",""time""
""fullscreenenter"",""1"",""4001""
","
","","","","","","2255.2999999523163","images/horse5.png","","","memory_trial","4","definitely_new","","","","","","",""
"html-keyboard-response","128","366311","0.0-15.0-0.43","1928","2","""event"",""trial"",""time""
""fullscreenenter"",""1"",""4001""
","
","
","""event"",""trial"",""time""
""fullscreenenter"",""1"",""4001""
","
","","","","","","null","<div style=""font-size:60px;"">+</div>","null","","fixation","","","","","","","","",""
"memory-trial","129","370691","0.0-15.0-1.43","1928","2","""event"",""trial"",""time""
""fullscreenenter"",""1"",""4001""
","
","
","""event"",""trial"",""time""
""fullscreenenter"",""1"",""4001""
","
","","","","","","3376.2000000476837","images/rabbit1.png","","","memory_trial","4","definitely_new","","","","","","",""
"html-keyboard-response","130","371193","0.0-15.0-0.44","1928","2","""event"",""trial"",""time""
""fullscreenenter"",""1"",""4001""
","
","
","""event"",""trial"",""time""
""fullscreenenter"",""1"",""4001""
","
","","","","","","null","<div style=""font-size:60px;"">+</div>","null","","fixation","","","","","","","","",""
"memory-trial","131","376890","0.0-15.0-1.44","1928","2","""event"",""trial"",""time""
""fullscreenenter"",""1"",""4001""
","
","
","""event"",""trial"",""time""
""fullscreenenter"",""1"",""4001""
","
","","","","","","4692.299999952316","images/cow1.png","","","memory_trial","4","definitely_new","","","","","","",""
"html-keyboard-response","132","377392","0.0-15.0-0.45","1928","2","""event"",""trial"",""time""
""fullscreenenter"",""1"",""4001""
","
","
","""event"",""trial"",""time""
""fullscreenenter"",""1"",""4001""
","
","","","","","","null","<div style=""font-size:60px;"">+</div>","null","","fixation","","","","","","","","",""
"memory-trial","133","379380","0.0-15.0-1.45","1928","2","""event"",""trial"",""time""
""fullscreenenter"",""1"",""4001""
","
","
","""event"",""trial"",""time""
""fullscreenenter"",""1"",""4001""
","
","","","","","","983.5","images/table2.png","","","memory_trial","4","definitely_new","","","","","","",""
"html-keyboard-response","134","379881","0.0-15.0-0.46","1928","2","""event"",""trial"",""time""
""fullscreenenter"",""1"",""4001""
","
","
","""event"",""trial"",""time""
""fullscreenenter"",""1"",""4001""
","
","","","","","","null","<div style=""font-size:60px;"">+</div>","null","","fixation","","","","","","","","",""
"memory-trial","135","384371","0.0-15.0-1.46","1928","2","""event"",""trial"",""time""
""fullscreenenter"",""1"",""4001""
","
","
","""event"",""trial"",""time""
""fullscreenenter"",""1"",""4001""
","
","","","","","","3475.8000000715256","images/bed1.png","","","memory_trial","2","maybe_old","","","","","","",""
"html-button-response","136","386914","0.0-15.0-2.46-0.46","1928","2","""event"",""trial"",""time""
""fullscreenenter"",""1"",""4001""
","
","
","""event"",""trial"",""time""
""fullscreenenter"",""1"",""4001""
","
","","","","","","2540.600000023842","<p> Take a break! </p><p> Click the button to continue. </p>","0","","break","","","","","","","","",""
"html-keyboard-response","137","387418","0.0-15.0-0.47","1928","2","""event"",""trial"",""time""
""fullscreenenter"",""1"",""4001""
","
","
","""event"",""trial"",""time""
""fullscreenenter"",""1"",""4001""
","
","","","","","","null","<div style=""font-size:60px;"">+</div>","null","","fixation","","","","","","","","",""
"memory-trial","138","391510","0.0-15.0-1.47","1928","2","""event"",""trial"",""time""
""fullscreenenter"",""1"",""4001""
","
","
","""event"",""trial"",""time""
""fullscreenenter"",""1"",""4001""
","
","","","","","","3088.7000000476837","images/bed5.png","","","memory_trial","1","definitely_old","","","","","","",""
"html-keyboard-response","139","392012","0.0-15.0-0.48","1928","2","""event"",""trial"",""time""
""fullscreenenter"",""1"",""4001""
","
","
","""event"",""trial"",""time""
""fullscreenenter"",""1"",""4001""
","
","","","","","","null","<div style=""font-size:60px;"">+</div>","null","","fixation","","","","","","","","",""
"memory-trial","140","394710","0.0-15.0-1.48","1928","2","""event"",""trial"",""time""
""fullscreenenter"",""1"",""4001""
","
","
","""event"",""trial"",""time""
""fullscreenenter"",""1"",""4001""
","
","","","","","","1694.3000000715256","images/plane2.png","","","memory_trial","4","definitely_new","","","","","","",""
"html-keyboard-response","141","395212","0.0-15.0-0.49","1928","2","""event"",""trial"",""time""
""fullscreenenter"",""1"",""4001""
","
","
","""event"",""trial"",""time""
""fullscreenenter"",""1"",""4001""
","
","","","","","","null","<div style=""font-size:60px;"">+</div>","null","","fixation","","","","","","","","",""
"memory-trial","142","397520","0.0-15.0-1.49","1928","2","""event"",""trial"",""time""
""fullscreenenter"",""1"",""4001""
","
","
","""event"",""trial"",""time""
""fullscreenenter"",""1"",""4001""
","
","","","","","","1303.7000000476837","images/apple5.png","","","memory_trial","4","definitely_new","","","","","","",""
"html-keyboard-response","143","398023","0.0-15.0-0.50","1928","2","""event"",""trial"",""time""
""fullscreenenter"",""1"",""4001""
","
","
","""event"",""trial"",""time""
""fullscreenenter"",""1"",""4001""
","
","","","","","","null","<div style=""font-size:60px;"">+</div>","null","","fixation","","","","","","","","",""
"memory-trial","144","400560","0.0-15.0-1.50","1928","2","""event"",""trial"",""time""
""fullscreenenter"",""1"",""4001""
","
","
","""event"",""trial"",""time""
""fullscreenenter"",""1"",""4001""
","
","","","","","","1534.8000000715256","images/sheep1.png","","","memory_trial","4","definitely_new","","","","","","",""
"html-keyboard-response","145","401062","0.0-15.0-0.51","1928","2","""event"",""trial"",""time""
""fullscreenenter"",""1"",""4001""
","
","
","""event"",""trial"",""time""
""fullscreenenter"",""1"",""4001""
","
","","","","","","null","<div style=""font-size:60px;"">+</div>","null","","fixation","","","","","","","","",""
"memory-trial","146","403090","0.0-15.0-1.51","1928","2","""event"",""trial"",""time""
""fullscreenenter"",""1"",""4001""
","
","
","""event"",""trial"",""time""
""fullscreenenter"",""1"",""4001""
","
","","","","","","1024.0999999046326","images/table3.png","","","memory_trial","1","definitely_old","","","","","","",""
"html-keyboard-response","147","403592","0.0-15.0-0.52","1928","2","""event"",""trial"",""time""
""fullscreenenter"",""1"",""4001""
","
","
","""event"",""trial"",""time""
""fullscreenenter"",""1"",""4001""
","
","","","","","","null","<div style=""font-size:60px;"">+</div>","null","","fixation","","","","","","","","",""
"memory-trial","148","409591","0.0-15.0-1.52","1928","2","""event"",""trial"",""time""
""fullscreenenter"",""1"",""4001""
","
","
","""event"",""trial"",""time""
""fullscreenenter"",""1"",""4001""
","
","","","","","","4995.700000047684","images/dog4.png","","","memory_trial","3","maybe_new","","","","","","",""
"html-keyboard-response","149","410094","0.0-15.0-0.53","1928","2","""event"",""trial"",""time""
""fullscreenenter"",""1"",""4001""
","
","
","""event"",""trial"",""time""
""fullscreenenter"",""1"",""4001""
","
","","","","","","null","<div style=""font-size:60px;"">+</div>","null","","fixation","","","","","","","","",""
"memory-trial","150","412630","0.0-15.0-1.53","1928","2","""event"",""trial"",""time""
""fullscreenenter"",""1"",""4001""
","
","
","""event"",""trial"",""time""
""fullscreenenter"",""1"",""4001""
","
","","","","","","1532.3999999761581","images/straw5.png","","","memory_trial","4","definitely_new","","","","","","",""
"html-keyboard-response","151","413133","0.0-15.0-0.54","1928","2","""event"",""trial"",""time""
""fullscreenenter"",""1"",""4001""
","
","
","""event"",""trial"",""time""
""fullscreenenter"",""1"",""4001""
","
","","","","","","null","<div style=""font-size:60px;"">+</div>","null","","fixation","","","","","","","","",""
"memory-trial","152","415230","0.0-15.0-1.54","1928","2","""event"",""trial"",""time""
""fullscreenenter"",""1"",""4001""
","
","
","""event"",""trial"",""time""
""fullscreenenter"",""1"",""4001""
","
","","","","","","1093.7999999523163","images/horse2.png","","","memory_trial","1","definitely_old","","","","","","",""
"html-keyboard-response","153","415732","0.0-15.0-0.55","1928","2","""event"",""trial"",""time""
""fullscreenenter"",""1"",""4001""
","
","
","""event"",""trial"",""time""
""fullscreenenter"",""1"",""4001""
","
","","","","","","null","<div style=""font-size:60px;"">+</div>","null","","fixation","","","","","","","","",""
"memory-trial","154","418160","0.0-15.0-1.55","1928","2","""event"",""trial"",""time""
""fullscreenenter"",""1"",""4001""
","
","
","""event"",""trial"",""time""
""fullscreenenter"",""1"",""4001""
","
","","","","","","1424.5","images/bush1.png","","","memory_trial","4","definitely_new","","","","","","",""
"html-keyboard-response","155","418661","0.0-15.0-0.56","1928","2","""event"",""trial"",""time""
""fullscreenenter"",""1"",""4001""
","
","
","""event"",""trial"",""time""
""fullscreenenter"",""1"",""4001""
","
","","","","","","null","<div style=""font-size:60px;"">+</div>","null","","fixation","","","","","","","","",""
"memory-trial","156","422860","0.0-15.0-1.56","1928","2","""event"",""trial"",""time""
""fullscreenenter"",""1"",""4001""
","
","
","""event"",""trial"",""time""
""fullscreenenter"",""1"",""4001""
","
","","","","","","3195.9000000953674","images/table4.png","","","memory_trial","2","maybe_old","","","","","","",""
"html-keyboard-response","157","423362","0.0-15.0-0.57","1928","2","""event"",""trial"",""time""
""fullscreenenter"",""1"",""4001""
","
","
","""event"",""trial"",""time""
""fullscreenenter"",""1"",""4001""
","
","","","","","","null","<div style=""font-size:60px;"">+</div>","null","","fixation","","","","","","","","",""
"memory-trial","158","425310","0.0-15.0-1.57","1928","2","""event"",""trial"",""time""
""fullscreenenter"",""1"",""4001""
","
","
","""event"",""trial"",""time""
""fullscreenenter"",""1"",""4001""
","
","","","","","","944","images/feline5.png","","","memory_trial","1","definitely_old","","","","","","",""
"html-keyboard-response","159","425813","0.0-15.0-0.58","1928","2","""event"",""trial"",""time""
""fullscreenenter"",""1"",""4001""
","
","
","""event"",""trial"",""time""
""fullscreenenter"",""1"",""4001""
","
","","","","","","null","<div style=""font-size:60px;"">+</div>","null","","fixation","","","","","","","","",""
"memory-trial","160","429620","0.0-15.0-1.58","1928","2","""event"",""trial"",""time""
""fullscreenenter"",""1"",""4001""
","
","
","""event"",""trial"",""time""
""fullscreenenter"",""1"",""4001""
","
","","","","","","2804.2000000476837","images/straw3.png","","","memory_trial","4","definitely_new","","","","","","",""
"html-keyboard-response","161","430123","0.0-15.0-0.59","1928","2","""event"",""trial"",""time""
""fullscreenenter"",""1"",""4001""
","
","
","""event"",""trial"",""time""
""fullscreenenter"",""1"",""4001""
","
","","","","","","null","<div style=""font-size:60px;"">+</div>","null","","fixation","","","","","","","","",""
"memory-trial","162","435821","0.0-15.0-1.59","1928","2","""event"",""trial"",""time""
""fullscreenenter"",""1"",""4001""
","
","
","""event"",""trial"",""time""
""fullscreenenter"",""1"",""4001""
","
","","","","","","4694.299999952316","images/train5.png","","","memory_trial","2","maybe_old","","","","","","",""
"html-keyboard-response","163","436323","0.0-15.0-0.60","1928","2","""event"",""trial"",""time""
""fullscreenenter"",""1"",""4001""
","
","
","""event"",""trial"",""time""
""fullscreenenter"",""1"",""4001""
","
","","","","","","null","<div style=""font-size:60px;"">+</div>","null","","fixation","","","","","","","","",""
"memory-trial","164","438781","0.0-15.0-1.60","1928","2","""event"",""trial"",""time""
""fullscreenenter"",""1"",""4001""
","
","
","""event"",""trial"",""time""
""fullscreenenter"",""1"",""4001""
","
","","","","","","1453.6000000238419","images/truck1.png","","","memory_trial","4","definitely_new","","","","","","",""
"html-keyboard-response","165","439283","0.0-15.0-0.61","1928","2","""event"",""trial"",""time""
""fullscreenenter"",""1"",""4001""
","
","
","""event"",""trial"",""time""
""fullscreenenter"",""1"",""4001""
","
","","","","","","null","<div style=""font-size:60px;"">+</div>","null","","fixation","","","","","","","","",""
"memory-trial","166","442340","0.0-15.0-1.61","1928","2","""event"",""trial"",""time""
""fullscreenenter"",""1"",""4001""
","
","
","""event"",""trial"",""time""
""fullscreenenter"",""1"",""4001""
","
","","","","","","2054.7999999523163","images/tree2.png","","","memory_trial","1","definitely_old","","","","","","",""
"html-keyboard-response","167","442842","0.0-15.0-0.62","1928","2","""event"",""trial"",""time""
""fullscreenenter"",""1"",""4001""
","
","
","""event"",""trial"",""time""
""fullscreenenter"",""1"",""4001""
","
","","","","","","null","<div style=""font-size:60px;"">+</div>","null","","fixation","","","","","","","","",""
"memory-trial","168","445150","0.0-15.0-1.62","1928","2","""event"",""trial"",""time""
""fullscreenenter"",""1"",""4001""
","
","
","""event"",""trial"",""time""
""fullscreenenter"",""1"",""4001""
","
","","","","","","1304.8000000715256","images/truck5.png","","","memory_trial","4","definitely_new","","","","","","",""
"html-keyboard-response","169","445652","0.0-15.0-0.63","1928","2","""event"",""trial"",""time""
""fullscreenenter"",""1"",""4001""
","
","
","""event"",""trial"",""time""
""fullscreenenter"",""1"",""4001""
","
","","","","","","null","<div style=""font-size:60px;"">+</div>","null","","fixation","","","","","","","","",""
"memory-trial","170","448230","0.0-15.0-1.63","1928","2","""event"",""trial"",""time""
""fullscreenenter"",""1"",""4001""
","
","
","""event"",""trial"",""time""
""fullscreenenter"",""1"",""4001""
","
","","","","","","1575.3999999761581","images/sofa1.png","","","memory_trial","4","definitely_new","","","","","","",""
"html-keyboard-response","171","448732","0.0-15.0-0.64","1928","2","""event"",""trial"",""time""
""fullscreenenter"",""1"",""4001""
","
","
","""event"",""trial"",""time""
""fullscreenenter"",""1"",""4001""
","
","","","","","","null","<div style=""font-size:60px;"">+</div>","null","","fixation","","","","","","","","",""
"memory-trial","172","452231","0.0-15.0-1.64","1928","2","""event"",""trial"",""time""
""fullscreenenter"",""1"",""4001""
","
","
","""event"",""trial"",""time""
""fullscreenenter"",""1"",""4001""
","
","","","","","","2494","images/cow4.png","","","memory_trial","4","definitely_new","","","","","","",""
"html-keyboard-response","173","452733","0.0-15.0-0.65","1928","2","""event"",""trial"",""time""
""fullscreenenter"",""1"",""4001""
","
","
","""event"",""trial"",""time""
""fullscreenenter"",""1"",""4001""
","
","","","","","","null","<div style=""font-size:60px;"">+</div>","null","","fixation","","","","","","","","",""
"memory-trial","174","456650","0.0-15.0-1.65","1928","2","""event"",""trial"",""time""
""fullscreenenter"",""1"",""4001""
","
","
","""event"",""trial"",""time""
""fullscreenenter"",""1"",""4001""
","
","","","","","","2913.8000000715256","images/straw1.png","","","memory_trial","2","maybe_old","","","","","","",""
"html-keyboard-response","175","457152","0.0-15.0-0.66","1928","2","""event"",""trial"",""time""
""fullscreenenter"",""1"",""4001""
","
","
","""event"",""trial"",""time""
""fullscreenenter"",""1"",""4001""
","
","","","","","","null","<div style=""font-size:60px;"">+</div>","null","","fixation","","","","","","","","",""
"memory-trial","176","459461","0.0-15.0-1.66","1928","2","""event"",""trial"",""time""
""fullscreenenter"",""1"",""4001""
","
","
","""event"",""trial"",""time""
""fullscreenenter"",""1"",""4001""
","
","","","","","","1304.3999999761581","images/orange3.png","","","memory_trial","1","definitely_old","","","","","","",""
"html-keyboard-response","177","459975","0.0-15.0-0.67","1928","2","""event"",""trial"",""time""
""fullscreenenter"",""1"",""4001""
","
","
","""event"",""trial"",""time""
""fullscreenenter"",""1"",""4001""
","
","","","","","","null","<div style=""font-size:60px;"">+</div>","null","","fixation","","","","","","","","",""
"memory-trial","178","465480","0.0-15.0-1.67","1928","2","""event"",""trial"",""time""
""fullscreenenter"",""1"",""4001""
","
","
","""event"",""trial"",""time""
""fullscreenenter"",""1"",""4001""
","
","","","","","","4502.700000047684","images/boat1.png","","","memory_trial","2","maybe_old","","","","","","",""
"html-keyboard-response","179","465983","0.0-15.0-0.68","1928","2","""event"",""trial"",""time""
""fullscreenenter"",""1"",""4001""
","
","
","""event"",""trial"",""time""
""fullscreenenter"",""1"",""4001""
","
","","","","","","null","<div style=""font-size:60px;"">+</div>","null","","fixation","","","","","","","","",""
"memory-trial","180","469851","0.0-15.0-1.68","1928","2","""event"",""trial"",""time""
""fullscreenenter"",""1"",""4001""
","
","
","""event"",""trial"",""time""
""fullscreenenter"",""1"",""4001""
","
","","","","","","2864.3000000715256","images/feline2.png","","","memory_trial","2","maybe_old","","","","","","",""
"html-keyboard-response","181","470353","0.0-15.0-0.69","1928","2","""event"",""trial"",""time""
""fullscreenenter"",""1"",""4001""
","
","
","""event"",""trial"",""time""
""fullscreenenter"",""1"",""4001""
","
","","","","","","null","<div style=""font-size:60px;"">+</div>","null","","fixation","","","","","","","","",""
"memory-trial","182","474830","0.0-15.0-1.69","1928","2","""event"",""trial"",""time""
""fullscreenenter"",""1"",""4001""
","
","
","""event"",""trial"",""time""
""fullscreenenter"",""1"",""4001""
","
","","","","","","3473.600000023842","images/flower1.png","","","memory_trial","2","maybe_old","","","","","","",""
"html-keyboard-response","183","475331","0.0-15.0-0.70","1928","2","""event"",""trial"",""time""
""fullscreenenter"",""1"",""4001""
","
","
","""event"",""trial"",""time""
""fullscreenenter"",""1"",""4001""
","
","","","","","","null","<div style=""font-size:60px;"">+</div>","null","","fixation","","","","","","","","",""
"memory-trial","184","478541","0.0-15.0-1.70","1928","2","""event"",""trial"",""time""
""fullscreenenter"",""1"",""4001""
","
","
","""event"",""trial"",""time""
""fullscreenenter"",""1"",""4001""
","
","","","","","","2205.7000000476837","images/rabbit5.png","","","memory_trial","4","definitely_new","","","","","","",""
"html-keyboard-response","185","479043","0.0-15.0-0.71","1928","2","""event"",""trial"",""time""
""fullscreenenter"",""1"",""4001""
","
","
","""event"",""trial"",""time""
""fullscreenenter"",""1"",""4001""
","
","","","","","","null","<div style=""font-size:60px;"">+</div>","null","","fixation","","","","","","","","",""
"memory-trial","186","481571","0.0-15.0-1.71","1928","2","""event"",""trial"",""time""
""fullscreenenter"",""1"",""4001""
","
","
","""event"",""trial"",""time""
""fullscreenenter"",""1"",""4001""
","
","","","","","","1524.1000000238419","images/apple3.png","","","memory_trial","1","definitely_old","","","","","","",""
"html-keyboard-response","187","482072","0.0-15.0-0.72","1928","2","""event"",""trial"",""time""
""fullscreenenter"",""1"",""4001""
","
","
","""event"",""trial"",""time""
""fullscreenenter"",""1"",""4001""
","
","","","","","","null","<div style=""font-size:60px;"">+</div>","null","","fixation","","","","","","","","",""
"memory-trial","188","484981","0.0-15.0-1.72","1928","2","""event"",""trial"",""time""
""fullscreenenter"",""1"",""4001""
","
","
","""event"",""trial"",""time""
""fullscreenenter"",""1"",""4001""
","
","","","","","","1905.1999999284744","images/bed2.png","","","memory_trial","2","maybe_old","","","","","","",""
"html-keyboard-response","189","485483","0.0-15.0-0.73","1928","2","""event"",""trial"",""time""
""fullscreenenter"",""1"",""4001""
","
","
","""event"",""trial"",""time""
""fullscreenenter"",""1"",""4001""
","
","","","","","","null","<div style=""font-size:60px;"">+</div>","null","","fixation","","","","","","","","",""
"memory-trial","190","487861","0.0-15.0-1.73","1928","2","""event"",""trial"",""time""
""fullscreenenter"",""1"",""4001""
","
","
","""event"",""trial"",""time""
""fullscreenenter"",""1"",""4001""
","
","","","","","","1374","images/feline1.png","","","memory_trial","1","definitely_old","","","","","","",""
"html-keyboard-response","191","488363","0.0-15.0-0.74","1928","2","""event"",""trial"",""time""
""fullscreenenter"",""1"",""4001""
","
","
","""event"",""trial"",""time""
""fullscreenenter"",""1"",""4001""
","
","","","","","","null","<div style=""font-size:60px;"">+</div>","null","","fixation","","","","","","","","",""
"memory-trial","192","491842","0.0-15.0-1.74","1928","2","""event"",""trial"",""time""
""fullscreenenter"",""1"",""4001""
","
","
","""event"",""trial"",""time""
""fullscreenenter"",""1"",""4001""
","
","","","","","","2474.5999999046326","images/apple4.png","","","memory_trial","1","definitely_old","","","","","","",""
"html-keyboard-response","193","492344","0.0-15.0-0.75","1928","2","""event"",""trial"",""time""
""fullscreenenter"",""1"",""4001""
","
","
","""event"",""trial"",""time""
""fullscreenenter"",""1"",""4001""
","
","","","","","","null","<div style=""font-size:60px;"">+</div>","null","","fixation","","","","","","","","",""
"memory-trial","194","497441","0.0-15.0-1.75","1928","2","""event"",""trial"",""time""
""fullscreenenter"",""1"",""4001""
","
","
","""event"",""trial"",""time""
""fullscreenenter"",""1"",""4001""
","
","","","","","","4092.7999999523163","images/rodent4.png","","","memory_trial","2","maybe_old","","","","","","",""
"html-keyboard-response","195","497943","0.0-15.0-0.76","1928","2","""event"",""trial"",""time""
""fullscreenenter"",""1"",""4001""
","
","
","""event"",""trial"",""time""
""fullscreenenter"",""1"",""4001""
","
","","","","","","null","<div style=""font-size:60px;"">+</div>","null","","fixation","","","","","","","","",""
"memory-trial","196","500251","0.0-15.0-1.76","1928","2","""event"",""trial"",""time""
""fullscreenenter"",""1"",""4001""
","
","
","""event"",""trial"",""time""
""fullscreenenter"",""1"",""4001""
","
","","","","","","1303.7999999523163","images/cow2.png","","","memory_trial","1","definitely_old","","","","","","",""
"html-keyboard-response","197","500753","0.0-15.0-0.77","1928","2","""event"",""trial"",""time""
""fullscreenenter"",""1"",""4001""
","
","
","""event"",""trial"",""time""
""fullscreenenter"",""1"",""4001""
","
","","","","","","null","<div style=""font-size:60px;"">+</div>","null","","fixation","","","","","","","","",""
"memory-trial","198","503171","0.0-15.0-1.77","1928","2","""event"",""trial"",""time""
""fullscreenenter"",""1"",""4001""
","
","
","""event"",""trial"",""time""
""fullscreenenter"",""1"",""4001""
","
","","","","","","1414.7000000476837","images/plane1.png","","","memory_trial","4","definitely_new","","","","","","",""
"html-keyboard-response","199","503673","0.0-15.0-0.78","1928","2","""event"",""trial"",""time""
""fullscreenenter"",""1"",""4001""
","
","
","""event"",""trial"",""time""
""fullscreenenter"",""1"",""4001""
","
","","","","","","null","<div style=""font-size:60px;"">+</div>","null","","fixation","","","","","","","","",""
"memory-trial","200","506360","0.0-15.0-1.78","1928","2","""event"",""trial"",""time""
""fullscreenenter"",""1"",""4001""
","
","
","""event"",""trial"",""time""
""fullscreenenter"",""1"",""4001""
","
","","","","","","1685.1000000238419","images/sofa2.png","","","memory_trial","4","definitely_new","","","","","","",""
"html-keyboard-response","201","506863","0.0-15.0-0.79","1928","2","""event"",""trial"",""time""
""fullscreenenter"",""1"",""4001""
","
","
","""event"",""trial"",""time""
""fullscreenenter"",""1"",""4001""
","
","","","","","","null","<div style=""font-size:60px;"">+</div>","null","","fixation","","","","","","","","",""
"memory-trial","202","510981","0.0-15.0-1.79","1928","2","""event"",""trial"",""time""
""fullscreenenter"",""1"",""4001""
","
","
","""event"",""trial"",""time""
""fullscreenenter"",""1"",""4001""
","
","","","","","","3114.3000000715256","images/sheep2.png","","","memory_trial","1","definitely_old","","","","","","",""
"html-keyboard-response","203","511481","0.0-15.0-0.80","1928","2","""event"",""trial"",""time""
""fullscreenenter"",""1"",""4001""
","
","
","""event"",""trial"",""time""
""fullscreenenter"",""1"",""4001""
","
","","","","","","null","<div style=""font-size:60px;"">+</div>","null","","fixation","","","","","","","","",""
"memory-trial","204","513611","0.0-15.0-1.80","1928","2","""event"",""trial"",""time""
""fullscreenenter"",""1"",""4001""
","
","
","""event"",""trial"",""time""
""fullscreenenter"",""1"",""4001""
","
","","","","","","1125.5","images/sofa5.png","","","memory_trial","4","definitely_new","","","","","","",""
"html-keyboard-response","205","514113","0.0-15.0-0.81","1928","2","""event"",""trial"",""time""
""fullscreenenter"",""1"",""4001""
","
","
","""event"",""trial"",""time""
""fullscreenenter"",""1"",""4001""
","
","","","","","","null","<div style=""font-size:60px;"">+</div>","null","","fixation","","","","","","","","",""
"memory-trial","206","520241","0.0-15.0-1.81","1928","2","""event"",""trial"",""time""
""fullscreenenter"",""1"",""4001""
","
","
","""event"",""trial"",""time""
""fullscreenenter"",""1"",""4001""
","
","","","","","","5124.600000023842","images/feline3.png","","","memory_trial","3","maybe_new","","","","","","",""
"html-keyboard-response","207","520744","0.0-15.0-0.82","1928","2","""event"",""trial"",""time""
""fullscreenenter"",""1"",""4001""
","
","
","""event"",""trial"",""time""
""fullscreenenter"",""1"",""4001""
","
","","","","","","null","<div style=""font-size:60px;"">+</div>","null","","fixation","","","","","","","","",""
"memory-trial","208","523041","0.0-15.0-1.82","1928","2","""event"",""trial"",""time""
""fullscreenenter"",""1"",""4001""
","
","
","""event"",""trial"",""time""
""fullscreenenter"",""1"",""4001""
","
","","","","","","1292.1000000238419","images/tree3.png","","","memory_trial","1","definitely_old","","","","","","",""
"html-keyboard-response","209","523543","0.0-15.0-0.83","1928","2","""event"",""trial"",""time""
""fullscreenenter"",""1"",""4001""
","
","
","""event"",""trial"",""time""
""fullscreenenter"",""1"",""4001""
","
","","","","","","null","<div style=""font-size:60px;"">+</div>","null","","fixation","","","","","","","","",""
"memory-trial","210","525901","0.0-15.0-1.83","1928","2","""event"",""trial"",""time""
""fullscreenenter"",""1"",""4001""
","
","
","""event"",""trial"",""time""
""fullscreenenter"",""1"",""4001""
","
","","","","","","1355.3000000715256","images/boat2.png","","","memory_trial","4","definitely_new","","","","","","",""
"html-keyboard-response","211","526403","0.0-15.0-0.84","1928","2","""event"",""trial"",""time""
""fullscreenenter"",""1"",""4001""
","
","
","""event"",""trial"",""time""
""fullscreenenter"",""1"",""4001""
","
","","","","","","null","<div style=""font-size:60px;"">+</div>","null","","fixation","","","","","","","","",""
"memory-trial","212","528351","0.0-15.0-1.84","1928","2","""event"",""trial"",""time""
""fullscreenenter"",""1"",""4001""
","
","
","""event"",""trial"",""time""
""fullscreenenter"",""1"",""4001""
","
","","","","","","943.6000000238419","images/cactus4.png","","","memory_trial","1","definitely_old","","","","","","",""
"html-keyboard-response","213","528854","0.0-15.0-0.85","1928","2","""event"",""trial"",""time""
""fullscreenenter"",""1"",""4001""
","
","
","""event"",""trial"",""time""
""fullscreenenter"",""1"",""4001""
","
","","","","","","null","<div style=""font-size:60px;"">+</div>","null","","fixation","","","","","","","","",""
"memory-trial","214","530691","0.0-15.0-1.85","1928","2","""event"",""trial"",""time""
""fullscreenenter"",""1"",""4001""
","
","
","""event"",""trial"",""time""
""fullscreenenter"",""1"",""4001""
","
","","","","","","833.7000000476837","images/truck4.png","","","memory_trial","1","definitely_old","","","","","","",""
"html-keyboard-response","215","531192","0.0-15.0-0.86","1928","2","""event"",""trial"",""time""
""fullscreenenter"",""1"",""4001""
","
","
","""event"",""trial"",""time""
""fullscreenenter"",""1"",""4001""
","
","","","","","","null","<div style=""font-size:60px;"">+</div>","null","","fixation","","","","","","","","",""
"memory-trial","216","537661","0.0-15.0-1.86","1928","2","""event"",""trial"",""time""
""fullscreenenter"",""1"",""4001""
","
","
","""event"",""trial"",""time""
""fullscreenenter"",""1"",""4001""
","
","","","","","","5465.5","images/dog3.png","","","memory_trial","4","definitely_new","","","","","","",""
"html-keyboard-response","217","538162","0.0-15.0-0.87","1928","2","""event"",""trial"",""time""
""fullscreenenter"",""1"",""4001""
","
","
","""event"",""trial"",""time""
""fullscreenenter"",""1"",""4001""
","
","","","","","","null","<div style=""font-size:60px;"">+</div>","null","","fixation","","","","","","","","",""
"memory-trial","218","540141","0.0-15.0-1.87","1928","2","""event"",""trial"",""time""
""fullscreenenter"",""1"",""4001""
","
","
","""event"",""trial"",""time""
""fullscreenenter"",""1"",""4001""
","
","","","","","","974.8999999761581","images/bush4.png","","","memory_trial","4","definitely_new","","","","","","",""
"html-keyboard-response","219","540643","0.0-15.0-0.88","1928","2","""event"",""trial"",""time""
""fullscreenenter"",""1"",""4001""
","
","
","""event"",""trial"",""time""
""fullscreenenter"",""1"",""4001""
","
","","","","","","null","<div style=""font-size:60px;"">+</div>","null","","fixation","","","","","","","","",""
"memory-trial","220","543121","0.0-15.0-1.88","1928","2","""event"",""trial"",""time""
""fullscreenenter"",""1"",""4001""
","
","
","""event"",""trial"",""time""
""fullscreenenter"",""1"",""4001""
","
","","","","","","1474.2999999523163","images/bed3.png","","","memory_trial","1","definitely_old","","","","","","",""
"html-keyboard-response","221","543624","0.0-15.0-0.89","1928","2","""event"",""trial"",""time""
""fullscreenenter"",""1"",""4001""
","
","
","""event"",""trial"",""time""
""fullscreenenter"",""1"",""4001""
","
","","","","","","null","<div style=""font-size:60px;"">+</div>","null","","fixation","","","","","","","","",""
"memory-trial","222","545680","0.0-15.0-1.89","1928","2","""event"",""trial"",""time""
""fullscreenenter"",""1"",""4001""
","
","
","""event"",""trial"",""time""
""fullscreenenter"",""1"",""4001""
","
","","","","","","1053.6000000238419","images/banana4.png","","","memory_trial","1","definitely_old","","","","","","",""
"html-keyboard-response","223","546182","0.0-15.0-0.90","1928","2","""event"",""trial"",""time""
""fullscreenenter"",""1"",""4001""
","
","
","""event"",""trial"",""time""
""fullscreenenter"",""1"",""4001""
","
","","","","","","null","<div style=""font-size:60px;"">+</div>","null","","fixation","","","","","","","","",""
"memory-trial","224","548431","0.0-15.0-1.90","1928","2","""event"",""trial"",""time""
""fullscreenenter"",""1"",""4001""
","
","
","""event"",""trial"",""time""
""fullscreenenter"",""1"",""4001""
","
","","","","","","1245.2999999523163","images/sofa4.png","","","memory_trial","4","definitely_new","","","","","","",""
"html-keyboard-response","225","548933","0.0-15.0-0.91","1928","2","""event"",""trial"",""time""
""fullscreenenter"",""1"",""4001""
","
","
","""event"",""trial"",""time""
""fullscreenenter"",""1"",""4001""
","
","","","","","","null","<div style=""font-size:60px;"">+</div>","null","","fixation","","","","","","","","",""
"memory-trial","226","554310","0.0-15.0-1.91","1928","2","""event"",""trial"",""time""
""fullscreenenter"",""1"",""4001""
","
","
","""event"",""trial"",""time""
""fullscreenenter"",""1"",""4001""
","
","","","","","","4374.299999952316","images/table1.png","","","memory_trial","2","maybe_old","","","","","","",""
"html-keyboard-response","227","554812","0.0-15.0-0.92","1928","2","""event"",""trial"",""time""
""fullscreenenter"",""1"",""4001""
","
","
","""event"",""trial"",""time""
""fullscreenenter"",""1"",""4001""
","
","","","","","","null","<div style=""font-size:60px;"">+</div>","null","","fixation","","","","","","","","",""
"memory-trial","228","557541","0.0-15.0-1.92","1928","2","""event"",""trial"",""time""
""fullscreenenter"",""1"",""4001""
","
","
","""event"",""trial"",""time""
""fullscreenenter"",""1"",""4001""
","
","","","","","","1725","images/goat3.png","","","memory_trial","4","definitely_new","","","","","","",""
"html-keyboard-response","229","558042","0.0-15.0-0.93","1928","2","""event"",""trial"",""time""
""fullscreenenter"",""1"",""4001""
","
","
","""event"",""trial"",""time""
""fullscreenenter"",""1"",""4001""
","
","","","","","","null","<div style=""font-size:60px;"">+</div>","null","","fixation","","","","","","","","",""
"memory-trial","230","560471","0.0-15.0-1.93","1928","2","""event"",""trial"",""time""
""fullscreenenter"",""1"",""4001""
","
","
","""event"",""trial"",""time""
""fullscreenenter"",""1"",""4001""
","
","","","","","","1426.1999999284744","images/train4.png","","","memory_trial","1","definitely_old","","","","","","",""
"html-keyboard-response","231","560974","0.0-15.0-0.94","1928","2","""event"",""trial"",""time""
""fullscreenenter"",""1"",""4001""
","
","
","""event"",""trial"",""time""
""fullscreenenter"",""1"",""4001""
","
","","","","","","null","<div style=""font-size:60px;"">+</div>","null","","fixation","","","","","","","","",""
"memory-trial","232","566672","0.0-15.0-1.94","1928","2","""event"",""trial"",""time""
""fullscreenenter"",""1"",""4001""
","
","
","""event"",""trial"",""time""
""fullscreenenter"",""1"",""4001""
","
","","","","","","4693.100000023842","images/goat2.png","","","memory_trial","3","maybe_new","","","","","","",""
"html-keyboard-response","233","567174","0.0-15.0-0.95","1928","2","""event"",""trial"",""time""
""fullscreenenter"",""1"",""4001""
","
","
","""event"",""trial"",""time""
""fullscreenenter"",""1"",""4001""
","
","","","","","","null","<div style=""font-size:60px;"">+</div>","null","","fixation","","","","","","","","",""
"memory-trial","234","570021","0.0-15.0-1.95","1928","2","""event"",""trial"",""time""
""fullscreenenter"",""1"",""4001""
","
","
","""event"",""trial"",""time""
""fullscreenenter"",""1"",""4001""
","
","","","","","","1844.7000000476837","images/boat3.png","","","memory_trial","4","definitely_new","","","","","","",""
"html-keyboard-response","235","570523","0.0-15.0-0.96","1928","2","""event"",""trial"",""time""
""fullscreenenter"",""1"",""4001""
","
","
","""event"",""trial"",""time""
""fullscreenenter"",""1"",""4001""
","
","","","","","","null","<div style=""font-size:60px;"">+</div>","null","","fixation","","","","","","","","",""
"memory-trial","236","574642","0.0-15.0-1.96","1928","2","""event"",""trial"",""time""
""fullscreenenter"",""1"",""4001""
","
","
","""event"",""trial"",""time""
""fullscreenenter"",""1"",""4001""
","
","","","","","","3115.399999976158","images/horse4.png","","","memory_trial","3","maybe_new","","","","","","",""
"html-keyboard-response","237","575144","0.0-15.0-0.97","1928","2","""event"",""trial"",""time""
""fullscreenenter"",""1"",""4001""
","
","
","""event"",""trial"",""time""
""fullscreenenter"",""1"",""4001""
","
","","","","","","null","<div style=""font-size:60px;"">+</div>","null","","fixation","","","","","","","","",""
"memory-trial","238","577311","0.0-15.0-1.97","1928","2","""event"",""trial"",""time""
""fullscreenenter"",""1"",""4001""
","
","
","""event"",""trial"",""time""
""fullscreenenter"",""1"",""4001""
","
","","","","","","1163.3000000715256","images/plane5.png","","","memory_trial","1","definitely_old","","","","","","",""
"html-keyboard-response","239","577812","0.0-15.0-0.98","1928","2","""event"",""trial"",""time""
""fullscreenenter"",""1"",""4001""
","
","
","""event"",""trial"",""time""
""fullscreenenter"",""1"",""4001""
","
","","","","","","null","<div style=""font-size:60px;"">+</div>","null","","fixation","","","","","","","","",""
"memory-trial","240","583191","0.0-15.0-1.98","1928","2","""event"",""trial"",""time""
""fullscreenenter"",""1"",""4001""
","
","
","""event"",""trial"",""time""
""fullscreenenter"",""1"",""4001""
","
","","","","","","4376.100000023842","images/bush3.png","","","memory_trial","4","definitely_new","","","","","","",""
"html-keyboard-response","241","583693","0.0-15.0-0.99","1928","2","""event"",""trial"",""time""
""fullscreenenter"",""1"",""4001""
","
","
","""event"",""trial"",""time""
""fullscreenenter"",""1"",""4001""
","
","","","","","","null","<div style=""font-size:60px;"">+</div>","null","","fixation","","","","","","","","",""
"memory-trial","242","586271","0.0-15.0-1.99","1928","2","""event"",""trial"",""time""
""fullscreenenter"",""1"",""4001""
","
","
","""event"",""trial"",""time""
""fullscreenenter"",""1"",""4001""
","
","","","","","","1574.5","images/rabbit4.png","","","memory_trial","1","definitely_old","","","","","","",""
"html-keyboard-response","243","586774","0.0-15.0-0.100","1928","2","""event"",""trial"",""time""
""fullscreenenter"",""1"",""4001""
","
","
","""event"",""trial"",""time""
""fullscreenenter"",""1"",""4001""
","
","","","","","","null","<div style=""font-size:60px;"">+</div>","null","","fixation","","","","","","","","",""
"memory-trial","244","589541","0.0-15.0-1.100","1928","2","""event"",""trial"",""time""
""fullscreenenter"",""1"",""4001""
","
","
","""event"",""trial"",""time""
""fullscreenenter"",""1"",""4001""
","
","","","","","","1762.4000000953674","images/cow5.png","","","memory_trial","1","definitely_old","","","","","","",""
"html-keyboard-response","245","590042","0.0-15.0-0.101","1928","2","""event"",""trial"",""time""
""fullscreenenter"",""1"",""4001""
","
","
","""event"",""trial"",""time""
""fullscreenenter"",""1"",""4001""
","
","","","","","","null","<div style=""font-size:60px;"">+</div>","null","","fixation","","","","","","","","",""
"memory-trial","246","592131","0.0-15.0-1.101","1928","2","""event"",""trial"",""time""
""fullscreenenter"",""1"",""4001""
","
","
","""event"",""trial"",""time""
""fullscreenenter"",""1"",""4001""
","
","","","","","","1085.6000000238419","images/tree4.png","","","memory_trial","4","definitely_new","","","","","","",""
"html-button-response","247","633414","0.0-15.0-2.101-0.101","1928","2","""event"",""trial"",""time""
""fullscreenenter"",""1"",""4001""
","
","
","""event"",""trial"",""time""
""fullscreenenter"",""1"",""4001""
","
","","","","","","41280.700000047684","<p> Take a break! </p><p> Click the button to continue. </p>","0","","break","","","","","","","","",""
"html-keyboard-response","248","633916","0.0-15.0-0.102","1928","2","""event"",""trial"",""time""
""fullscreenenter"",""1"",""4001""
","
","
","""event"",""trial"",""time""
""fullscreenenter"",""1"",""4001""
","
","","","","","","null","<div style=""font-size:60px;"">+</div>","null","","fixation","","","","","","","","",""
"memory-trial","249","638288","0.0-15.0-1.102","1928","2","""event"",""trial"",""time""
""fullscreenenter"",""1"",""4001""
","
","
","""event"",""trial"",""time""
""fullscreenenter"",""1"",""4001""
","
","","","","","","3368.2000000476837","images/goat4.png","","","memory_trial","4","definitely_new","","","","","","",""
"html-keyboard-response","250","638791","0.0-15.0-0.103","1928","2","""event"",""trial"",""time""
""fullscreenenter"",""1"",""4001""
","
","
","""event"",""trial"",""time""
""fullscreenenter"",""1"",""4001""
","
","","","","","","null","<div style=""font-size:60px;"">+</div>","null","","fixation","","","","","","","","",""
"memory-trial","251","640899","0.0-15.0-1.103","1928","2","""event"",""trial"",""time""
""fullscreenenter"",""1"",""4001""
","
","
","""event"",""trial"",""time""
""fullscreenenter"",""1"",""4001""
","
","","","","","","1104.7000000476837","images/chair1.png","","","memory_trial","1","definitely_old","","","","","","",""
"html-keyboard-response","252","641402","0.0-15.0-0.104","1928","2","""event"",""trial"",""time""
""fullscreenenter"",""1"",""4001""
","
","
","""event"",""trial"",""time""
""fullscreenenter"",""1"",""4001""
","
","","","","","","null","<div style=""font-size:60px;"">+</div>","null","","fixation","","","","","","","","",""
"memory-trial","253","643659","0.0-15.0-1.104","1928","2","""event"",""trial"",""time""
""fullscreenenter"",""1"",""4001""
","
","
","""event"",""trial"",""time""
""fullscreenenter"",""1"",""4001""
","
","","","","","","1254.6000000238419","images/cactus3.png","","","memory_trial","1","definitely_old","","","","","","",""
"html-keyboard-response","254","644161","0.0-15.0-0.105","1928","2","""event"",""trial"",""time""
""fullscreenenter"",""1"",""4001""
","
","
","""event"",""trial"",""time""
""fullscreenenter"",""1"",""4001""
","
","","","","","","null","<div style=""font-size:60px;"">+</div>","null","","fixation","","","","","","","","",""
"memory-trial","255","647990","0.0-15.0-1.105","1928","2","""event"",""trial"",""time""
""fullscreenenter"",""1"",""4001""
","
","
","""event"",""trial"",""time""
""fullscreenenter"",""1"",""4001""
","
","","","","","","2825.1999999284744","images/cactus1.png","","","memory_trial","4","definitely_new","","","","","","",""
"html-keyboard-response","256","648492","0.0-15.0-0.106","1928","2","""event"",""trial"",""time""
""fullscreenenter"",""1"",""4001""
","
","
","""event"",""trial"",""time""
""fullscreenenter"",""1"",""4001""
","
","","","","","","null","<div style=""font-size:60px;"">+</div>","null","","fixation","","","","","","","","",""
"memory-trial","257","655209","0.0-15.0-1.106","1928","2","""event"",""trial"",""time""
""fullscreenenter"",""1"",""4001""
","
","
","""event"",""trial"",""time""
""fullscreenenter"",""1"",""4001""
","
","","","","","","5713.5","images/tree1.png","","","memory_trial","3","maybe_new","","","","","","",""
"html-keyboard-response","258","655711","0.0-15.0-0.107","1928","2","""event"",""trial"",""time""
""fullscreenenter"",""1"",""4001""
","
","
","""event"",""trial"",""time""
""fullscreenenter"",""1"",""4001""
","
","","","","","","null","<div style=""font-size:60px;"">+</div>","null","","fixation","","","","","","","","",""
"memory-trial","259","658290","0.0-15.0-1.107","1928","2","""event"",""trial"",""time""
""fullscreenenter"",""1"",""4001""
","
","
","""event"",""trial"",""time""
""fullscreenenter"",""1"",""4001""
","
","","","","","","1575.2999999523163","images/truck2.png","","","memory_trial","1","definitely_old","","","","","","",""
"html-keyboard-response","260","658791","0.0-15.0-0.108","1928","2","""event"",""trial"",""time""
""fullscreenenter"",""1"",""4001""
","
","
","""event"",""trial"",""time""
""fullscreenenter"",""1"",""4001""
","
","","","","","","null","<div style=""font-size:60px;"">+</div>","null","","fixation","","","","","","","","",""
"memory-trial","261","664489","0.0-15.0-1.108","1928","2","""event"",""trial"",""time""
""fullscreenenter"",""1"",""4001""
","
","
","""event"",""trial"",""time""
""fullscreenenter"",""1"",""4001""
","
","","","","","","4694.199999928474","images/rodent2.png","","","memory_trial","4","definitely_new","","","","","","",""
"html-keyboard-response","262","664992","0.0-15.0-0.109","1928","2","""event"",""trial"",""time""
""fullscreenenter"",""1"",""4001""
","
","
","""event"",""trial"",""time""
""fullscreenenter"",""1"",""4001""
","
","","","","","","null","<div style=""font-size:60px;"">+</div>","null","","fixation","","","","","","","","",""
"memory-trial","263","667219","0.0-15.0-1.109","1928","2","""event"",""trial"",""time""
""fullscreenenter"",""1"",""4001""
","
","
","""event"",""trial"",""time""
""fullscreenenter"",""1"",""4001""
","
","","","","","","1223.5","images/orange5.png","","","memory_trial","1","definitely_old","","","","","","",""
"html-keyboard-response","264","667721","0.0-15.0-0.110","1928","2","""event"",""trial"",""time""
""fullscreenenter"",""1"",""4001""
","
","
","""event"",""trial"",""time""
""fullscreenenter"",""1"",""4001""
","
","","","","","","null","<div style=""font-size:60px;"">+</div>","null","","fixation","","","","","","","","",""
"memory-trial","265","669480","0.0-15.0-1.110","1928","2","""event"",""trial"",""time""
""fullscreenenter"",""1"",""4001""
","
","
","""event"",""trial"",""time""
""fullscreenenter"",""1"",""4001""
","
","","","","","","755.2000000476837","images/banana5.png","","","memory_trial","1","definitely_old","","","","","","",""
"html-keyboard-response","266","669982","0.0-15.0-0.111","1928","2","""event"",""trial"",""time""
""fullscreenenter"",""1"",""4001""
","
","
","""event"",""trial"",""time""
""fullscreenenter"",""1"",""4001""
","
","","","","","","null","<div style=""font-size:60px;"">+</div>","null","","fixation","","","","","","","","",""
"memory-trial","267","672870","0.0-15.0-1.111","1928","2","""event"",""trial"",""time""
""fullscreenenter"",""1"",""4001""
","
","
","""event"",""trial"",""time""
""fullscreenenter"",""1"",""4001""
","
","","","","","","1883.8000000715256","images/flower4.png","","","memory_trial","4","definitely_new","","","","","","",""
"html-keyboard-response","268","673372","0.0-15.0-0.112","1928","2","""event"",""trial"",""time""
""fullscreenenter"",""1"",""4001""
","
","
","""event"",""trial"",""time""
""fullscreenenter"",""1"",""4001""
","
","","","","","","null","<div style=""font-size:60px;"">+</div>","null","","fixation","","","","","","","","",""
"memory-trial","269","675729","0.0-15.0-1.112","1928","2","""event"",""trial"",""time""
""fullscreenenter"",""1"",""4001""
","
","
","""event"",""trial"",""time""
""fullscreenenter"",""1"",""4001""
","
","","","","","","1354.1999999284744","images/bed4.png","","","memory_trial","4","definitely_new","","","","","","",""
"html-keyboard-response","270","676232","0.0-15.0-0.113","1928","2","""event"",""trial"",""time""
""fullscreenenter"",""1"",""4001""
","
","
","""event"",""trial"",""time""
""fullscreenenter"",""1"",""4001""
","
","","","","","","null","<div style=""font-size:60px;"">+</div>","null","","fixation","","","","","","","","",""
"memory-trial","271","680230","0.0-15.0-1.113","1928","2","""event"",""trial"",""time""
""fullscreenenter"",""1"",""4001""
","
","
","""event"",""trial"",""time""
""fullscreenenter"",""1"",""4001""
","
","","","","","","2995.2999999523163","images/orange4.png","","","memory_trial","4","definitely_new","","","","","","",""
"html-keyboard-response","272","680731","0.0-15.0-0.114","1928","2","""event"",""trial"",""time""
""fullscreenenter"",""1"",""4001""
","
","
","""event"",""trial"",""time""
""fullscreenenter"",""1"",""4001""
","
","","","","","","null","<div style=""font-size:60px;"">+</div>","null","","fixation","","","","","","","","",""
"memory-trial","273","684029","0.0-15.0-1.114","1928","2","""event"",""trial"",""time""
""fullscreenenter"",""1"",""4001""
","
","
","""event"",""trial"",""time""
""fullscreenenter"",""1"",""4001""
","
","","","","","","2294.7000000476837","images/banana3.png","","","memory_trial","1","definitely_old","","","","","","",""
"html-keyboard-response","274","684531","0.0-15.0-0.115","1928","2","""event"",""trial"",""time""
""fullscreenenter"",""1"",""4001""
","
","
","""event"",""trial"",""time""
""fullscreenenter"",""1"",""4001""
","
","","","","","","null","<div style=""font-size:60px;"">+</div>","null","","fixation","","","","","","","","",""
"memory-trial","275","687190","0.0-15.0-1.115","1928","2","""event"",""trial"",""time""
""fullscreenenter"",""1"",""4001""
","
","
","""event"",""trial"",""time""
""fullscreenenter"",""1"",""4001""
","
","","","","","","1654.6000000238419","images/train2.png","","","memory_trial","1","definitely_old","","","","","","",""
"html-keyboard-response","276","687691","0.0-15.0-0.116","1928","2","""event"",""trial"",""time""
""fullscreenenter"",""1"",""4001""
","
","
","""event"",""trial"",""time""
""fullscreenenter"",""1"",""4001""
","
","","","","","","null","<div style=""font-size:60px;"">+</div>","null","","fixation","","","","","","","","",""
"memory-trial","277","690079","0.0-15.0-1.116","1928","2","""event"",""trial"",""time""
""fullscreenenter"",""1"",""4001""
","
","
","""event"",""trial"",""time""
""fullscreenenter"",""1"",""4001""
","
","","","","","","1384.7999999523163","images/goat5.png","","","memory_trial","4","definitely_new","","","","","","",""
"html-keyboard-response","278","690581","0.0-15.0-0.117","1928","2","""event"",""trial"",""time""
""fullscreenenter"",""1"",""4001""
","
","
","""event"",""trial"",""time""
""fullscreenenter"",""1"",""4001""
","
","","","","","","null","<div style=""font-size:60px;"">+</div>","null","","fixation","","","","","","","","",""
"memory-trial","279","693419","0.0-15.0-1.117","1928","2","""event"",""trial"",""time""
""fullscreenenter"",""1"",""4001""
","
","
","""event"",""trial"",""time""
""fullscreenenter"",""1"",""4001""
","
","","","","","","1834.8000000715256","images/flower2.png","","","memory_trial","1","definitely_old","","","","","","",""
"html-keyboard-response","280","693921","0.0-15.0-0.118","1928","2","""event"",""trial"",""time""
""fullscreenenter"",""1"",""4001""
","
","
","""event"",""trial"",""time""
""fullscreenenter"",""1"",""4001""
","
","","","","","","null","<div style=""font-size:60px;"">+</div>","null","","fixation","","","","","","","","",""
"memory-trial","281","697240","0.0-15.0-1.118","1928","2","""event"",""trial"",""time""
""fullscreenenter"",""1"",""4001""
","
","
","""event"",""trial"",""time""
""fullscreenenter"",""1"",""4001""
","
","","","","","","2314.7000000476837","images/horse3.png","","","memory_trial","2","maybe_old","","","","","","",""
"html-keyboard-response","282","697742","0.0-15.0-0.119","1928","2","""event"",""trial"",""time""
""fullscreenenter"",""1"",""4001""
","
","
","""event"",""trial"",""time""
""fullscreenenter"",""1"",""4001""
","
","","","","","","null","<div style=""font-size:60px;"">+</div>","null","","fixation","","","","","","","","",""
"memory-trial","283","700089","0.0-15.0-1.119","1928","2","""event"",""trial"",""time""
""fullscreenenter"",""1"",""4001""
","
","
","""event"",""trial"",""time""
""fullscreenenter"",""1"",""4001""
","
","","","","","","1343.3000000715256","images/banana1.png","","","memory_trial","1","definitely_old","","","","","","",""
"preload","284","716766","0.0-16.0","1928","2","""event"",""trial"",""time""
""fullscreenenter"",""1"",""4001""
","
","
","""event"",""trial"",""time""
""fullscreenenter"",""1"",""4001""
","
","true","false","[]","[]","[]","","","","","","","","","","","","","",""
"learning-instructions","285","725550","0.0-17.0-0.0-0.0-0.0","1928","2","""event"",""trial"",""time""
""fullscreenenter"",""1"",""4001""
","
","
","""event"",""trial"",""time""
""fullscreenenter"",""1"",""4001""
","
","","","","","","3978.399999976158","<p> We're now going to ask you to return your farm animals to barns again. </p>","","0","instructions","","","","","","","","",""
"learning-instructions","286","731688","0.0-17.0-0.0-0.0-0.1","1928","2","""event"",""trial"",""time""
""fullscreenenter"",""1"",""4001""
","
","
","""event"",""trial"",""time""
""fullscreenenter"",""1"",""4001""
","
","","","","","","697.2999999523163","<p> On each trial, you will see a farm animal. Select the barn where you think the animal belongs. </p>","","0","instructions","","","","","","","","",""
"learning-instructions","287","743006","0.0-17.0-0.0-0.0-0.2","1928","2","""event"",""trial"",""time""
""fullscreenenter"",""1"",""4001""
","
","
","""event"",""trial"",""time""
""fullscreenenter"",""1"",""4001""
","
","","","","","","4255.099999904633","<p> To make your selection, think about what you learned last week. You will NOT receive any feedback about your choice. </p>","","0","instructions","","","","","","","","",""
"learning-instructions","288","752167","0.0-17.0-0.0-0.0-0.3","1928","2","""event"",""trial"",""time""
""fullscreenenter"",""1"",""4001""
","
","
","""event"",""trial"",""time""
""fullscreenenter"",""1"",""4001""
","
","","","","","","1064.3999999761581","<p> You should use the 1 key to select the barn on the left, the 2 key to select the barn in the middle, and the 3 key to select the barn on the right. </p><br><div class=""choice-mem-instructions-grid""> <div class=""choice-mem-option""><img src=""images/animals_choice1.png"" class=""choice-mem-option-img"" stage=""instructions"" position=""0"" ><div class=""choice-mem-option-text""> Press ""1."" </div></div><div class=""choice-mem-option""><img src=""images/animals_choice2.png"" class=""choice-mem-option-img"" stage=""instructions"" position=""1"" ><div class=""choice-mem-option-text""> Press ""2."" </div></div><div class=""choice-mem-option""><img src=""images/animals_choice3.png"" class=""choice-mem-option-img"" stage=""instructions"" position=""2"" ><div class=""choice-mem-option-text""> Press ""3."" </div></div></div>","","0","instructions","","","","","","","","",""
"learning-instructions","289","760252","0.0-17.0-0.0-0.0-0.4","1928","2","""event"",""trial"",""time""
""fullscreenenter"",""1"",""4001""
","
","
","""event"",""trial"",""time""
""fullscreenenter"",""1"",""4001""
","
","","","","","","1810.3999999761581","<p> You will have 10 seconds to make each selection. Try to respond before time runs out! </p>","","0","instructions","","","","","","","","",""
"learning-instructions","290","763059","0.0-17.0-0.0-1.0","1928","2","""event"",""trial"",""time""
""fullscreenenter"",""1"",""4001""
","
","
","""event"",""trial"",""time""
""fullscreenenter"",""1"",""4001""
","
","","","","","","736.7000000476837","<p> You are now ready to begin the game. </p>","","0","instructions","","","","","","","","",""
"html-keyboard-response","291","763680","0.0-17.0-0.0-2.0-0.0","1928","2","""event"",""trial"",""time""
""fullscreenenter"",""1"",""4001""
","
","
","""event"",""trial"",""time""
""fullscreenenter"",""1"",""4001""
","
","","","","","","null","<div style=""font-size:60px;"">+</div>","null","","fixation","","","","","","","","",""
