"trial_type","trial_index","time_elapsed","internal_node_id","subject_id","task_version","interactions","blur_events","focus_events","fullscreenenter_events","fullscreenexit_events","success","timeout","failed_images","failed_audio","failed_video","rt","stimulus","response","button_pressed","task_part","key_press","answer","correct","left_choice","middle_choice","right_choice","choice_positions","option_selected","block"
"pavlovia","0","3","0.0-0.0","2012","2","""event"",""trial"",""time""
""blur"",""1"",""4054""
""focus"",""1"",""18315""
""fullscreenenter"",""1"",""20196""
","""event"",""trial"",""time""
""blur"",""1"",""4054""
","""event"",""trial"",""time""
""focus"",""1"",""18315""
","""event"",""trial"",""time""
""fullscreenenter"",""1"",""20196""
","
","","","","","","","","","","","","","","","","","","",""
"fullscreen","1","21186","0.0-1.0","2012","2","""event"",""trial"",""time""
""blur"",""1"",""4054""
""focus"",""1"",""18315""
""fullscreenenter"",""1"",""20196""
""fullscreenexit"",""2"",""22012""
","""event"",""trial"",""time""
""blur"",""1"",""4054""
","""event"",""trial"",""time""
""focus"",""1"",""18315""
","""event"",""trial"",""time""
""fullscreenenter"",""1"",""20196""
","""event"",""trial"",""time""
""fullscreenexit"",""2"",""22012""
","true","","","","","","","","","","","","","","","","","",""
"preload","2","22377","0.0-2.0","2012","2","""event"",""trial"",""time""
""blur"",""1"",""4054""
""focus"",""1"",""18315""
""fullscreenenter"",""1"",""20196""
""fullscreenexit"",""2"",""22012""
","""event"",""trial"",""time""
""blur"",""1"",""4054""
","""event"",""trial"",""time""
""focus"",""1"",""18315""
","""event"",""trial"",""time""
""fullscreenenter"",""1"",""20196""
","""event"",""trial"",""time""
""fullscreenexit"",""2"",""22012""
","true","false","[]","[]","[]","","","","","","","","","","","","","",""
"audio-keyboard-response","3","23652","0.0-3.0","2012","2","""event"",""trial"",""time""
""blur"",""1"",""4054""
""focus"",""1"",""18315""
""fullscreenenter"",""1"",""20196""
""fullscreenexit"",""2"",""22012""
","""event"",""trial"",""time""
""blur"",""1"",""4054""
","""event"",""trial"",""time""
""focus"",""1"",""18315""
","""event"",""trial"",""time""
""fullscreenenter"",""1"",""20196""
","""event"",""trial"",""time""
""fullscreenexit"",""2"",""22012""
","","","","","","1280","audio/beep_loop.wav"," ","","","","","","","","","","",""
"audio-button-response","4","24724","0.0-4.0","2012","2","""event"",""trial"",""time""
""blur"",""1"",""4054""
""focus"",""1"",""18315""
""fullscreenenter"",""1"",""20196""
""fullscreenexit"",""2"",""22012""
","""event"",""trial"",""time""
""blur"",""1"",""4054""
","""event"",""trial"",""time""
""focus"",""1"",""18315""
","""event"",""trial"",""time""
""fullscreenenter"",""1"",""20196""
","""event"",""trial"",""time""
""fullscreenexit"",""2"",""22012""
","","","","","","1069","audio/turtle.wav","3","","","","","","","","","","",""
"audio-button-response","5","26446","0.0-5.0","2012","2","""event"",""trial"",""time""
""blur"",""1"",""4054""
""focus"",""1"",""18315""
""fullscreenenter"",""1"",""20196""
""fullscreenexit"",""2"",""22012""
","""event"",""trial"",""time""
""blur"",""1"",""4054""
","""event"",""trial"",""time""
""focus"",""1"",""18315""
","""event"",""trial"",""time""
""fullscreenenter"",""1"",""20196""
","""event"",""trial"",""time""
""fullscreenexit"",""2"",""22012""
","","","","","","709","audio/shark.wav","2","","","","","","","","","","",""
"preload","6","33082","0.0-6.0","2012","2","""event"",""trial"",""time""
""blur"",""1"",""4054""
""focus"",""1"",""18315""
""fullscreenenter"",""1"",""20196""
""fullscreenexit"",""2"",""22012""
","""event"",""trial"",""time""
""blur"",""1"",""4054""
","""event"",""trial"",""time""
""focus"",""1"",""18315""
","""event"",""trial"",""time""
""fullscreenenter"",""1"",""20196""
","""event"",""trial"",""time""
""fullscreenexit"",""2"",""22012""
","true","false","[]","[]","[]","","","","","","","","","","","","","",""
"learning-instructions","7","44280","0.0-7.0-0.0","2012","2","""event"",""trial"",""time""
""blur"",""1"",""4054""
""focus"",""1"",""18315""
""fullscreenenter"",""1"",""20196""
""fullscreenexit"",""2"",""22012""
","""event"",""trial"",""time""
""blur"",""1"",""4054""
","""event"",""trial"",""time""
""focus"",""1"",""18315""
","""event"",""trial"",""time""
""fullscreenenter"",""1"",""20196""
","""event"",""trial"",""time""
""fullscreenexit"",""2"",""22012""
","","","","","","6390.899999976158","<p> Welcome back! </p><p> Last week, you had to make choices about lots of different items.  </p>","","0","instructions","","","","","","","","",""
"learning-instructions","8","107509","0.0-7.0-0.1","2012","2","""event"",""trial"",""time""
""blur"",""1"",""4054""
""focus"",""1"",""18315""
""fullscreenenter"",""1"",""20196""
""fullscreenexit"",""2"",""22012""
","""event"",""trial"",""time""
""blur"",""1"",""4054""
","""event"",""trial"",""time""
""focus"",""1"",""18315""
","""event"",""trial"",""time""
""fullscreenenter"",""1"",""20196""
","""event"",""trial"",""time""
""fullscreenexit"",""2"",""22012""
","","","","","","58919.60000002384","<p> Today, we are going to ask you to try to remember all the items. </p>","","0","instructions","","","","","","","","",""
"learning-instructions","9","122114","0.0-7.0-0.2","2012","2","""event"",""trial"",""time""
""blur"",""1"",""4054""
""focus"",""1"",""18315""
""fullscreenenter"",""1"",""20196""
""fullscreenexit"",""2"",""22012""
","""event"",""trial"",""time""
""blur"",""1"",""4054""
","""event"",""trial"",""time""
""focus"",""1"",""18315""
","""event"",""trial"",""time""
""fullscreenenter"",""1"",""20196""
","""event"",""trial"",""time""
""fullscreenexit"",""2"",""22012""
","","","","","","4448.200000047684","<p> On every trial, you will see an image. </p><p> The image may be an OLD image you saw during the games last week or it may be a NEW image that was not presented. </p>","","0","instructions","","","","","","","","",""
"learning-instructions","10","170544","0.0-7.0-0.3","2012","2","""event"",""trial"",""time""
""blur"",""1"",""4054""
""focus"",""1"",""18315""
""fullscreenenter"",""1"",""20196""
""fullscreenexit"",""2"",""22012""
""blur"",""11"",""173348""
""focus"",""11"",""174197""
""blur"",""11"",""174555""
""focus"",""11"",""176166""
","""event"",""trial"",""time""
""blur"",""1"",""4054""
""blur"",""11"",""173348""
""blur"",""11"",""174555""
","""event"",""trial"",""time""
""focus"",""1"",""18315""
""focus"",""11"",""174197""
""focus"",""11"",""176166""
","""event"",""trial"",""time""
""fullscreenenter"",""1"",""20196""
","""event"",""trial"",""time""
""fullscreenexit"",""2"",""22012""
","","","","","","39937.90000009537","<p> You need to select whether the image is:  </p><p>  'Definitely old', 'Maybe old', 'Maybe new', or 'Definitely new.'  </p><div class=""mem-choice-instructions-grid""><div class=""choice-option"" id=""choice-option-1"" ><img src=""images/definitely_old_1.png"" id=""choice-option-img-1"" class=""choice-option-img"" stage=""1""></div><div class=""choice-option"" id=""choice-option-2"" ><img src=""images/maybe_old_1.png"" id=""choice-option-img-2"" class=""choice-option-img"" stage=""1""></div><div class=""choice-option"" id=""choice-option-3"" ><img src=""images/maybe_new_1.png"" id=""choice-option-img-3"" class=""choice-option-img"" stage=""1""></div><div class=""choice-option"" id=""choice-option-4"" > <img src=""images/definitely_new_1.png"" id=""choice-option-img-4"" class=""choice-option-img"" stage=""1""></div></div>","","0","instructions","","","","","","","","",""
"learning-instructions","11","177649","0.0-7.0-0.4","2012","2","""event"",""trial"",""time""
""blur"",""1"",""4054""
""focus"",""1"",""18315""
""fullscreenenter"",""1"",""20196""
""fullscreenexit"",""2"",""22012""
""blur"",""11"",""173348""
""focus"",""11"",""174197""
""blur"",""11"",""174555""
""focus"",""11"",""176166""
""blur"",""12"",""180591""
""focus"",""12"",""183273""
","""event"",""trial"",""time""
""blur"",""1"",""4054""
""blur"",""11"",""173348""
""blur"",""11"",""174555""
""blur"",""12"",""180591""
","""event"",""trial"",""time""
""focus"",""1"",""18315""
""focus"",""11"",""174197""
""focus"",""11"",""176166""
""focus"",""12"",""183273""
","""event"",""trial"",""time""
""fullscreenenter"",""1"",""20196""
","""event"",""trial"",""time""
""fullscreenexit"",""2"",""22012""
","","","","","","400.09999990463257","<p> You should use the 1, 2, 3, and 4 keys to make your responses.  </p><div class=""mem-choice-instructions-grid""><div class=""choice-option"" id=""choice-option-1"" ><img src=""images/definitely_old.png"" id=""choice-option-img-1"" class=""choice-option-img"" stage=""1""></div><div class=""choice-option"" id=""choice-option-2"" ><img src=""images/maybe_old.png"" id=""choice-option-img-2"" class=""choice-option-img"" stage=""1""></div><div class=""choice-option"" id=""choice-option-3"" ><img src=""images/maybe_new.png"" id=""choice-option-img-3"" class=""choice-option-img"" stage=""1""></div><div class=""choice-option"" id=""choice-option-4"" > <img src=""images/definitely_new.png"" id=""choice-option-img-4"" class=""choice-option-img"" stage=""1""></div></div>","","0","instructions","","","","","","","","",""
"learning-instructions","12","185171","0.0-7.0-0.5","2012","2","""event"",""trial"",""time""
""blur"",""1"",""4054""
""focus"",""1"",""18315""
""fullscreenenter"",""1"",""20196""
""fullscreenexit"",""2"",""22012""
""blur"",""11"",""173348""
""focus"",""11"",""174197""
""blur"",""11"",""174555""
""focus"",""11"",""176166""
""blur"",""12"",""180591""
""focus"",""12"",""183273""
","""event"",""trial"",""time""
""blur"",""1"",""4054""
""blur"",""11"",""173348""
""blur"",""11"",""174555""
""blur"",""12"",""180591""
","""event"",""trial"",""time""
""focus"",""1"",""18315""
""focus"",""11"",""174197""
""focus"",""11"",""176166""
""focus"",""12"",""183273""
","""event"",""trial"",""time""
""fullscreenenter"",""1"",""20196""
","""event"",""trial"",""time""
""fullscreenexit"",""2"",""22012""
","","","","","","761.8999999761581","<p> You will have 10 seconds to make each response.  </p><p>  Make sure to respond before time runs out! </p>","","0","instructions","","","","","","","","",""
"learning-instructions","13","193601","0.0-7.0-0.6","2012","2","""event"",""trial"",""time""
""blur"",""1"",""4054""
""focus"",""1"",""18315""
""fullscreenenter"",""1"",""20196""
""fullscreenexit"",""2"",""22012""
""blur"",""11"",""173348""
""focus"",""11"",""174197""
""blur"",""11"",""174555""
""focus"",""11"",""176166""
""blur"",""12"",""180591""
""focus"",""12"",""183273""
","""event"",""trial"",""time""
""blur"",""1"",""4054""
""blur"",""11"",""173348""
""blur"",""11"",""174555""
""blur"",""12"",""180591""
","""event"",""trial"",""time""
""focus"",""1"",""18315""
""focus"",""11"",""174197""
""focus"",""11"",""176166""
""focus"",""12"",""183273""
","""event"",""trial"",""time""
""fullscreenenter"",""1"",""20196""
","""event"",""trial"",""time""
""fullscreenexit"",""2"",""22012""
","","","","","","852.5","<p> Today, you will see each image ONCE only.  </p><p>  That means none of the images will repeat. </p>","","0","instructions","","","","","","","","",""
"learning-instructions","14","206742","0.0-7.0-0.7","2012","2","""event"",""trial"",""time""
""blur"",""1"",""4054""
""focus"",""1"",""18315""
""fullscreenenter"",""1"",""20196""
""fullscreenexit"",""2"",""22012""
""blur"",""11"",""173348""
""focus"",""11"",""174197""
""blur"",""11"",""174555""
""focus"",""11"",""176166""
""blur"",""12"",""180591""
""focus"",""12"",""183273""
","""event"",""trial"",""time""
""blur"",""1"",""4054""
""blur"",""11"",""173348""
""blur"",""11"",""174555""
""blur"",""12"",""180591""
","""event"",""trial"",""time""
""focus"",""1"",""18315""
""focus"",""11"",""174197""
""focus"",""11"",""176166""
""focus"",""12"",""183273""
","""event"",""trial"",""time""
""fullscreenenter"",""1"",""20196""
","""event"",""trial"",""time""
""fullscreenexit"",""2"",""22012""
","","","","","","473","<p> Before you play the real game, it is time to practice. </p><p>  Just like in the real game, some of the images in the practice will be ones you have seen before. </p><p>  Others will be entirely new. </p>","","0","instructions","","","","","","","","",""
"html-button-response","15","207780","0.0-8.0","2012","2","""event"",""trial"",""time""
""blur"",""1"",""4054""
""focus"",""1"",""18315""
""fullscreenenter"",""1"",""20196""
""fullscreenexit"",""2"",""22012""
""blur"",""11"",""173348""
""focus"",""11"",""174197""
""blur"",""11"",""174555""
""focus"",""11"",""176166""
""blur"",""12"",""180591""
""focus"",""12"",""183273""
","""event"",""trial"",""time""
""blur"",""1"",""4054""
""blur"",""11"",""173348""
""blur"",""11"",""174555""
""blur"",""12"",""180591""
","""event"",""trial"",""time""
""focus"",""1"",""18315""
""focus"",""11"",""174197""
""focus"",""11"",""176166""
""focus"",""12"",""183273""
","""event"",""trial"",""time""
""fullscreenenter"",""1"",""20196""
","""event"",""trial"",""time""
""fullscreenexit"",""2"",""22012""
","","","","","","934.4000000953674","<p> Ready to practice? </p><p> Remember, use the 1, 2, 3, and 4 keys to make your responses. </p>","0","","instructions","","","","","","","","",""
"html-keyboard-response","16","208396","0.0-9.0-0.0","2012","2","""event"",""trial"",""time""
""blur"",""1"",""4054""
""focus"",""1"",""18315""
""fullscreenenter"",""1"",""20196""
""fullscreenexit"",""2"",""22012""
""blur"",""11"",""173348""
""focus"",""11"",""174197""
""blur"",""11"",""174555""
""focus"",""11"",""176166""
""blur"",""12"",""180591""
""focus"",""12"",""183273""
","""event"",""trial"",""time""
""blur"",""1"",""4054""
""blur"",""11"",""173348""
""blur"",""11"",""174555""
""blur"",""12"",""180591""
","""event"",""trial"",""time""
""focus"",""1"",""18315""
""focus"",""11"",""174197""
""focus"",""11"",""176166""
""focus"",""12"",""183273""
","""event"",""trial"",""time""
""fullscreenenter"",""1"",""20196""
","""event"",""trial"",""time""
""fullscreenexit"",""2"",""22012""
","","","","","","null","<div style=""font-size:60px;"">+</div>","null","","fixation","","","","","","","","",""
"memory-trial","17","214466","0.0-9.0-1.0","2012","2","""event"",""trial"",""time""
""blur"",""1"",""4054""
""focus"",""1"",""18315""
""fullscreenenter"",""1"",""20196""
""fullscreenexit"",""2"",""22012""
""blur"",""11"",""173348""
""focus"",""11"",""174197""
""blur"",""11"",""174555""
""focus"",""11"",""176166""
""blur"",""12"",""180591""
""focus"",""12"",""183273""
","""event"",""trial"",""time""
""blur"",""1"",""4054""
""blur"",""11"",""173348""
""blur"",""11"",""174555""
""blur"",""12"",""180591""
","""event"",""trial"",""time""
""focus"",""1"",""18315""
""focus"",""11"",""174197""
""focus"",""11"",""176166""
""focus"",""12"",""183273""
","""event"",""trial"",""time""
""fullscreenenter"",""1"",""20196""
","""event"",""trial"",""time""
""fullscreenexit"",""2"",""22012""
","","","","","","5067.100000023842","images/ball2.png","","","practice","3","maybe_new","","","","","","",""
"html-keyboard-response","18","214981","0.0-9.0-0.1","2012","2","""event"",""trial"",""time""
""blur"",""1"",""4054""
""focus"",""1"",""18315""
""fullscreenenter"",""1"",""20196""
""fullscreenexit"",""2"",""22012""
""blur"",""11"",""173348""
""focus"",""11"",""174197""
""blur"",""11"",""174555""
""focus"",""11"",""176166""
""blur"",""12"",""180591""
""focus"",""12"",""183273""
","""event"",""trial"",""time""
""blur"",""1"",""4054""
""blur"",""11"",""173348""
""blur"",""11"",""174555""
""blur"",""12"",""180591""
","""event"",""trial"",""time""
""focus"",""1"",""18315""
""focus"",""11"",""174197""
""focus"",""11"",""176166""
""focus"",""12"",""183273""
","""event"",""trial"",""time""
""fullscreenenter"",""1"",""20196""
","""event"",""trial"",""time""
""fullscreenexit"",""2"",""22012""
","","","","","","null","<div style=""font-size:60px;"">+</div>","null","","fixation","","","","","","","","",""
"memory-trial","19","221205","0.0-9.0-1.1","2012","2","""event"",""trial"",""time""
""blur"",""1"",""4054""
""focus"",""1"",""18315""
""fullscreenenter"",""1"",""20196""
""fullscreenexit"",""2"",""22012""
""blur"",""11"",""173348""
""focus"",""11"",""174197""
""blur"",""11"",""174555""
""focus"",""11"",""176166""
""blur"",""12"",""180591""
""focus"",""12"",""183273""
","""event"",""trial"",""time""
""blur"",""1"",""4054""
""blur"",""11"",""173348""
""blur"",""11"",""174555""
""blur"",""12"",""180591""
","""event"",""trial"",""time""
""focus"",""1"",""18315""
""focus"",""11"",""174197""
""focus"",""11"",""176166""
""focus"",""12"",""183273""
","""event"",""trial"",""time""
""fullscreenenter"",""1"",""20196""
","""event"",""trial"",""time""
""fullscreenexit"",""2"",""22012""
","","","","","","5210.199999928474","images/racket4.png","","","practice","3","maybe_new","","","","","","",""
"html-keyboard-response","20","221715","0.0-9.0-0.2","2012","2","""event"",""trial"",""time""
""blur"",""1"",""4054""
""focus"",""1"",""18315""
""fullscreenenter"",""1"",""20196""
""fullscreenexit"",""2"",""22012""
""blur"",""11"",""173348""
""focus"",""11"",""174197""
""blur"",""11"",""174555""
""focus"",""11"",""176166""
""blur"",""12"",""180591""
""focus"",""12"",""183273""
","""event"",""trial"",""time""
""blur"",""1"",""4054""
""blur"",""11"",""173348""
""blur"",""11"",""174555""
""blur"",""12"",""180591""
","""event"",""trial"",""time""
""focus"",""1"",""18315""
""focus"",""11"",""174197""
""focus"",""11"",""176166""
""focus"",""12"",""183273""
","""event"",""trial"",""time""
""fullscreenenter"",""1"",""20196""
","""event"",""trial"",""time""
""fullscreenexit"",""2"",""22012""
","","","","","","null","<div style=""font-size:60px;"">+</div>","null","","fixation","","","","","","","","",""
"memory-trial","21","224884","0.0-9.0-1.2","2012","2","""event"",""trial"",""time""
""blur"",""1"",""4054""
""focus"",""1"",""18315""
""fullscreenenter"",""1"",""20196""
""fullscreenexit"",""2"",""22012""
""blur"",""11"",""173348""
""focus"",""11"",""174197""
""blur"",""11"",""174555""
""focus"",""11"",""176166""
""blur"",""12"",""180591""
""focus"",""12"",""183273""
","""event"",""trial"",""time""
""blur"",""1"",""4054""
""blur"",""11"",""173348""
""blur"",""11"",""174555""
""blur"",""12"",""180591""
","""event"",""trial"",""time""
""focus"",""1"",""18315""
""focus"",""11"",""174197""
""focus"",""11"",""176166""
""focus"",""12"",""183273""
","""event"",""trial"",""time""
""fullscreenenter"",""1"",""20196""
","""event"",""trial"",""time""
""fullscreenexit"",""2"",""22012""
","","","","","","2164.1999999284744","images/racket1.png","","","practice","3","maybe_new","","","","","","",""
"html-keyboard-response","22","225396","0.0-9.0-0.3","2012","2","""event"",""trial"",""time""
""blur"",""1"",""4054""
""focus"",""1"",""18315""
""fullscreenenter"",""1"",""20196""
""fullscreenexit"",""2"",""22012""
""blur"",""11"",""173348""
""focus"",""11"",""174197""
""blur"",""11"",""174555""
""focus"",""11"",""176166""
""blur"",""12"",""180591""
""focus"",""12"",""183273""
","""event"",""trial"",""time""
""blur"",""1"",""4054""
""blur"",""11"",""173348""
""blur"",""11"",""174555""
""blur"",""12"",""180591""
","""event"",""trial"",""time""
""focus"",""1"",""18315""
""focus"",""11"",""174197""
""focus"",""11"",""176166""
""focus"",""12"",""183273""
","""event"",""trial"",""time""
""fullscreenenter"",""1"",""20196""
","""event"",""trial"",""time""
""fullscreenexit"",""2"",""22012""
","","","","","","null","<div style=""font-size:60px;"">+</div>","null","","fixation","","","","","","","","",""
"memory-trial","23","228242","0.0-9.0-1.3","2012","2","""event"",""trial"",""time""
""blur"",""1"",""4054""
""focus"",""1"",""18315""
""fullscreenenter"",""1"",""20196""
""fullscreenexit"",""2"",""22012""
""blur"",""11"",""173348""
""focus"",""11"",""174197""
""blur"",""11"",""174555""
""focus"",""11"",""176166""
""blur"",""12"",""180591""
""focus"",""12"",""183273""
","""event"",""trial"",""time""
""blur"",""1"",""4054""
""blur"",""11"",""173348""
""blur"",""11"",""174555""
""blur"",""12"",""180591""
","""event"",""trial"",""time""
""focus"",""1"",""18315""
""focus"",""11"",""174197""
""focus"",""11"",""176166""
""focus"",""12"",""183273""
","""event"",""trial"",""time""
""fullscreenenter"",""1"",""20196""
","""event"",""trial"",""time""
""fullscreenexit"",""2"",""22012""
","","","","","","1843.5","images/racket3.png","","","practice","1","definitely_old","","","","","","",""
"html-keyboard-response","24","228756","0.0-9.0-0.4","2012","2","""event"",""trial"",""time""
""blur"",""1"",""4054""
""focus"",""1"",""18315""
""fullscreenenter"",""1"",""20196""
""fullscreenexit"",""2"",""22012""
""blur"",""11"",""173348""
""focus"",""11"",""174197""
""blur"",""11"",""174555""
""focus"",""11"",""176166""
""blur"",""12"",""180591""
""focus"",""12"",""183273""
","""event"",""trial"",""time""
""blur"",""1"",""4054""
""blur"",""11"",""173348""
""blur"",""11"",""174555""
""blur"",""12"",""180591""
","""event"",""trial"",""time""
""focus"",""1"",""18315""
""focus"",""11"",""174197""
""focus"",""11"",""176166""
""focus"",""12"",""183273""
","""event"",""trial"",""time""
""fullscreenenter"",""1"",""20196""
","""event"",""trial"",""time""
""fullscreenexit"",""2"",""22012""
","","","","","","null","<div style=""font-size:60px;"">+</div>","null","","fixation","","","","","","","","",""
"memory-trial","25","234079","0.0-9.0-1.4","2012","2","""event"",""trial"",""time""
""blur"",""1"",""4054""
""focus"",""1"",""18315""
""fullscreenenter"",""1"",""20196""
""fullscreenexit"",""2"",""22012""
""blur"",""11"",""173348""
""focus"",""11"",""174197""
""blur"",""11"",""174555""
""focus"",""11"",""176166""
""blur"",""12"",""180591""
""focus"",""12"",""183273""
","""event"",""trial"",""time""
""blur"",""1"",""4054""
""blur"",""11"",""173348""
""blur"",""11"",""174555""
""blur"",""12"",""180591""
","""event"",""trial"",""time""
""focus"",""1"",""18315""
""focus"",""11"",""174197""
""focus"",""11"",""176166""
""focus"",""12"",""183273""
","""event"",""trial"",""time""
""fullscreenenter"",""1"",""20196""
","""event"",""trial"",""time""
""fullscreenexit"",""2"",""22012""
","","","","","","4316","images/ball4.png","","","practice","3","maybe_new","","","","","","",""
"html-keyboard-response","26","234588","0.0-9.0-0.5","2012","2","""event"",""trial"",""time""
""blur"",""1"",""4054""
""focus"",""1"",""18315""
""fullscreenenter"",""1"",""20196""
""fullscreenexit"",""2"",""22012""
""blur"",""11"",""173348""
""focus"",""11"",""174197""
""blur"",""11"",""174555""
""focus"",""11"",""176166""
""blur"",""12"",""180591""
""focus"",""12"",""183273""
","""event"",""trial"",""time""
""blur"",""1"",""4054""
""blur"",""11"",""173348""
""blur"",""11"",""174555""
""blur"",""12"",""180591""
","""event"",""trial"",""time""
""focus"",""1"",""18315""
""focus"",""11"",""174197""
""focus"",""11"",""176166""
""focus"",""12"",""183273""
","""event"",""trial"",""time""
""fullscreenenter"",""1"",""20196""
","""event"",""trial"",""time""
""fullscreenexit"",""2"",""22012""
","","","","","","null","<div style=""font-size:60px;"">+</div>","null","","fixation","","","","","","","","",""
"memory-trial","27","240147","0.0-9.0-1.5","2012","2","""event"",""trial"",""time""
""blur"",""1"",""4054""
""focus"",""1"",""18315""
""fullscreenenter"",""1"",""20196""
""fullscreenexit"",""2"",""22012""
""blur"",""11"",""173348""
""focus"",""11"",""174197""
""blur"",""11"",""174555""
""focus"",""11"",""176166""
""blur"",""12"",""180591""
""focus"",""12"",""183273""
","""event"",""trial"",""time""
""blur"",""1"",""4054""
""blur"",""11"",""173348""
""blur"",""11"",""174555""
""blur"",""12"",""180591""
","""event"",""trial"",""time""
""focus"",""1"",""18315""
""focus"",""11"",""174197""
""focus"",""11"",""176166""
""focus"",""12"",""183273""
","""event"",""trial"",""time""
""fullscreenenter"",""1"",""20196""
","""event"",""trial"",""time""
""fullscreenexit"",""2"",""22012""
","","","","","","4557.299999952316","images/ball3.png","","","practice","3","maybe_new","","","","","","",""
"html-keyboard-response","28","240649","0.0-9.0-0.6","2012","2","""event"",""trial"",""time""
""blur"",""1"",""4054""
""focus"",""1"",""18315""
""fullscreenenter"",""1"",""20196""
""fullscreenexit"",""2"",""22012""
""blur"",""11"",""173348""
""focus"",""11"",""174197""
""blur"",""11"",""174555""
""focus"",""11"",""176166""
""blur"",""12"",""180591""
""focus"",""12"",""183273""
","""event"",""trial"",""time""
""blur"",""1"",""4054""
""blur"",""11"",""173348""
""blur"",""11"",""174555""
""blur"",""12"",""180591""
","""event"",""trial"",""time""
""focus"",""1"",""18315""
""focus"",""11"",""174197""
""focus"",""11"",""176166""
""focus"",""12"",""183273""
","""event"",""trial"",""time""
""fullscreenenter"",""1"",""20196""
","""event"",""trial"",""time""
""fullscreenexit"",""2"",""22012""
","","","","","","null","<div style=""font-size:60px;"">+</div>","null","","fixation","","","","","","","","",""
"memory-trial","29","244525","0.0-9.0-1.6","2012","2","""event"",""trial"",""time""
""blur"",""1"",""4054""
""focus"",""1"",""18315""
""fullscreenenter"",""1"",""20196""
""fullscreenexit"",""2"",""22012""
""blur"",""11"",""173348""
""focus"",""11"",""174197""
""blur"",""11"",""174555""
""focus"",""11"",""176166""
""blur"",""12"",""180591""
""focus"",""12"",""183273""
","""event"",""trial"",""time""
""blur"",""1"",""4054""
""blur"",""11"",""173348""
""blur"",""11"",""174555""
""blur"",""12"",""180591""
","""event"",""trial"",""time""
""focus"",""1"",""18315""
""focus"",""11"",""174197""
""focus"",""11"",""176166""
""focus"",""12"",""183273""
","""event"",""trial"",""time""
""fullscreenenter"",""1"",""20196""
","""event"",""trial"",""time""
""fullscreenexit"",""2"",""22012""
","","","","","","2874","images/ball1.png","","","practice","4","definitely_new","","","","","","",""
"html-keyboard-response","30","245026","0.0-9.0-0.7","2012","2","""event"",""trial"",""time""
""blur"",""1"",""4054""
""focus"",""1"",""18315""
""fullscreenenter"",""1"",""20196""
""fullscreenexit"",""2"",""22012""
""blur"",""11"",""173348""
""focus"",""11"",""174197""
""blur"",""11"",""174555""
""focus"",""11"",""176166""
""blur"",""12"",""180591""
""focus"",""12"",""183273""
","""event"",""trial"",""time""
""blur"",""1"",""4054""
""blur"",""11"",""173348""
""blur"",""11"",""174555""
""blur"",""12"",""180591""
","""event"",""trial"",""time""
""focus"",""1"",""18315""
""focus"",""11"",""174197""
""focus"",""11"",""176166""
""focus"",""12"",""183273""
","""event"",""trial"",""time""
""fullscreenenter"",""1"",""20196""
","""event"",""trial"",""time""
""fullscreenexit"",""2"",""22012""
","","","","","","null","<div style=""font-size:60px;"">+</div>","null","","fixation","","","","","","","","",""
"memory-trial","31","247256","0.0-9.0-1.7","2012","2","""event"",""trial"",""time""
""blur"",""1"",""4054""
""focus"",""1"",""18315""
""fullscreenenter"",""1"",""20196""
""fullscreenexit"",""2"",""22012""
""blur"",""11"",""173348""
""focus"",""11"",""174197""
""blur"",""11"",""174555""
""focus"",""11"",""176166""
""blur"",""12"",""180591""
""focus"",""12"",""183273""
","""event"",""trial"",""time""
""blur"",""1"",""4054""
""blur"",""11"",""173348""
""blur"",""11"",""174555""
""blur"",""12"",""180591""
","""event"",""trial"",""time""
""focus"",""1"",""18315""
""focus"",""11"",""174197""
""focus"",""11"",""176166""
""focus"",""12"",""183273""
","""event"",""trial"",""time""
""fullscreenenter"",""1"",""20196""
","""event"",""trial"",""time""
""fullscreenexit"",""2"",""22012""
","","","","","","1227.7999999523163","images/racket2.png","","","practice","4","definitely_new","","","","","","",""
"learning-instructions","32","259808","0.0-10.0-0.0","2012","2","""event"",""trial"",""time""
""blur"",""1"",""4054""
""focus"",""1"",""18315""
""fullscreenenter"",""1"",""20196""
""fullscreenexit"",""2"",""22012""
""blur"",""11"",""173348""
""focus"",""11"",""174197""
""blur"",""11"",""174555""
""focus"",""11"",""176166""
""blur"",""12"",""180591""
""focus"",""12"",""183273""
""blur"",""33"",""261887""
""focus"",""33"",""264591""
""blur"",""33"",""266067""
","""event"",""trial"",""time""
""blur"",""1"",""4054""
""blur"",""11"",""173348""
""blur"",""11"",""174555""
""blur"",""12"",""180591""
""blur"",""33"",""261887""
""blur"",""33"",""266067""
","""event"",""trial"",""time""
""focus"",""1"",""18315""
""focus"",""11"",""174197""
""focus"",""11"",""176166""
""focus"",""12"",""183273""
""focus"",""33"",""264591""
","""event"",""trial"",""time""
""fullscreenenter"",""1"",""20196""
","""event"",""trial"",""time""
""fullscreenexit"",""2"",""22012""
","","","","","","4585.799999952316","<p> Great! You have completed the practice. </p><p> Before you start, we're going to ask you a few questions about how the game works.  </p>","","0","instructions","","","","","","","","",""
"preload","33","267643","0.0-11.0","2012","2","""event"",""trial"",""time""
""blur"",""1"",""4054""
""focus"",""1"",""18315""
""fullscreenenter"",""1"",""20196""
""fullscreenexit"",""2"",""22012""
""blur"",""11"",""173348""
""focus"",""11"",""174197""
""blur"",""11"",""174555""
""focus"",""11"",""176166""
""blur"",""12"",""180591""
""focus"",""12"",""183273""
""blur"",""33"",""261887""
""focus"",""33"",""264591""
""blur"",""33"",""266067""
""focus"",""34"",""267697""
","""event"",""trial"",""time""
""blur"",""1"",""4054""
""blur"",""11"",""173348""
""blur"",""11"",""174555""
""blur"",""12"",""180591""
""blur"",""33"",""261887""
""blur"",""33"",""266067""
","""event"",""trial"",""time""
""focus"",""1"",""18315""
""focus"",""11"",""174197""
""focus"",""11"",""176166""
""focus"",""12"",""183273""
""focus"",""33"",""264591""
""focus"",""34"",""267697""
","""event"",""trial"",""time""
""fullscreenenter"",""1"",""20196""
","""event"",""trial"",""time""
""fullscreenexit"",""2"",""22012""
","true","false","[]","[]","[]","","","","","","","","","","","","","",""
"comp-q","34","274075","0.0-12.0-0.0","2012","2","""event"",""trial"",""time""
""blur"",""1"",""4054""
""focus"",""1"",""18315""
""fullscreenenter"",""1"",""20196""
""fullscreenexit"",""2"",""22012""
""blur"",""11"",""173348""
""focus"",""11"",""174197""
""blur"",""11"",""174555""
""focus"",""11"",""176166""
""blur"",""12"",""180591""
""focus"",""12"",""183273""
""blur"",""33"",""261887""
""focus"",""33"",""264591""
""blur"",""33"",""266067""
""focus"",""34"",""267697""
""blur"",""35"",""275461""
""focus"",""35"",""279264""
","""event"",""trial"",""time""
""blur"",""1"",""4054""
""blur"",""11"",""173348""
""blur"",""11"",""174555""
""blur"",""12"",""180591""
""blur"",""33"",""261887""
""blur"",""33"",""266067""
""blur"",""35"",""275461""
","""event"",""trial"",""time""
""focus"",""1"",""18315""
""focus"",""11"",""174197""
""focus"",""11"",""176166""
""focus"",""12"",""183273""
""focus"",""33"",""264591""
""focus"",""34"",""267697""
""focus"",""35"",""279264""
","""event"",""trial"",""time""
""fullscreenenter"",""1"",""20196""
","""event"",""trial"",""time""
""fullscreenexit"",""2"",""22012""
","","","","","","602.1000000238419","<p> <b> True or False? </b> </p><p> In this game, you will only see each image once. </p>","","0","comp_question","","","true","","","","","",""
"comp-q","35","280948","0.0-12.0-1.0","2012","2","""event"",""trial"",""time""
""blur"",""1"",""4054""
""focus"",""1"",""18315""
""fullscreenenter"",""1"",""20196""
""fullscreenexit"",""2"",""22012""
""blur"",""11"",""173348""
""focus"",""11"",""174197""
""blur"",""11"",""174555""
""focus"",""11"",""176166""
""blur"",""12"",""180591""
""focus"",""12"",""183273""
""blur"",""33"",""261887""
""focus"",""33"",""264591""
""blur"",""33"",""266067""
""focus"",""34"",""267697""
""blur"",""35"",""275461""
""focus"",""35"",""279264""
","""event"",""trial"",""time""
""blur"",""1"",""4054""
""blur"",""11"",""173348""
""blur"",""11"",""174555""
""blur"",""12"",""180591""
""blur"",""33"",""261887""
""blur"",""33"",""266067""
""blur"",""35"",""275461""
","""event"",""trial"",""time""
""focus"",""1"",""18315""
""focus"",""11"",""174197""
""focus"",""11"",""176166""
""focus"",""12"",""183273""
""focus"",""33"",""264591""
""focus"",""34"",""267697""
""focus"",""35"",""279264""
","""event"",""trial"",""time""
""fullscreenenter"",""1"",""20196""
","""event"",""trial"",""time""
""fullscreenexit"",""2"",""22012""
","","","","","","535.7999999523163","<p> <b> That's right! </b> You will see many different images <i> one time each </i> in this game. </p>","","0","comp_answer","","","","","","","","",""
"comp-q","36","287201","0.0-12.0-0.1","2012","2","""event"",""trial"",""time""
""blur"",""1"",""4054""
""focus"",""1"",""18315""
""fullscreenenter"",""1"",""20196""
""fullscreenexit"",""2"",""22012""
""blur"",""11"",""173348""
""focus"",""11"",""174197""
""blur"",""11"",""174555""
""focus"",""11"",""176166""
""blur"",""12"",""180591""
""focus"",""12"",""183273""
""blur"",""33"",""261887""
""focus"",""33"",""264591""
""blur"",""33"",""266067""
""focus"",""34"",""267697""
""blur"",""35"",""275461""
""focus"",""35"",""279264""
""blur"",""37"",""293073""
""focus"",""37"",""294019""
","""event"",""trial"",""time""
""blur"",""1"",""4054""
""blur"",""11"",""173348""
""blur"",""11"",""174555""
""blur"",""12"",""180591""
""blur"",""33"",""261887""
""blur"",""33"",""266067""
""blur"",""35"",""275461""
""blur"",""37"",""293073""
","""event"",""trial"",""time""
""focus"",""1"",""18315""
""focus"",""11"",""174197""
""focus"",""11"",""176166""
""focus"",""12"",""183273""
""focus"",""33"",""264591""
""focus"",""34"",""267697""
""focus"",""35"",""279264""
""focus"",""37"",""294019""
","""event"",""trial"",""time""
""fullscreenenter"",""1"",""20196""
","""event"",""trial"",""time""
""fullscreenexit"",""2"",""22012""
","","","","","","449","<p> <b> True or False? </b> </p><p> You should use the mouse and click to make your response. </p>","","1","comp_question","","","true","","","","","",""
"comp-q","37","295110","0.0-12.0-1.1","2012","2","""event"",""trial"",""time""
""blur"",""1"",""4054""
""focus"",""1"",""18315""
""fullscreenenter"",""1"",""20196""
""fullscreenexit"",""2"",""22012""
""blur"",""11"",""173348""
""focus"",""11"",""174197""
""blur"",""11"",""174555""
""focus"",""11"",""176166""
""blur"",""12"",""180591""
""focus"",""12"",""183273""
""blur"",""33"",""261887""
""focus"",""33"",""264591""
""blur"",""33"",""266067""
""focus"",""34"",""267697""
""blur"",""35"",""275461""
""focus"",""35"",""279264""
""blur"",""37"",""293073""
""focus"",""37"",""294019""
","""event"",""trial"",""time""
""blur"",""1"",""4054""
""blur"",""11"",""173348""
""blur"",""11"",""174555""
""blur"",""12"",""180591""
""blur"",""33"",""261887""
""blur"",""33"",""266067""
""blur"",""35"",""275461""
""blur"",""37"",""293073""
","""event"",""trial"",""time""
""focus"",""1"",""18315""
""focus"",""11"",""174197""
""focus"",""11"",""176166""
""focus"",""12"",""183273""
""focus"",""33"",""264591""
""focus"",""34"",""267697""
""focus"",""35"",""279264""
""focus"",""37"",""294019""
","""event"",""trial"",""time""
""fullscreenenter"",""1"",""20196""
","""event"",""trial"",""time""
""fullscreenexit"",""2"",""22012""
","","","","","","558","<p><b> That's right! </b> You should use the '1', '2', '3', and '4' keys to make your response. </p>","","0","comp_answer","","","","","","","","",""
"comp-q","38","301741","0.0-12.0-0.2","2012","2","""event"",""trial"",""time""
""blur"",""1"",""4054""
""focus"",""1"",""18315""
""fullscreenenter"",""1"",""20196""
""fullscreenexit"",""2"",""22012""
""blur"",""11"",""173348""
""focus"",""11"",""174197""
""blur"",""11"",""174555""
""focus"",""11"",""176166""
""blur"",""12"",""180591""
""focus"",""12"",""183273""
""blur"",""33"",""261887""
""focus"",""33"",""264591""
""blur"",""33"",""266067""
""focus"",""34"",""267697""
""blur"",""35"",""275461""
""focus"",""35"",""279264""
""blur"",""37"",""293073""
""focus"",""37"",""294019""
""blur"",""39"",""304061""
""focus"",""39"",""304525""
""blur"",""39"",""305892""
""focus"",""39"",""315362""
","""event"",""trial"",""time""
""blur"",""1"",""4054""
""blur"",""11"",""173348""
""blur"",""11"",""174555""
""blur"",""12"",""180591""
""blur"",""33"",""261887""
""blur"",""33"",""266067""
""blur"",""35"",""275461""
""blur"",""37"",""293073""
""blur"",""39"",""304061""
""blur"",""39"",""305892""
","""event"",""trial"",""time""
""focus"",""1"",""18315""
""focus"",""11"",""174197""
""focus"",""11"",""176166""
""focus"",""12"",""183273""
""focus"",""33"",""264591""
""focus"",""34"",""267697""
""focus"",""35"",""279264""
""focus"",""37"",""294019""
""focus"",""39"",""304525""
""focus"",""39"",""315362""
","""event"",""trial"",""time""
""fullscreenenter"",""1"",""20196""
","""event"",""trial"",""time""
""fullscreenexit"",""2"",""22012""
","","","","","","629.2999999523163","<p> <b> True or False? </b> </p><p> You will have as much time as you want to make each choice. </p>","","1","comp_question","","","true","","","","","",""
"comp-q","39","316269","0.0-12.0-1.2","2012","2","""event"",""trial"",""time""
""blur"",""1"",""4054""
""focus"",""1"",""18315""
""fullscreenenter"",""1"",""20196""
""fullscreenexit"",""2"",""22012""
""blur"",""11"",""173348""
""focus"",""11"",""174197""
""blur"",""11"",""174555""
""focus"",""11"",""176166""
""blur"",""12"",""180591""
""focus"",""12"",""183273""
""blur"",""33"",""261887""
""focus"",""33"",""264591""
""blur"",""33"",""266067""
""focus"",""34"",""267697""
""blur"",""35"",""275461""
""focus"",""35"",""279264""
""blur"",""37"",""293073""
""focus"",""37"",""294019""
""blur"",""39"",""304061""
""focus"",""39"",""304525""
""blur"",""39"",""305892""
""focus"",""39"",""315362""
""blur"",""40"",""319559""
""focus"",""40"",""320096""
","""event"",""trial"",""time""
""blur"",""1"",""4054""
""blur"",""11"",""173348""
""blur"",""11"",""174555""
""blur"",""12"",""180591""
""blur"",""33"",""261887""
""blur"",""33"",""266067""
""blur"",""35"",""275461""
""blur"",""37"",""293073""
""blur"",""39"",""304061""
""blur"",""39"",""305892""
""blur"",""40"",""319559""
","""event"",""trial"",""time""
""focus"",""1"",""18315""
""focus"",""11"",""174197""
""focus"",""11"",""176166""
""focus"",""12"",""183273""
""focus"",""33"",""264591""
""focus"",""34"",""267697""
""focus"",""35"",""279264""
""focus"",""37"",""294019""
""focus"",""39"",""304525""
""focus"",""39"",""315362""
""focus"",""40"",""320096""
","""event"",""trial"",""time""
""fullscreenenter"",""1"",""20196""
","""event"",""trial"",""time""
""fullscreenexit"",""2"",""22012""
","","","","","","9126.700000047684","<p> <b> That's right! </b> You will only have 10 seconds to make each choice. </p>","","0","comp_answer","","","","","","","","",""
"learning-instructions","40","326790","0.0-13.0","2012","2","""event"",""trial"",""time""
""blur"",""1"",""4054""
""focus"",""1"",""18315""
""fullscreenenter"",""1"",""20196""
""fullscreenexit"",""2"",""22012""
""blur"",""11"",""173348""
""focus"",""11"",""174197""
""blur"",""11"",""174555""
""focus"",""11"",""176166""
""blur"",""12"",""180591""
""focus"",""12"",""183273""
""blur"",""33"",""261887""
""focus"",""33"",""264591""
""blur"",""33"",""266067""
""focus"",""34"",""267697""
""blur"",""35"",""275461""
""focus"",""35"",""279264""
""blur"",""37"",""293073""
""focus"",""37"",""294019""
""blur"",""39"",""304061""
""focus"",""39"",""304525""
""blur"",""39"",""305892""
""focus"",""39"",""315362""
""blur"",""40"",""319559""
""focus"",""40"",""320096""
","""event"",""trial"",""time""
""blur"",""1"",""4054""
""blur"",""11"",""173348""
""blur"",""11"",""174555""
""blur"",""12"",""180591""
""blur"",""33"",""261887""
""blur"",""33"",""266067""
""blur"",""35"",""275461""
""blur"",""37"",""293073""
""blur"",""39"",""304061""
""blur"",""39"",""305892""
""blur"",""40"",""319559""
","""event"",""trial"",""time""
""focus"",""1"",""18315""
""focus"",""11"",""174197""
""focus"",""11"",""176166""
""focus"",""12"",""183273""
""focus"",""33"",""264591""
""focus"",""34"",""267697""
""focus"",""35"",""279264""
""focus"",""37"",""294019""
""focus"",""39"",""304525""
""focus"",""39"",""315362""
""focus"",""40"",""320096""
","""event"",""trial"",""time""
""fullscreenenter"",""1"",""20196""
","""event"",""trial"",""time""
""fullscreenexit"",""2"",""22012""
","","","","","","1848.1000000238419","<p> Great! You are now ready to begin the game. </p><p> Remember, use the 1, 2, 3, and 4 keys to make your responses. </p>","","0","instructions","","","","","","","","",""
"preload","41","342891","0.0-14.0","2012","2","""event"",""trial"",""time""
""blur"",""1"",""4054""
""focus"",""1"",""18315""
""fullscreenenter"",""1"",""20196""
""fullscreenexit"",""2"",""22012""
""blur"",""11"",""173348""
""focus"",""11"",""174197""
""blur"",""11"",""174555""
""focus"",""11"",""176166""
""blur"",""12"",""180591""
""focus"",""12"",""183273""
""blur"",""33"",""261887""
""focus"",""33"",""264591""
""blur"",""33"",""266067""
""focus"",""34"",""267697""
""blur"",""35"",""275461""
""focus"",""35"",""279264""
""blur"",""37"",""293073""
""focus"",""37"",""294019""
""blur"",""39"",""304061""
""focus"",""39"",""304525""
""blur"",""39"",""305892""
""focus"",""39"",""315362""
""blur"",""40"",""319559""
""focus"",""40"",""320096""
","""event"",""trial"",""time""
""blur"",""1"",""4054""
""blur"",""11"",""173348""
""blur"",""11"",""174555""
""blur"",""12"",""180591""
""blur"",""33"",""261887""
""blur"",""33"",""266067""
""blur"",""35"",""275461""
""blur"",""37"",""293073""
""blur"",""39"",""304061""
""blur"",""39"",""305892""
""blur"",""40"",""319559""
","""event"",""trial"",""time""
""focus"",""1"",""18315""
""focus"",""11"",""174197""
""focus"",""11"",""176166""
""focus"",""12"",""183273""
""focus"",""33"",""264591""
""focus"",""34"",""267697""
""focus"",""35"",""279264""
""focus"",""37"",""294019""
""focus"",""39"",""304525""
""focus"",""39"",""315362""
""focus"",""40"",""320096""
","""event"",""trial"",""time""
""fullscreenenter"",""1"",""20196""
","""event"",""trial"",""time""
""fullscreenexit"",""2"",""22012""
","true","false","[]","[]","[]","","","","","","","","","","","","","",""
"html-keyboard-response","42","343396","0.0-15.0-0.0","2012","2","""event"",""trial"",""time""
""blur"",""1"",""4054""
""focus"",""1"",""18315""
""fullscreenenter"",""1"",""20196""
""fullscreenexit"",""2"",""22012""
""blur"",""11"",""173348""
""focus"",""11"",""174197""
""blur"",""11"",""174555""
""focus"",""11"",""176166""
""blur"",""12"",""180591""
""focus"",""12"",""183273""
""blur"",""33"",""261887""
""focus"",""33"",""264591""
""blur"",""33"",""266067""
""focus"",""34"",""267697""
""blur"",""35"",""275461""
""focus"",""35"",""279264""
""blur"",""37"",""293073""
""focus"",""37"",""294019""
""blur"",""39"",""304061""
""focus"",""39"",""304525""
""blur"",""39"",""305892""
""focus"",""39"",""315362""
""blur"",""40"",""319559""
""focus"",""40"",""320096""
","""event"",""trial"",""time""
""blur"",""1"",""4054""
""blur"",""11"",""173348""
""blur"",""11"",""174555""
""blur"",""12"",""180591""
""blur"",""33"",""261887""
""blur"",""33"",""266067""
""blur"",""35"",""275461""
""blur"",""37"",""293073""
""blur"",""39"",""304061""
""blur"",""39"",""305892""
""blur"",""40"",""319559""
","""event"",""trial"",""time""
""focus"",""1"",""18315""
""focus"",""11"",""174197""
""focus"",""11"",""176166""
""focus"",""12"",""183273""
""focus"",""33"",""264591""
""focus"",""34"",""267697""
""focus"",""35"",""279264""
""focus"",""37"",""294019""
""focus"",""39"",""304525""
""focus"",""39"",""315362""
""focus"",""40"",""320096""
","""event"",""trial"",""time""
""fullscreenenter"",""1"",""20196""
","""event"",""trial"",""time""
""fullscreenexit"",""2"",""22012""
","","","","","","null","<div style=""font-size:60px;"">+</div>","null","","fixation","","","","","","","","",""
"memory-trial","43","346961","0.0-15.0-1.0","2012","2","""event"",""trial"",""time""
""blur"",""1"",""4054""
""focus"",""1"",""18315""
""fullscreenenter"",""1"",""20196""
""fullscreenexit"",""2"",""22012""
""blur"",""11"",""173348""
""focus"",""11"",""174197""
""blur"",""11"",""174555""
""focus"",""11"",""176166""
""blur"",""12"",""180591""
""focus"",""12"",""183273""
""blur"",""33"",""261887""
""focus"",""33"",""264591""
""blur"",""33"",""266067""
""focus"",""34"",""267697""
""blur"",""35"",""275461""
""focus"",""35"",""279264""
""blur"",""37"",""293073""
""focus"",""37"",""294019""
""blur"",""39"",""304061""
""focus"",""39"",""304525""
""blur"",""39"",""305892""
""focus"",""39"",""315362""
""blur"",""40"",""319559""
""focus"",""40"",""320096""
","""event"",""trial"",""time""
""blur"",""1"",""4054""
""blur"",""11"",""173348""
""blur"",""11"",""174555""
""blur"",""12"",""180591""
""blur"",""33"",""261887""
""blur"",""33"",""266067""
""blur"",""35"",""275461""
""blur"",""37"",""293073""
""blur"",""39"",""304061""
""blur"",""39"",""305892""
""blur"",""40"",""319559""
","""event"",""trial"",""time""
""focus"",""1"",""18315""
""focus"",""11"",""174197""
""focus"",""11"",""176166""
""focus"",""12"",""183273""
""focus"",""33"",""264591""
""focus"",""34"",""267697""
""focus"",""35"",""279264""
""focus"",""37"",""294019""
""focus"",""39"",""304525""
""focus"",""39"",""315362""
""focus"",""40"",""320096""
","""event"",""trial"",""time""
""fullscreenenter"",""1"",""20196""
","""event"",""trial"",""time""
""fullscreenexit"",""2"",""22012""
","","","","","","2547.7000000476837","images/truck2.png","","","memory_trial","4","definitely_new","","","","","","",""
"html-keyboard-response","44","347474","0.0-15.0-0.1","2012","2","""event"",""trial"",""time""
""blur"",""1"",""4054""
""focus"",""1"",""18315""
""fullscreenenter"",""1"",""20196""
""fullscreenexit"",""2"",""22012""
""blur"",""11"",""173348""
""focus"",""11"",""174197""
""blur"",""11"",""174555""
""focus"",""11"",""176166""
""blur"",""12"",""180591""
""focus"",""12"",""183273""
""blur"",""33"",""261887""
""focus"",""33"",""264591""
""blur"",""33"",""266067""
""focus"",""34"",""267697""
""blur"",""35"",""275461""
""focus"",""35"",""279264""
""blur"",""37"",""293073""
""focus"",""37"",""294019""
""blur"",""39"",""304061""
""focus"",""39"",""304525""
""blur"",""39"",""305892""
""focus"",""39"",""315362""
""blur"",""40"",""319559""
""focus"",""40"",""320096""
","""event"",""trial"",""time""
""blur"",""1"",""4054""
""blur"",""11"",""173348""
""blur"",""11"",""174555""
""blur"",""12"",""180591""
""blur"",""33"",""261887""
""blur"",""33"",""266067""
""blur"",""35"",""275461""
""blur"",""37"",""293073""
""blur"",""39"",""304061""
""blur"",""39"",""305892""
""blur"",""40"",""319559""
","""event"",""trial"",""time""
""focus"",""1"",""18315""
""focus"",""11"",""174197""
""focus"",""11"",""176166""
""focus"",""12"",""183273""
""focus"",""33"",""264591""
""focus"",""34"",""267697""
""focus"",""35"",""279264""
""focus"",""37"",""294019""
""focus"",""39"",""304525""
""focus"",""39"",""315362""
""focus"",""40"",""320096""
","""event"",""trial"",""time""
""fullscreenenter"",""1"",""20196""
","""event"",""trial"",""time""
""fullscreenexit"",""2"",""22012""
","","","","","","null","<div style=""font-size:60px;"">+</div>","null","","fixation","","","","","","","","",""
"memory-trial","45","350009","0.0-15.0-1.1","2012","2","""event"",""trial"",""time""
""blur"",""1"",""4054""
""focus"",""1"",""18315""
""fullscreenenter"",""1"",""20196""
""fullscreenexit"",""2"",""22012""
""blur"",""11"",""173348""
""focus"",""11"",""174197""
""blur"",""11"",""174555""
""focus"",""11"",""176166""
""blur"",""12"",""180591""
""focus"",""12"",""183273""
""blur"",""33"",""261887""
""focus"",""33"",""264591""
""blur"",""33"",""266067""
""focus"",""34"",""267697""
""blur"",""35"",""275461""
""focus"",""35"",""279264""
""blur"",""37"",""293073""
""focus"",""37"",""294019""
""blur"",""39"",""304061""
""focus"",""39"",""304525""
""blur"",""39"",""305892""
""focus"",""39"",""315362""
""blur"",""40"",""319559""
""focus"",""40"",""320096""
","""event"",""trial"",""time""
""blur"",""1"",""4054""
""blur"",""11"",""173348""
""blur"",""11"",""174555""
""blur"",""12"",""180591""
""blur"",""33"",""261887""
""blur"",""33"",""266067""
""blur"",""35"",""275461""
""blur"",""37"",""293073""
""blur"",""39"",""304061""
""blur"",""39"",""305892""
""blur"",""40"",""319559""
","""event"",""trial"",""time""
""focus"",""1"",""18315""
""focus"",""11"",""174197""
""focus"",""11"",""176166""
""focus"",""12"",""183273""
""focus"",""33"",""264591""
""focus"",""34"",""267697""
""focus"",""35"",""279264""
""focus"",""37"",""294019""
""focus"",""39"",""304525""
""focus"",""39"",""315362""
""focus"",""40"",""320096""
","""event"",""trial"",""time""
""fullscreenenter"",""1"",""20196""
","""event"",""trial"",""time""
""fullscreenexit"",""2"",""22012""
","","","","","","1522","images/goat1.png","","","memory_trial","4","definitely_new","","","","","","",""
"html-keyboard-response","46","350523","0.0-15.0-0.2","2012","2","""event"",""trial"",""time""
""blur"",""1"",""4054""
""focus"",""1"",""18315""
""fullscreenenter"",""1"",""20196""
""fullscreenexit"",""2"",""22012""
""blur"",""11"",""173348""
""focus"",""11"",""174197""
""blur"",""11"",""174555""
""focus"",""11"",""176166""
""blur"",""12"",""180591""
""focus"",""12"",""183273""
""blur"",""33"",""261887""
""focus"",""33"",""264591""
""blur"",""33"",""266067""
""focus"",""34"",""267697""
""blur"",""35"",""275461""
""focus"",""35"",""279264""
""blur"",""37"",""293073""
""focus"",""37"",""294019""
""blur"",""39"",""304061""
""focus"",""39"",""304525""
""blur"",""39"",""305892""
""focus"",""39"",""315362""
""blur"",""40"",""319559""
""focus"",""40"",""320096""
","""event"",""trial"",""time""
""blur"",""1"",""4054""
""blur"",""11"",""173348""
""blur"",""11"",""174555""
""blur"",""12"",""180591""
""blur"",""33"",""261887""
""blur"",""33"",""266067""
""blur"",""35"",""275461""
""blur"",""37"",""293073""
""blur"",""39"",""304061""
""blur"",""39"",""305892""
""blur"",""40"",""319559""
","""event"",""trial"",""time""
""focus"",""1"",""18315""
""focus"",""11"",""174197""
""focus"",""11"",""176166""
""focus"",""12"",""183273""
""focus"",""33"",""264591""
""focus"",""34"",""267697""
""focus"",""35"",""279264""
""focus"",""37"",""294019""
""focus"",""39"",""304525""
""focus"",""39"",""315362""
""focus"",""40"",""320096""
","""event"",""trial"",""time""
""fullscreenenter"",""1"",""20196""
","""event"",""trial"",""time""
""fullscreenexit"",""2"",""22012""
","","","","","","null","<div style=""font-size:60px;"">+</div>","null","","fixation","","","","","","","","",""
"memory-trial","47","353047","0.0-15.0-1.2","2012","2","""event"",""trial"",""time""
""blur"",""1"",""4054""
""focus"",""1"",""18315""
""fullscreenenter"",""1"",""20196""
""fullscreenexit"",""2"",""22012""
""blur"",""11"",""173348""
""focus"",""11"",""174197""
""blur"",""11"",""174555""
""focus"",""11"",""176166""
""blur"",""12"",""180591""
""focus"",""12"",""183273""
""blur"",""33"",""261887""
""focus"",""33"",""264591""
""blur"",""33"",""266067""
""focus"",""34"",""267697""
""blur"",""35"",""275461""
""focus"",""35"",""279264""
""blur"",""37"",""293073""
""focus"",""37"",""294019""
""blur"",""39"",""304061""
""focus"",""39"",""304525""
""blur"",""39"",""305892""
""focus"",""39"",""315362""
""blur"",""40"",""319559""
""focus"",""40"",""320096""
","""event"",""trial"",""time""
""blur"",""1"",""4054""
""blur"",""11"",""173348""
""blur"",""11"",""174555""
""blur"",""12"",""180591""
""blur"",""33"",""261887""
""blur"",""33"",""266067""
""blur"",""35"",""275461""
""blur"",""37"",""293073""
""blur"",""39"",""304061""
""blur"",""39"",""305892""
""blur"",""40"",""319559""
","""event"",""trial"",""time""
""focus"",""1"",""18315""
""focus"",""11"",""174197""
""focus"",""11"",""176166""
""focus"",""12"",""183273""
""focus"",""33"",""264591""
""focus"",""34"",""267697""
""focus"",""35"",""279264""
""focus"",""37"",""294019""
""focus"",""39"",""304525""
""focus"",""39"",""315362""
""focus"",""40"",""320096""
","""event"",""trial"",""time""
""fullscreenenter"",""1"",""20196""
","""event"",""trial"",""time""
""fullscreenexit"",""2"",""22012""
","","","","","","1512.6999999284744","images/cow2.png","","","memory_trial","1","definitely_old","","","","","","",""
"html-keyboard-response","48","353552","0.0-15.0-0.3","2012","2","""event"",""trial"",""time""
""blur"",""1"",""4054""
""focus"",""1"",""18315""
""fullscreenenter"",""1"",""20196""
""fullscreenexit"",""2"",""22012""
""blur"",""11"",""173348""
""focus"",""11"",""174197""
""blur"",""11"",""174555""
""focus"",""11"",""176166""
""blur"",""12"",""180591""
""focus"",""12"",""183273""
""blur"",""33"",""261887""
""focus"",""33"",""264591""
""blur"",""33"",""266067""
""focus"",""34"",""267697""
""blur"",""35"",""275461""
""focus"",""35"",""279264""
""blur"",""37"",""293073""
""focus"",""37"",""294019""
""blur"",""39"",""304061""
""focus"",""39"",""304525""
""blur"",""39"",""305892""
""focus"",""39"",""315362""
""blur"",""40"",""319559""
""focus"",""40"",""320096""
","""event"",""trial"",""time""
""blur"",""1"",""4054""
""blur"",""11"",""173348""
""blur"",""11"",""174555""
""blur"",""12"",""180591""
""blur"",""33"",""261887""
""blur"",""33"",""266067""
""blur"",""35"",""275461""
""blur"",""37"",""293073""
""blur"",""39"",""304061""
""blur"",""39"",""305892""
""blur"",""40"",""319559""
","""event"",""trial"",""time""
""focus"",""1"",""18315""
""focus"",""11"",""174197""
""focus"",""11"",""176166""
""focus"",""12"",""183273""
""focus"",""33"",""264591""
""focus"",""34"",""267697""
""focus"",""35"",""279264""
""focus"",""37"",""294019""
""focus"",""39"",""304525""
""focus"",""39"",""315362""
""focus"",""40"",""320096""
","""event"",""trial"",""time""
""fullscreenenter"",""1"",""20196""
","""event"",""trial"",""time""
""fullscreenexit"",""2"",""22012""
","","","","","","null","<div style=""font-size:60px;"">+</div>","null","","fixation","","","","","","","","",""
"memory-trial","49","357623","0.0-15.0-1.3","2012","2","""event"",""trial"",""time""
""blur"",""1"",""4054""
""focus"",""1"",""18315""
""fullscreenenter"",""1"",""20196""
""fullscreenexit"",""2"",""22012""
""blur"",""11"",""173348""
""focus"",""11"",""174197""
""blur"",""11"",""174555""
""focus"",""11"",""176166""
""blur"",""12"",""180591""
""focus"",""12"",""183273""
""blur"",""33"",""261887""
""focus"",""33"",""264591""
""blur"",""33"",""266067""
""focus"",""34"",""267697""
""blur"",""35"",""275461""
""focus"",""35"",""279264""
""blur"",""37"",""293073""
""focus"",""37"",""294019""
""blur"",""39"",""304061""
""focus"",""39"",""304525""
""blur"",""39"",""305892""
""focus"",""39"",""315362""
""blur"",""40"",""319559""
""focus"",""40"",""320096""
","""event"",""trial"",""time""
""blur"",""1"",""4054""
""blur"",""11"",""173348""
""blur"",""11"",""174555""
""blur"",""12"",""180591""
""blur"",""33"",""261887""
""blur"",""33"",""266067""
""blur"",""35"",""275461""
""blur"",""37"",""293073""
""blur"",""39"",""304061""
""blur"",""39"",""305892""
""blur"",""40"",""319559""
","""event"",""trial"",""time""
""focus"",""1"",""18315""
""focus"",""11"",""174197""
""focus"",""11"",""176166""
""focus"",""12"",""183273""
""focus"",""33"",""264591""
""focus"",""34"",""267697""
""focus"",""35"",""279264""
""focus"",""37"",""294019""
""focus"",""39"",""304525""
""focus"",""39"",""315362""
""focus"",""40"",""320096""
","""event"",""trial"",""time""
""fullscreenenter"",""1"",""20196""
","""event"",""trial"",""time""
""fullscreenexit"",""2"",""22012""
","","","","","","3060","images/train4.png","","","memory_trial","1","definitely_old","","","","","","",""
"html-keyboard-response","50","358125","0.0-15.0-0.4","2012","2","""event"",""trial"",""time""
""blur"",""1"",""4054""
""focus"",""1"",""18315""
""fullscreenenter"",""1"",""20196""
""fullscreenexit"",""2"",""22012""
""blur"",""11"",""173348""
""focus"",""11"",""174197""
""blur"",""11"",""174555""
""focus"",""11"",""176166""
""blur"",""12"",""180591""
""focus"",""12"",""183273""
""blur"",""33"",""261887""
""focus"",""33"",""264591""
""blur"",""33"",""266067""
""focus"",""34"",""267697""
""blur"",""35"",""275461""
""focus"",""35"",""279264""
""blur"",""37"",""293073""
""focus"",""37"",""294019""
""blur"",""39"",""304061""
""focus"",""39"",""304525""
""blur"",""39"",""305892""
""focus"",""39"",""315362""
""blur"",""40"",""319559""
""focus"",""40"",""320096""
","""event"",""trial"",""time""
""blur"",""1"",""4054""
""blur"",""11"",""173348""
""blur"",""11"",""174555""
""blur"",""12"",""180591""
""blur"",""33"",""261887""
""blur"",""33"",""266067""
""blur"",""35"",""275461""
""blur"",""37"",""293073""
""blur"",""39"",""304061""
""blur"",""39"",""305892""
""blur"",""40"",""319559""
","""event"",""trial"",""time""
""focus"",""1"",""18315""
""focus"",""11"",""174197""
""focus"",""11"",""176166""
""focus"",""12"",""183273""
""focus"",""33"",""264591""
""focus"",""34"",""267697""
""focus"",""35"",""279264""
""focus"",""37"",""294019""
""focus"",""39"",""304525""
""focus"",""39"",""315362""
""focus"",""40"",""320096""
","""event"",""trial"",""time""
""fullscreenenter"",""1"",""20196""
","""event"",""trial"",""time""
""fullscreenexit"",""2"",""22012""
","","","","","","null","<div style=""font-size:60px;"">+</div>","null","","fixation","","","","","","","","",""
"memory-trial","51","360064","0.0-15.0-1.4","2012","2","""event"",""trial"",""time""
""blur"",""1"",""4054""
""focus"",""1"",""18315""
""fullscreenenter"",""1"",""20196""
""fullscreenexit"",""2"",""22012""
""blur"",""11"",""173348""
""focus"",""11"",""174197""
""blur"",""11"",""174555""
""focus"",""11"",""176166""
""blur"",""12"",""180591""
""focus"",""12"",""183273""
""blur"",""33"",""261887""
""focus"",""33"",""264591""
""blur"",""33"",""266067""
""focus"",""34"",""267697""
""blur"",""35"",""275461""
""focus"",""35"",""279264""
""blur"",""37"",""293073""
""focus"",""37"",""294019""
""blur"",""39"",""304061""
""focus"",""39"",""304525""
""blur"",""39"",""305892""
""focus"",""39"",""315362""
""blur"",""40"",""319559""
""focus"",""40"",""320096""
","""event"",""trial"",""time""
""blur"",""1"",""4054""
""blur"",""11"",""173348""
""blur"",""11"",""174555""
""blur"",""12"",""180591""
""blur"",""33"",""261887""
""blur"",""33"",""266067""
""blur"",""35"",""275461""
""blur"",""37"",""293073""
""blur"",""39"",""304061""
""blur"",""39"",""305892""
""blur"",""40"",""319559""
","""event"",""trial"",""time""
""focus"",""1"",""18315""
""focus"",""11"",""174197""
""focus"",""11"",""176166""
""focus"",""12"",""183273""
""focus"",""33"",""264591""
""focus"",""34"",""267697""
""focus"",""35"",""279264""
""focus"",""37"",""294019""
""focus"",""39"",""304525""
""focus"",""39"",""315362""
""focus"",""40"",""320096""
","""event"",""trial"",""time""
""fullscreenenter"",""1"",""20196""
","""event"",""trial"",""time""
""fullscreenexit"",""2"",""22012""
","","","","","","937.1000000238419","images/table5.png","","","memory_trial","4","definitely_new","","","","","","",""
"html-keyboard-response","52","360565","0.0-15.0-0.5","2012","2","""event"",""trial"",""time""
""blur"",""1"",""4054""
""focus"",""1"",""18315""
""fullscreenenter"",""1"",""20196""
""fullscreenexit"",""2"",""22012""
""blur"",""11"",""173348""
""focus"",""11"",""174197""
""blur"",""11"",""174555""
""focus"",""11"",""176166""
""blur"",""12"",""180591""
""focus"",""12"",""183273""
""blur"",""33"",""261887""
""focus"",""33"",""264591""
""blur"",""33"",""266067""
""focus"",""34"",""267697""
""blur"",""35"",""275461""
""focus"",""35"",""279264""
""blur"",""37"",""293073""
""focus"",""37"",""294019""
""blur"",""39"",""304061""
""focus"",""39"",""304525""
""blur"",""39"",""305892""
""focus"",""39"",""315362""
""blur"",""40"",""319559""
""focus"",""40"",""320096""
","""event"",""trial"",""time""
""blur"",""1"",""4054""
""blur"",""11"",""173348""
""blur"",""11"",""174555""
""blur"",""12"",""180591""
""blur"",""33"",""261887""
""blur"",""33"",""266067""
""blur"",""35"",""275461""
""blur"",""37"",""293073""
""blur"",""39"",""304061""
""blur"",""39"",""305892""
""blur"",""40"",""319559""
","""event"",""trial"",""time""
""focus"",""1"",""18315""
""focus"",""11"",""174197""
""focus"",""11"",""176166""
""focus"",""12"",""183273""
""focus"",""33"",""264591""
""focus"",""34"",""267697""
""focus"",""35"",""279264""
""focus"",""37"",""294019""
""focus"",""39"",""304525""
""focus"",""39"",""315362""
""focus"",""40"",""320096""
","""event"",""trial"",""time""
""fullscreenenter"",""1"",""20196""
","""event"",""trial"",""time""
""fullscreenexit"",""2"",""22012""
","","","","","","null","<div style=""font-size:60px;"">+</div>","null","","fixation","","","","","","","","",""
"memory-trial","53","362222","0.0-15.0-1.5","2012","2","""event"",""trial"",""time""
""blur"",""1"",""4054""
""focus"",""1"",""18315""
""fullscreenenter"",""1"",""20196""
""fullscreenexit"",""2"",""22012""
""blur"",""11"",""173348""
""focus"",""11"",""174197""
""blur"",""11"",""174555""
""focus"",""11"",""176166""
""blur"",""12"",""180591""
""focus"",""12"",""183273""
""blur"",""33"",""261887""
""focus"",""33"",""264591""
""blur"",""33"",""266067""
""focus"",""34"",""267697""
""blur"",""35"",""275461""
""focus"",""35"",""279264""
""blur"",""37"",""293073""
""focus"",""37"",""294019""
""blur"",""39"",""304061""
""focus"",""39"",""304525""
""blur"",""39"",""305892""
""focus"",""39"",""315362""
""blur"",""40"",""319559""
""focus"",""40"",""320096""
","""event"",""trial"",""time""
""blur"",""1"",""4054""
""blur"",""11"",""173348""
""blur"",""11"",""174555""
""blur"",""12"",""180591""
""blur"",""33"",""261887""
""blur"",""33"",""266067""
""blur"",""35"",""275461""
""blur"",""37"",""293073""
""blur"",""39"",""304061""
""blur"",""39"",""305892""
""blur"",""40"",""319559""
","""event"",""trial"",""time""
""focus"",""1"",""18315""
""focus"",""11"",""174197""
""focus"",""11"",""176166""
""focus"",""12"",""183273""
""focus"",""33"",""264591""
""focus"",""34"",""267697""
""focus"",""35"",""279264""
""focus"",""37"",""294019""
""focus"",""39"",""304525""
""focus"",""39"",""315362""
""focus"",""40"",""320096""
","""event"",""trial"",""time""
""fullscreenenter"",""1"",""20196""
","""event"",""trial"",""time""
""fullscreenexit"",""2"",""22012""
","","","","","","655.8999999761581","images/rodent4.png","","","memory_trial","4","definitely_new","","","","","","",""
"html-keyboard-response","54","362723","0.0-15.0-0.6","2012","2","""event"",""trial"",""time""
""blur"",""1"",""4054""
""focus"",""1"",""18315""
""fullscreenenter"",""1"",""20196""
""fullscreenexit"",""2"",""22012""
""blur"",""11"",""173348""
""focus"",""11"",""174197""
""blur"",""11"",""174555""
""focus"",""11"",""176166""
""blur"",""12"",""180591""
""focus"",""12"",""183273""
""blur"",""33"",""261887""
""focus"",""33"",""264591""
""blur"",""33"",""266067""
""focus"",""34"",""267697""
""blur"",""35"",""275461""
""focus"",""35"",""279264""
""blur"",""37"",""293073""
""focus"",""37"",""294019""
""blur"",""39"",""304061""
""focus"",""39"",""304525""
""blur"",""39"",""305892""
""focus"",""39"",""315362""
""blur"",""40"",""319559""
""focus"",""40"",""320096""
","""event"",""trial"",""time""
""blur"",""1"",""4054""
""blur"",""11"",""173348""
""blur"",""11"",""174555""
""blur"",""12"",""180591""
""blur"",""33"",""261887""
""blur"",""33"",""266067""
""blur"",""35"",""275461""
""blur"",""37"",""293073""
""blur"",""39"",""304061""
""blur"",""39"",""305892""
""blur"",""40"",""319559""
","""event"",""trial"",""time""
""focus"",""1"",""18315""
""focus"",""11"",""174197""
""focus"",""11"",""176166""
""focus"",""12"",""183273""
""focus"",""33"",""264591""
""focus"",""34"",""267697""
""focus"",""35"",""279264""
""focus"",""37"",""294019""
""focus"",""39"",""304525""
""focus"",""39"",""315362""
""focus"",""40"",""320096""
","""event"",""trial"",""time""
""fullscreenenter"",""1"",""20196""
","""event"",""trial"",""time""
""fullscreenexit"",""2"",""22012""
","","","","","","null","<div style=""font-size:60px;"">+</div>","null","","fixation","","","","","","","","",""
"memory-trial","55","365728","0.0-15.0-1.6","2012","2","""event"",""trial"",""time""
""blur"",""1"",""4054""
""focus"",""1"",""18315""
""fullscreenenter"",""1"",""20196""
""fullscreenexit"",""2"",""22012""
""blur"",""11"",""173348""
""focus"",""11"",""174197""
""blur"",""11"",""174555""
""focus"",""11"",""176166""
""blur"",""12"",""180591""
""focus"",""12"",""183273""
""blur"",""33"",""261887""
""focus"",""33"",""264591""
""blur"",""33"",""266067""
""focus"",""34"",""267697""
""blur"",""35"",""275461""
""focus"",""35"",""279264""
""blur"",""37"",""293073""
""focus"",""37"",""294019""
""blur"",""39"",""304061""
""focus"",""39"",""304525""
""blur"",""39"",""305892""
""focus"",""39"",""315362""
""blur"",""40"",""319559""
""focus"",""40"",""320096""
","""event"",""trial"",""time""
""blur"",""1"",""4054""
""blur"",""11"",""173348""
""blur"",""11"",""174555""
""blur"",""12"",""180591""
""blur"",""33"",""261887""
""blur"",""33"",""266067""
""blur"",""35"",""275461""
""blur"",""37"",""293073""
""blur"",""39"",""304061""
""blur"",""39"",""305892""
""blur"",""40"",""319559""
","""event"",""trial"",""time""
""focus"",""1"",""18315""
""focus"",""11"",""174197""
""focus"",""11"",""176166""
""focus"",""12"",""183273""
""focus"",""33"",""264591""
""focus"",""34"",""267697""
""focus"",""35"",""279264""
""focus"",""37"",""294019""
""focus"",""39"",""304525""
""focus"",""39"",""315362""
""focus"",""40"",""320096""
","""event"",""trial"",""time""
""fullscreenenter"",""1"",""20196""
","""event"",""trial"",""time""
""fullscreenexit"",""2"",""22012""
","","","","","","2001.7999999523163","images/feline3.png","","","memory_trial","2","maybe_old","","","","","","",""
"html-keyboard-response","56","366230","0.0-15.0-0.7","2012","2","""event"",""trial"",""time""
""blur"",""1"",""4054""
""focus"",""1"",""18315""
""fullscreenenter"",""1"",""20196""
""fullscreenexit"",""2"",""22012""
""blur"",""11"",""173348""
""focus"",""11"",""174197""
""blur"",""11"",""174555""
""focus"",""11"",""176166""
""blur"",""12"",""180591""
""focus"",""12"",""183273""
""blur"",""33"",""261887""
""focus"",""33"",""264591""
""blur"",""33"",""266067""
""focus"",""34"",""267697""
""blur"",""35"",""275461""
""focus"",""35"",""279264""
""blur"",""37"",""293073""
""focus"",""37"",""294019""
""blur"",""39"",""304061""
""focus"",""39"",""304525""
""blur"",""39"",""305892""
""focus"",""39"",""315362""
""blur"",""40"",""319559""
""focus"",""40"",""320096""
","""event"",""trial"",""time""
""blur"",""1"",""4054""
""blur"",""11"",""173348""
""blur"",""11"",""174555""
""blur"",""12"",""180591""
""blur"",""33"",""261887""
""blur"",""33"",""266067""
""blur"",""35"",""275461""
""blur"",""37"",""293073""
""blur"",""39"",""304061""
""blur"",""39"",""305892""
""blur"",""40"",""319559""
","""event"",""trial"",""time""
""focus"",""1"",""18315""
""focus"",""11"",""174197""
""focus"",""11"",""176166""
""focus"",""12"",""183273""
""focus"",""33"",""264591""
""focus"",""34"",""267697""
""focus"",""35"",""279264""
""focus"",""37"",""294019""
""focus"",""39"",""304525""
""focus"",""39"",""315362""
""focus"",""40"",""320096""
","""event"",""trial"",""time""
""fullscreenenter"",""1"",""20196""
","""event"",""trial"",""time""
""fullscreenexit"",""2"",""22012""
","","","","","","null","<div style=""font-size:60px;"">+</div>","null","","fixation","","","","","","","","",""
"memory-trial","57","368862","0.0-15.0-1.7","2012","2","""event"",""trial"",""time""
""blur"",""1"",""4054""
""focus"",""1"",""18315""
""fullscreenenter"",""1"",""20196""
""fullscreenexit"",""2"",""22012""
""blur"",""11"",""173348""
""focus"",""11"",""174197""
""blur"",""11"",""174555""
""focus"",""11"",""176166""
""blur"",""12"",""180591""
""focus"",""12"",""183273""
""blur"",""33"",""261887""
""focus"",""33"",""264591""
""blur"",""33"",""266067""
""focus"",""34"",""267697""
""blur"",""35"",""275461""
""focus"",""35"",""279264""
""blur"",""37"",""293073""
""focus"",""37"",""294019""
""blur"",""39"",""304061""
""focus"",""39"",""304525""
""blur"",""39"",""305892""
""focus"",""39"",""315362""
""blur"",""40"",""319559""
""focus"",""40"",""320096""
","""event"",""trial"",""time""
""blur"",""1"",""4054""
""blur"",""11"",""173348""
""blur"",""11"",""174555""
""blur"",""12"",""180591""
""blur"",""33"",""261887""
""blur"",""33"",""266067""
""blur"",""35"",""275461""
""blur"",""37"",""293073""
""blur"",""39"",""304061""
""blur"",""39"",""305892""
""blur"",""40"",""319559""
","""event"",""trial"",""time""
""focus"",""1"",""18315""
""focus"",""11"",""174197""
""focus"",""11"",""176166""
""focus"",""12"",""183273""
""focus"",""33"",""264591""
""focus"",""34"",""267697""
""focus"",""35"",""279264""
""focus"",""37"",""294019""
""focus"",""39"",""304525""
""focus"",""39"",""315362""
""focus"",""40"",""320096""
","""event"",""trial"",""time""
""fullscreenenter"",""1"",""20196""
","""event"",""trial"",""time""
""fullscreenexit"",""2"",""22012""
","","","","","","1631.2999999523163","images/rodent2.png","","","memory_trial","1","definitely_old","","","","","","",""
"html-keyboard-response","58","369364","0.0-15.0-0.8","2012","2","""event"",""trial"",""time""
""blur"",""1"",""4054""
""focus"",""1"",""18315""
""fullscreenenter"",""1"",""20196""
""fullscreenexit"",""2"",""22012""
""blur"",""11"",""173348""
""focus"",""11"",""174197""
""blur"",""11"",""174555""
""focus"",""11"",""176166""
""blur"",""12"",""180591""
""focus"",""12"",""183273""
""blur"",""33"",""261887""
""focus"",""33"",""264591""
""blur"",""33"",""266067""
""focus"",""34"",""267697""
""blur"",""35"",""275461""
""focus"",""35"",""279264""
""blur"",""37"",""293073""
""focus"",""37"",""294019""
""blur"",""39"",""304061""
""focus"",""39"",""304525""
""blur"",""39"",""305892""
""focus"",""39"",""315362""
""blur"",""40"",""319559""
""focus"",""40"",""320096""
","""event"",""trial"",""time""
""blur"",""1"",""4054""
""blur"",""11"",""173348""
""blur"",""11"",""174555""
""blur"",""12"",""180591""
""blur"",""33"",""261887""
""blur"",""33"",""266067""
""blur"",""35"",""275461""
""blur"",""37"",""293073""
""blur"",""39"",""304061""
""blur"",""39"",""305892""
""blur"",""40"",""319559""
","""event"",""trial"",""time""
""focus"",""1"",""18315""
""focus"",""11"",""174197""
""focus"",""11"",""176166""
""focus"",""12"",""183273""
""focus"",""33"",""264591""
""focus"",""34"",""267697""
""focus"",""35"",""279264""
""focus"",""37"",""294019""
""focus"",""39"",""304525""
""focus"",""39"",""315362""
""focus"",""40"",""320096""
","""event"",""trial"",""time""
""fullscreenenter"",""1"",""20196""
","""event"",""trial"",""time""
""fullscreenexit"",""2"",""22012""
","","","","","","null","<div style=""font-size:60px;"">+</div>","null","","fixation","","","","","","","","",""
"memory-trial","59","371604","0.0-15.0-1.8","2012","2","""event"",""trial"",""time""
""blur"",""1"",""4054""
""focus"",""1"",""18315""
""fullscreenenter"",""1"",""20196""
""fullscreenexit"",""2"",""22012""
""blur"",""11"",""173348""
""focus"",""11"",""174197""
""blur"",""11"",""174555""
""focus"",""11"",""176166""
""blur"",""12"",""180591""
""focus"",""12"",""183273""
""blur"",""33"",""261887""
""focus"",""33"",""264591""
""blur"",""33"",""266067""
""focus"",""34"",""267697""
""blur"",""35"",""275461""
""focus"",""35"",""279264""
""blur"",""37"",""293073""
""focus"",""37"",""294019""
""blur"",""39"",""304061""
""focus"",""39"",""304525""
""blur"",""39"",""305892""
""focus"",""39"",""315362""
""blur"",""40"",""319559""
""focus"",""40"",""320096""
","""event"",""trial"",""time""
""blur"",""1"",""4054""
""blur"",""11"",""173348""
""blur"",""11"",""174555""
""blur"",""12"",""180591""
""blur"",""33"",""261887""
""blur"",""33"",""266067""
""blur"",""35"",""275461""
""blur"",""37"",""293073""
""blur"",""39"",""304061""
""blur"",""39"",""305892""
""blur"",""40"",""319559""
","""event"",""trial"",""time""
""focus"",""1"",""18315""
""focus"",""11"",""174197""
""focus"",""11"",""176166""
""focus"",""12"",""183273""
""focus"",""33"",""264591""
""focus"",""34"",""267697""
""focus"",""35"",""279264""
""focus"",""37"",""294019""
""focus"",""39"",""304525""
""focus"",""39"",""315362""
""focus"",""40"",""320096""
","""event"",""trial"",""time""
""fullscreenenter"",""1"",""20196""
","""event"",""trial"",""time""
""fullscreenexit"",""2"",""22012""
","","","","","","1239","images/bush3.png","","","memory_trial","1","definitely_old","","","","","","",""
"html-keyboard-response","60","372106","0.0-15.0-0.9","2012","2","""event"",""trial"",""time""
""blur"",""1"",""4054""
""focus"",""1"",""18315""
""fullscreenenter"",""1"",""20196""
""fullscreenexit"",""2"",""22012""
""blur"",""11"",""173348""
""focus"",""11"",""174197""
""blur"",""11"",""174555""
""focus"",""11"",""176166""
""blur"",""12"",""180591""
""focus"",""12"",""183273""
""blur"",""33"",""261887""
""focus"",""33"",""264591""
""blur"",""33"",""266067""
""focus"",""34"",""267697""
""blur"",""35"",""275461""
""focus"",""35"",""279264""
""blur"",""37"",""293073""
""focus"",""37"",""294019""
""blur"",""39"",""304061""
""focus"",""39"",""304525""
""blur"",""39"",""305892""
""focus"",""39"",""315362""
""blur"",""40"",""319559""
""focus"",""40"",""320096""
","""event"",""trial"",""time""
""blur"",""1"",""4054""
""blur"",""11"",""173348""
""blur"",""11"",""174555""
""blur"",""12"",""180591""
""blur"",""33"",""261887""
""blur"",""33"",""266067""
""blur"",""35"",""275461""
""blur"",""37"",""293073""
""blur"",""39"",""304061""
""blur"",""39"",""305892""
""blur"",""40"",""319559""
","""event"",""trial"",""time""
""focus"",""1"",""18315""
""focus"",""11"",""174197""
""focus"",""11"",""176166""
""focus"",""12"",""183273""
""focus"",""33"",""264591""
""focus"",""34"",""267697""
""focus"",""35"",""279264""
""focus"",""37"",""294019""
""focus"",""39"",""304525""
""focus"",""39"",""315362""
""focus"",""40"",""320096""
","""event"",""trial"",""time""
""fullscreenenter"",""1"",""20196""
","""event"",""trial"",""time""
""fullscreenexit"",""2"",""22012""
","","","","","","null","<div style=""font-size:60px;"">+</div>","null","","fixation","","","","","","","","",""
"memory-trial","61","375396","0.0-15.0-1.9","2012","2","""event"",""trial"",""time""
""blur"",""1"",""4054""
""focus"",""1"",""18315""
""fullscreenenter"",""1"",""20196""
""fullscreenexit"",""2"",""22012""
""blur"",""11"",""173348""
""focus"",""11"",""174197""
""blur"",""11"",""174555""
""focus"",""11"",""176166""
""blur"",""12"",""180591""
""focus"",""12"",""183273""
""blur"",""33"",""261887""
""focus"",""33"",""264591""
""blur"",""33"",""266067""
""focus"",""34"",""267697""
""blur"",""35"",""275461""
""focus"",""35"",""279264""
""blur"",""37"",""293073""
""focus"",""37"",""294019""
""blur"",""39"",""304061""
""focus"",""39"",""304525""
""blur"",""39"",""305892""
""focus"",""39"",""315362""
""blur"",""40"",""319559""
""focus"",""40"",""320096""
","""event"",""trial"",""time""
""blur"",""1"",""4054""
""blur"",""11"",""173348""
""blur"",""11"",""174555""
""blur"",""12"",""180591""
""blur"",""33"",""261887""
""blur"",""33"",""266067""
""blur"",""35"",""275461""
""blur"",""37"",""293073""
""blur"",""39"",""304061""
""blur"",""39"",""305892""
""blur"",""40"",""319559""
","""event"",""trial"",""time""
""focus"",""1"",""18315""
""focus"",""11"",""174197""
""focus"",""11"",""176166""
""focus"",""12"",""183273""
""focus"",""33"",""264591""
""focus"",""34"",""267697""
""focus"",""35"",""279264""
""focus"",""37"",""294019""
""focus"",""39"",""304525""
""focus"",""39"",""315362""
""focus"",""40"",""320096""
","""event"",""trial"",""time""
""fullscreenenter"",""1"",""20196""
","""event"",""trial"",""time""
""fullscreenexit"",""2"",""22012""
","","","","","","2288","images/plane4.png","","","memory_trial","3","maybe_new","","","","","","",""
"html-keyboard-response","62","375898","0.0-15.0-0.10","2012","2","""event"",""trial"",""time""
""blur"",""1"",""4054""
""focus"",""1"",""18315""
""fullscreenenter"",""1"",""20196""
""fullscreenexit"",""2"",""22012""
""blur"",""11"",""173348""
""focus"",""11"",""174197""
""blur"",""11"",""174555""
""focus"",""11"",""176166""
""blur"",""12"",""180591""
""focus"",""12"",""183273""
""blur"",""33"",""261887""
""focus"",""33"",""264591""
""blur"",""33"",""266067""
""focus"",""34"",""267697""
""blur"",""35"",""275461""
""focus"",""35"",""279264""
""blur"",""37"",""293073""
""focus"",""37"",""294019""
""blur"",""39"",""304061""
""focus"",""39"",""304525""
""blur"",""39"",""305892""
""focus"",""39"",""315362""
""blur"",""40"",""319559""
""focus"",""40"",""320096""
","""event"",""trial"",""time""
""blur"",""1"",""4054""
""blur"",""11"",""173348""
""blur"",""11"",""174555""
""blur"",""12"",""180591""
""blur"",""33"",""261887""
""blur"",""33"",""266067""
""blur"",""35"",""275461""
""blur"",""37"",""293073""
""blur"",""39"",""304061""
""blur"",""39"",""305892""
""blur"",""40"",""319559""
","""event"",""trial"",""time""
""focus"",""1"",""18315""
""focus"",""11"",""174197""
""focus"",""11"",""176166""
""focus"",""12"",""183273""
""focus"",""33"",""264591""
""focus"",""34"",""267697""
""focus"",""35"",""279264""
""focus"",""37"",""294019""
""focus"",""39"",""304525""
""focus"",""39"",""315362""
""focus"",""40"",""320096""
","""event"",""trial"",""time""
""fullscreenenter"",""1"",""20196""
","""event"",""trial"",""time""
""fullscreenexit"",""2"",""22012""
","","","","","","null","<div style=""font-size:60px;"">+</div>","null","","fixation","","","","","","","","",""
"memory-trial","63","378029","0.0-15.0-1.10","2012","2","""event"",""trial"",""time""
""blur"",""1"",""4054""
""focus"",""1"",""18315""
""fullscreenenter"",""1"",""20196""
""fullscreenexit"",""2"",""22012""
""blur"",""11"",""173348""
""focus"",""11"",""174197""
""blur"",""11"",""174555""
""focus"",""11"",""176166""
""blur"",""12"",""180591""
""focus"",""12"",""183273""
""blur"",""33"",""261887""
""focus"",""33"",""264591""
""blur"",""33"",""266067""
""focus"",""34"",""267697""
""blur"",""35"",""275461""
""focus"",""35"",""279264""
""blur"",""37"",""293073""
""focus"",""37"",""294019""
""blur"",""39"",""304061""
""focus"",""39"",""304525""
""blur"",""39"",""305892""
""focus"",""39"",""315362""
""blur"",""40"",""319559""
""focus"",""40"",""320096""
","""event"",""trial"",""time""
""blur"",""1"",""4054""
""blur"",""11"",""173348""
""blur"",""11"",""174555""
""blur"",""12"",""180591""
""blur"",""33"",""261887""
""blur"",""33"",""266067""
""blur"",""35"",""275461""
""blur"",""37"",""293073""
""blur"",""39"",""304061""
""blur"",""39"",""305892""
""blur"",""40"",""319559""
","""event"",""trial"",""time""
""focus"",""1"",""18315""
""focus"",""11"",""174197""
""focus"",""11"",""176166""
""focus"",""12"",""183273""
""focus"",""33"",""264591""
""focus"",""34"",""267697""
""focus"",""35"",""279264""
""focus"",""37"",""294019""
""focus"",""39"",""304525""
""focus"",""39"",""315362""
""focus"",""40"",""320096""
","""event"",""trial"",""time""
""fullscreenenter"",""1"",""20196""
","""event"",""trial"",""time""
""fullscreenexit"",""2"",""22012""
","","","","","","1129.2999999523163","images/sheep5.png","","","memory_trial","1","definitely_old","","","","","","",""
"html-keyboard-response","64","378529","0.0-15.0-0.11","2012","2","""event"",""trial"",""time""
""blur"",""1"",""4054""
""focus"",""1"",""18315""
""fullscreenenter"",""1"",""20196""
""fullscreenexit"",""2"",""22012""
""blur"",""11"",""173348""
""focus"",""11"",""174197""
""blur"",""11"",""174555""
""focus"",""11"",""176166""
""blur"",""12"",""180591""
""focus"",""12"",""183273""
""blur"",""33"",""261887""
""focus"",""33"",""264591""
""blur"",""33"",""266067""
""focus"",""34"",""267697""
""blur"",""35"",""275461""
""focus"",""35"",""279264""
""blur"",""37"",""293073""
""focus"",""37"",""294019""
""blur"",""39"",""304061""
""focus"",""39"",""304525""
""blur"",""39"",""305892""
""focus"",""39"",""315362""
""blur"",""40"",""319559""
""focus"",""40"",""320096""
","""event"",""trial"",""time""
""blur"",""1"",""4054""
""blur"",""11"",""173348""
""blur"",""11"",""174555""
""blur"",""12"",""180591""
""blur"",""33"",""261887""
""blur"",""33"",""266067""
""blur"",""35"",""275461""
""blur"",""37"",""293073""
""blur"",""39"",""304061""
""blur"",""39"",""305892""
""blur"",""40"",""319559""
","""event"",""trial"",""time""
""focus"",""1"",""18315""
""focus"",""11"",""174197""
""focus"",""11"",""176166""
""focus"",""12"",""183273""
""focus"",""33"",""264591""
""focus"",""34"",""267697""
""focus"",""35"",""279264""
""focus"",""37"",""294019""
""focus"",""39"",""304525""
""focus"",""39"",""315362""
""focus"",""40"",""320096""
","""event"",""trial"",""time""
""fullscreenenter"",""1"",""20196""
","""event"",""trial"",""time""
""fullscreenexit"",""2"",""22012""
","","","","","","null","<div style=""font-size:60px;"">+</div>","null","","fixation","","","","","","","","",""
"memory-trial","65","380318","0.0-15.0-1.11","2012","2","""event"",""trial"",""time""
""blur"",""1"",""4054""
""focus"",""1"",""18315""
""fullscreenenter"",""1"",""20196""
""fullscreenexit"",""2"",""22012""
""blur"",""11"",""173348""
""focus"",""11"",""174197""
""blur"",""11"",""174555""
""focus"",""11"",""176166""
""blur"",""12"",""180591""
""focus"",""12"",""183273""
""blur"",""33"",""261887""
""focus"",""33"",""264591""
""blur"",""33"",""266067""
""focus"",""34"",""267697""
""blur"",""35"",""275461""
""focus"",""35"",""279264""
""blur"",""37"",""293073""
""focus"",""37"",""294019""
""blur"",""39"",""304061""
""focus"",""39"",""304525""
""blur"",""39"",""305892""
""focus"",""39"",""315362""
""blur"",""40"",""319559""
""focus"",""40"",""320096""
","""event"",""trial"",""time""
""blur"",""1"",""4054""
""blur"",""11"",""173348""
""blur"",""11"",""174555""
""blur"",""12"",""180591""
""blur"",""33"",""261887""
""blur"",""33"",""266067""
""blur"",""35"",""275461""
""blur"",""37"",""293073""
""blur"",""39"",""304061""
""blur"",""39"",""305892""
""blur"",""40"",""319559""
","""event"",""trial"",""time""
""focus"",""1"",""18315""
""focus"",""11"",""174197""
""focus"",""11"",""176166""
""focus"",""12"",""183273""
""focus"",""33"",""264591""
""focus"",""34"",""267697""
""focus"",""35"",""279264""
""focus"",""37"",""294019""
""focus"",""39"",""304525""
""focus"",""39"",""315362""
""focus"",""40"",""320096""
","""event"",""trial"",""time""
""fullscreenenter"",""1"",""20196""
","""event"",""trial"",""time""
""fullscreenexit"",""2"",""22012""
","","","","","","786.6000000238419","images/bush2.png","","","memory_trial","1","definitely_old","","","","","","",""
"html-keyboard-response","66","380820","0.0-15.0-0.12","2012","2","""event"",""trial"",""time""
""blur"",""1"",""4054""
""focus"",""1"",""18315""
""fullscreenenter"",""1"",""20196""
""fullscreenexit"",""2"",""22012""
""blur"",""11"",""173348""
""focus"",""11"",""174197""
""blur"",""11"",""174555""
""focus"",""11"",""176166""
""blur"",""12"",""180591""
""focus"",""12"",""183273""
""blur"",""33"",""261887""
""focus"",""33"",""264591""
""blur"",""33"",""266067""
""focus"",""34"",""267697""
""blur"",""35"",""275461""
""focus"",""35"",""279264""
""blur"",""37"",""293073""
""focus"",""37"",""294019""
""blur"",""39"",""304061""
""focus"",""39"",""304525""
""blur"",""39"",""305892""
""focus"",""39"",""315362""
""blur"",""40"",""319559""
""focus"",""40"",""320096""
","""event"",""trial"",""time""
""blur"",""1"",""4054""
""blur"",""11"",""173348""
""blur"",""11"",""174555""
""blur"",""12"",""180591""
""blur"",""33"",""261887""
""blur"",""33"",""266067""
""blur"",""35"",""275461""
""blur"",""37"",""293073""
""blur"",""39"",""304061""
""blur"",""39"",""305892""
""blur"",""40"",""319559""
","""event"",""trial"",""time""
""focus"",""1"",""18315""
""focus"",""11"",""174197""
""focus"",""11"",""176166""
""focus"",""12"",""183273""
""focus"",""33"",""264591""
""focus"",""34"",""267697""
""focus"",""35"",""279264""
""focus"",""37"",""294019""
""focus"",""39"",""304525""
""focus"",""39"",""315362""
""focus"",""40"",""320096""
","""event"",""trial"",""time""
""fullscreenenter"",""1"",""20196""
","""event"",""trial"",""time""
""fullscreenexit"",""2"",""22012""
","","","","","","null","<div style=""font-size:60px;"">+</div>","null","","fixation","","","","","","","","",""
"memory-trial","67","385382","0.0-15.0-1.12","2012","2","""event"",""trial"",""time""
""blur"",""1"",""4054""
""focus"",""1"",""18315""
""fullscreenenter"",""1"",""20196""
""fullscreenexit"",""2"",""22012""
""blur"",""11"",""173348""
""focus"",""11"",""174197""
""blur"",""11"",""174555""
""focus"",""11"",""176166""
""blur"",""12"",""180591""
""focus"",""12"",""183273""
""blur"",""33"",""261887""
""focus"",""33"",""264591""
""blur"",""33"",""266067""
""focus"",""34"",""267697""
""blur"",""35"",""275461""
""focus"",""35"",""279264""
""blur"",""37"",""293073""
""focus"",""37"",""294019""
""blur"",""39"",""304061""
""focus"",""39"",""304525""
""blur"",""39"",""305892""
""focus"",""39"",""315362""
""blur"",""40"",""319559""
""focus"",""40"",""320096""
","""event"",""trial"",""time""
""blur"",""1"",""4054""
""blur"",""11"",""173348""
""blur"",""11"",""174555""
""blur"",""12"",""180591""
""blur"",""33"",""261887""
""blur"",""33"",""266067""
""blur"",""35"",""275461""
""blur"",""37"",""293073""
""blur"",""39"",""304061""
""blur"",""39"",""305892""
""blur"",""40"",""319559""
","""event"",""trial"",""time""
""focus"",""1"",""18315""
""focus"",""11"",""174197""
""focus"",""11"",""176166""
""focus"",""12"",""183273""
""focus"",""33"",""264591""
""focus"",""34"",""267697""
""focus"",""35"",""279264""
""focus"",""37"",""294019""
""focus"",""39"",""304525""
""focus"",""39"",""315362""
""focus"",""40"",""320096""
","""event"",""trial"",""time""
""fullscreenenter"",""1"",""20196""
","""event"",""trial"",""time""
""fullscreenexit"",""2"",""22012""
","","","","","","3561.600000023842","images/straw2.png","","","memory_trial","3","maybe_new","","","","","","",""
"html-keyboard-response","68","385883","0.0-15.0-0.13","2012","2","""event"",""trial"",""time""
""blur"",""1"",""4054""
""focus"",""1"",""18315""
""fullscreenenter"",""1"",""20196""
""fullscreenexit"",""2"",""22012""
""blur"",""11"",""173348""
""focus"",""11"",""174197""
""blur"",""11"",""174555""
""focus"",""11"",""176166""
""blur"",""12"",""180591""
""focus"",""12"",""183273""
""blur"",""33"",""261887""
""focus"",""33"",""264591""
""blur"",""33"",""266067""
""focus"",""34"",""267697""
""blur"",""35"",""275461""
""focus"",""35"",""279264""
""blur"",""37"",""293073""
""focus"",""37"",""294019""
""blur"",""39"",""304061""
""focus"",""39"",""304525""
""blur"",""39"",""305892""
""focus"",""39"",""315362""
""blur"",""40"",""319559""
""focus"",""40"",""320096""
","""event"",""trial"",""time""
""blur"",""1"",""4054""
""blur"",""11"",""173348""
""blur"",""11"",""174555""
""blur"",""12"",""180591""
""blur"",""33"",""261887""
""blur"",""33"",""266067""
""blur"",""35"",""275461""
""blur"",""37"",""293073""
""blur"",""39"",""304061""
""blur"",""39"",""305892""
""blur"",""40"",""319559""
","""event"",""trial"",""time""
""focus"",""1"",""18315""
""focus"",""11"",""174197""
""focus"",""11"",""176166""
""focus"",""12"",""183273""
""focus"",""33"",""264591""
""focus"",""34"",""267697""
""focus"",""35"",""279264""
""focus"",""37"",""294019""
""focus"",""39"",""304525""
""focus"",""39"",""315362""
""focus"",""40"",""320096""
","""event"",""trial"",""time""
""fullscreenenter"",""1"",""20196""
","""event"",""trial"",""time""
""fullscreenexit"",""2"",""22012""
","","","","","","null","<div style=""font-size:60px;"">+</div>","null","","fixation","","","","","","","","",""
"memory-trial","69","388107","0.0-15.0-1.13","2012","2","""event"",""trial"",""time""
""blur"",""1"",""4054""
""focus"",""1"",""18315""
""fullscreenenter"",""1"",""20196""
""fullscreenexit"",""2"",""22012""
""blur"",""11"",""173348""
""focus"",""11"",""174197""
""blur"",""11"",""174555""
""focus"",""11"",""176166""
""blur"",""12"",""180591""
""focus"",""12"",""183273""
""blur"",""33"",""261887""
""focus"",""33"",""264591""
""blur"",""33"",""266067""
""focus"",""34"",""267697""
""blur"",""35"",""275461""
""focus"",""35"",""279264""
""blur"",""37"",""293073""
""focus"",""37"",""294019""
""blur"",""39"",""304061""
""focus"",""39"",""304525""
""blur"",""39"",""305892""
""focus"",""39"",""315362""
""blur"",""40"",""319559""
""focus"",""40"",""320096""
","""event"",""trial"",""time""
""blur"",""1"",""4054""
""blur"",""11"",""173348""
""blur"",""11"",""174555""
""blur"",""12"",""180591""
""blur"",""33"",""261887""
""blur"",""33"",""266067""
""blur"",""35"",""275461""
""blur"",""37"",""293073""
""blur"",""39"",""304061""
""blur"",""39"",""305892""
""blur"",""40"",""319559""
","""event"",""trial"",""time""
""focus"",""1"",""18315""
""focus"",""11"",""174197""
""focus"",""11"",""176166""
""focus"",""12"",""183273""
""focus"",""33"",""264591""
""focus"",""34"",""267697""
""focus"",""35"",""279264""
""focus"",""37"",""294019""
""focus"",""39"",""304525""
""focus"",""39"",""315362""
""focus"",""40"",""320096""
","""event"",""trial"",""time""
""fullscreenenter"",""1"",""20196""
","""event"",""trial"",""time""
""fullscreenexit"",""2"",""22012""
","","","","","","1221.5","images/horse4.png","","","memory_trial","1","definitely_old","","","","","","",""
"html-keyboard-response","70","388607","0.0-15.0-0.14","2012","2","""event"",""trial"",""time""
""blur"",""1"",""4054""
""focus"",""1"",""18315""
""fullscreenenter"",""1"",""20196""
""fullscreenexit"",""2"",""22012""
""blur"",""11"",""173348""
""focus"",""11"",""174197""
""blur"",""11"",""174555""
""focus"",""11"",""176166""
""blur"",""12"",""180591""
""focus"",""12"",""183273""
""blur"",""33"",""261887""
""focus"",""33"",""264591""
""blur"",""33"",""266067""
""focus"",""34"",""267697""
""blur"",""35"",""275461""
""focus"",""35"",""279264""
""blur"",""37"",""293073""
""focus"",""37"",""294019""
""blur"",""39"",""304061""
""focus"",""39"",""304525""
""blur"",""39"",""305892""
""focus"",""39"",""315362""
""blur"",""40"",""319559""
""focus"",""40"",""320096""
","""event"",""trial"",""time""
""blur"",""1"",""4054""
""blur"",""11"",""173348""
""blur"",""11"",""174555""
""blur"",""12"",""180591""
""blur"",""33"",""261887""
""blur"",""33"",""266067""
""blur"",""35"",""275461""
""blur"",""37"",""293073""
""blur"",""39"",""304061""
""blur"",""39"",""305892""
""blur"",""40"",""319559""
","""event"",""trial"",""time""
""focus"",""1"",""18315""
""focus"",""11"",""174197""
""focus"",""11"",""176166""
""focus"",""12"",""183273""
""focus"",""33"",""264591""
""focus"",""34"",""267697""
""focus"",""35"",""279264""
""focus"",""37"",""294019""
""focus"",""39"",""304525""
""focus"",""39"",""315362""
""focus"",""40"",""320096""
","""event"",""trial"",""time""
""fullscreenenter"",""1"",""20196""
","""event"",""trial"",""time""
""fullscreenexit"",""2"",""22012""
","","","","","","null","<div style=""font-size:60px;"">+</div>","null","","fixation","","","","","","","","",""
"memory-trial","71","391335","0.0-15.0-1.14","2012","2","""event"",""trial"",""time""
""blur"",""1"",""4054""
""focus"",""1"",""18315""
""fullscreenenter"",""1"",""20196""
""fullscreenexit"",""2"",""22012""
""blur"",""11"",""173348""
""focus"",""11"",""174197""
""blur"",""11"",""174555""
""focus"",""11"",""176166""
""blur"",""12"",""180591""
""focus"",""12"",""183273""
""blur"",""33"",""261887""
""focus"",""33"",""264591""
""blur"",""33"",""266067""
""focus"",""34"",""267697""
""blur"",""35"",""275461""
""focus"",""35"",""279264""
""blur"",""37"",""293073""
""focus"",""37"",""294019""
""blur"",""39"",""304061""
""focus"",""39"",""304525""
""blur"",""39"",""305892""
""focus"",""39"",""315362""
""blur"",""40"",""319559""
""focus"",""40"",""320096""
","""event"",""trial"",""time""
""blur"",""1"",""4054""
""blur"",""11"",""173348""
""blur"",""11"",""174555""
""blur"",""12"",""180591""
""blur"",""33"",""261887""
""blur"",""33"",""266067""
""blur"",""35"",""275461""
""blur"",""37"",""293073""
""blur"",""39"",""304061""
""blur"",""39"",""305892""
""blur"",""40"",""319559""
","""event"",""trial"",""time""
""focus"",""1"",""18315""
""focus"",""11"",""174197""
""focus"",""11"",""176166""
""focus"",""12"",""183273""
""focus"",""33"",""264591""
""focus"",""34"",""267697""
""focus"",""35"",""279264""
""focus"",""37"",""294019""
""focus"",""39"",""304525""
""focus"",""39"",""315362""
""focus"",""40"",""320096""
","""event"",""trial"",""time""
""fullscreenenter"",""1"",""20196""
","""event"",""trial"",""time""
""fullscreenexit"",""2"",""22012""
","","","","","","1726.1000000238419","images/horse2.png","","","memory_trial","4","definitely_new","","","","","","",""
"html-keyboard-response","72","391837","0.0-15.0-0.15","2012","2","""event"",""trial"",""time""
""blur"",""1"",""4054""
""focus"",""1"",""18315""
""fullscreenenter"",""1"",""20196""
""fullscreenexit"",""2"",""22012""
""blur"",""11"",""173348""
""focus"",""11"",""174197""
""blur"",""11"",""174555""
""focus"",""11"",""176166""
""blur"",""12"",""180591""
""focus"",""12"",""183273""
""blur"",""33"",""261887""
""focus"",""33"",""264591""
""blur"",""33"",""266067""
""focus"",""34"",""267697""
""blur"",""35"",""275461""
""focus"",""35"",""279264""
""blur"",""37"",""293073""
""focus"",""37"",""294019""
""blur"",""39"",""304061""
""focus"",""39"",""304525""
""blur"",""39"",""305892""
""focus"",""39"",""315362""
""blur"",""40"",""319559""
""focus"",""40"",""320096""
","""event"",""trial"",""time""
""blur"",""1"",""4054""
""blur"",""11"",""173348""
""blur"",""11"",""174555""
""blur"",""12"",""180591""
""blur"",""33"",""261887""
""blur"",""33"",""266067""
""blur"",""35"",""275461""
""blur"",""37"",""293073""
""blur"",""39"",""304061""
""blur"",""39"",""305892""
""blur"",""40"",""319559""
","""event"",""trial"",""time""
""focus"",""1"",""18315""
""focus"",""11"",""174197""
""focus"",""11"",""176166""
""focus"",""12"",""183273""
""focus"",""33"",""264591""
""focus"",""34"",""267697""
""focus"",""35"",""279264""
""focus"",""37"",""294019""
""focus"",""39"",""304525""
""focus"",""39"",""315362""
""focus"",""40"",""320096""
","""event"",""trial"",""time""
""fullscreenenter"",""1"",""20196""
","""event"",""trial"",""time""
""fullscreenexit"",""2"",""22012""
","","","","","","null","<div style=""font-size:60px;"">+</div>","null","","fixation","","","","","","","","",""
"memory-trial","73","393875","0.0-15.0-1.15","2012","2","""event"",""trial"",""time""
""blur"",""1"",""4054""
""focus"",""1"",""18315""
""fullscreenenter"",""1"",""20196""
""fullscreenexit"",""2"",""22012""
""blur"",""11"",""173348""
""focus"",""11"",""174197""
""blur"",""11"",""174555""
""focus"",""11"",""176166""
""blur"",""12"",""180591""
""focus"",""12"",""183273""
""blur"",""33"",""261887""
""focus"",""33"",""264591""
""blur"",""33"",""266067""
""focus"",""34"",""267697""
""blur"",""35"",""275461""
""focus"",""35"",""279264""
""blur"",""37"",""293073""
""focus"",""37"",""294019""
""blur"",""39"",""304061""
""focus"",""39"",""304525""
""blur"",""39"",""305892""
""focus"",""39"",""315362""
""blur"",""40"",""319559""
""focus"",""40"",""320096""
","""event"",""trial"",""time""
""blur"",""1"",""4054""
""blur"",""11"",""173348""
""blur"",""11"",""174555""
""blur"",""12"",""180591""
""blur"",""33"",""261887""
""blur"",""33"",""266067""
""blur"",""35"",""275461""
""blur"",""37"",""293073""
""blur"",""39"",""304061""
""blur"",""39"",""305892""
""blur"",""40"",""319559""
","""event"",""trial"",""time""
""focus"",""1"",""18315""
""focus"",""11"",""174197""
""focus"",""11"",""176166""
""focus"",""12"",""183273""
""focus"",""33"",""264591""
""focus"",""34"",""267697""
""focus"",""35"",""279264""
""focus"",""37"",""294019""
""focus"",""39"",""304525""
""focus"",""39"",""315362""
""focus"",""40"",""320096""
","""event"",""trial"",""time""
""fullscreenenter"",""1"",""20196""
","""event"",""trial"",""time""
""fullscreenexit"",""2"",""22012""
","","","","","","1035.8999999761581","images/table3.png","","","memory_trial","4","definitely_new","","","","","","",""
"html-keyboard-response","74","394375","0.0-15.0-0.16","2012","2","""event"",""trial"",""time""
""blur"",""1"",""4054""
""focus"",""1"",""18315""
""fullscreenenter"",""1"",""20196""
""fullscreenexit"",""2"",""22012""
""blur"",""11"",""173348""
""focus"",""11"",""174197""
""blur"",""11"",""174555""
""focus"",""11"",""176166""
""blur"",""12"",""180591""
""focus"",""12"",""183273""
""blur"",""33"",""261887""
""focus"",""33"",""264591""
""blur"",""33"",""266067""
""focus"",""34"",""267697""
""blur"",""35"",""275461""
""focus"",""35"",""279264""
""blur"",""37"",""293073""
""focus"",""37"",""294019""
""blur"",""39"",""304061""
""focus"",""39"",""304525""
""blur"",""39"",""305892""
""focus"",""39"",""315362""
""blur"",""40"",""319559""
""focus"",""40"",""320096""
","""event"",""trial"",""time""
""blur"",""1"",""4054""
""blur"",""11"",""173348""
""blur"",""11"",""174555""
""blur"",""12"",""180591""
""blur"",""33"",""261887""
""blur"",""33"",""266067""
""blur"",""35"",""275461""
""blur"",""37"",""293073""
""blur"",""39"",""304061""
""blur"",""39"",""305892""
""blur"",""40"",""319559""
","""event"",""trial"",""time""
""focus"",""1"",""18315""
""focus"",""11"",""174197""
""focus"",""11"",""176166""
""focus"",""12"",""183273""
""focus"",""33"",""264591""
""focus"",""34"",""267697""
""focus"",""35"",""279264""
""focus"",""37"",""294019""
""focus"",""39"",""304525""
""focus"",""39"",""315362""
""focus"",""40"",""320096""
