"trial_type","trial_index","time_elapsed","internal_node_id","subject_id","task_version","interactions","blur_events","focus_events","fullscreenenter_events","fullscreenexit_events","success","timeout","failed_images","failed_audio","failed_video","rt","stimulus","response","button_pressed","task_part","key_press","answer","correct","left_choice","middle_choice","right_choice","choice_positions","option_selected","block"
"pavlovia","0","2","0.0-0.0","1702","2","""event"",""trial"",""time""
""fullscreenenter"",""1"",""2176""
","
","
","""event"",""trial"",""time""
""fullscreenenter"",""1"",""2176""
","
","","","","","","","","","","","","","","","","","","",""
"fullscreen","1","3134","0.0-1.0","1702","2","""event"",""trial"",""time""
""fullscreenenter"",""1"",""2176""
","
","
","""event"",""trial"",""time""
""fullscreenenter"",""1"",""2176""
","
","true","","","","","","","","","","","","","","","","","",""
"preload","2","3925","0.0-2.0","1702","2","""event"",""trial"",""time""
""fullscreenenter"",""1"",""2176""
","
","
","""event"",""trial"",""time""
""fullscreenenter"",""1"",""2176""
","
","true","false","[]","[]","[]","","","","","","","","","","","","","",""
"audio-keyboard-response","3","8031","0.0-3.0","1702","2","""event"",""trial"",""time""
""fullscreenenter"",""1"",""2176""
","
","
","""event"",""trial"",""time""
""fullscreenenter"",""1"",""2176""
","
","","","","","","4098.321995464853","audio/beep_loop.wav"," ","","","","","","","","","","",""
"audio-button-response","4","9899","0.0-4.0","1702","2","""event"",""trial"",""time""
""fullscreenenter"",""1"",""2176""
","
","
","""event"",""trial"",""time""
""fullscreenenter"",""1"",""2176""
","
","","","","","","1863","audio/turtle.wav","3","","","","","","","","","","",""
"audio-button-response","5","12049","0.0-5.0","1702","2","""event"",""trial"",""time""
""fullscreenenter"",""1"",""2176""
","
","
","""event"",""trial"",""time""
""fullscreenenter"",""1"",""2176""
","
","","","","","","1149","audio/shark.wav","2","","","","","","","","","","",""
"preload","6","17381","0.0-6.0","1702","2","""event"",""trial"",""time""
""fullscreenenter"",""1"",""2176""
","
","
","""event"",""trial"",""time""
""fullscreenenter"",""1"",""2176""
","
","true","false","[]","[]","[]","","","","","","","","","","","","","",""
"learning-instructions","7","25033","0.0-7.0-0.0","1702","2","""event"",""trial"",""time""
""fullscreenenter"",""1"",""2176""
","
","
","""event"",""trial"",""time""
""fullscreenenter"",""1"",""2176""
","
","","","","","","2847.599999964237","<p> Welcome back! </p><p> Last week, you had to make choices about lots of different items.  </p>","","0","instructions","","","","","","","","",""
"learning-instructions","8","30733","0.0-7.0-0.1","1702","2","""event"",""trial"",""time""
""fullscreenenter"",""1"",""2176""
","
","
","""event"",""trial"",""time""
""fullscreenenter"",""1"",""2176""
","
","","","","","","1395.800000011921","<p> Today, we are going to ask you to try to remember all the items. </p>","","0","instructions","","","","","","","","",""
"learning-instructions","9","42983","0.0-7.0-0.2","1702","2","""event"",""trial"",""time""
""fullscreenenter"",""1"",""2176""
","
","
","""event"",""trial"",""time""
""fullscreenenter"",""1"",""2176""
","
","","","","","","2117.100000023842","<p> On every trial, you will see an image. </p><p> The image may be an OLD image you saw during the games last week or it may be a NEW image that was not presented. </p>","","0","instructions","","","","","","","","",""
"learning-instructions","10","53300","0.0-7.0-0.3","1702","2","""event"",""trial"",""time""
""fullscreenenter"",""1"",""2176""
","
","
","""event"",""trial"",""time""
""fullscreenenter"",""1"",""2176""
","
","","","","","","1816.699999988079","<p> You need to select whether the image is:  </p><p>  'Definitely old', 'Maybe old', 'Maybe new', or 'Definitely new.'  </p><div class=""mem-choice-instructions-grid""><div class=""choice-option"" id=""choice-option-1"" ><img src=""images/definitely_old_1.png"" id=""choice-option-img-1"" class=""choice-option-img"" stage=""1""></div><div class=""choice-option"" id=""choice-option-2"" ><img src=""images/maybe_old_1.png"" id=""choice-option-img-2"" class=""choice-option-img"" stage=""1""></div><div class=""choice-option"" id=""choice-option-3"" ><img src=""images/maybe_new_1.png"" id=""choice-option-img-3"" class=""choice-option-img"" stage=""1""></div><div class=""choice-option"" id=""choice-option-4"" > <img src=""images/definitely_new_1.png"" id=""choice-option-img-4"" class=""choice-option-img"" stage=""1""></div></div>","","0","instructions","","","","","","","","",""
"learning-instructions","11","65017","0.0-7.0-0.4","1702","2","""event"",""trial"",""time""
""fullscreenenter"",""1"",""2176""
","
","
","""event"",""trial"",""time""
""fullscreenenter"",""1"",""2176""
","
","","","","","","5024","<p> You should use the 1, 2, 3, and 4 keys to make your responses.  </p><div class=""mem-choice-instructions-grid""><div class=""choice-option"" id=""choice-option-1"" ><img src=""images/definitely_old.png"" id=""choice-option-img-1"" class=""choice-option-img"" stage=""1""></div><div class=""choice-option"" id=""choice-option-2"" ><img src=""images/maybe_old.png"" id=""choice-option-img-2"" class=""choice-option-img"" stage=""1""></div><div class=""choice-option"" id=""choice-option-3"" ><img src=""images/maybe_new.png"" id=""choice-option-img-3"" class=""choice-option-img"" stage=""1""></div><div class=""choice-option"" id=""choice-option-4"" > <img src=""images/definitely_new.png"" id=""choice-option-img-4"" class=""choice-option-img"" stage=""1""></div></div>","","0","instructions","","","","","","","","",""
"learning-instructions","12","72266","0.0-7.0-0.5","1702","2","""event"",""trial"",""time""
""fullscreenenter"",""1"",""2176""
","
","
","""event"",""trial"",""time""
""fullscreenenter"",""1"",""2176""
","
","","","","","","490","<p> You will have 10 seconds to make each response.  </p><p>  Make sure to respond before time runs out! </p>","","0","instructions","","","","","","","","",""
"learning-instructions","13","80899","0.0-7.0-0.6","1702","2","""event"",""trial"",""time""
""fullscreenenter"",""1"",""2176""
","
","
","""event"",""trial"",""time""
""fullscreenenter"",""1"",""2176""
","
","","","","","","1054.0999999642372","<p> Today, you will see each image ONCE only.  </p><p>  That means none of the images will repeat. </p>","","0","instructions","","","","","","","","",""
"learning-instructions","14","95384","0.0-7.0-0.7","1702","2","""event"",""trial"",""time""
""fullscreenenter"",""1"",""2176""
","
","
","""event"",""trial"",""time""
""fullscreenenter"",""1"",""2176""
","
","","","","","","1821.5999999642372","<p> Before you play the real game, it is time to practice. </p><p>  Just like in the real game, some of the images in the practice will be ones you have seen before. </p><p>  Others will be entirely new. </p>","","0","instructions","","","","","","","","",""
"html-button-response","15","97035","0.0-8.0","1702","2","""event"",""trial"",""time""
""fullscreenenter"",""1"",""2176""
","
","
","""event"",""trial"",""time""
""fullscreenenter"",""1"",""2176""
","
","","","","","","1543.800000011921","<p> Ready to practice? </p><p> Remember, use the 1, 2, 3, and 4 keys to make your responses. </p>","0","","instructions","","","","","","","","",""
"html-keyboard-response","16","97642","0.0-9.0-0.0","1702","2","""event"",""trial"",""time""
""fullscreenenter"",""1"",""2176""
","
","
","""event"",""trial"",""time""
""fullscreenenter"",""1"",""2176""
","
","","","","","","null","<div style=""font-size:60px;"">+</div>","null","","fixation","","","","","","","","",""
"memory-trial","17","100905","0.0-9.0-1.0","1702","2","""event"",""trial"",""time""
""fullscreenenter"",""1"",""2176""
","
","
","""event"",""trial"",""time""
""fullscreenenter"",""1"",""2176""
","
","","","","","","2253.899999976158","images/ball1.png","","","practice","2","maybe_old","","","","","","",""
"html-keyboard-response","18","101411","0.0-9.0-0.1","1702","2","""event"",""trial"",""time""
""fullscreenenter"",""1"",""2176""
","
","
","""event"",""trial"",""time""
""fullscreenenter"",""1"",""2176""
","
","","","","","","null","<div style=""font-size:60px;"">+</div>","null","","fixation","","","","","","","","",""
"memory-trial","19","103654","0.0-9.0-1.1","1702","2","""event"",""trial"",""time""
""fullscreenenter"",""1"",""2176""
","
","
","""event"",""trial"",""time""
""fullscreenenter"",""1"",""2176""
","
","","","","","","1238.5","images/racket2.png","","","practice","2","maybe_old","","","","","","",""
"html-keyboard-response","20","104159","0.0-9.0-0.2","1702","2","""event"",""trial"",""time""
""fullscreenenter"",""1"",""2176""
","
","
","""event"",""trial"",""time""
""fullscreenenter"",""1"",""2176""
","
","","","","","","null","<div style=""font-size:60px;"">+</div>","null","","fixation","","","","","","","","",""
"memory-trial","21","106266","0.0-9.0-1.2","1702","2","""event"",""trial"",""time""
""fullscreenenter"",""1"",""2176""
","
","
","""event"",""trial"",""time""
""fullscreenenter"",""1"",""2176""
","
","","","","","","1098.800000011921","images/ball4.png","","","practice","2","maybe_old","","","","","","",""
"html-keyboard-response","22","106768","0.0-9.0-0.3","1702","2","""event"",""trial"",""time""
""fullscreenenter"",""1"",""2176""
","
","
","""event"",""trial"",""time""
""fullscreenenter"",""1"",""2176""
","
","","","","","","null","<div style=""font-size:60px;"">+</div>","null","","fixation","","","","","","","","",""
"memory-trial","23","109576","0.0-9.0-1.3","1702","2","""event"",""trial"",""time""
""fullscreenenter"",""1"",""2176""
","
","
","""event"",""trial"",""time""
""fullscreenenter"",""1"",""2176""
","
","","","","","","1800.0999999642372","images/ball3.png","","","practice","2","maybe_old","","","","","","",""
"html-keyboard-response","24","110079","0.0-9.0-0.4","1702","2","""event"",""trial"",""time""
""fullscreenenter"",""1"",""2176""
","
","
","""event"",""trial"",""time""
""fullscreenenter"",""1"",""2176""
","
","","","","","","null","<div style=""font-size:60px;"">+</div>","null","","fixation","","","","","","","","",""
"memory-trial","25","113231","0.0-9.0-1.4","1702","2","""event"",""trial"",""time""
""fullscreenenter"",""1"",""2176""
","
","
","""event"",""trial"",""time""
""fullscreenenter"",""1"",""2176""
","
","","","","","","2145.599999964237","images/racket3.png","","","practice","1","definitely_old","","","","","","",""
"html-keyboard-response","26","113734","0.0-9.0-0.5","1702","2","""event"",""trial"",""time""
""fullscreenenter"",""1"",""2176""
","
","
","""event"",""trial"",""time""
""fullscreenenter"",""1"",""2176""
","
","","","","","","null","<div style=""font-size:60px;"">+</div>","null","","fixation","","","","","","","","",""
"memory-trial","27","115740","0.0-9.0-1.5","1702","2","""event"",""trial"",""time""
""fullscreenenter"",""1"",""2176""
","
","
","""event"",""trial"",""time""
""fullscreenenter"",""1"",""2176""
","
","","","","","","1002.7999999523163","images/racket1.png","","","practice","1","definitely_old","","","","","","",""
"html-keyboard-response","28","116241","0.0-9.0-0.6","1702","2","""event"",""trial"",""time""
""fullscreenenter"",""1"",""2176""
","
","
","""event"",""trial"",""time""
""fullscreenenter"",""1"",""2176""
","
","","","","","","null","<div style=""font-size:60px;"">+</div>","null","","fixation","","","","","","","","",""
"memory-trial","29","118967","0.0-9.0-1.6","1702","2","""event"",""trial"",""time""
""fullscreenenter"",""1"",""2176""
","
","
","""event"",""trial"",""time""
""fullscreenenter"",""1"",""2176""
","
","","","","","","1720.2999999523163","images/racket4.png","","","practice","3","maybe_new","","","","","","",""
"html-keyboard-response","30","119471","0.0-9.0-0.7","1702","2","""event"",""trial"",""time""
""fullscreenenter"",""1"",""2176""
","
","
","""event"",""trial"",""time""
""fullscreenenter"",""1"",""2176""
","
","","","","","","null","<div style=""font-size:60px;"">+</div>","null","","fixation","","","","","","","","",""
"memory-trial","31","121646","0.0-9.0-1.7","1702","2","""event"",""trial"",""time""
""fullscreenenter"",""1"",""2176""
","
","
","""event"",""trial"",""time""
""fullscreenenter"",""1"",""2176""
","
","","","","","","1167.0999999642372","images/ball2.png","","","practice","2","maybe_old","","","","","","",""
"learning-instructions","32","130818","0.0-10.0-0.0","1702","2","""event"",""trial"",""time""
""fullscreenenter"",""1"",""2176""
","
","
","""event"",""trial"",""time""
""fullscreenenter"",""1"",""2176""
","
","","","","","","1218.5999999642372","<p> Great! You have completed the practice. </p><p> Before you start, we're going to ask you a few questions about how the game works.  </p>","","0","instructions","","","","","","","","",""
"preload","33","133579","0.0-11.0","1702","2","""event"",""trial"",""time""
""fullscreenenter"",""1"",""2176""
","
","
","""event"",""trial"",""time""
""fullscreenenter"",""1"",""2176""
","
","true","false","[]","[]","[]","","","","","","","","","","","","","",""
"comp-q","34","140402","0.0-12.0-0.0","1702","2","""event"",""trial"",""time""
""fullscreenenter"",""1"",""2176""
","
","
","""event"",""trial"",""time""
""fullscreenenter"",""1"",""2176""
","
","","","","","","992.8000000119209","<p> <b> True or False? </b> </p><p> In this game, you will only see each image once. </p>","","0","comp_question","","","true","","","","","",""
"comp-q","35","147909","0.0-12.0-1.0","1702","2","""event"",""trial"",""time""
""fullscreenenter"",""1"",""2176""
","
","
","""event"",""trial"",""time""
""fullscreenenter"",""1"",""2176""
","
","","","","","","1176.699999988079","<p> <b> That's right! </b> You will see many different images <i> one time each </i> in this game. </p>","","0","comp_answer","","","","","","","","",""
"comp-q","36","154283","0.0-12.0-0.1","1702","2","""event"",""trial"",""time""
""fullscreenenter"",""1"",""2176""
","
","
","""event"",""trial"",""time""
""fullscreenenter"",""1"",""2176""
","
","","","","","","582.7000000476837","<p> <b> True or False? </b> </p><p> You should use the mouse and click to make your response. </p>","","1","comp_question","","","true","","","","","",""
"comp-q","37","163207","0.0-12.0-1.1","1702","2","""event"",""trial"",""time""
""fullscreenenter"",""1"",""2176""
","
","
","""event"",""trial"",""time""
""fullscreenenter"",""1"",""2176""
","
","","","","","","1586.5","<p><b> That's right! </b> You should use the '1', '2', '3', and '4' keys to make your response. </p>","","0","comp_answer","","","","","","","","",""
"comp-q","38","169938","0.0-12.0-0.2","1702","2","""event"",""trial"",""time""
""fullscreenenter"",""1"",""2176""
","
","
","""event"",""trial"",""time""
""fullscreenenter"",""1"",""2176""
","
","","","","","","735.6999999880791","<p> <b> True or False? </b> </p><p> You will have as much time as you want to make each choice. </p>","","1","comp_question","","","true","","","","","",""
"comp-q","39","177568","0.0-12.0-1.2","1702","2","""event"",""trial"",""time""
""fullscreenenter"",""1"",""2176""
","
","
","""event"",""trial"",""time""
""fullscreenenter"",""1"",""2176""
","
","","","","","","2240.7999999523163","<p> <b> That's right! </b> You will only have 10 seconds to make each choice. </p>","","0","comp_answer","","","","","","","","",""
"learning-instructions","40","187483","0.0-13.0","1702","2","""event"",""trial"",""time""
""fullscreenenter"",""1"",""2176""
","
","
","""event"",""trial"",""time""
""fullscreenenter"",""1"",""2176""
","
","","","","","","1245.6000000238419","<p> Great! You are now ready to begin the game. </p><p> Remember, use the 1, 2, 3, and 4 keys to make your responses. </p>","","0","instructions","","","","","","","","",""
"preload","41","200405","0.0-14.0","1702","2","""event"",""trial"",""time""
""fullscreenenter"",""1"",""2176""
","
","
","""event"",""trial"",""time""
""fullscreenenter"",""1"",""2176""
","
","true","false","[]","[]","[]","","","","","","","","","","","","","",""
"html-keyboard-response","42","200907","0.0-15.0-0.0","1702","2","""event"",""trial"",""time""
""fullscreenenter"",""1"",""2176""
","
","
","""event"",""trial"",""time""
""fullscreenenter"",""1"",""2176""
","
","","","","","","null","<div style=""font-size:60px;"">+</div>","null","","fixation","","","","","","","","",""
"memory-trial","43","203778","0.0-15.0-1.0","1702","2","""event"",""trial"",""time""
""fullscreenenter"",""1"",""2176""
","
","
","""event"",""trial"",""time""
""fullscreenenter"",""1"",""2176""
","
","","","","","","1867.1000000238419","images/straw4.png","","","memory_trial","1","definitely_old","","","","","","",""
"html-keyboard-response","44","204280","0.0-15.0-0.1","1702","2","""event"",""trial"",""time""
""fullscreenenter"",""1"",""2176""
","
","
","""event"",""trial"",""time""
""fullscreenenter"",""1"",""2176""
","
","","","","","","null","<div style=""font-size:60px;"">+</div>","null","","fixation","","","","","","","","",""
"memory-trial","45","206714","0.0-15.0-1.1","1702","2","""event"",""trial"",""time""
""fullscreenenter"",""1"",""2176""
","
","
","""event"",""trial"",""time""
""fullscreenenter"",""1"",""2176""
","
","","","","","","1428.699999988079","images/goat4.png","","","memory_trial","2","maybe_old","","","","","","",""
"html-keyboard-response","46","207221","0.0-15.0-0.2","1702","2","""event"",""trial"",""time""
""fullscreenenter"",""1"",""2176""
","
","
","""event"",""trial"",""time""
""fullscreenenter"",""1"",""2176""
","
","","","","","","null","<div style=""font-size:60px;"">+</div>","null","","fixation","","","","","","","","",""
"memory-trial","47","209193","0.0-15.0-1.2","1702","2","""event"",""trial"",""time""
""fullscreenenter"",""1"",""2176""
","
","
","""event"",""trial"",""time""
""fullscreenenter"",""1"",""2176""
","
","","","","","","968.3000000119209","images/apple1.png","","","memory_trial","1","definitely_old","","","","","","",""
"html-keyboard-response","48","209695","0.0-15.0-0.3","1702","2","""event"",""trial"",""time""
""fullscreenenter"",""1"",""2176""
","
","
","""event"",""trial"",""time""
""fullscreenenter"",""1"",""2176""
","
","","","","","","null","<div style=""font-size:60px;"">+</div>","null","","fixation","","","","","","","","",""
"memory-trial","49","212779","0.0-15.0-1.3","1702","2","""event"",""trial"",""time""
""fullscreenenter"",""1"",""2176""
","
","
","""event"",""trial"",""time""
""fullscreenenter"",""1"",""2176""
","
","","","","","","2077.699999988079","images/train5.png","","","memory_trial","3","maybe_new","","","","","","",""
"html-keyboard-response","50","213286","0.0-15.0-0.4","1702","2","""event"",""trial"",""time""
""fullscreenenter"",""1"",""2176""
","
","
","""event"",""trial"",""time""
""fullscreenenter"",""1"",""2176""
","
","","","","","","null","<div style=""font-size:60px;"">+</div>","null","","fixation","","","","","","","","",""
"memory-trial","51","216213","0.0-15.0-1.4","1702","2","""event"",""trial"",""time""
""fullscreenenter"",""1"",""2176""
","
","
","""event"",""trial"",""time""
""fullscreenenter"",""1"",""2176""
","
","","","","","","1919.2999999523163","images/cactus2.png","","","memory_trial","1","definitely_old","","","","","","",""
"html-keyboard-response","52","216720","0.0-15.0-0.5","1702","2","""event"",""trial"",""time""
""fullscreenenter"",""1"",""2176""
","
","
","""event"",""trial"",""time""
""fullscreenenter"",""1"",""2176""
","
","","","","","","null","<div style=""font-size:60px;"">+</div>","null","","fixation","","","","","","","","",""
"memory-trial","53","219862","0.0-15.0-1.5","1702","2","""event"",""trial"",""time""
""fullscreenenter"",""1"",""2176""
","
","
","""event"",""trial"",""time""
""fullscreenenter"",""1"",""2176""
","
","","","","","","2135.699999988079","images/tree4.png","","","memory_trial","3","maybe_new","","","","","","",""
"html-keyboard-response","54","220367","0.0-15.0-0.6","1702","2","""event"",""trial"",""time""
""fullscreenenter"",""1"",""2176""
","
","
","""event"",""trial"",""time""
""fullscreenenter"",""1"",""2176""
","
","","","","","","null","<div style=""font-size:60px;"">+</div>","null","","fixation","","","","","","","","",""
"memory-trial","55","223050","0.0-15.0-1.6","1702","2","""event"",""trial"",""time""
""fullscreenenter"",""1"",""2176""
","
","
","""event"",""trial"",""time""
""fullscreenenter"",""1"",""2176""
","
","","","","","","1678.1000000238419","images/truck4.png","","","memory_trial","1","definitely_old","","","","","","",""
"html-keyboard-response","56","223555","0.0-15.0-0.7","1702","2","""event"",""trial"",""time""
""fullscreenenter"",""1"",""2176""
","
","
","""event"",""trial"",""time""
""fullscreenenter"",""1"",""2176""
","
","","","","","","null","<div style=""font-size:60px;"">+</div>","null","","fixation","","","","","","","","",""
"memory-trial","57","225644","0.0-15.0-1.7","1702","2","""event"",""trial"",""time""
""fullscreenenter"",""1"",""2176""
","
","
","""event"",""trial"",""time""
""fullscreenenter"",""1"",""2176""
","
","","","","","","1084.800000011921","images/sheep2.png","","","memory_trial","1","definitely_old","","","","","","",""
"html-keyboard-response","58","226149","0.0-15.0-0.8","1702","2","""event"",""trial"",""time""
""fullscreenenter"",""1"",""2176""
","
","
","""event"",""trial"",""time""
""fullscreenenter"",""1"",""2176""
","
","","","","","","null","<div style=""font-size:60px;"">+</div>","null","","fixation","","","","","","","","",""
"memory-trial","59","229475","0.0-15.0-1.8","1702","2","""event"",""trial"",""time""
""fullscreenenter"",""1"",""2176""
","
","
","""event"",""trial"",""time""
""fullscreenenter"",""1"",""2176""
","
","","","","","","2321.2999999523163","images/cow3.png","","","memory_trial","4","definitely_new","","","","","","",""
"html-keyboard-response","60","229979","0.0-15.0-0.9","1702","2","""event"",""trial"",""time""
""fullscreenenter"",""1"",""2176""
","
","
","""event"",""trial"",""time""
""fullscreenenter"",""1"",""2176""
","
","","","","","","null","<div style=""font-size:60px;"">+</div>","null","","fixation","","","","","","","","",""
"memory-trial","61","232832","0.0-15.0-1.9","1702","2","""event"",""trial"",""time""
""fullscreenenter"",""1"",""2176""
","
","
","""event"",""trial"",""time""
""fullscreenenter"",""1"",""2176""
","
","","","","","","1846.1000000238419","images/sheep1.png","","","memory_trial","2","maybe_old","","","","","","",""
"html-keyboard-response","62","233336","0.0-15.0-0.10","1702","2","""event"",""trial"",""time""
""fullscreenenter"",""1"",""2176""
","
","
","""event"",""trial"",""time""
""fullscreenenter"",""1"",""2176""
","
","","","","","","null","<div style=""font-size:60px;"">+</div>","null","","fixation","","","","","","","","",""
"memory-trial","63","236057","0.0-15.0-1.10","1702","2","""event"",""trial"",""time""
""fullscreenenter"",""1"",""2176""
","
","
","""event"",""trial"",""time""
""fullscreenenter"",""1"",""2176""
","
","","","","","","1712.800000011921","images/train3.png","","","memory_trial","1","definitely_old","","","","","","",""
"html-keyboard-response","64","236563","0.0-15.0-0.11","1702","2","""event"",""trial"",""time""
""fullscreenenter"",""1"",""2176""
","
","
","""event"",""trial"",""time""
""fullscreenenter"",""1"",""2176""
","
","","","","","","null","<div style=""font-size:60px;"">+</div>","null","","fixation","","","","","","","","",""
"memory-trial","65","239379","0.0-15.0-1.11","1702","2","""event"",""trial"",""time""
""fullscreenenter"",""1"",""2176""
","
","
","""event"",""trial"",""time""
""fullscreenenter"",""1"",""2176""
","
","","","","","","1809.8999999761581","images/sofa4.png","","","memory_trial","2","maybe_old","","","","","","",""
"html-keyboard-response","66","239882","0.0-15.0-0.12","1702","2","""event"",""trial"",""time""
""fullscreenenter"",""1"",""2176""
","
","
","""event"",""trial"",""time""
""fullscreenenter"",""1"",""2176""
","
","","","","","","null","<div style=""font-size:60px;"">+</div>","null","","fixation","","","","","","","","",""
"memory-trial","67","242263","0.0-15.0-1.12","1702","2","""event"",""trial"",""time""
""fullscreenenter"",""1"",""2176""
","
","
","""event"",""trial"",""time""
""fullscreenenter"",""1"",""2176""
","
","","","","","","1377.2999999523163","images/orange1.png","","","memory_trial","3","maybe_new","","","","","","",""
"html-keyboard-response","68","242769","0.0-15.0-0.13","1702","2","""event"",""trial"",""time""
""fullscreenenter"",""1"",""2176""
","
","
","""event"",""trial"",""time""
""fullscreenenter"",""1"",""2176""
","
","","","","","","null","<div style=""font-size:60px;"">+</div>","null","","fixation","","","","","","","","",""
"memory-trial","69","245530","0.0-15.0-1.13","1702","2","""event"",""trial"",""time""
""fullscreenenter"",""1"",""2176""
","
","
","""event"",""trial"",""time""
""fullscreenenter"",""1"",""2176""
","
","","","","","","1755.300000011921","images/sheep5.png","","","memory_trial","3","maybe_new","","","","","","",""
"html-keyboard-response","70","246035","0.0-15.0-0.14","1702","2","""event"",""trial"",""time""
""fullscreenenter"",""1"",""2176""
","
","
","""event"",""trial"",""time""
""fullscreenenter"",""1"",""2176""
","
","","","","","","null","<div style=""font-size:60px;"">+</div>","null","","fixation","","","","","","","","",""
"memory-trial","71","248881","0.0-15.0-1.14","1702","2","""event"",""trial"",""time""
""fullscreenenter"",""1"",""2176""
","
","
","""event"",""trial"",""time""
""fullscreenenter"",""1"",""2176""
","
","","","","","","1830.6000000238419","images/sheep4.png","","","memory_trial","2","maybe_old","","","","","","",""
"html-keyboard-response","72","249384","0.0-15.0-0.15","1702","2","""event"",""trial"",""time""
""fullscreenenter"",""1"",""2176""
","
","
","""event"",""trial"",""time""
""fullscreenenter"",""1"",""2176""
","
","","","","","","null","<div style=""font-size:60px;"">+</div>","null","","fixation","","","","","","","","",""
"memory-trial","73","251731","0.0-15.0-1.15","1702","2","""event"",""trial"",""time""
""fullscreenenter"",""1"",""2176""
","
","
","""event"",""trial"",""time""
""fullscreenenter"",""1"",""2176""
","
","","","","","","1340.8999999761581","images/cow5.png","","","memory_trial","4","definitely_new","","","","","","",""
"html-keyboard-response","74","252235","0.0-15.0-0.16","1702","2","""event"",""trial"",""time""
""fullscreenenter"",""1"",""2176""
","
","
","""event"",""trial"",""time""
""fullscreenenter"",""1"",""2176""
","
","","","","","","null","<div style=""font-size:60px;"">+</div>","null","","fixation","","","","","","","","",""
"memory-trial","75","254471","0.0-15.0-1.16","1702","2","""event"",""trial"",""time""
""fullscreenenter"",""1"",""2176""
","
","
","""event"",""trial"",""time""
""fullscreenenter"",""1"",""2176""
","
","","","","","","1231.199999988079","images/apple3.png","","","memory_trial","4","definitely_new","","","","","","",""
"html-keyboard-response","76","254974","0.0-15.0-0.17","1702","2","""event"",""trial"",""time""
""fullscreenenter"",""1"",""2176""
","
","
","""event"",""trial"",""time""
""fullscreenenter"",""1"",""2176""
","
","","","","","","null","<div style=""font-size:60px;"">+</div>","null","","fixation","","","","","","","","",""
"memory-trial","77","257936","0.0-15.0-1.17","1702","2","""event"",""trial"",""time""
""fullscreenenter"",""1"",""2176""
","
","
","""event"",""trial"",""time""
""fullscreenenter"",""1"",""2176""
","
","","","","","","1953.8999999761581","images/banana1.png","","","memory_trial","2","maybe_old","","","","","","",""
"html-keyboard-response","78","258440","0.0-15.0-0.18","1702","2","""event"",""trial"",""time""
""fullscreenenter"",""1"",""2176""
","
","
","""event"",""trial"",""time""
""fullscreenenter"",""1"",""2176""
","
","","","","","","null","<div style=""font-size:60px;"">+</div>","null","","fixation","","","","","","","","",""
"memory-trial","79","261664","0.0-15.0-1.18","1702","2","""event"",""trial"",""time""
""fullscreenenter"",""1"",""2176""
","
","
","""event"",""trial"",""time""
""fullscreenenter"",""1"",""2176""
","
","","","","","","2219.199999988079","images/cactus4.png","","","memory_trial","3","maybe_new","","","","","","",""
"html-keyboard-response","80","262170","0.0-15.0-0.19","1702","2","""event"",""trial"",""time""
""fullscreenenter"",""1"",""2176""
","
","
","""event"",""trial"",""time""
""fullscreenenter"",""1"",""2176""
","
","","","","","","null","<div style=""font-size:60px;"">+</div>","null","","fixation","","","","","","","","",""
"memory-trial","81","264489","0.0-15.0-1.19","1702","2","""event"",""trial"",""time""
""fullscreenenter"",""1"",""2176""
","
","
","""event"",""trial"",""time""
""fullscreenenter"",""1"",""2176""
","
","","","","","","1310.6000000238419","images/cow4.png","","","memory_trial","4","definitely_new","","","","","","",""
"html-keyboard-response","82","264995","0.0-15.0-0.20","1702","2","""event"",""trial"",""time""
""fullscreenenter"",""1"",""2176""
","
","
","""event"",""trial"",""time""
""fullscreenenter"",""1"",""2176""
","
","","","","","","null","<div style=""font-size:60px;"">+</div>","null","","fixation","","","","","","","","",""
"memory-trial","83","268808","0.0-15.0-1.20","1702","2","""event"",""trial"",""time""
""fullscreenenter"",""1"",""2176""
","
","
","""event"",""trial"",""time""
""fullscreenenter"",""1"",""2176""
","
","","","","","","2807.899999976158","images/feline4.png","","","memory_trial","3","maybe_new","","","","","","",""
"html-keyboard-response","84","269313","0.0-15.0-0.21","1702","2","""event"",""trial"",""time""
""fullscreenenter"",""1"",""2176""
","
","
","""event"",""trial"",""time""
""fullscreenenter"",""1"",""2176""
","
","","","","","","null","<div style=""font-size:60px;"">+</div>","null","","fixation","","","","","","","","",""
"memory-trial","85","271484","0.0-15.0-1.21","1702","2","""event"",""trial"",""time""
""fullscreenenter"",""1"",""2176""
","
","
","""event"",""trial"",""time""
""fullscreenenter"",""1"",""2176""
","
","","","","","","1162.8999999761581","images/orange2.png","","","memory_trial","4","definitely_new","","","","","","",""
"html-keyboard-response","86","271989","0.0-15.0-0.22","1702","2","""event"",""trial"",""time""
""fullscreenenter"",""1"",""2176""
","
","
","""event"",""trial"",""time""
""fullscreenenter"",""1"",""2176""
","
","","","","","","null","<div style=""font-size:60px;"">+</div>","null","","fixation","","","","","","","","",""
"memory-trial","87","274404","0.0-15.0-1.22","1702","2","""event"",""trial"",""time""
""fullscreenenter"",""1"",""2176""
","
","
","""event"",""trial"",""time""
""fullscreenenter"",""1"",""2176""
","
","","","","","","1408.699999988079","images/bed3.png","","","memory_trial","1","definitely_old","","","","","","",""
"html-keyboard-response","88","274909","0.0-15.0-0.23","1702","2","""event"",""trial"",""time""
""fullscreenenter"",""1"",""2176""
","
","
","""event"",""trial"",""time""
""fullscreenenter"",""1"",""2176""
","
","","","","","","null","<div style=""font-size:60px;"">+</div>","null","","fixation","","","","","","","","",""
"memory-trial","89","277319","0.0-15.0-1.23","1702","2","""event"",""trial"",""time""
""fullscreenenter"",""1"",""2176""
","
","
","""event"",""trial"",""time""
""fullscreenenter"",""1"",""2176""
","
","","","","","","1402.1000000238419","images/apple5.png","","","memory_trial","3","maybe_new","","","","","","",""
"html-keyboard-response","90","277823","0.0-15.0-0.24","1702","2","""event"",""trial"",""time""
""fullscreenenter"",""1"",""2176""
","
","
","""event"",""trial"",""time""
""fullscreenenter"",""1"",""2176""
","
","","","","","","null","<div style=""font-size:60px;"">+</div>","null","","fixation","","","","","","","","",""
"memory-trial","91","280592","0.0-15.0-1.24","1702","2","""event"",""trial"",""time""
""fullscreenenter"",""1"",""2176""
","
","
","""event"",""trial"",""time""
""fullscreenenter"",""1"",""2176""
","
","","","","","","1763.3999999761581","images/flower1.png","","","memory_trial","1","definitely_old","","","","","","",""
"html-keyboard-response","92","281097","0.0-15.0-0.25","1702","2","""event"",""trial"",""time""
""fullscreenenter"",""1"",""2176""
","
","
","""event"",""trial"",""time""
""fullscreenenter"",""1"",""2176""
","
","","","","","","null","<div style=""font-size:60px;"">+</div>","null","","fixation","","","","","","","","",""
"memory-trial","93","283639","0.0-15.0-1.25","1702","2","""event"",""trial"",""time""
""fullscreenenter"",""1"",""2176""
","
","
","""event"",""trial"",""time""
""fullscreenenter"",""1"",""2176""
","
","","","","","","1535.6000000238419","images/straw5.png","","","memory_trial","3","maybe_new","","","","","","",""
"html-keyboard-response","94","284144","0.0-15.0-0.26","1702","2","""event"",""trial"",""time""
""fullscreenenter"",""1"",""2176""
","
","
","""event"",""trial"",""time""
""fullscreenenter"",""1"",""2176""
","
","","","","","","null","<div style=""font-size:60px;"">+</div>","null","","fixation","","","","","","","","",""
"memory-trial","95","286905","0.0-15.0-1.26","1702","2","""event"",""trial"",""time""
""fullscreenenter"",""1"",""2176""
","
","
","""event"",""trial"",""time""
""fullscreenenter"",""1"",""2176""
","
","","","","","","1753","images/truck3.png","","","memory_trial","4","definitely_new","","","","","","",""
"html-keyboard-response","96","287407","0.0-15.0-0.27","1702","2","""event"",""trial"",""time""
""fullscreenenter"",""1"",""2176""
","
","
","""event"",""trial"",""time""
""fullscreenenter"",""1"",""2176""
","
","","","","","","null","<div style=""font-size:60px;"">+</div>","null","","fixation","","","","","","","","",""
"memory-trial","97","289949","0.0-15.0-1.27","1702","2","""event"",""trial"",""time""
""fullscreenenter"",""1"",""2176""
","
","
","""event"",""trial"",""time""
""fullscreenenter"",""1"",""2176""
","
","","","","","","1536.199999988079","images/chair1.png","","","memory_trial","2","maybe_old","","","","","","",""
"html-keyboard-response","98","290454","0.0-15.0-0.28","1702","2","""event"",""trial"",""time""
""fullscreenenter"",""1"",""2176""
","
","
","""event"",""trial"",""time""
""fullscreenenter"",""1"",""2176""
","
","","","","","","null","<div style=""font-size:60px;"">+</div>","null","","fixation","","","","","","","","",""
"memory-trial","99","292678","0.0-15.0-1.28","1702","2","""event"",""trial"",""time""
""fullscreenenter"",""1"",""2176""
","
","
","""event"",""trial"",""time""
""fullscreenenter"",""1"",""2176""
","
","","","","","","1220.800000011921","images/feline5.png","","","memory_trial","3","maybe_new","","","","","","",""
"html-keyboard-response","100","293182","0.0-15.0-0.29","1702","2","""event"",""trial"",""time""
""fullscreenenter"",""1"",""2176""
","
","
","""event"",""trial"",""time""
""fullscreenenter"",""1"",""2176""
","
","","","","","","null","<div style=""font-size:60px;"">+</div>","null","","fixation","","","","","","","","",""
"memory-trial","101","295438","0.0-15.0-1.29","1702","2","""event"",""trial"",""time""
""fullscreenenter"",""1"",""2176""
","
","
","""event"",""trial"",""time""
""fullscreenenter"",""1"",""2176""
","
","","","","","","1249.9000000357628","images/flower2.png","","","memory_trial","2","maybe_old","","","","","","",""
"html-keyboard-response","102","295939","0.0-15.0-0.30","1702","2","""event"",""trial"",""time""
""fullscreenenter"",""1"",""2176""
","
","
","""event"",""trial"",""time""
""fullscreenenter"",""1"",""2176""
","
","","","","","","null","<div style=""font-size:60px;"">+</div>","null","","fixation","","","","","","","","",""
"memory-trial","103","298239","0.0-15.0-1.30","1702","2","""event"",""trial"",""time""
""fullscreenenter"",""1"",""2176""
","
","
","""event"",""trial"",""time""
""fullscreenenter"",""1"",""2176""
","
","","","","","","1295.199999988079","images/plane5.png","","","memory_trial","1","definitely_old","","","","","","",""
"html-keyboard-response","104","298743","0.0-15.0-0.31","1702","2","""event"",""trial"",""time""
""fullscreenenter"",""1"",""2176""
","
","
","""event"",""trial"",""time""
""fullscreenenter"",""1"",""2176""
","
","","","","","","null","<div style=""font-size:60px;"">+</div>","null","","fixation","","","","","","","","",""
"memory-trial","105","301025","0.0-15.0-1.31","1702","2","""event"",""trial"",""time""
""fullscreenenter"",""1"",""2176""
","
","
","""event"",""trial"",""time""
""fullscreenenter"",""1"",""2176""
","
","","","","","","1277.2000000476837","images/boat1.png","","","memory_trial","4","definitely_new","","","","","","",""
"html-keyboard-response","106","301529","0.0-15.0-0.32","1702","2","""event"",""trial"",""time""
""fullscreenenter"",""1"",""2176""
","
","
","""event"",""trial"",""time""
""fullscreenenter"",""1"",""2176""
","
","","","","","","null","<div style=""font-size:60px;"">+</div>","null","","fixation","","","","","","","","",""
"memory-trial","107","304175","0.0-15.0-1.32","1702","2","""event"",""trial"",""time""
""fullscreenenter"",""1"",""2176""
","
","
","""event"",""trial"",""time""
""fullscreenenter"",""1"",""2176""
","
","","","","","","1636.8999999761581","images/feline1.png","","","memory_trial","2","maybe_old","","","","","","",""
"html-keyboard-response","108","304680","0.0-15.0-0.33","1702","2","""event"",""trial"",""time""
""fullscreenenter"",""1"",""2176""
","
","
","""event"",""trial"",""time""
""fullscreenenter"",""1"",""2176""
","
","","","","","","null","<div style=""font-size:60px;"">+</div>","null","","fixation","","","","","","","","",""
"memory-trial","109","306807","0.0-15.0-1.33","1702","2","""event"",""trial"",""time""
""fullscreenenter"",""1"",""2176""
","
","
","""event"",""trial"",""time""
""fullscreenenter"",""1"",""2176""
","
","","","","","","1122.300000011921","images/sofa2.png","","","memory_trial","1","definitely_old","","","","","","",""
"html-keyboard-response","110","307311","0.0-15.0-0.34","1702","2","""event"",""trial"",""time""
""fullscreenenter"",""1"",""2176""
","
","
","""event"",""trial"",""time""
""fullscreenenter"",""1"",""2176""
","
","","","","","","null","<div style=""font-size:60px;"">+</div>","null","","fixation","","","","","","","","",""
"memory-trial","111","308997","0.0-15.0-1.34","1702","2","""event"",""trial"",""time""
""fullscreenenter"",""1"",""2176""
","
","
","""event"",""trial"",""time""
""fullscreenenter"",""1"",""2176""
","
","","","","","","680.1000000238419","images/sofa5.png","","","memory_trial","1","definitely_old","","","","","","",""
"html-keyboard-response","112","309501","0.0-15.0-0.35","1702","2","""event"",""trial"",""time""
""fullscreenenter"",""1"",""2176""
","
","
","""event"",""trial"",""time""
""fullscreenenter"",""1"",""2176""
","
","","","","","","null","<div style=""font-size:60px;"">+</div>","null","","fixation","","","","","","","","",""
"memory-trial","113","311647","0.0-15.0-1.35","1702","2","""event"",""trial"",""time""
""fullscreenenter"",""1"",""2176""
","
","
","""event"",""trial"",""time""
""fullscreenenter"",""1"",""2176""
","
","","","","","","1140.199999988079","images/horse5.png","","","memory_trial","1","definitely_old","","","","","","",""
"html-keyboard-response","114","312152","0.0-15.0-0.36","1702","2","""event"",""trial"",""time""
""fullscreenenter"",""1"",""2176""
","
","
","""event"",""trial"",""time""
""fullscreenenter"",""1"",""2176""
","
","","","","","","null","<div style=""font-size:60px;"">+</div>","null","","fixation","","","","","","","","",""
"memory-trial","115","314819","0.0-15.0-1.36","1702","2","""event"",""trial"",""time""
""fullscreenenter"",""1"",""2176""
","
","
","""event"",""trial"",""time""
""fullscreenenter"",""1"",""2176""
","
","","","","","","1661.199999988079","images/cactus1.png","","","memory_trial","1","definitely_old","","","","","","",""
"html-keyboard-response","116","315321","0.0-15.0-0.37","1702","2","""event"",""trial"",""time""
""fullscreenenter"",""1"",""2176""
","
","
","""event"",""trial"",""time""
""fullscreenenter"",""1"",""2176""
","
","","","","","","null","<div style=""font-size:60px;"">+</div>","null","","fixation","","","","","","","","",""
"memory-trial","117","317494","0.0-15.0-1.37","1702","2","""event"",""trial"",""time""
""fullscreenenter"",""1"",""2176""
","
","
","""event"",""trial"",""time""
""fullscreenenter"",""1"",""2176""
","
","","","","","","1164.0999999642372","images/banana2.png","","","memory_trial","1","definitely_old","","","","","","",""
"html-keyboard-response","118","317997","0.0-15.0-0.38","1702","2","""event"",""trial"",""time""
""fullscreenenter"",""1"",""2176""
","
","
","""event"",""trial"",""time""
""fullscreenenter"",""1"",""2176""
","
","","","","","","null","<div style=""font-size:60px;"">+</div>","null","","fixation","","","","","","","","",""
"memory-trial","119","320490","0.0-15.0-1.38","1702","2","""event"",""trial"",""time""
""fullscreenenter"",""1"",""2176""
","
","
","""event"",""trial"",""time""
""fullscreenenter"",""1"",""2176""
","
","","","","","","1488.699999988079","images/truck2.png","","","memory_trial","2","maybe_old","","","","","","",""
"html-keyboard-response","120","320996","0.0-15.0-0.39","1702","2","""event"",""trial"",""time""
""fullscreenenter"",""1"",""2176""
","
","
","""event"",""trial"",""time""
""fullscreenenter"",""1"",""2176""
","
","","","","","","null","<div style=""font-size:60px;"">+</div>","null","","fixation","","","","","","","","",""
"memory-trial","121","324174","0.0-15.0-1.39","1702","2","""event"",""trial"",""time""
""fullscreenenter"",""1"",""2176""
","
","
","""event"",""trial"",""time""
""fullscreenenter"",""1"",""2176""
","
","","","","","","2170.399999976158","images/boat2.png","","","memory_trial","4","definitely_new","","","","","","",""
"html-keyboard-response","122","324679","0.0-15.0-0.40","1702","2","""event"",""trial"",""time""
""fullscreenenter"",""1"",""2176""
","
","
","""event"",""trial"",""time""
""fullscreenenter"",""1"",""2176""
","
","","","","","","null","<div style=""font-size:60px;"">+</div>","null","","fixation","","","","","","","","",""
"memory-trial","123","326768","0.0-15.0-1.40","1702","2","""event"",""trial"",""time""
""fullscreenenter"",""1"",""2176""
","
","
","""event"",""trial"",""time""
""fullscreenenter"",""1"",""2176""
","
","","","","","","1080.3999999761581","images/table4.png","","","memory_trial","2","maybe_old","","","","","","",""
"html-keyboard-response","124","327274","0.0-15.0-0.41","1702","2","""event"",""trial"",""time""
""fullscreenenter"",""1"",""2176""
","
","
","""event"",""trial"",""time""
""fullscreenenter"",""1"",""2176""
","
","","","","","","null","<div style=""font-size:60px;"">+</div>","null","","fixation","","","","","","","","",""
"memory-trial","125","329565","0.0-15.0-1.41","1702","2","""event"",""trial"",""time""
""fullscreenenter"",""1"",""2176""
","
","
","""event"",""trial"",""time""
""fullscreenenter"",""1"",""2176""
","
","","","","","","1280.9000000357628","images/goat2.png","","","memory_trial","4","definitely_new","","","","","","",""
"html-keyboard-response","126","330068","0.0-15.0-0.42","1702","2","""event"",""trial"",""time""
""fullscreenenter"",""1"",""2176""
","
","
","""event"",""trial"",""time""
""fullscreenenter"",""1"",""2176""
","
","","","","","","null","<div style=""font-size:60px;"">+</div>","null","","fixation","","","","","","","","",""
"memory-trial","127","332244","0.0-15.0-1.42","1702","2","""event"",""trial"",""time""
""fullscreenenter"",""1"",""2176""
","
","
","""event"",""trial"",""time""
""fullscreenenter"",""1"",""2176""
","
","","","","","","1170.199999988079","images/chair3.png","","","memory_trial","3","maybe_new","","","","","","",""
"html-keyboard-response","128","332750","0.0-15.0-0.43","1702","2","""event"",""trial"",""time""
""fullscreenenter"",""1"",""2176""
","
","
","""event"",""trial"",""time""
""fullscreenenter"",""1"",""2176""
","
","","","","","","null","<div style=""font-size:60px;"">+</div>","null","","fixation","","","","","","","","",""
"memory-trial","129","334873","0.0-15.0-1.43","1702","2","""event"",""trial"",""time""
""fullscreenenter"",""1"",""2176""
","
","
","""event"",""trial"",""time""
""fullscreenenter"",""1"",""2176""
","
","","","","","","1120.199999988079","images/tree2.png","","","memory_trial","3","maybe_new","","","","","","",""
"html-keyboard-response","130","335378","0.0-15.0-0.44","1702","2","""event"",""trial"",""time""
""fullscreenenter"",""1"",""2176""
","
","
","""event"",""trial"",""time""
""fullscreenenter"",""1"",""2176""
","
","","","","","","null","<div style=""font-size:60px;"">+</div>","null","","fixation","","","","","","","","",""
"memory-trial","131","337909","0.0-15.0-1.44","1702","2","""event"",""trial"",""time""
""fullscreenenter"",""1"",""2176""
","
","
","""event"",""trial"",""time""
""fullscreenenter"",""1"",""2176""
","
","","","","","","1522.699999988079","images/feline2.png","","","memory_trial","1","definitely_old","","","","","","",""
"html-keyboard-response","132","338414","0.0-15.0-0.45","1702","2","""event"",""trial"",""time""
""fullscreenenter"",""1"",""2176""
","
","
","""event"",""trial"",""time""
""fullscreenenter"",""1"",""2176""
","
","","","","","","null","<div style=""font-size:60px;"">+</div>","null","","fixation","","","","","","","","",""
"memory-trial","133","340700","0.0-15.0-1.45","1702","2","""event"",""trial"",""time""
""fullscreenenter"",""1"",""2176""
","
","
","""event"",""trial"",""time""
""fullscreenenter"",""1"",""2176""
","
","","","","","","1280.199999988079","images/rodent1.png","","","memory_trial","1","definitely_old","","","","","","",""
"html-keyboard-response","134","341206","0.0-15.0-0.46","1702","2","""event"",""trial"",""time""
""fullscreenenter"",""1"",""2176""
","
","
","""event"",""trial"",""time""
""fullscreenenter"",""1"",""2176""
","
","","","","","","null","<div style=""font-size:60px;"">+</div>","null","","fixation","","","","","","","","",""
"memory-trial","135","343905","0.0-15.0-1.46","1702","2","""event"",""trial"",""time""
""fullscreenenter"",""1"",""2176""
","
","
","""event"",""trial"",""time""
""fullscreenenter"",""1"",""2176""
","
","","","","","","1693","images/orange4.png","","","memory_trial","3","maybe_new","","","","","","",""
"html-button-response","136","345815","0.0-15.0-2.46-0.46","1702","2","""event"",""trial"",""time""
""fullscreenenter"",""1"",""2176""
","
","
","""event"",""trial"",""time""
""fullscreenenter"",""1"",""2176""
","
","","","","","","1907.2000000476837","<p> Take a break! </p><p> Click the button to continue. </p>","0","","break","","","","","","","","",""
"html-keyboard-response","137","346317","0.0-15.0-0.47","1702","2","""event"",""trial"",""time""
""fullscreenenter"",""1"",""2176""
","
","
","""event"",""trial"",""time""
""fullscreenenter"",""1"",""2176""
","
","","","","","","null","<div style=""font-size:60px;"">+</div>","null","","fixation","","","","","","","","",""
"memory-trial","138","348485","0.0-15.0-1.47","1702","2","""event"",""trial"",""time""
""fullscreenenter"",""1"",""2176""
","
","
","""event"",""trial"",""time""
""fullscreenenter"",""1"",""2176""
","
","","","","","","1162.199999988079","images/rodent3.png","","","memory_trial","1","definitely_old","","","","","","",""
"html-keyboard-response","139","348990","0.0-15.0-0.48","1702","2","""event"",""trial"",""time""
""fullscreenenter"",""1"",""2176""
","
","
","""event"",""trial"",""time""
""fullscreenenter"",""1"",""2176""
","
","","","","","","null","<div style=""font-size:60px;"">+</div>","null","","fixation","","","","","","","","",""
"memory-trial","140","351316","0.0-15.0-1.48","1702","2","""event"",""trial"",""time""
""fullscreenenter"",""1"",""2176""
","
","
","""event"",""trial"",""time""
""fullscreenenter"",""1"",""2176""
","
","","","","","","1318.7000000476837","images/plane2.png","","","memory_trial","1","definitely_old","","","","","","",""
"html-keyboard-response","141","351821","0.0-15.0-0.49","1702","2","""event"",""trial"",""time""
""fullscreenenter"",""1"",""2176""
","
","
","""event"",""trial"",""time""
""fullscreenenter"",""1"",""2176""
","
","","","","","","null","<div style=""font-size:60px;"">+</div>","null","","fixation","","","","","","","","",""
"memory-trial","142","354545","0.0-15.0-1.49","1702","2","""event"",""trial"",""time""
""fullscreenenter"",""1"",""2176""
","
","
","""event"",""trial"",""time""
""fullscreenenter"",""1"",""2176""
","
","","","","","","1716.699999988079","images/dog1.png","","","memory_trial","4","definitely_new","","","","","","",""
"html-keyboard-response","143","355051","0.0-15.0-0.50","1702","2","""event"",""trial"",""time""
""fullscreenenter"",""1"",""2176""
","
","
","""event"",""trial"",""time""
""fullscreenenter"",""1"",""2176""
","
","","","","","","null","<div style=""font-size:60px;"">+</div>","null","","fixation","","","","","","","","",""
"memory-trial","144","357005","0.0-15.0-1.50","1702","2","""event"",""trial"",""time""
""fullscreenenter"",""1"",""2176""
","
","
","""event"",""trial"",""time""
""fullscreenenter"",""1"",""2176""
","
","","","","","","948","images/dog5.png","","","memory_trial","4","definitely_new","","","","","","",""
"html-keyboard-response","145","357511","0.0-15.0-0.51","1702","2","""event"",""trial"",""time""
""fullscreenenter"",""1"",""2176""
","
","
","""event"",""trial"",""time""
""fullscreenenter"",""1"",""2176""
","
","","","","","","null","<div style=""font-size:60px;"">+</div>","null","","fixation","","","","","","","","",""
"memory-trial","146","359648","0.0-15.0-1.51","1702","2","""event"",""trial"",""time""
""fullscreenenter"",""1"",""2176""
","
","
","""event"",""trial"",""time""
""fullscreenenter"",""1"",""2176""
","
","","","","","","1128.1000000238419","images/table1.png","","","memory_trial","2","maybe_old","","","","","","",""
"html-keyboard-response","147","360154","0.0-15.0-0.52","1702","2","""event"",""trial"",""time""
""fullscreenenter"",""1"",""2176""
","
","
","""event"",""trial"",""time""
""fullscreenenter"",""1"",""2176""
","
","","","","","","null","<div style=""font-size:60px;"">+</div>","null","","fixation","","","","","","","","",""
"memory-trial","148","362359","0.0-15.0-1.52","1702","2","""event"",""trial"",""time""
""fullscreenenter"",""1"",""2176""
","
","
","""event"",""trial"",""time""
""fullscreenenter"",""1"",""2176""
","
","","","","","","1197.699999988079","images/goat5.png","","","memory_trial","3","maybe_new","","","","","","",""
"html-keyboard-response","149","362863","0.0-15.0-0.53","1702","2","""event"",""trial"",""time""
""fullscreenenter"",""1"",""2176""
","
","
","""event"",""trial"",""time""
""fullscreenenter"",""1"",""2176""
","
","","","","","","null","<div style=""font-size:60px;"">+</div>","null","","fixation","","","","","","","","",""
"memory-trial","150","366270","0.0-15.0-1.53","1702","2","""event"",""trial"",""time""
""fullscreenenter"",""1"",""2176""
","
","
","""event"",""trial"",""time""
""fullscreenenter"",""1"",""2176""
","
","","","","","","2402.7999999523163","images/bed2.png","","","memory_trial","3","maybe_new","","","","","","",""
"html-keyboard-response","151","366776","0.0-15.0-0.54","1702","2","""event"",""trial"",""time""
""fullscreenenter"",""1"",""2176""
","
","
","""event"",""trial"",""time""
""fullscreenenter"",""1"",""2176""
","
","","","","","","null","<div style=""font-size:60px;"">+</div>","null","","fixation","","","","","","","","",""
"memory-trial","152","368785","0.0-15.0-1.54","1702","2","""event"",""trial"",""time""
""fullscreenenter"",""1"",""2176""
","
","
","""event"",""trial"",""time""
""fullscreenenter"",""1"",""2176""
","
","","","","","","1000.5999999642372","images/tree1.png","","","memory_trial","3","maybe_new","","","","","","",""
"html-keyboard-response","153","369287","0.0-15.0-0.55","1702","2","""event"",""trial"",""time""
""fullscreenenter"",""1"",""2176""
","
","
","""event"",""trial"",""time""
""fullscreenenter"",""1"",""2176""
","
","","","","","","null","<div style=""font-size:60px;"">+</div>","null","","fixation","","","","","","","","",""
"memory-trial","154","372107","0.0-15.0-1.55","1702","2","""event"",""trial"",""time""
""fullscreenenter"",""1"",""2176""
","
","
","""event"",""trial"",""time""
""fullscreenenter"",""1"",""2176""
","
","","","","","","1811.8999999761581","images/cow1.png","","","memory_trial","3","maybe_new","","","","","","",""
"html-keyboard-response","155","372610","0.0-15.0-0.56","1702","2","""event"",""trial"",""time""
""fullscreenenter"",""1"",""2176""
","
","
","""event"",""trial"",""time""
""fullscreenenter"",""1"",""2176""
","
","","","","","","null","<div style=""font-size:60px;"">+</div>","null","","fixation","","","","","","","","",""
"memory-trial","156","374767","0.0-15.0-1.56","1702","2","""event"",""trial"",""time""
""fullscreenenter"",""1"",""2176""
","
","
","""event"",""trial"",""time""
""fullscreenenter"",""1"",""2176""
","
","","","","","","1150.5","images/bed4.png","","","memory_trial","1","definitely_old","","","","","","",""
"html-keyboard-response","157","375270","0.0-15.0-0.57","1702","2","""event"",""trial"",""time""
""fullscreenenter"",""1"",""2176""
","
","
","""event"",""trial"",""time""
""fullscreenenter"",""1"",""2176""
","
","","","","","","null","<div style=""font-size:60px;"">+</div>","null","","fixation","","","","","","","","",""
"memory-trial","158","377222","0.0-15.0-1.57","1702","2","""event"",""trial"",""time""
""fullscreenenter"",""1"",""2176""
","
","
","""event"",""trial"",""time""
""fullscreenenter"",""1"",""2176""
","
","","","","","","943.9000000357628","images/banana4.png","","","memory_trial","1","definitely_old","","","","","","",""
"html-keyboard-response","159","377728","0.0-15.0-0.58","1702","2","""event"",""trial"",""time""
""fullscreenenter"",""1"",""2176""
","
","
","""event"",""trial"",""time""
""fullscreenenter"",""1"",""2176""
","
","","","","","","null","<div style=""font-size:60px;"">+</div>","null","","fixation","","","","","","","","",""
"memory-trial","160","380772","0.0-15.0-1.58","1702","2","""event"",""trial"",""time""
""fullscreenenter"",""1"",""2176""
","
","
","""event"",""trial"",""time""
""fullscreenenter"",""1"",""2176""
","
","","","","","","2036.0999999642372","images/boat5.png","","","memory_trial","2","maybe_old","","","","","","",""
"html-keyboard-response","161","381276","0.0-15.0-0.59","1702","2","""event"",""trial"",""time""
""fullscreenenter"",""1"",""2176""
","
","
","""event"",""trial"",""time""
""fullscreenenter"",""1"",""2176""
","
","","","","","","null","<div style=""font-size:60px;"">+</div>","null","","fixation","","","","","","","","",""
"memory-trial","162","383472","0.0-15.0-1.59","1702","2","""event"",""trial"",""time""
""fullscreenenter"",""1"",""2176""
","
","
","""event"",""trial"",""time""
""fullscreenenter"",""1"",""2176""
","
","","","","","","1189.1000000238419","images/goat3.png","","","memory_trial","1","definitely_old","","","","","","",""
"html-keyboard-response","163","383977","0.0-15.0-0.60","1702","2","""event"",""trial"",""time""
""fullscreenenter"",""1"",""2176""
","
","
","""event"",""trial"",""time""
""fullscreenenter"",""1"",""2176""
","
","","","","","","null","<div style=""font-size:60px;"">+</div>","null","","fixation","","","","","","","","",""
"memory-trial","164","386801","0.0-15.0-1.60","1702","2","""event"",""trial"",""time""
""fullscreenenter"",""1"",""2176""
","
","
","""event"",""trial"",""time""
""fullscreenenter"",""1"",""2176""
","
","","","","","","1816.699999988079","images/boat3.png","","","memory_trial","3","maybe_new","","","","","","",""
"html-keyboard-response","165","387305","0.0-15.0-0.61","1702","2","""event"",""trial"",""time""
""fullscreenenter"",""1"",""2176""
","
","
","""event"",""trial"",""time""
""fullscreenenter"",""1"",""2176""
","
","","","","","","null","<div style=""font-size:60px;"">+</div>","null","","fixation","","","","","","","","",""
"memory-trial","166","389961","0.0-15.0-1.61","1702","2","""event"",""trial"",""time""
""fullscreenenter"",""1"",""2176""
","
","
","""event"",""trial"",""time""
""fullscreenenter"",""1"",""2176""
","
","","","","","","1650.8999999761581","images/dog3.png","","","memory_trial","4","definitely_new","","","","","","",""
"html-keyboard-response","167","390467","0.0-15.0-0.62","1702","2","""event"",""trial"",""time""
""fullscreenenter"",""1"",""2176""
","
","
","""event"",""trial"",""time""
""fullscreenenter"",""1"",""2176""
","
","","","","","","null","<div style=""font-size:60px;"">+</div>","null","","fixation","","","","","","","","",""
"memory-trial","168","393567","0.0-15.0-1.62","1702","2","""event"",""trial"",""time""
""fullscreenenter"",""1"",""2176""
","
","
","""event"",""trial"",""time""
""fullscreenenter"",""1"",""2176""
","
","","","","","","2094.300000011921","images/table5.png","","","memory_trial","3","maybe_new","","","","","","",""
"html-keyboard-response","169","394072","0.0-15.0-0.63","1702","2","""event"",""trial"",""time""
""fullscreenenter"",""1"",""2176""
","
","
","""event"",""trial"",""time""
""fullscreenenter"",""1"",""2176""
","
","","","","","","null","<div style=""font-size:60px;"">+</div>","null","","fixation","","","","","","","","",""
"memory-trial","170","396073","0.0-15.0-1.63","1702","2","""event"",""trial"",""time""
""fullscreenenter"",""1"",""2176""
","
","
","""event"",""trial"",""time""
""fullscreenenter"",""1"",""2176""
","
","","","","","","994.3000000119209","images/boat4.png","","","memory_trial","3","maybe_new","","","","","","",""
"html-keyboard-response","171","396578","0.0-15.0-0.64","1702","2","""event"",""trial"",""time""
""fullscreenenter"",""1"",""2176""
","
","
","""event"",""trial"",""time""
""fullscreenenter"",""1"",""2176""
","
","","","","","","null","<div style=""font-size:60px;"">+</div>","null","","fixation","","","","","","","","",""
"memory-trial","172","399933","0.0-15.0-1.64","1702","2","""event"",""trial"",""time""
""fullscreenenter"",""1"",""2176""
","
","
","""event"",""trial"",""time""
""fullscreenenter"",""1"",""2176""
","
","","","","","","2347.900000035763","images/truck5.png","","","memory_trial","3","maybe_new","","","","","","",""
"html-keyboard-response","173","400438","0.0-15.0-0.65","1702","2","""event"",""trial"",""time""
""fullscreenenter"",""1"",""2176""
","
","
","""event"",""trial"",""time""
""fullscreenenter"",""1"",""2176""
","
","","","","","","null","<div style=""font-size:60px;"">+</div>","null","","fixation","","","","","","","","",""
"memory-trial","174","403452","0.0-15.0-1.65","1702","2","""event"",""trial"",""time""
""fullscreenenter"",""1"",""2176""
","
","
","""event"",""trial"",""time""
""fullscreenenter"",""1"",""2176""
","
","","","","","","2008.800000011921","images/banana5.png","","","memory_trial","2","maybe_old","","","","","","",""
"html-keyboard-response","175","403954","0.0-15.0-0.66","1702","2","""event"",""trial"",""time""
""fullscreenenter"",""1"",""2176""
","
","
","""event"",""trial"",""time""
""fullscreenenter"",""1"",""2176""
","
","","","","","","null","<div style=""font-size:60px;"">+</div>","null","","fixation","","","","","","","","",""
"memory-trial","176","407689","0.0-15.0-1.66","1702","2","""event"",""trial"",""time""
""fullscreenenter"",""1"",""2176""
","
","
","""event"",""trial"",""time""
""fullscreenenter"",""1"",""2176""
","
","","","","","","2730.899999976158","images/plane1.png","","","memory_trial","3","maybe_new","","","","","","",""
"html-keyboard-response","177","408195","0.0-15.0-0.67","1702","2","""event"",""trial"",""time""
""fullscreenenter"",""1"",""2176""
","
","
","""event"",""trial"",""time""
""fullscreenenter"",""1"",""2176""
","
","","","","","","null","<div style=""font-size:60px;"">+</div>","null","","fixation","","","","","","","","",""
"memory-trial","178","410591","0.0-15.0-1.67","1702","2","""event"",""trial"",""time""
""fullscreenenter"",""1"",""2176""
","
","
","""event"",""trial"",""time""
""fullscreenenter"",""1"",""2176""
","
","","","","","","1392","images/goat1.png","","","memory_trial","1","definitely_old","","","","","","",""
"html-keyboard-response","179","411097","0.0-15.0-0.68","1702","2","""event"",""trial"",""time""
""fullscreenenter"",""1"",""2176""
","
","
","""event"",""trial"",""time""
""fullscreenenter"",""1"",""2176""
","
","","","","","","null","<div style=""font-size:60px;"">+</div>","null","","fixation","","","","","","","","",""
"memory-trial","180","414446","0.0-15.0-1.68","1702","2","""event"",""trial"",""time""
""fullscreenenter"",""1"",""2176""
","
","
","""event"",""trial"",""time""
""fullscreenenter"",""1"",""2176""
","
","","","","","","2346","images/rabbit4.png","","","memory_trial","3","maybe_new","","","","","","",""
"html-keyboard-response","181","414951","0.0-15.0-0.69","1702","2","""event"",""trial"",""time""
""fullscreenenter"",""1"",""2176""
","
","
","""event"",""trial"",""time""
""fullscreenenter"",""1"",""2176""
","
","","","","","","null","<div style=""font-size:60px;"">+</div>","null","","fixation","","","","","","","","",""
"memory-trial","182","418323","0.0-15.0-1.69","1702","2","""event"",""trial"",""time""
""fullscreenenter"",""1"",""2176""
","
","
","""event"",""trial"",""time""
""fullscreenenter"",""1"",""2176""
","
","","","","","","2367.800000011921","images/flower3.png","","","memory_trial","2","maybe_old","","","","","","",""
"html-keyboard-response","183","418831","0.0-15.0-0.70","1702","2","""event"",""trial"",""time""
""fullscreenenter"",""1"",""2176""
","
","
","""event"",""trial"",""time""
""fullscreenenter"",""1"",""2176""
","
","","","","","","null","<div style=""font-size:60px;"">+</div>","null","","fixation","","","","","","","","",""
"memory-trial","184","421080","0.0-15.0-1.70","1702","2","""event"",""trial"",""time""
""fullscreenenter"",""1"",""2176""
","
","
","""event"",""trial"",""time""
""fullscreenenter"",""1"",""2176""
","
","","","","","","1242","images/flower4.png","","","memory_trial","1","definitely_old","","","","","","",""
"html-keyboard-response","185","421585","0.0-15.0-0.71","1702","2","""event"",""trial"",""time""
""fullscreenenter"",""1"",""2176""
","
","
","""event"",""trial"",""time""
""fullscreenenter"",""1"",""2176""
","
","","","","","","null","<div style=""font-size:60px;"">+</div>","null","","fixation","","","","","","","","",""
"memory-trial","186","425010","0.0-15.0-1.71","1702","2","""event"",""trial"",""time""
""fullscreenenter"",""1"",""2176""
","
","
","""event"",""trial"",""time""
""fullscreenenter"",""1"",""2176""
","
","","","","","","2419.599999964237","images/dog4.png","","","memory_trial","4","definitely_new","","","","","","",""
"html-keyboard-response","187","425516","0.0-15.0-0.72","1702","2","""event"",""trial"",""time""
""fullscreenenter"",""1"",""2176""
","
","
","""event"",""trial"",""time""
""fullscreenenter"",""1"",""2176""
","
","","","","","","null","<div style=""font-size:60px;"">+</div>","null","","fixation","","","","","","","","",""
"memory-trial","188","427686","0.0-15.0-1.72","1702","2","""event"",""trial"",""time""
""fullscreenenter"",""1"",""2176""
","
","
","""event"",""trial"",""time""
""fullscreenenter"",""1"",""2176""
","
","","","","","","1163.5999999642372","images/bed1.png","","","memory_trial","1","definitely_old","","","","","","",""
"html-keyboard-response","189","428191","0.0-15.0-0.73","1702","2","""event"",""trial"",""time""
""fullscreenenter"",""1"",""2176""
","
","
","""event"",""trial"",""time""
""fullscreenenter"",""1"",""2176""
","
","","","","","","null","<div style=""font-size:60px;"">+</div>","null","","fixation","","","","","","","","",""
"memory-trial","190","430722","0.0-15.0-1.73","1702","2","""event"",""trial"",""time""
""fullscreenenter"",""1"",""2176""
","
","
","""event"",""trial"",""time""
""fullscreenenter"",""1"",""2176""
","
","","","","","","1525.800000011921","images/bush1.png","","","memory_trial","1","definitely_old","","","","","","",""
"html-keyboard-response","191","431225","0.0-15.0-0.74","1702","2","""event"",""trial"",""time""
""fullscreenenter"",""1"",""2176""
","
","
","""event"",""trial"",""time""
""fullscreenenter"",""1"",""2176""
","
","","","","","","null","<div style=""font-size:60px;"">+</div>","null","","fixation","","","","","","","","",""
"memory-trial","192","433191","0.0-15.0-1.74","1702","2","""event"",""trial"",""time""
""fullscreenenter"",""1"",""2176""
","
","
","""event"",""trial"",""time""
""fullscreenenter"",""1"",""2176""
","
","","","","","","958.6000000238419","images/bed5.png","","","memory_trial","1","definitely_old","","","","","","",""
"html-keyboard-response","193","433694","0.0-15.0-0.75","1702","2","""event"",""trial"",""time""
""fullscreenenter"",""1"",""2176""
","
","
","""event"",""trial"",""time""
""fullscreenenter"",""1"",""2176""
","
","","","","","","null","<div style=""font-size:60px;"">+</div>","null","","fixation","","","","","","","","",""
"memory-trial","194","435639","0.0-15.0-1.75","1702","2","""event"",""trial"",""time""
""fullscreenenter"",""1"",""2176""
","
","
","""event"",""trial"",""time""
""fullscreenenter"",""1"",""2176""
","
","","","","","","940.7000000476837","images/dog2.png","","","memory_trial","4","definitely_new","","","","","","",""
"html-keyboard-response","195","436144","0.0-15.0-0.76","1702","2","""event"",""trial"",""time""
""fullscreenenter"",""1"",""2176""
","
","
","""event"",""trial"",""time""
""fullscreenenter"",""1"",""2176""
","
","","","","","","null","<div style=""font-size:60px;"">+</div>","null","","fixation","","","","","","","","",""
"memory-trial","196","439071","0.0-15.0-1.76","1702","2","""event"",""trial"",""time""
""fullscreenenter"",""1"",""2176""
","
","
","""event"",""trial"",""time""
""fullscreenenter"",""1"",""2176""
","
","","","","","","1920.800000011921","images/bush2.png","","","memory_trial","3","maybe_new","","","","","","",""
"html-keyboard-response","197","439583","0.0-15.0-0.77","1702","2","""event"",""trial"",""time""
""fullscreenenter"",""1"",""2176""
","
","
","""event"",""trial"",""time""
""fullscreenenter"",""1"",""2176""
","
","","","","","","null","<div style=""font-size:60px;"">+</div>","null","","fixation","","","","","","","","",""
"memory-trial","198","441833","0.0-15.0-1.77","1702","2","""event"",""trial"",""time""
""fullscreenenter"",""1"",""2176""
","
","
","""event"",""trial"",""time""
""fullscreenenter"",""1"",""2176""
","
","","","","","","1240.199999988079","images/table2.png","","","memory_trial","4","definitely_new","","","","","","",""
"html-keyboard-response","199","442339","0.0-15.0-0.78","1702","2","""event"",""trial"",""time""
""fullscreenenter"",""1"",""2176""
","
","
","""event"",""trial"",""time""
""fullscreenenter"",""1"",""2176""
","
","","","","","","null","<div style=""font-size:60px;"">+</div>","null","","fixation","","","","","","","","",""
"memory-trial","200","444619","0.0-15.0-1.78","1702","2","""event"",""trial"",""time""
""fullscreenenter"",""1"",""2176""
","
","
","""event"",""trial"",""time""
""fullscreenenter"",""1"",""2176""
","
","","","","","","1274.699999988079","images/cactus5.png","","","memory_trial","1","definitely_old","","","","","","",""
"html-keyboard-response","201","445124","0.0-15.0-0.79","1702","2","""event"",""trial"",""time""
""fullscreenenter"",""1"",""2176""
","
","
","""event"",""trial"",""time""
""fullscreenenter"",""1"",""2176""
","
","","","","","","null","<div style=""font-size:60px;"">+</div>","null","","fixation","","","","","","","","",""
"memory-trial","202","447475","0.0-15.0-1.79","1702","2","""event"",""trial"",""time""
""fullscreenenter"",""1"",""2176""
","
","
","""event"",""trial"",""time""
""fullscreenenter"",""1"",""2176""
","
","","","","","","1341.5","images/bush3.png","","","memory_trial","2","maybe_old","","","","","","",""
"html-keyboard-response","203","447980","0.0-15.0-0.80","1702","2","""event"",""trial"",""time""
""fullscreenenter"",""1"",""2176""
","
","
","""event"",""trial"",""time""
""fullscreenenter"",""1"",""2176""
","
","","","","","","null","<div style=""font-size:60px;"">+</div>","null","","fixation","","","","","","","","",""
"memory-trial","204","450007","0.0-15.0-1.80","1702","2","""event"",""trial"",""time""
""fullscreenenter"",""1"",""2176""
","
","
","""event"",""trial"",""time""
""fullscreenenter"",""1"",""2176""
","
","","","","","","1019.2999999523163","images/horse2.png","","","memory_trial","1","definitely_old","","","","","","",""
"html-keyboard-response","205","450513","0.0-15.0-0.81","1702","2","""event"",""trial"",""time""
""fullscreenenter"",""1"",""2176""
","
","
","""event"",""trial"",""time""
""fullscreenenter"",""1"",""2176""
","
","","","","","","null","<div style=""font-size:60px;"">+</div>","null","","fixation","","","","","","","","",""
"memory-trial","206","452229","0.0-15.0-1.81","1702","2","""event"",""trial"",""time""
""fullscreenenter"",""1"",""2176""
","
","
","""event"",""trial"",""time""
""fullscreenenter"",""1"",""2176""
","
","","","","","","709.8999999761581","images/horse4.png","","","memory_trial","1","definitely_old","","","","","","",""
"html-keyboard-response","207","452735","0.0-15.0-0.82","1702","2","""event"",""trial"",""time""
""fullscreenenter"",""1"",""2176""
","
","
","""event"",""trial"",""time""
""fullscreenenter"",""1"",""2176""
","
","","","","","","null","<div style=""font-size:60px;"">+</div>","null","","fixation","","","","","","","","",""
"memory-trial","208","455130","0.0-15.0-1.82","1702","2","""event"",""trial"",""time""
""fullscreenenter"",""1"",""2176""
","
","
","""event"",""trial"",""time""
""fullscreenenter"",""1"",""2176""
","
","","","","","","1388.1000000238419","images/truck1.png","","","memory_trial","1","definitely_old","","","","","","",""
"html-keyboard-response","209","455636","0.0-15.0-0.83","1702","2","""event"",""trial"",""time""
""fullscreenenter"",""1"",""2176""
","
","
","""event"",""trial"",""time""
""fullscreenenter"",""1"",""2176""
","
","","","","","","null","<div style=""font-size:60px;"">+</div>","null","","fixation","","","","","","","","",""
"memory-trial","210","457629","0.0-15.0-1.83","1702","2","""event"",""trial"",""time""
""fullscreenenter"",""1"",""2176""
","
","
","""event"",""trial"",""time""
""fullscreenenter"",""1"",""2176""
","
","","","","","","986.2999999523163","images/apple2.png","","","memory_trial","1","definitely_old","","","","","","",""
"html-keyboard-response","211","458135","0.0-15.0-0.84","1702","2","""event"",""trial"",""time""
""fullscreenenter"",""1"",""2176""
","
","
","""event"",""trial"",""time""
""fullscreenenter"",""1"",""2176""
","
","","","","","","null","<div style=""font-size:60px;"">+</div>","null","","fixation","","","","","","","","",""
"memory-trial","212","460632","0.0-15.0-1.84","1702","2","""event"",""trial"",""time""
""fullscreenenter"",""1"",""2176""
","
","
","""event"",""trial"",""time""
""fullscreenenter"",""1"",""2176""
","
","","","","","","1491.699999988079","images/horse1.png","","","memory_trial","3","maybe_new","","","","","","",""
"html-keyboard-response","213","461134","0.0-15.0-0.85","1702","2","""event"",""trial"",""time""
""fullscreenenter"",""1"",""2176""
","
","
","""event"",""trial"",""time""
""fullscreenenter"",""1"",""2176""
","
","","","","","","null","<div style=""font-size:60px;"">+</div>","null","","fixation","","","","","","","","",""
"memory-trial","214","463267","0.0-15.0-1.85","1702","2","""event"",""trial"",""time""
""fullscreenenter"",""1"",""2176""
","
","
","""event"",""trial"",""time""
""fullscreenenter"",""1"",""2176""
","
","","","","","","1126.8999999761581","images/orange3.png","","","memory_trial","4","definitely_new","","","","","","",""
"html-keyboard-response","215","463772","0.0-15.0-0.86","1702","2","""event"",""trial"",""time""
""fullscreenenter"",""1"",""2176""
","
","
","""event"",""trial"",""time""
""fullscreenenter"",""1"",""2176""
","
","","","","","","null","<div style=""font-size:60px;"">+</div>","null","","fixation","","","","","","","","",""
"memory-trial","216","466118","0.0-15.0-1.86","1702","2","""event"",""trial"",""time""
""fullscreenenter"",""1"",""2176""
","
","
","""event"",""trial"",""time""
""fullscreenenter"",""1"",""2176""
","
","","","","","","1338.6000000238419","images/rodent4.png","","","memory_trial","3","maybe_new","","","","","","",""
"html-keyboard-response","217","466625","0.0-15.0-0.87","1702","2","""event"",""trial"",""time""
""fullscreenenter"",""1"",""2176""
","
","
","""event"",""trial"",""time""
""fullscreenenter"",""1"",""2176""
","
","","","","","","null","<div style=""font-size:60px;"">+</div>","null","","fixation","","","","","","","","",""
"memory-trial","218","468519","0.0-15.0-1.87","1702","2","""event"",""trial"",""time""
""fullscreenenter"",""1"",""2176""
","
","
","""event"",""trial"",""time""
""fullscreenenter"",""1"",""2176""
","
","","","","","","887","images/orange5.png","","","memory_trial","3","maybe_new","","","","","","",""
"html-keyboard-response","219","469022","0.0-15.0-0.88","1702","2","""event"",""trial"",""time""
""fullscreenenter"",""1"",""2176""
","
","
","""event"",""trial"",""time""
""fullscreenenter"",""1"",""2176""
","
","","","","","","null","<div style=""font-size:60px;"">+</div>","null","","fixation","","","","","","","","",""
"memory-trial","220","471884","0.0-15.0-1.88","1702","2","""event"",""trial"",""time""
""fullscreenenter"",""1"",""2176""
","
","
","""event"",""trial"",""time""
""fullscreenenter"",""1"",""2176""
","
","","","","","","1857.300000011921","images/straw1.png","","","memory_trial","2","maybe_old","","","","","","",""
"html-keyboard-response","221","472389","0.0-15.0-0.89","1702","2","""event"",""trial"",""time""
""fullscreenenter"",""1"",""2176""
","
","
","""event"",""trial"",""time""
""fullscreenenter"",""1"",""2176""
","
","","","","","","null","<div style=""font-size:60px;"">+</div>","null","","fixation","","","","","","","","",""
"memory-trial","222","474496","0.0-15.0-1.89","1702","2","""event"",""trial"",""time""
""fullscreenenter"",""1"",""2176""
","
","
","""event"",""trial"",""time""
""fullscreenenter"",""1"",""2176""
","
","","","","","","1103.800000011921","images/chair2.png","","","memory_trial","1","definitely_old","","","","","","",""
"html-keyboard-response","223","475001","0.0-15.0-0.90","1702","2","""event"",""trial"",""time""
""fullscreenenter"",""1"",""2176""
","
","
","""event"",""trial"",""time""
""fullscreenenter"",""1"",""2176""
","
","","","","","","null","<div style=""font-size:60px;"">+</div>","null","","fixation","","","","","","","","",""
"memory-trial","224","477493","0.0-15.0-1.90","1702","2","""event"",""trial"",""time""
""fullscreenenter"",""1"",""2176""
","
","
","""event"",""trial"",""time""
""fullscreenenter"",""1"",""2176""
","
","","","","","","1488.5","images/feline3.png","","","memory_trial","2","maybe_old","","","","","","",""
"html-keyboard-response","225","477999","0.0-15.0-0.91","1702","2","""event"",""trial"",""time""
""fullscreenenter"",""1"",""2176""
","
","
","""event"",""trial"",""time""
""fullscreenenter"",""1"",""2176""
","
","","","","","","null","<div style=""font-size:60px;"">+</div>","null","","fixation","","","","","","","","",""
"memory-trial","226","480608","0.0-15.0-1.91","1702","2","""event"",""trial"",""time""
""fullscreenenter"",""1"",""2176""
","
","
","""event"",""trial"",""time""
""fullscreenenter"",""1"",""2176""
","
","","","","","","1602.9000000357628","images/chair5.png","","","memory_trial","3","maybe_new","","","","","","",""
"html-keyboard-response","227","481114","0.0-15.0-0.92","1702","2","""event"",""trial"",""time""
""fullscreenenter"",""1"",""2176""
","
","
","""event"",""trial"",""time""
""fullscreenenter"",""1"",""2176""
","
","","","","","","null","<div style=""font-size:60px;"">+</div>","null","","fixation","","","","","","","","",""
"memory-trial","228","483198","0.0-15.0-1.92","1702","2","""event"",""trial"",""time""
""fullscreenenter"",""1"",""2176""
","
","
","""event"",""trial"",""time""
""fullscreenenter"",""1"",""2176""
","
","","","","","","1079.2999999523163","images/straw2.png","","","memory_trial","1","definitely_old","","","","","","",""
"html-keyboard-response","229","483704","0.0-15.0-0.93","1702","2","""event"",""trial"",""time""
""fullscreenenter"",""1"",""2176""
","
","
","""event"",""trial"",""time""
""fullscreenenter"",""1"",""2176""
","
","","","","","","null","<div style=""font-size:60px;"">+</div>","null","","fixation","","","","","","","","",""
"memory-trial","230","485758","0.0-15.0-1.93","1702","2","""event"",""trial"",""time""
""fullscreenenter"",""1"",""2176""
","
","
","""event"",""trial"",""time""
""fullscreenenter"",""1"",""2176""
","
","","","","","","1046.800000011921","images/tree5.png","","","memory_trial","3","maybe_new","","","","","","",""
"html-keyboard-response","231","486264","0.0-15.0-0.94","1702","2","""event"",""trial"",""time""
""fullscreenenter"",""1"",""2176""
","
","
","""event"",""trial"",""time""
""fullscreenenter"",""1"",""2176""
","
","","","","","","null","<div style=""font-size:60px;"">+</div>","null","","fixation","","","","","","","","",""
"memory-trial","232","488499","0.0-15.0-1.94","1702","2","""event"",""trial"",""time""
""fullscreenenter"",""1"",""2176""
","
","
","""event"",""trial"",""time""
""fullscreenenter"",""1"",""2176""
","
","","","","","","1230.3999999761581","images/cactus3.png","","","memory_trial","3","maybe_new","","","","","","",""
"html-keyboard-response","233","489002","0.0-15.0-0.95","1702","2","""event"",""trial"",""time""
""fullscreenenter"",""1"",""2176""
","
","
","""event"",""trial"",""time""
""fullscreenenter"",""1"",""2176""
","
","","","","","","null","<div style=""font-size:60px;"">+</div>","null","","fixation","","","","","","","","",""
"memory-trial","234","491453","0.0-15.0-1.95","1702","2","""event"",""trial"",""time""
""fullscreenenter"",""1"",""2176""
","
","
","""event"",""trial"",""time""
""fullscreenenter"",""1"",""2176""
","
","","","","","","1444.2000000476837","images/rabbit2.png","","","memory_trial","2","maybe_old","","","","","","",""
"html-keyboard-response","235","491954","0.0-15.0-0.96","1702","2","""event"",""trial"",""time""
""fullscreenenter"",""1"",""2176""
","
","
","""event"",""trial"",""time""
""fullscreenenter"",""1"",""2176""
","
","","","","","","null","<div style=""font-size:60px;"">+</div>","null","","fixation","","","","","","","","",""
"memory-trial","236","495906","0.0-15.0-1.96","1702","2","""event"",""trial"",""time""
""fullscreenenter"",""1"",""2176""
","
","
","""event"",""trial"",""time""
""fullscreenenter"",""1"",""2176""
","
","","","","","","2946.5","images/straw3.png","","","memory_trial","3","maybe_new","","","","","","",""
"html-keyboard-response","237","496413","0.0-15.0-0.97","1702","2","""event"",""trial"",""time""
""fullscreenenter"",""1"",""2176""
","
","
","""event"",""trial"",""time""
""fullscreenenter"",""1"",""2176""
","
","","","","","","null","<div style=""font-size:60px;"">+</div>","null","","fixation","","","","","","","","",""
"memory-trial","238","498668","0.0-15.0-1.97","1702","2","""event"",""trial"",""time""
""fullscreenenter"",""1"",""2176""
","
","
","""event"",""trial"",""time""
""fullscreenenter"",""1"",""2176""
","
","","","","","","1248.1000000238419","images/rodent5.png","","","memory_trial","1","definitely_old","","","","","","",""
"html-keyboard-response","239","499173","0.0-15.0-0.98","1702","2","""event"",""trial"",""time""
""fullscreenenter"",""1"",""2176""
","
","
","""event"",""trial"",""time""
""fullscreenenter"",""1"",""2176""
","
","","","","","","null","<div style=""font-size:60px;"">+</div>","null","","fixation","","","","","","","","",""
"memory-trial","240","501364","0.0-15.0-1.98","1702","2","""event"",""trial"",""time""
""fullscreenenter"",""1"",""2176""
","
","
","""event"",""trial"",""time""
""fullscreenenter"",""1"",""2176""
","
","","","","","","1183.5999999642372","images/rabbit1.png","","","memory_trial","2","maybe_old","","","","","","",""
"html-keyboard-response","241","501866","0.0-15.0-0.99","1702","2","""event"",""trial"",""time""
""fullscreenenter"",""1"",""2176""
","
","
","""event"",""trial"",""time""
""fullscreenenter"",""1"",""2176""
","
","","","","","","null","<div style=""font-size:60px;"">+</div>","null","","fixation","","","","","","","","",""
"memory-trial","242","504689","0.0-15.0-1.99","1702","2","""event"",""trial"",""time""
""fullscreenenter"",""1"",""2176""
","
","
","""event"",""trial"",""time""
""fullscreenenter"",""1"",""2176""
","
","","","","","","1815.6000000238419","images/cow2.png","","","memory_trial","4","definitely_new","","","","","","",""
"html-keyboard-response","243","505192","0.0-15.0-0.100","1702","2","""event"",""trial"",""time""
""fullscreenenter"",""1"",""2176""
","
","
","""event"",""trial"",""time""
""fullscreenenter"",""1"",""2176""
","
","","","","","","null","<div style=""font-size:60px;"">+</div>","null","","fixation","","","","","","","","",""
"memory-trial","244","507847","0.0-15.0-1.100","1702","2","""event"",""trial"",""time""
""fullscreenenter"",""1"",""2176""
","
","
","""event"",""trial"",""time""
""fullscreenenter"",""1"",""2176""
","
","","","","","","1647.699999988079","images/bush5.png","","","memory_trial","2","maybe_old","","","","","","",""
"html-keyboard-response","245","508350","0.0-15.0-0.101","1702","2","""event"",""trial"",""time""
""fullscreenenter"",""1"",""2176""
","
","
","""event"",""trial"",""time""
""fullscreenenter"",""1"",""2176""
","
","","","","","","null","<div style=""font-size:60px;"">+</div>","null","","fixation","","","","","","","","",""
"memory-trial","246","510591","0.0-15.0-1.101","1702","2","""event"",""trial"",""time""
""fullscreenenter"",""1"",""2176""
","
","
","""event"",""trial"",""time""
""fullscreenenter"",""1"",""2176""
","
","","","","","","1235.1000000238419","images/horse3.png","","","memory_trial","2","maybe_old","","","","","","",""
"html-button-response","247","523948","0.0-15.0-2.101-0.101","1702","2","""event"",""trial"",""time""
""fullscreenenter"",""1"",""2176""
","
","
","""event"",""trial"",""time""
""fullscreenenter"",""1"",""2176""
","
","","","","","","13354.600000023842","<p> Take a break! </p><p> Click the button to continue. </p>","0","","break","","","","","","","","",""
"html-keyboard-response","248","524450","0.0-15.0-0.102","1702","2","""event"",""trial"",""time""
""fullscreenenter"",""1"",""2176""
","
","
","""event"",""trial"",""time""
""fullscreenenter"",""1"",""2176""
","
","","","","","","null","<div style=""font-size:60px;"">+</div>","null","","fixation","","","","","","","","",""
"memory-trial","249","528516","0.0-15.0-1.102","1702","2","""event"",""trial"",""time""
""fullscreenenter"",""1"",""2176""
","
","
","""event"",""trial"",""time""
""fullscreenenter"",""1"",""2176""
","
","","","","","","3058.199999988079","images/flower5.png","","","memory_trial","3","maybe_new","","","","","","",""
"html-keyboard-response","250","529021","0.0-15.0-0.103","1702","2","""event"",""trial"",""time""
""fullscreenenter"",""1"",""2176""
","
","
","""event"",""trial"",""time""
""fullscreenenter"",""1"",""2176""
","
","","","","","","null","<div style=""font-size:60px;"">+</div>","null","","fixation","","","","","","","","",""
"memory-trial","251","531142","0.0-15.0-1.103","1702","2","""event"",""trial"",""time""
""fullscreenenter"",""1"",""2176""
","
","
","""event"",""trial"",""time""
""fullscreenenter"",""1"",""2176""
","
","","","","","","1113.199999988079","images/train2.png","","","memory_trial","2","maybe_old","","","","","","",""
"html-keyboard-response","252","531645","0.0-15.0-0.104","1702","2","""event"",""trial"",""time""
""fullscreenenter"",""1"",""2176""
","
","
","""event"",""trial"",""time""
""fullscreenenter"",""1"",""2176""
","
","","","","","","null","<div style=""font-size:60px;"">+</div>","null","","fixation","","","","","","","","",""
"memory-trial","253","533944","0.0-15.0-1.104","1702","2","""event"",""trial"",""time""
""fullscreenenter"",""1"",""2176""
","
","
","""event"",""trial"",""time""
""fullscreenenter"",""1"",""2176""
","
","","","","","","1293.5","images/train1.png","","","memory_trial","2","maybe_old","","","","","","",""
"html-keyboard-response","254","534449","0.0-15.0-0.105","1702","2","""event"",""trial"",""time""
""fullscreenenter"",""1"",""2176""
","
","
","""event"",""trial"",""time""
""fullscreenenter"",""1"",""2176""
","
","","","","","","null","<div style=""font-size:60px;"">+</div>","null","","fixation","","","","","","","","",""
"memory-trial","255","537063","0.0-15.0-1.105","1702","2","""event"",""trial"",""time""
""fullscreenenter"",""1"",""2176""
","
","
","""event"",""trial"",""time""
""fullscreenenter"",""1"",""2176""
","
","","","","","","1606.9000000357628","images/rabbit5.png","","","memory_trial","1","definitely_old","","","","","","",""
"html-keyboard-response","256","537566","0.0-15.0-0.106","1702","2","""event"",""trial"",""time""
""fullscreenenter"",""1"",""2176""
","
","
","""event"",""trial"",""time""
""fullscreenenter"",""1"",""2176""
","
","","","","","","null","<div style=""font-size:60px;"">+</div>","null","","fixation","","","","","","","","",""
"memory-trial","257","540313","0.0-15.0-1.106","1702","2","""event"",""trial"",""time""
""fullscreenenter"",""1"",""2176""
","
","
","""event"",""trial"",""time""
""fullscreenenter"",""1"",""2176""
","
","","","","","","1740.300000011921","images/apple4.png","","","memory_trial","2","maybe_old","","","","","","",""
"html-keyboard-response","258","540819","0.0-15.0-0.107","1702","2","""event"",""trial"",""time""
""fullscreenenter"",""1"",""2176""
","
","
","""event"",""trial"",""time""
""fullscreenenter"",""1"",""2176""
","
","","","","","","null","<div style=""font-size:60px;"">+</div>","null","","fixation","","","","","","","","",""
"memory-trial","259","543191","0.0-15.0-1.107","1702","2","""event"",""trial"",""time""
""fullscreenenter"",""1"",""2176""
","
","
","""event"",""trial"",""time""
""fullscreenenter"",""1"",""2176""
","
","","","","","","1367.800000011921","images/rabbit3.png","","","memory_trial","2","maybe_old","","","","","","",""
"html-keyboard-response","260","543696","0.0-15.0-0.108","1702","2","""event"",""trial"",""time""
""fullscreenenter"",""1"",""2176""
","
","
","""event"",""trial"",""time""
""fullscreenenter"",""1"",""2176""
","
","","","","","","null","<div style=""font-size:60px;"">+</div>","null","","fixation","","","","","","","","",""
"memory-trial","261","546372","0.0-15.0-1.108","1702","2","""event"",""trial"",""time""
""fullscreenenter"",""1"",""2176""
","
","
","""event"",""trial"",""time""
""fullscreenenter"",""1"",""2176""
","
","","","","","","1671.800000011921","images/rodent2.png","","","memory_trial","2","maybe_old","","","","","","",""
"html-keyboard-response","262","546879","0.0-15.0-0.109","1702","2","""event"",""trial"",""time""
""fullscreenenter"",""1"",""2176""
","
","
","""event"",""trial"",""time""
""fullscreenenter"",""1"",""2176""
","
","","","","","","null","<div style=""font-size:60px;"">+</div>","null","","fixation","","","","","","","","",""
"memory-trial","263","548995","0.0-15.0-1.109","1702","2","""event"",""trial"",""time""
""fullscreenenter"",""1"",""2176""
","
","
","""event"",""trial"",""time""
""fullscreenenter"",""1"",""2176""
","
","","","","","","1112.4000000357628","images/plane4.png","","","memory_trial","1","definitely_old","","","","","","",""
"html-keyboard-response","264","549501","0.0-15.0-0.110","1702","2","""event"",""trial"",""time""
""fullscreenenter"",""1"",""2176""
","
","
","""event"",""trial"",""time""
""fullscreenenter"",""1"",""2176""
","
","","","","","","null","<div style=""font-size:60px;"">+</div>","null","","fixation","","","","","","","","",""
"memory-trial","265","551178","0.0-15.0-1.110","1702","2","""event"",""trial"",""time""
""fullscreenenter"",""1"",""2176""
","
","
","""event"",""trial"",""time""
""fullscreenenter"",""1"",""2176""
","
","","","","","","672","images/table3.png","","","memory_trial","1","definitely_old","","","","","","",""
"html-keyboard-response","266","551684","0.0-15.0-0.111","1702","2","""event"",""trial"",""time""
""fullscreenenter"",""1"",""2176""
","
","
","""event"",""trial"",""time""
""fullscreenenter"",""1"",""2176""
","
","","","","","","null","<div style=""font-size:60px;"">+</div>","null","","fixation","","","","","","","","",""
"memory-trial","267","554737","0.0-15.0-1.111","1702","2","""event"",""trial"",""time""
""fullscreenenter"",""1"",""2176""
","
","
","""event"",""trial"",""time""
""fullscreenenter"",""1"",""2176""
","
","","","","","","2047.1000000238419","images/sheep3.png","","","memory_trial","3","maybe_new","","","","","","",""
"html-keyboard-response","268","555241","0.0-15.0-0.112","1702","2","""event"",""trial"",""time""
""fullscreenenter"",""1"",""2176""
","
","
","""event"",""trial"",""time""
""fullscreenenter"",""1"",""2176""
","
","","","","","","null","<div style=""font-size:60px;"">+</div>","null","","fixation","","","","","","","","",""
"memory-trial","269","557988","0.0-15.0-1.112","1702","2","""event"",""trial"",""time""
""fullscreenenter"",""1"",""2176""
","
","
","""event"",""trial"",""time""
""fullscreenenter"",""1"",""2176""
","
","","","","","","1739.1000000238419","images/plane3.png","","","memory_trial","2","maybe_old","","","","","","",""
"html-keyboard-response","270","558491","0.0-15.0-0.113","1702","2","""event"",""trial"",""time""
""fullscreenenter"",""1"",""2176""
","
","
","""event"",""trial"",""time""
""fullscreenenter"",""1"",""2176""
","
","","","","","","null","<div style=""font-size:60px;"">+</div>","null","","fixation","","","","","","","","",""
"memory-trial","271","561297","0.0-15.0-1.113","1702","2","""event"",""trial"",""time""
""fullscreenenter"",""1"",""2176""
","
","
","""event"",""trial"",""time""
""fullscreenenter"",""1"",""2176""
","
","","","","","","1797","images/chair4.png","","","memory_trial","3","maybe_new","","","","","","",""
"html-keyboard-response","272","561804","0.0-15.0-0.114","1702","2","""event"",""trial"",""time""
""fullscreenenter"",""1"",""2176""
","
","
","""event"",""trial"",""time""
""fullscreenenter"",""1"",""2176""
","
","","","","","","null","<div style=""font-size:60px;"">+</div>","null","","fixation","","","","","","","","",""
"memory-trial","273","566607","0.0-15.0-1.114","1702","2","""event"",""trial"",""time""
""fullscreenenter"",""1"",""2176""
","
","
","""event"",""trial"",""time""
""fullscreenenter"",""1"",""2176""
","
","","","","","","3794.2999999523163","images/banana3.png","","","memory_trial","3","maybe_new","","","","","","",""
"html-keyboard-response","274","567112","0.0-15.0-0.115","1702","2","""event"",""trial"",""time""
""fullscreenenter"",""1"",""2176""
","
","
","""event"",""trial"",""time""
""fullscreenenter"",""1"",""2176""
","
","","","","","","null","<div style=""font-size:60px;"">+</div>","null","","fixation","","","","","","","","",""
"memory-trial","275","569057","0.0-15.0-1.115","1702","2","""event"",""trial"",""time""
""fullscreenenter"",""1"",""2176""
","
","
","""event"",""trial"",""time""
""fullscreenenter"",""1"",""2176""
","
","","","","","","937.5999999642372","images/sofa1.png","","","memory_trial","2","maybe_old","","","","","","",""
"html-keyboard-response","276","569562","0.0-15.0-0.116","1702","2","""event"",""trial"",""time""
""fullscreenenter"",""1"",""2176""
","
","
","""event"",""trial"",""time""
""fullscreenenter"",""1"",""2176""
","
","","","","","","null","<div style=""font-size:60px;"">+</div>","null","","fixation","","","","","","","","",""
"memory-trial","277","572446","0.0-15.0-1.116","1702","2","""event"",""trial"",""time""
""fullscreenenter"",""1"",""2176""
","
","
","""event"",""trial"",""time""
""fullscreenenter"",""1"",""2176""
","
","","","","","","1881.800000011921","images/bush4.png","","","memory_trial","2","maybe_old","","","","","","",""
"html-keyboard-response","278","572948","0.0-15.0-0.117","1702","2","""event"",""trial"",""time""
""fullscreenenter"",""1"",""2176""
","
","
","""event"",""trial"",""time""
""fullscreenenter"",""1"",""2176""
","
","","","","","","null","<div style=""font-size:60px;"">+</div>","null","","fixation","","","","","","","","",""
"memory-trial","279","574926","0.0-15.0-1.117","1702","2","""event"",""trial"",""time""
""fullscreenenter"",""1"",""2176""
","
","
","""event"",""trial"",""time""
""fullscreenenter"",""1"",""2176""
","
","","","","","","970.7999999523163","images/sofa3.png","","","memory_trial","1","definitely_old","","","","","","",""
"html-keyboard-response","280","575431","0.0-15.0-0.118","1702","2","""event"",""trial"",""time""
""fullscreenenter"",""1"",""2176""
","
","
","""event"",""trial"",""time""
""fullscreenenter"",""1"",""2176""
","
","","","","","","null","<div style=""font-size:60px;"">+</div>","null","","fixation","","","","","","","","",""
"memory-trial","281","577769","0.0-15.0-1.118","1702","2","""event"",""trial"",""time""
""fullscreenenter"",""1"",""2176""
","
","
","""event"",""trial"",""time""
""fullscreenenter"",""1"",""2176""
","
","","","","","","1331.800000011921","images/train4.png","","","memory_trial","2","maybe_old","","","","","","",""
"html-keyboard-response","282","578275","0.0-15.0-0.119","1702","2","""event"",""trial"",""time""
""fullscreenenter"",""1"",""2176""
","
","
","""event"",""trial"",""time""
""fullscreenenter"",""1"",""2176""
","
","","","","","","null","<div style=""font-size:60px;"">+</div>","null","","fixation","","","","","","","","",""
"memory-trial","283","580690","0.0-15.0-1.119","1702","2","""event"",""trial"",""time""
""fullscreenenter"",""1"",""2176""
","
","
","""event"",""trial"",""time""
""fullscreenenter"",""1"",""2176""
","
","","","","","","1411.6000000238419","images/tree3.png","","","memory_trial","3","maybe_new","","","","","","",""
"preload","284","587548","0.0-16.0","1702","2","""event"",""trial"",""time""
""fullscreenenter"",""1"",""2176""
","
","
","""event"",""trial"",""time""
""fullscreenenter"",""1"",""2176""
","
","true","false","[]","[]","[]","","","","","","","","","","","","","",""
"learning-instructions","285","592864","0.0-17.0-0.0-0.0-0.0","1702","2","""event"",""trial"",""time""
""fullscreenenter"",""1"",""2176""
","
","
","""event"",""trial"",""time""
""fullscreenenter"",""1"",""2176""
","
","","","","","","1975.3999999761581","<p> We're now going to ask you to deliver furniture again. </p>","","0","instructions","","","","","","","","",""
"learning-instructions","286","613847","0.0-17.0-0.0-0.0-0.1","1702","2","""event"",""trial"",""time""
""fullscreenenter"",""1"",""2176""
","
","
","""event"",""trial"",""time""
""fullscreenenter"",""1"",""2176""
","
","","","","","","14692.400000035763","<p> On each trial, you will see a furniture item. Select the building where you think the furniture item belongs. </p>","","0","instructions","","","","","","","","",""
"learning-instructions","287","668013","0.0-17.0-0.0-0.0-0.2","1702","2","""event"",""trial"",""time""
""fullscreenenter"",""1"",""2176""
","
","
","""event"",""trial"",""time""
""fullscreenenter"",""1"",""2176""
","
","","","","","","47103.39999997616","<p> To make your selection, think about what you learned last week. You will NOT receive any feedback about your choice. </p>","","0","instructions","","","","","","","","",""
"learning-instructions","288","678848","0.0-17.0-0.0-0.0-0.3","1702","2","""event"",""trial"",""time""
""fullscreenenter"",""1"",""2176""
","
","
","""event"",""trial"",""time""
""fullscreenenter"",""1"",""2176""
","
","","","","","","2504.2999999523163","<p> You should use the 1 key to select the building on the left, the 2 key to select the building in the middle, and the 3 key to select the building on the right. </p><br><div class=""choice-mem-instructions-grid""> <div class=""choice-mem-option""><img src=""images/furniture_choice1.png"" class=""choice-mem-option-img"" stage=""instructions"" position=""0"" ><div class=""choice-mem-option-text""> Press ""1."" </div></div><div class=""choice-mem-option""><img src=""images/furniture_choice2.png"" class=""choice-mem-option-img"" stage=""instructions"" position=""1"" ><div class=""choice-mem-option-text""> Press ""2."" </div></div><div class=""choice-mem-option""><img src=""images/furniture_choice3.png"" class=""choice-mem-option-img"" stage=""instructions"" position=""2"" ><div class=""choice-mem-option-text""> Press ""3."" </div></div></div>","","0","instructions","","","","","","","","",""
"learning-instructions","289","685547","0.0-17.0-0.0-0.0-0.4","1702","2","""event"",""trial"",""time""
""fullscreenenter"",""1"",""2176""
","
","
","""event"",""trial"",""time""
""fullscreenenter"",""1"",""2176""
","
","","","","","","434.0999999642372","<p> You will have 10 seconds to make each selection. Try to respond before time runs out! </p>","","0","instructions","","","","","","","","",""
"learning-instructions","290","688713","0.0-17.0-0.0-1.0","1702","2","""event"",""trial"",""time""
""fullscreenenter"",""1"",""2176""
","
","
","""event"",""trial"",""time""
""fullscreenenter"",""1"",""2176""
","
","","","","","","1110","<p> You are now ready to begin the game. </p>","","0","instructions","","","","","","","","",""
"html-keyboard-response","291","689317","0.0-17.0-0.0-2.0-0.0","1702","2","""event"",""trial"",""time""
""fullscreenenter"",""1"",""2176""
","
","
","""event"",""trial"",""time""
""fullscreenenter"",""1"",""2176""
","
","","","","","","null","<div style=""font-size:60px;"">+</div>","null","","fixation","","","","","","","","",""
"choice-memory-trial","292","691659","0.0-17.0-0.0-2.0-1.0","1702","2","""event"",""trial"",""time""
""fullscreenenter"",""1"",""2176""
","
","
","""event"",""trial"",""time""
""fullscreenenter"",""1"",""2176""
","
