"trial_type","trial_index","time_elapsed","internal_node_id","subject_id","task_version","interactions","blur_events","focus_events","fullscreenenter_events","fullscreenexit_events","success","timeout","failed_images","failed_audio","failed_video","rt","stimulus","response","button_pressed","task_part","key_press","answer","correct","left_choice","middle_choice","right_choice","choice_positions","option_selected","block"
"pavlovia","0","5","0.0-0.0","1986","2","""event"",""trial"",""time""
""fullscreenenter"",""1"",""3199""
","
","
","""event"",""trial"",""time""
""fullscreenenter"",""1"",""3199""
","
","","","","","","","","","","","","","","","","","","",""
"fullscreen","1","4195","0.0-1.0","1986","2","""event"",""trial"",""time""
""fullscreenenter"",""1"",""3199""
","
","
","""event"",""trial"",""time""
""fullscreenenter"",""1"",""3199""
","
","true","","","","","","","","","","","","","","","","","",""
"preload","2","5290","0.0-2.0","1986","2","""event"",""trial"",""time""
""fullscreenenter"",""1"",""3199""
","
","
","""event"",""trial"",""time""
""fullscreenenter"",""1"",""3199""
","
","true","false","[]","[]","[]","","","","","","","","","","","","","",""
"audio-keyboard-response","3","6697","0.0-3.0","1986","2","""event"",""trial"",""time""
""fullscreenenter"",""1"",""3199""
","
","
","""event"",""trial"",""time""
""fullscreenenter"",""1"",""3199""
","
","","","","","","1400.0000000000002","audio/beep_loop.wav","audiovolumedown","","","","","","","","","","",""
"audio-button-response","4","8428","0.0-4.0","1986","2","""event"",""trial"",""time""
""fullscreenenter"",""1"",""3199""
","
","
","""event"",""trial"",""time""
""fullscreenenter"",""1"",""3199""
","
","","","","","","1720","audio/turtle.wav","3","","","","","","","","","","",""
"audio-button-response","5","10535","0.0-5.0","1986","2","""event"",""trial"",""time""
""fullscreenenter"",""1"",""3199""
","
","
","""event"",""trial"",""time""
""fullscreenenter"",""1"",""3199""
","
","","","","","","1091","audio/shark.wav","2","","","","","","","","","","",""
"preload","6","14680","0.0-6.0","1986","2","""event"",""trial"",""time""
""fullscreenenter"",""1"",""3199""
","
","
","""event"",""trial"",""time""
""fullscreenenter"",""1"",""3199""
","
","true","false","[]","[]","[]","","","","","","","","","","","","","",""
"learning-instructions","7","20603","0.0-7.0-0.0","1986","2","""event"",""trial"",""time""
""fullscreenenter"",""1"",""3199""
","
","
","""event"",""trial"",""time""
""fullscreenenter"",""1"",""3199""
","
","","","","","","1112.1000000238419","<p> Welcome back! </p><p> Last week, you had to make choices about lots of different items.  </p>","","0","instructions","","","","","","","","",""
"learning-instructions","8","42986","0.0-7.0-0.1","1986","2","""event"",""trial"",""time""
""fullscreenenter"",""1"",""3199""
","
","
","""event"",""trial"",""time""
""fullscreenenter"",""1"",""3199""
","
","","","","","","18076.200000047684","<p> Today, we are going to ask you to try to remember all the items. </p>","","0","instructions","","","","","","","","",""
"learning-instructions","9","54536","0.0-7.0-0.2","1986","2","""event"",""trial"",""time""
""fullscreenenter"",""1"",""3199""
","
","
","""event"",""trial"",""time""
""fullscreenenter"",""1"",""3199""
","
","","","","","","1405.7999999523163","<p> On every trial, you will see an image. </p><p> The image may be an OLD image you saw during the games last week or it may be a NEW image that was not presented. </p>","","0","instructions","","","","","","","","",""
"learning-instructions","10","64911","0.0-7.0-0.3","1986","2","""event"",""trial"",""time""
""fullscreenenter"",""1"",""3199""
","
","
","""event"",""trial"",""time""
""fullscreenenter"",""1"",""3199""
","
","","","","","","1859.8999999761581","<p> You need to select whether the image is:  </p><p>  'Definitely old', 'Maybe old', 'Maybe new', or 'Definitely new.'  </p><div class=""mem-choice-instructions-grid""><div class=""choice-option"" id=""choice-option-1"" ><img src=""images/definitely_old_1.png"" id=""choice-option-img-1"" class=""choice-option-img"" stage=""1""></div><div class=""choice-option"" id=""choice-option-2"" ><img src=""images/maybe_old_1.png"" id=""choice-option-img-2"" class=""choice-option-img"" stage=""1""></div><div class=""choice-option"" id=""choice-option-3"" ><img src=""images/maybe_new_1.png"" id=""choice-option-img-3"" class=""choice-option-img"" stage=""1""></div><div class=""choice-option"" id=""choice-option-4"" > <img src=""images/definitely_new_1.png"" id=""choice-option-img-4"" class=""choice-option-img"" stage=""1""></div></div>","","0","instructions","","","","","","","","",""
"learning-instructions","11","72255","0.0-7.0-0.4","1986","2","""event"",""trial"",""time""
""fullscreenenter"",""1"",""3199""
","
","
","""event"",""trial"",""time""
""fullscreenenter"",""1"",""3199""
","
","","","","","","643.2999999523163","<p> You should use the 1, 2, 3, and 4 keys to make your responses.  </p><div class=""mem-choice-instructions-grid""><div class=""choice-option"" id=""choice-option-1"" ><img src=""images/definitely_old.png"" id=""choice-option-img-1"" class=""choice-option-img"" stage=""1""></div><div class=""choice-option"" id=""choice-option-2"" ><img src=""images/maybe_old.png"" id=""choice-option-img-2"" class=""choice-option-img"" stage=""1""></div><div class=""choice-option"" id=""choice-option-3"" ><img src=""images/maybe_new.png"" id=""choice-option-img-3"" class=""choice-option-img"" stage=""1""></div><div class=""choice-option"" id=""choice-option-4"" > <img src=""images/definitely_new.png"" id=""choice-option-img-4"" class=""choice-option-img"" stage=""1""></div></div>","","0","instructions","","","","","","","","",""
"learning-instructions","12","80275","0.0-7.0-0.5","1986","2","""event"",""trial"",""time""
""fullscreenenter"",""1"",""3199""
","
","
","""event"",""trial"",""time""
""fullscreenenter"",""1"",""3199""
","
","","","","","","1254.8999999761581","<p> You will have 10 seconds to make each response.  </p><p>  Make sure to respond before time runs out! </p>","","0","instructions","","","","","","","","",""
"learning-instructions","13","88999","0.0-7.0-0.6","1986","2","""event"",""trial"",""time""
""fullscreenenter"",""1"",""3199""
","
","
","""event"",""trial"",""time""
""fullscreenenter"",""1"",""3199""
","
","","","","","","1139.6000000238419","<p> Today, you will see each image ONCE only.  </p><p>  That means none of the images will repeat. </p>","","0","instructions","","","","","","","","",""
"learning-instructions","14","110908","0.0-7.0-0.7","1986","2","""event"",""trial"",""time""
""fullscreenenter"",""1"",""3199""
","
","
","""event"",""trial"",""time""
""fullscreenenter"",""1"",""3199""
","
","","","","","","9228.100000023842","<p> Before you play the real game, it is time to practice. </p><p>  Just like in the real game, some of the images in the practice will be ones you have seen before. </p><p>  Others will be entirely new. </p>","","0","instructions","","","","","","","","",""
"html-button-response","15","116780","0.0-8.0","1986","2","""event"",""trial"",""time""
""fullscreenenter"",""1"",""3199""
","
","
","""event"",""trial"",""time""
""fullscreenenter"",""1"",""3199""
","
","","","","","","5769.300000071526","<p> Ready to practice? </p><p> Remember, use the 1, 2, 3, and 4 keys to make your responses. </p>","0","","instructions","","","","","","","","",""
"html-keyboard-response","16","117408","0.0-9.0-0.0","1986","2","""event"",""trial"",""time""
""fullscreenenter"",""1"",""3199""
","
","
","""event"",""trial"",""time""
""fullscreenenter"",""1"",""3199""
","
","","","","","","null","<div style=""font-size:60px;"">+</div>","null","","fixation","","","","","","","","",""
"memory-trial","17","121409","0.0-9.0-1.0","1986","2","""event"",""trial"",""time""
""fullscreenenter"",""1"",""3199""
","
","
","""event"",""trial"",""time""
""fullscreenenter"",""1"",""3199""
","
","","","","","","2980.100000023842","images/ball1.png","","","practice","1","definitely_old","","","","","","",""
"html-keyboard-response","18","121929","0.0-9.0-0.1","1986","2","""event"",""trial"",""time""
""fullscreenenter"",""1"",""3199""
","
","
","""event"",""trial"",""time""
""fullscreenenter"",""1"",""3199""
","
","","","","","","null","<div style=""font-size:60px;"">+</div>","null","","fixation","","","","","","","","",""
"memory-trial","19","124008","0.0-9.0-1.1","1986","2","""event"",""trial"",""time""
""fullscreenenter"",""1"",""3199""
","
","
","""event"",""trial"",""time""
""fullscreenenter"",""1"",""3199""
","
","","","","","","1058.5999999046326","images/ball2.png","","","practice","1","definitely_old","","","","","","",""
"html-keyboard-response","20","124519","0.0-9.0-0.2","1986","2","""event"",""trial"",""time""
""fullscreenenter"",""1"",""3199""
","
","
","""event"",""trial"",""time""
""fullscreenenter"",""1"",""3199""
","
","","","","","","null","<div style=""font-size:60px;"">+</div>","null","","fixation","","","","","","","","",""
"memory-trial","21","126419","0.0-9.0-1.2","1986","2","""event"",""trial"",""time""
""fullscreenenter"",""1"",""3199""
","
","
","""event"",""trial"",""time""
""fullscreenenter"",""1"",""3199""
","
","","","","","","878.2999999523163","images/racket1.png","","","practice","1","definitely_old","","","","","","",""
"html-keyboard-response","22","126928","0.0-9.0-0.3","1986","2","""event"",""trial"",""time""
""fullscreenenter"",""1"",""3199""
","
","
","""event"",""trial"",""time""
""fullscreenenter"",""1"",""3199""
","
","","","","","","null","<div style=""font-size:60px;"">+</div>","null","","fixation","","","","","","","","",""
"memory-trial","23","128959","0.0-9.0-1.3","1986","2","""event"",""trial"",""time""
""fullscreenenter"",""1"",""3199""
","
","
","""event"",""trial"",""time""
""fullscreenenter"",""1"",""3199""
","
","","","","","","1008.8000000715256","images/ball3.png","","","practice","1","definitely_old","","","","","","",""
"html-keyboard-response","24","129461","0.0-9.0-0.4","1986","2","""event"",""trial"",""time""
""fullscreenenter"",""1"",""3199""
","
","
","""event"",""trial"",""time""
""fullscreenenter"",""1"",""3199""
","
","","","","","","null","<div style=""font-size:60px;"">+</div>","null","","fixation","","","","","","","","",""
"memory-trial","25","131459","0.0-9.0-1.4","1986","2","""event"",""trial"",""time""
""fullscreenenter"",""1"",""3199""
","
","
","""event"",""trial"",""time""
""fullscreenenter"",""1"",""3199""
","
","","","","","","986.5","images/racket3.png","","","practice","1","definitely_old","","","","","","",""
"html-keyboard-response","26","131960","0.0-9.0-0.5","1986","2","""event"",""trial"",""time""
""fullscreenenter"",""1"",""3199""
","
","
","""event"",""trial"",""time""
""fullscreenenter"",""1"",""3199""
","
","","","","","","null","<div style=""font-size:60px;"">+</div>","null","","fixation","","","","","","","","",""
"memory-trial","27","133602","0.0-9.0-1.5","1986","2","""event"",""trial"",""time""
""fullscreenenter"",""1"",""3199""
","
","
","""event"",""trial"",""time""
""fullscreenenter"",""1"",""3199""
","
","","","","","","635.5","images/ball4.png","","","practice","1","definitely_old","","","","","","",""
"html-keyboard-response","28","134104","0.0-9.0-0.6","1986","2","""event"",""trial"",""time""
""fullscreenenter"",""1"",""3199""
","
","
","""event"",""trial"",""time""
""fullscreenenter"",""1"",""3199""
","
","","","","","","null","<div style=""font-size:60px;"">+</div>","null","","fixation","","","","","","","","",""
"memory-trial","29","136010","0.0-9.0-1.6","1986","2","""event"",""trial"",""time""
""fullscreenenter"",""1"",""3199""
","
","
","""event"",""trial"",""time""
""fullscreenenter"",""1"",""3199""
","
","","","","","","903.1000000238419","images/racket4.png","","","practice","1","definitely_old","","","","","","",""
"html-keyboard-response","30","136512","0.0-9.0-0.7","1986","2","""event"",""trial"",""time""
""fullscreenenter"",""1"",""3199""
","
","
","""event"",""trial"",""time""
""fullscreenenter"",""1"",""3199""
","
","","","","","","null","<div style=""font-size:60px;"">+</div>","null","","fixation","","","","","","","","",""
"memory-trial","31","138342","0.0-9.0-1.7","1986","2","""event"",""trial"",""time""
""fullscreenenter"",""1"",""3199""
","
","
","""event"",""trial"",""time""
""fullscreenenter"",""1"",""3199""
","
","","","","","","824.5","images/racket2.png","","","practice","4","definitely_new","","","","","","",""
"learning-instructions","32","148041","0.0-10.0-0.0","1986","2","""event"",""trial"",""time""
""fullscreenenter"",""1"",""3199""
","
","
","""event"",""trial"",""time""
""fullscreenenter"",""1"",""3199""
","
","","","","","","1652.1000000238419","<p> Great! You have completed the practice. </p><p> Before you start, we're going to ask you a few questions about how the game works.  </p>","","0","instructions","","","","","","","","",""
"preload","33","150658","0.0-11.0","1986","2","""event"",""trial"",""time""
""fullscreenenter"",""1"",""3199""
","
","
","""event"",""trial"",""time""
""fullscreenenter"",""1"",""3199""
","
","true","false","[]","[]","[]","","","","","","","","","","","","","",""
"comp-q","34","159677","0.0-12.0-0.0","1986","2","""event"",""trial"",""time""
""fullscreenenter"",""1"",""3199""
","
","
","""event"",""trial"",""time""
""fullscreenenter"",""1"",""3199""
","
","","","","","","3188.5","<p> <b> True or False? </b> </p><p> In this game, you will only see each image once. </p>","","0","comp_question","","","true","","","","","",""
"comp-q","35","168249","0.0-12.0-1.0","1986","2","""event"",""trial"",""time""
""fullscreenenter"",""1"",""3199""
","
","
","""event"",""trial"",""time""
""fullscreenenter"",""1"",""3199""
","
","","","","","","2221.2000000476837","<p> <b> That's right! </b> You will see many different images <i> one time each </i> in this game. </p>","","0","comp_answer","","","","","","","","",""
"comp-q","36","175050","0.0-12.0-0.1","1986","2","""event"",""trial"",""time""
""fullscreenenter"",""1"",""3199""
","
","
","""event"",""trial"",""time""
""fullscreenenter"",""1"",""3199""
","
","","","","","","982.3000000715256","<p> <b> True or False? </b> </p><p> You should use the mouse and click to make your response. </p>","","1","comp_question","","","true","","","","","",""
"comp-q","37","184631","0.0-12.0-1.1","1986","2","""event"",""trial"",""time""
""fullscreenenter"",""1"",""3199""
","
","
","""event"",""trial"",""time""
""fullscreenenter"",""1"",""3199""
","
","","","","","","2233.399999976158","<p><b> That's right! </b> You should use the '1', '2', '3', and '4' keys to make your response. </p>","","0","comp_answer","","","","","","","","",""
"comp-q","38","191573","0.0-12.0-0.2","1986","2","""event"",""trial"",""time""
""fullscreenenter"",""1"",""3199""
","
","
","""event"",""trial"",""time""
""fullscreenenter"",""1"",""3199""
","
","","","","","","946.5","<p> <b> True or False? </b> </p><p> You will have as much time as you want to make each choice. </p>","","1","comp_question","","","true","","","","","",""
"comp-q","39","197739","0.0-12.0-1.2","1986","2","""event"",""trial"",""time""
""fullscreenenter"",""1"",""3199""
","
","
","""event"",""trial"",""time""
""fullscreenenter"",""1"",""3199""
","
","","","","","","772.1000000238419","<p> <b> That's right! </b> You will only have 10 seconds to make each choice. </p>","","0","comp_answer","","","","","","","","",""
"learning-instructions","40","207803","0.0-13.0","1986","2","""event"",""trial"",""time""
""fullscreenenter"",""1"",""3199""
","
","
","""event"",""trial"",""time""
""fullscreenenter"",""1"",""3199""
","
","","","","","","1385.5","<p> Great! You are now ready to begin the game. </p><p> Remember, use the 1, 2, 3, and 4 keys to make your responses. </p>","","0","instructions","","","","","","","","",""
"preload","41","212155","0.0-14.0","1986","2","""event"",""trial"",""time""
""fullscreenenter"",""1"",""3199""
","
","
","""event"",""trial"",""time""
""fullscreenenter"",""1"",""3199""
","
","true","false","[]","[]","[]","","","","","","","","","","","","","",""
"html-keyboard-response","42","212657","0.0-15.0-0.0","1986","2","""event"",""trial"",""time""
""fullscreenenter"",""1"",""3199""
","
","
","""event"",""trial"",""time""
""fullscreenenter"",""1"",""3199""
","
","","","","","","null","<div style=""font-size:60px;"">+</div>","null","","fixation","","","","","","","","",""
"memory-trial","43","215227","0.0-15.0-1.0","1986","2","""event"",""trial"",""time""
""fullscreenenter"",""1"",""3199""
","
","
","""event"",""trial"",""time""
""fullscreenenter"",""1"",""3199""
","
","","","","","","1488.8999999761581","images/bed1.png","","","memory_trial","1","definitely_old","","","","","","",""
"html-keyboard-response","44","215806","0.0-15.0-0.1","1986","2","""event"",""trial"",""time""
""fullscreenenter"",""1"",""3199""
","
","
","""event"",""trial"",""time""
""fullscreenenter"",""1"",""3199""
","
","","","","","","null","<div style=""font-size:60px;"">+</div>","null","","fixation","","","","","","","","",""
"memory-trial","45","218046","0.0-15.0-1.1","1986","2","""event"",""trial"",""time""
""fullscreenenter"",""1"",""3199""
","
","
","""event"",""trial"",""time""
""fullscreenenter"",""1"",""3199""
","
","","","","","","1219.2000000476837","images/table4.png","","","memory_trial","4","definitely_new","","","","","","",""
"html-keyboard-response","46","218551","0.0-15.0-0.2","1986","2","""event"",""trial"",""time""
""fullscreenenter"",""1"",""3199""
","
","
","""event"",""trial"",""time""
""fullscreenenter"",""1"",""3199""
","
","","","","","","null","<div style=""font-size:60px;"">+</div>","null","","fixation","","","","","","","","",""
"memory-trial","47","221227","0.0-15.0-1.2","1986","2","""event"",""trial"",""time""
""fullscreenenter"",""1"",""3199""
","
","
","""event"",""trial"",""time""
""fullscreenenter"",""1"",""3199""
","
","","","","","","1667.1000000238419","images/feline4.png","","","memory_trial","4","definitely_new","","","","","","",""
"html-keyboard-response","48","221746","0.0-15.0-0.3","1986","2","""event"",""trial"",""time""
""fullscreenenter"",""1"",""3199""
","
","
","""event"",""trial"",""time""
""fullscreenenter"",""1"",""3199""
","
","","","","","","null","<div style=""font-size:60px;"">+</div>","null","","fixation","","","","","","","","",""
"memory-trial","49","223786","0.0-15.0-1.3","1986","2","""event"",""trial"",""time""
""fullscreenenter"",""1"",""3199""
","
","
","""event"",""trial"",""time""
""fullscreenenter"",""1"",""3199""
","
","","","","","","1029","images/tree5.png","","","memory_trial","4","definitely_new","","","","","","",""
"html-keyboard-response","50","224296","0.0-15.0-0.4","1986","2","""event"",""trial"",""time""
""fullscreenenter"",""1"",""3199""
","
","
","""event"",""trial"",""time""
""fullscreenenter"",""1"",""3199""
","
","","","","","","null","<div style=""font-size:60px;"">+</div>","null","","fixation","","","","","","","","",""
"memory-trial","51","226247","0.0-15.0-1.4","1986","2","""event"",""trial"",""time""
""fullscreenenter"",""1"",""3199""
","
","
","""event"",""trial"",""time""
""fullscreenenter"",""1"",""3199""
","
","","","","","","930","images/flower2.png","","","memory_trial","1","definitely_old","","","","","","",""
"html-keyboard-response","52","226756","0.0-15.0-0.5","1986","2","""event"",""trial"",""time""
""fullscreenenter"",""1"",""3199""
","
","
","""event"",""trial"",""time""
""fullscreenenter"",""1"",""3199""
","
","","","","","","null","<div style=""font-size:60px;"">+</div>","null","","fixation","","","","","","","","",""
"memory-trial","53","229206","0.0-15.0-1.5","1986","2","""event"",""trial"",""time""
""fullscreenenter"",""1"",""3199""
","
","
","""event"",""trial"",""time""
""fullscreenenter"",""1"",""3199""
","
","","","","","","1438.6000000238419","images/horse3.png","","","memory_trial","1","definitely_old","","","","","","",""
"html-keyboard-response","54","229726","0.0-15.0-0.6","1986","2","""event"",""trial"",""time""
""fullscreenenter"",""1"",""3199""
","
","
","""event"",""trial"",""time""
""fullscreenenter"",""1"",""3199""
","
","","","","","","null","<div style=""font-size:60px;"">+</div>","null","","fixation","","","","","","","","",""
"memory-trial","55","231626","0.0-15.0-1.6","1986","2","""event"",""trial"",""time""
""fullscreenenter"",""1"",""3199""
","
","
","""event"",""trial"",""time""
""fullscreenenter"",""1"",""3199""
","
","","","","","","890.6000000238419","images/cow2.png","","","memory_trial","4","definitely_new","","","","","","",""
"html-keyboard-response","56","232136","0.0-15.0-0.7","1986","2","""event"",""trial"",""time""
""fullscreenenter"",""1"",""3199""
","
","
","""event"",""trial"",""time""
""fullscreenenter"",""1"",""3199""
","
","","","","","","null","<div style=""font-size:60px;"">+</div>","null","","fixation","","","","","","","","",""
"memory-trial","57","234097","0.0-15.0-1.7","1986","2","""event"",""trial"",""time""
""fullscreenenter"",""1"",""3199""
","
","
","""event"",""trial"",""time""
""fullscreenenter"",""1"",""3199""
","
","","","","","","950","images/bush4.png","","","memory_trial","1","definitely_old","","","","","","",""
"html-keyboard-response","58","234606","0.0-15.0-0.8","1986","2","""event"",""trial"",""time""
""fullscreenenter"",""1"",""3199""
","
","
","""event"",""trial"",""time""
""fullscreenenter"",""1"",""3199""
","
","","","","","","null","<div style=""font-size:60px;"">+</div>","null","","fixation","","","","","","","","",""
"memory-trial","59","236610","0.0-15.0-1.8","1986","2","""event"",""trial"",""time""
""fullscreenenter"",""1"",""3199""
","
","
","""event"",""trial"",""time""
""fullscreenenter"",""1"",""3199""
","
","","","","","","1000.1999999284744","images/tree4.png","","","memory_trial","4","definitely_new","","","","","","",""
"html-keyboard-response","60","237112","0.0-15.0-0.9","1986","2","""event"",""trial"",""time""
""fullscreenenter"",""1"",""3199""
","
","
","""event"",""trial"",""time""
""fullscreenenter"",""1"",""3199""
","
","","","","","","null","<div style=""font-size:60px;"">+</div>","null","","fixation","","","","","","","","",""
"memory-trial","61","239730","0.0-15.0-1.9","1986","2","""event"",""trial"",""time""
""fullscreenenter"",""1"",""3199""
","
","
","""event"",""trial"",""time""
""fullscreenenter"",""1"",""3199""
","
","","","","","","1613.6000000238419","images/bush3.png","","","memory_trial","4","definitely_new","","","","","","",""
"html-keyboard-response","62","240232","0.0-15.0-0.10","1986","2","""event"",""trial"",""time""
""fullscreenenter"",""1"",""3199""
","
","
","""event"",""trial"",""time""
""fullscreenenter"",""1"",""3199""
","
","","","","","","null","<div style=""font-size:60px;"">+</div>","null","","fixation","","","","","","","","",""
"memory-trial","63","243560","0.0-15.0-1.10","1986","2","""event"",""trial"",""time""
""fullscreenenter"",""1"",""3199""
","
","
","""event"",""trial"",""time""
""fullscreenenter"",""1"",""3199""
","
","","","","","","2324.2000000476837","images/sheep5.png","","","memory_trial","4","definitely_new","","","","","","",""
"html-keyboard-response","64","244063","0.0-15.0-0.11","1986","2","""event"",""trial"",""time""
""fullscreenenter"",""1"",""3199""
","
","
","""event"",""trial"",""time""
""fullscreenenter"",""1"",""3199""
","
","","","","","","null","<div style=""font-size:60px;"">+</div>","null","","fixation","","","","","","","","",""
"memory-trial","65","246432","0.0-15.0-1.11","1986","2","""event"",""trial"",""time""
""fullscreenenter"",""1"",""3199""
","
","
","""event"",""trial"",""time""
""fullscreenenter"",""1"",""3199""
","
","","","","","","1362.7999999523163","images/train5.png","","","memory_trial","1","definitely_old","","","","","","",""
"html-keyboard-response","66","246934","0.0-15.0-0.12","1986","2","""event"",""trial"",""time""
""fullscreenenter"",""1"",""3199""
","
","
","""event"",""trial"",""time""
""fullscreenenter"",""1"",""3199""
","
","","","","","","null","<div style=""font-size:60px;"">+</div>","null","","fixation","","","","","","","","",""
"memory-trial","67","249215","0.0-15.0-1.12","1986","2","""event"",""trial"",""time""
""fullscreenenter"",""1"",""3199""
","
","
","""event"",""trial"",""time""
""fullscreenenter"",""1"",""3199""
","
","","","","","","1271.7999999523163","images/train2.png","","","memory_trial","4","definitely_new","","","","","","",""
"html-keyboard-response","68","249717","0.0-15.0-0.13","1986","2","""event"",""trial"",""time""
""fullscreenenter"",""1"",""3199""
","
","
","""event"",""trial"",""time""
""fullscreenenter"",""1"",""3199""
","
","","","","","","null","<div style=""font-size:60px;"">+</div>","null","","fixation","","","","","","","","",""
"memory-trial","69","251711","0.0-15.0-1.13","1986","2","""event"",""trial"",""time""
""fullscreenenter"",""1"",""3199""
","
","
","""event"",""trial"",""time""
""fullscreenenter"",""1"",""3199""
","
","","","","","","989.3999999761581","images/apple1.png","","","memory_trial","1","definitely_old","","","","","","",""
"html-keyboard-response","70","252213","0.0-15.0-0.14","1986","2","""event"",""trial"",""time""
""fullscreenenter"",""1"",""3199""
","
","
","""event"",""trial"",""time""
""fullscreenenter"",""1"",""3199""
","
","","","","","","null","<div style=""font-size:60px;"">+</div>","null","","fixation","","","","","","","","",""
"memory-trial","71","256349","0.0-15.0-1.14","1986","2","""event"",""trial"",""time""
""fullscreenenter"",""1"",""3199""
","
","
","""event"",""trial"",""time""
""fullscreenenter"",""1"",""3199""
","
","","","","","","3132.8000000715256","images/goat3.png","","","memory_trial","4","definitely_new","","","","","","",""
"html-keyboard-response","72","256851","0.0-15.0-0.15","1986","2","""event"",""trial"",""time""
""fullscreenenter"",""1"",""3199""
","
","
","""event"",""trial"",""time""
""fullscreenenter"",""1"",""3199""
","
","","","","","","null","<div style=""font-size:60px;"">+</div>","null","","fixation","","","","","","","","",""
"memory-trial","73","259270","0.0-15.0-1.15","1986","2","""event"",""trial"",""time""
""fullscreenenter"",""1"",""3199""
","
","
","""event"",""trial"",""time""
""fullscreenenter"",""1"",""3199""
","
","","","","","","1413.5999999046326","images/sheep4.png","","","memory_trial","4","definitely_new","","","","","","",""
"html-keyboard-response","74","259773","0.0-15.0-0.16","1986","2","""event"",""trial"",""time""
""fullscreenenter"",""1"",""3199""
","
","
","""event"",""trial"",""time""
""fullscreenenter"",""1"",""3199""
","
","","","","","","null","<div style=""font-size:60px;"">+</div>","null","","fixation","","","","","","","","",""
"memory-trial","75","262120","0.0-15.0-1.16","1986","2","""event"",""trial"",""time""
""fullscreenenter"",""1"",""3199""
","
","
","""event"",""trial"",""time""
""fullscreenenter"",""1"",""3199""
","
","","","","","","1344.5","images/truck5.png","","","memory_trial","4","definitely_new","","","","","","",""
"html-keyboard-response","76","262623","0.0-15.0-0.17","1986","2","""event"",""trial"",""time""
""fullscreenenter"",""1"",""3199""
","
","
","""event"",""trial"",""time""
""fullscreenenter"",""1"",""3199""
","
","","","","","","null","<div style=""font-size:60px;"">+</div>","null","","fixation","","","","","","","","",""
"memory-trial","77","264621","0.0-15.0-1.17","1986","2","""event"",""trial"",""time""
""fullscreenenter"",""1"",""3199""
","
","
","""event"",""trial"",""time""
""fullscreenenter"",""1"",""3199""
","
","","","","","","993.5","images/dog4.png","","","memory_trial","1","definitely_old","","","","","","",""
"html-keyboard-response","78","265122","0.0-15.0-0.18","1986","2","""event"",""trial"",""time""
""fullscreenenter"",""1"",""3199""
","
","
","""event"",""trial"",""time""
""fullscreenenter"",""1"",""3199""
","
","","","","","","null","<div style=""font-size:60px;"">+</div>","null","","fixation","","","","","","","","",""
"memory-trial","79","267129","0.0-15.0-1.18","1986","2","""event"",""trial"",""time""
""fullscreenenter"",""1"",""3199""
","
","
","""event"",""trial"",""time""
""fullscreenenter"",""1"",""3199""
","
","","","","","","1001.8999999761581","images/sofa2.png","","","memory_trial","1","definitely_old","","","","","","",""
"html-keyboard-response","80","267632","0.0-15.0-0.19","1986","2","""event"",""trial"",""time""
""fullscreenenter"",""1"",""3199""
","
","
","""event"",""trial"",""time""
""fullscreenenter"",""1"",""3199""
","
","","","","","","null","<div style=""font-size:60px;"">+</div>","null","","fixation","","","","","","","","",""
"memory-trial","81","269840","0.0-15.0-1.19","1986","2","""event"",""trial"",""time""
""fullscreenenter"",""1"",""3199""
","
","
","""event"",""trial"",""time""
""fullscreenenter"",""1"",""3199""
","
","","","","","","1203.8999999761581","images/rabbit4.png","","","memory_trial","4","definitely_new","","","","","","",""
"html-keyboard-response","82","270342","0.0-15.0-0.20","1986","2","""event"",""trial"",""time""
""fullscreenenter"",""1"",""3199""
","
","
","""event"",""trial"",""time""
""fullscreenenter"",""1"",""3199""
","
","","","","","","null","<div style=""font-size:60px;"">+</div>","null","","fixation","","","","","","","","",""
"memory-trial","83","272580","0.0-15.0-1.20","1986","2","""event"",""trial"",""time""
""fullscreenenter"",""1"",""3199""
","
","
","""event"",""trial"",""time""
""fullscreenenter"",""1"",""3199""
","
","","","","","","1233.8999999761581","images/truck1.png","","","memory_trial","4","definitely_new","","","","","","",""
"html-keyboard-response","84","273082","0.0-15.0-0.21","1986","2","""event"",""trial"",""time""
""fullscreenenter"",""1"",""3199""
","
","
","""event"",""trial"",""time""
""fullscreenenter"",""1"",""3199""
","
","","","","","","null","<div style=""font-size:60px;"">+</div>","null","","fixation","","","","","","","","",""
"memory-trial","85","275310","0.0-15.0-1.21","1986","2","""event"",""trial"",""time""
""fullscreenenter"",""1"",""3199""
","
","
","""event"",""trial"",""time""
""fullscreenenter"",""1"",""3199""
","
","","","","","","1222.6000000238419","images/rabbit5.png","","","memory_trial","4","definitely_new","","","","","","",""
"html-keyboard-response","86","275813","0.0-15.0-0.22","1986","2","""event"",""trial"",""time""
""fullscreenenter"",""1"",""3199""
","
","
","""event"",""trial"",""time""
""fullscreenenter"",""1"",""3199""
","
","","","","","","null","<div style=""font-size:60px;"">+</div>","null","","fixation","","","","","","","","",""
"memory-trial","87","278559","0.0-15.0-1.22","1986","2","""event"",""trial"",""time""
""fullscreenenter"",""1"",""3199""
","
","
","""event"",""trial"",""time""
""fullscreenenter"",""1"",""3199""
","
","","","","","","1742.8999999761581","images/banana2.png","","","memory_trial","4","definitely_new","","","","","","",""
"html-keyboard-response","88","279062","0.0-15.0-0.23","1986","2","""event"",""trial"",""time""
""fullscreenenter"",""1"",""3199""
","
","
","""event"",""trial"",""time""
""fullscreenenter"",""1"",""3199""
","
","","","","","","null","<div style=""font-size:60px;"">+</div>","null","","fixation","","","","","","","","",""
"memory-trial","89","281490","0.0-15.0-1.23","1986","2","""event"",""trial"",""time""
""fullscreenenter"",""1"",""3199""
","
","
","""event"",""trial"",""time""
""fullscreenenter"",""1"",""3199""
","
","","","","","","1423","images/feline1.png","","","memory_trial","4","definitely_new","","","","","","",""
"html-keyboard-response","90","281992","0.0-15.0-0.24","1986","2","""event"",""trial"",""time""
""fullscreenenter"",""1"",""3199""
","
","
","""event"",""trial"",""time""
""fullscreenenter"",""1"",""3199""
","
","","","","","","null","<div style=""font-size:60px;"">+</div>","null","","fixation","","","","","","","","",""
"memory-trial","91","284150","0.0-15.0-1.24","1986","2","""event"",""trial"",""time""
""fullscreenenter"",""1"",""3199""
","
","
","""event"",""trial"",""time""
""fullscreenenter"",""1"",""3199""
","
","","","","","","1153.5999999046326","images/tree1.png","","","memory_trial","4","definitely_new","","","","","","",""
"html-keyboard-response","92","284652","0.0-15.0-0.25","1986","2","""event"",""trial"",""time""
""fullscreenenter"",""1"",""3199""
","
","
","""event"",""trial"",""time""
""fullscreenenter"",""1"",""3199""
","
","","","","","","null","<div style=""font-size:60px;"">+</div>","null","","fixation","","","","","","","","",""
"memory-trial","93","288460","0.0-15.0-1.25","1986","2","""event"",""trial"",""time""
""fullscreenenter"",""1"",""3199""
","
","
","""event"",""trial"",""time""
""fullscreenenter"",""1"",""3199""
","
","","","","","","2804.899999976158","images/chair3.png","","","memory_trial","1","definitely_old","","","","","","",""
"html-keyboard-response","94","288963","0.0-15.0-0.26","1986","2","""event"",""trial"",""time""
""fullscreenenter"",""1"",""3199""
","
","
","""event"",""trial"",""time""
""fullscreenenter"",""1"",""3199""
","
","","","","","","null","<div style=""font-size:60px;"">+</div>","null","","fixation","","","","","","","","",""
"memory-trial","95","291109","0.0-15.0-1.26","1986","2","""event"",""trial"",""time""
""fullscreenenter"",""1"",""3199""
","
","
","""event"",""trial"",""time""
""fullscreenenter"",""1"",""3199""
","
","","","","","","1141.6000000238419","images/rabbit3.png","","","memory_trial","1","definitely_old","","","","","","",""
"html-keyboard-response","96","291611","0.0-15.0-0.27","1986","2","""event"",""trial"",""time""
""fullscreenenter"",""1"",""3199""
","
","
","""event"",""trial"",""time""
""fullscreenenter"",""1"",""3199""
","
","","","","","","null","<div style=""font-size:60px;"">+</div>","null","","fixation","","","","","","","","",""
"memory-trial","97","294330","0.0-15.0-1.27","1986","2","""event"",""trial"",""time""
""fullscreenenter"",""1"",""3199""
","
","
","""event"",""trial"",""time""
""fullscreenenter"",""1"",""3199""
","
","","","","","","1715.2000000476837","images/plane2.png","","","memory_trial","4","definitely_new","","","","","","",""
"html-keyboard-response","98","294832","0.0-15.0-0.28","1986","2","""event"",""trial"",""time""
""fullscreenenter"",""1"",""3199""
","
","
","""event"",""trial"",""time""
""fullscreenenter"",""1"",""3199""
","
","","","","","","null","<div style=""font-size:60px;"">+</div>","null","","fixation","","","","","","","","",""
"memory-trial","99","296789","0.0-15.0-1.28","1986","2","""event"",""trial"",""time""
""fullscreenenter"",""1"",""3199""
","
","
","""event"",""trial"",""time""
""fullscreenenter"",""1"",""3199""
","
","","","","","","950.1999999284744","images/rodent5.png","","","memory_trial","1","definitely_old","","","","","","",""
"html-keyboard-response","100","297291","0.0-15.0-0.29","1986","2","""event"",""trial"",""time""
""fullscreenenter"",""1"",""3199""
","
","
","""event"",""trial"",""time""
""fullscreenenter"",""1"",""3199""
","
","","","","","","null","<div style=""font-size:60px;"">+</div>","null","","fixation","","","","","","","","",""
"memory-trial","101","299730","0.0-15.0-1.29","1986","2","""event"",""trial"",""time""
""fullscreenenter"",""1"",""3199""
","
","
","""event"",""trial"",""time""
""fullscreenenter"",""1"",""3199""
","
","","","","","","1434.5","images/train4.png","","","memory_trial","4","definitely_new","","","","","","",""
"html-keyboard-response","102","300232","0.0-15.0-0.30","1986","2","""event"",""trial"",""time""
""fullscreenenter"",""1"",""3199""
","
","
","""event"",""trial"",""time""
""fullscreenenter"",""1"",""3199""
","
","","","","","","null","<div style=""font-size:60px;"">+</div>","null","","fixation","","","","","","","","",""
"memory-trial","103","302421","0.0-15.0-1.30","1986","2","""event"",""trial"",""time""
""fullscreenenter"",""1"",""3199""
","
","
","""event"",""trial"",""time""
""fullscreenenter"",""1"",""3199""
","
","","","","","","1173.3999999761581","images/apple3.png","","","memory_trial","1","definitely_old","","","","","","",""
"html-keyboard-response","104","302923","0.0-15.0-0.31","1986","2","""event"",""trial"",""time""
""fullscreenenter"",""1"",""3199""
","
","
","""event"",""trial"",""time""
""fullscreenenter"",""1"",""3199""
","
","","","","","","null","<div style=""font-size:60px;"">+</div>","null","","fixation","","","","","","","","",""
"memory-trial","105","304850","0.0-15.0-1.31","1986","2","""event"",""trial"",""time""
""fullscreenenter"",""1"",""3199""
","
","
","""event"",""trial"",""time""
""fullscreenenter"",""1"",""3199""
","
","","","","","","922.1000000238419","images/orange4.png","","","memory_trial","1","definitely_old","","","","","","",""
"html-keyboard-response","106","305352","0.0-15.0-0.32","1986","2","""event"",""trial"",""time""
""fullscreenenter"",""1"",""3199""
","
","
","""event"",""trial"",""time""
""fullscreenenter"",""1"",""3199""
","
","","","","","","null","<div style=""font-size:60px;"">+</div>","null","","fixation","","","","","","","","",""
"memory-trial","107","307200","0.0-15.0-1.32","1986","2","""event"",""trial"",""time""
""fullscreenenter"",""1"",""3199""
","
","
","""event"",""trial"",""time""
""fullscreenenter"",""1"",""3199""
","
","","","","","","843.6999999284744","images/plane5.png","","","memory_trial","1","definitely_old","","","","","","",""
"html-keyboard-response","108","307716","0.0-15.0-0.33","1986","2","""event"",""trial"",""time""
""fullscreenenter"",""1"",""3199""
","
","
","""event"",""trial"",""time""
""fullscreenenter"",""1"",""3199""
","
","","","","","","null","<div style=""font-size:60px;"">+</div>","null","","fixation","","","","","","","","",""
"memory-trial","109","309630","0.0-15.0-1.33","1986","2","""event"",""trial"",""time""
""fullscreenenter"",""1"",""3199""
","
","
","""event"",""trial"",""time""
""fullscreenenter"",""1"",""3199""
","
","","","","","","909","images/train1.png","","","memory_trial","1","definitely_old","","","","","","",""
"html-keyboard-response","110","310132","0.0-15.0-0.34","1986","2","""event"",""trial"",""time""
""fullscreenenter"",""1"",""3199""
","
","
","""event"",""trial"",""time""
""fullscreenenter"",""1"",""3199""
","
","","","","","","null","<div style=""font-size:60px;"">+</div>","null","","fixation","","","","","","","","",""
"memory-trial","111","312350","0.0-15.0-1.34","1986","2","""event"",""trial"",""time""
""fullscreenenter"",""1"",""3199""
","
","
","""event"",""trial"",""time""
""fullscreenenter"",""1"",""3199""
","
","","","","","","1213.5","images/rodent3.png","","","memory_trial","1","definitely_old","","","","","","",""
"html-keyboard-response","112","312852","0.0-15.0-0.35","1986","2","""event"",""trial"",""time""
""fullscreenenter"",""1"",""3199""
","
","
","""event"",""trial"",""time""
""fullscreenenter"",""1"",""3199""
","
","","","","","","null","<div style=""font-size:60px;"">+</div>","null","","fixation","","","","","","","","",""
"memory-trial","113","314910","0.0-15.0-1.35","1986","2","""event"",""trial"",""time""
""fullscreenenter"",""1"",""3199""
","
","
","""event"",""trial"",""time""
""fullscreenenter"",""1"",""3199""
","
","","","","","","1052.4000000953674","images/sheep3.png","","","memory_trial","4","definitely_new","","","","","","",""
"html-keyboard-response","114","315413","0.0-15.0-0.36","1986","2","""event"",""trial"",""time""
""fullscreenenter"",""1"",""3199""
","
","
","""event"",""trial"",""time""
""fullscreenenter"",""1"",""3199""
","
","","","","","","null","<div style=""font-size:60px;"">+</div>","null","","fixation","","","","","","","","",""
"memory-trial","115","317280","0.0-15.0-1.36","1986","2","""event"",""trial"",""time""
""fullscreenenter"",""1"",""3199""
","
","
","""event"",""trial"",""time""
""fullscreenenter"",""1"",""3199""
","
","","","","","","862.6000000238419","images/tree2.png","","","memory_trial","4","definitely_new","","","","","","",""
"html-keyboard-response","116","317782","0.0-15.0-0.37","1986","2","""event"",""trial"",""time""
""fullscreenenter"",""1"",""3199""
","
","
","""event"",""trial"",""time""
""fullscreenenter"",""1"",""3199""
","
","","","","","","null","<div style=""font-size:60px;"">+</div>","null","","fixation","","","","","","","","",""
"memory-trial","117","319720","0.0-15.0-1.37","1986","2","""event"",""trial"",""time""
""fullscreenenter"",""1"",""3199""
","
","
","""event"",""trial"",""time""
""fullscreenenter"",""1"",""3199""
","
","","","","","","934.2000000476837","images/table3.png","","","memory_trial","4","definitely_new","","","","","","",""
"html-keyboard-response","118","320222","0.0-15.0-0.38","1986","2","""event"",""trial"",""time""
""fullscreenenter"",""1"",""3199""
","
","
","""event"",""trial"",""time""
""fullscreenenter"",""1"",""3199""
","
","","","","","","null","<div style=""font-size:60px;"">+</div>","null","","fixation","","","","","","","","",""
"memory-trial","119","322190","0.0-15.0-1.38","1986","2","""event"",""trial"",""time""
""fullscreenenter"",""1"",""3199""
","
","
","""event"",""trial"",""time""
""fullscreenenter"",""1"",""3199""
","
","","","","","","963.6000000238419","images/boat3.png","","","memory_trial","1","definitely_old","","","","","","",""
"html-keyboard-response","120","322693","0.0-15.0-0.39","1986","2","""event"",""trial"",""time""
""fullscreenenter"",""1"",""3199""
","
","
","""event"",""trial"",""time""
""fullscreenenter"",""1"",""3199""
","
","","","","","","null","<div style=""font-size:60px;"">+</div>","null","","fixation","","","","","","","","",""
"memory-trial","121","324490","0.0-15.0-1.39","1986","2","""event"",""trial"",""time""
""fullscreenenter"",""1"",""3199""
","
","
","""event"",""trial"",""time""
""fullscreenenter"",""1"",""3199""
","
","","","","","","792.5","images/goat5.png","","","memory_trial","1","definitely_old","","","","","","",""
"html-keyboard-response","122","324993","0.0-15.0-0.40","1986","2","""event"",""trial"",""time""
""fullscreenenter"",""1"",""3199""
","
","
","""event"",""trial"",""time""
""fullscreenenter"",""1"",""3199""
","
","","","","","","null","<div style=""font-size:60px;"">+</div>","null","","fixation","","","","","","","","",""
"memory-trial","123","327181","0.0-15.0-1.40","1986","2","""event"",""trial"",""time""
""fullscreenenter"",""1"",""3199""
","
","
","""event"",""trial"",""time""
""fullscreenenter"",""1"",""3199""
","
","","","","","","1181.9000000953674","images/plane3.png","","","memory_trial","4","definitely_new","","","","","","",""
"html-keyboard-response","124","327683","0.0-15.0-0.41","1986","2","""event"",""trial"",""time""
""fullscreenenter"",""1"",""3199""
","
","
","""event"",""trial"",""time""
""fullscreenenter"",""1"",""3199""
","
","","","","","","null","<div style=""font-size:60px;"">+</div>","null","","fixation","","","","","","","","",""
"memory-trial","125","329820","0.0-15.0-1.41","1986","2","""event"",""trial"",""time""
""fullscreenenter"",""1"",""3199""
","
","
","""event"",""trial"",""time""
""fullscreenenter"",""1"",""3199""
","
","","","","","","1132.1000000238419","images/feline2.png","","","memory_trial","4","definitely_new","","","","","","",""
"html-keyboard-response","126","330323","0.0-15.0-0.42","1986","2","""event"",""trial"",""time""
""fullscreenenter"",""1"",""3199""
","
","
","""event"",""trial"",""time""
""fullscreenenter"",""1"",""3199""
","
","","","","","","null","<div style=""font-size:60px;"">+</div>","null","","fixation","","","","","","","","",""
"memory-trial","127","332400","0.0-15.0-1.42","1986","2","""event"",""trial"",""time""
""fullscreenenter"",""1"",""3199""
","
","
","""event"",""trial"",""time""
""fullscreenenter"",""1"",""3199""
","
","","","","","","1072.6999999284744","images/bush2.png","","","memory_trial","1","definitely_old","","","","","","",""
"html-keyboard-response","128","332914","0.0-15.0-0.43","1986","2","""event"",""trial"",""time""
""fullscreenenter"",""1"",""3199""
","
","
","""event"",""trial"",""time""
""fullscreenenter"",""1"",""3199""
","
","","","","","","null","<div style=""font-size:60px;"">+</div>","null","","fixation","","","","","","","","",""
"memory-trial","129","335150","0.0-15.0-1.43","1986","2","""event"",""trial"",""time""
""fullscreenenter"",""1"",""3199""
","
","
","""event"",""trial"",""time""
""fullscreenenter"",""1"",""3199""
","
","","","","","","1230.3999999761581","images/cow4.png","","","memory_trial","1","definitely_old","","","","","","",""
"html-keyboard-response","130","335652","0.0-15.0-0.44","1986","2","""event"",""trial"",""time""
""fullscreenenter"",""1"",""3199""
","
","
","""event"",""trial"",""time""
""fullscreenenter"",""1"",""3199""
","
","","","","","","null","<div style=""font-size:60px;"">+</div>","null","","fixation","","","","","","","","",""
"memory-trial","131","337800","0.0-15.0-1.44","1986","2","""event"",""trial"",""time""
""fullscreenenter"",""1"",""3199""
","
","
","""event"",""trial"",""time""
""fullscreenenter"",""1"",""3199""
","
","","","","","","1144.2000000476837","images/flower5.png","","","memory_trial","1","definitely_old","","","","","","",""
"html-keyboard-response","132","338302","0.0-15.0-0.45","1986","2","""event"",""trial"",""time""
""fullscreenenter"",""1"",""3199""
","
","
","""event"",""trial"",""time""
""fullscreenenter"",""1"",""3199""
","
","","","","","","null","<div style=""font-size:60px;"">+</div>","null","","fixation","","","","","","","","",""
"memory-trial","133","340389","0.0-15.0-1.45","1986","2","""event"",""trial"",""time""
""fullscreenenter"",""1"",""3199""
","
","
","""event"",""trial"",""time""
""fullscreenenter"",""1"",""3199""
","
","","","","","","1083.9000000953674","images/sofa4.png","","","memory_trial","1","definitely_old","","","","","","",""
"html-keyboard-response","134","340892","0.0-15.0-0.46","1986","2","""event"",""trial"",""time""
""fullscreenenter"",""1"",""3199""
","
","
","""event"",""trial"",""time""
""fullscreenenter"",""1"",""3199""
","
","","","","","","null","<div style=""font-size:60px;"">+</div>","null","","fixation","","","","","","","","",""
"memory-trial","135","343160","0.0-15.0-1.46","1986","2","""event"",""trial"",""time""
""fullscreenenter"",""1"",""3199""
","
","
","""event"",""trial"",""time""
""fullscreenenter"",""1"",""3199""
","
","","","","","","1262.3000000715256","images/boat5.png","","","memory_trial","1","definitely_old","","","","","","",""
"html-button-response","136","346562","0.0-15.0-2.46-0.46","1986","2","""event"",""trial"",""time""
""fullscreenenter"",""1"",""3199""
","
","
","""event"",""trial"",""time""
""fullscreenenter"",""1"",""3199""
","
","","","","","","3400.2000000476837","<p> Take a break! </p><p> Click the button to continue. </p>","0","","break","","","","","","","","",""
"html-keyboard-response","137","347064","0.0-15.0-0.47","1986","2","""event"",""trial"",""time""
""fullscreenenter"",""1"",""3199""
","
","
","""event"",""trial"",""time""
""fullscreenenter"",""1"",""3199""
","
","","","","","","null","<div style=""font-size:60px;"">+</div>","null","","fixation","","","","","","","","",""
"memory-trial","138","349651","0.0-15.0-1.47","1986","2","""event"",""trial"",""time""
""fullscreenenter"",""1"",""3199""
","
","
","""event"",""trial"",""time""
""fullscreenenter"",""1"",""3199""
","
","","","","","","1580.1999999284744","images/sofa5.png","","","memory_trial","4","definitely_new","","","","","","",""
"html-keyboard-response","139","350153","0.0-15.0-0.48","1986","2","""event"",""trial"",""time""
""fullscreenenter"",""1"",""3199""
","
","
","""event"",""trial"",""time""
""fullscreenenter"",""1"",""3199""
","
","","","","","","null","<div style=""font-size:60px;"">+</div>","null","","fixation","","","","","","","","",""
"memory-trial","140","352580","0.0-15.0-1.48","1986","2","""event"",""trial"",""time""
""fullscreenenter"",""1"",""3199""
","
","
","""event"",""trial"",""time""
""fullscreenenter"",""1"",""3199""
","
","","","","","","1423","images/orange1.png","","","memory_trial","1","definitely_old","","","","","","",""
"html-keyboard-response","141","353083","0.0-15.0-0.49","1986","2","""event"",""trial"",""time""
""fullscreenenter"",""1"",""3199""
","
","
","""event"",""trial"",""time""
""fullscreenenter"",""1"",""3199""
","
","","","","","","null","<div style=""font-size:60px;"">+</div>","null","","fixation","","","","","","","","",""
"memory-trial","142","355060","0.0-15.0-1.49","1986","2","""event"",""trial"",""time""
""fullscreenenter"",""1"",""3199""
","
","
","""event"",""trial"",""time""
""fullscreenenter"",""1"",""3199""
","
","","","","","","971.6999999284744","images/rodent4.png","","","memory_trial","1","definitely_old","","","","","","",""
"html-keyboard-response","143","355562","0.0-15.0-0.50","1986","2","""event"",""trial"",""time""
""fullscreenenter"",""1"",""3199""
","
","
","""event"",""trial"",""time""
""fullscreenenter"",""1"",""3199""
","
","","","","","","null","<div style=""font-size:60px;"">+</div>","null","","fixation","","","","","","","","",""
"memory-trial","144","357589","0.0-15.0-1.50","1986","2","""event"",""trial"",""time""
""fullscreenenter"",""1"",""3199""
","
","
","""event"",""trial"",""time""
""fullscreenenter"",""1"",""3199""
","
","","","","","","1023.1000000238419","images/feline3.png","","","memory_trial","4","definitely_new","","","","","","",""
"html-keyboard-response","145","358092","0.0-15.0-0.51","1986","2","""event"",""trial"",""time""
""fullscreenenter"",""1"",""3199""
","
","
","""event"",""trial"",""time""
""fullscreenenter"",""1"",""3199""
","
","","","","","","null","<div style=""font-size:60px;"">+</div>","null","","fixation","","","","","","","","",""
"memory-trial","146","361486","0.0-15.0-1.51","1986","2","""event"",""trial"",""time""
""fullscreenenter"",""1"",""3199""
","
","
","""event"",""trial"",""time""
""fullscreenenter"",""1"",""3199""
","
","","","","","","2384","images/orange2.png","","","memory_trial","1","definitely_old","","","","","","",""
"html-keyboard-response","147","361989","0.0-15.0-0.52","1986","2","""event"",""trial"",""time""
""fullscreenenter"",""1"",""3199""
","
","
","""event"",""trial"",""time""
""fullscreenenter"",""1"",""3199""
","
","","","","","","null","<div style=""font-size:60px;"">+</div>","null","","fixation","","","","","","","","",""
"memory-trial","148","364549","0.0-15.0-1.52","1986","2","""event"",""trial"",""time""
""fullscreenenter"",""1"",""3199""
","
","
","""event"",""trial"",""time""
""fullscreenenter"",""1"",""3199""
","
","","","","","","1557.0999999046326","images/chair1.png","","","memory_trial","1","definitely_old","","","","","","",""
"html-keyboard-response","149","365054","0.0-15.0-0.53","1986","2","""event"",""trial"",""time""
""fullscreenenter"",""1"",""3199""
","
","
","""event"",""trial"",""time""
""fullscreenenter"",""1"",""3199""
","
","","","","","","null","<div style=""font-size:60px;"">+</div>","null","","fixation","","","","","","","","",""
"memory-trial","150","366981","0.0-15.0-1.53","1986","2","""event"",""trial"",""time""
""fullscreenenter"",""1"",""3199""
","
","
","""event"",""trial"",""time""
""fullscreenenter"",""1"",""3199""
","
","","","","","","921.3000000715256","images/apple2.png","","","memory_trial","4","definitely_new","","","","","","",""
"html-keyboard-response","151","367483","0.0-15.0-0.54","1986","2","""event"",""trial"",""time""
""fullscreenenter"",""1"",""3199""
","
","
","""event"",""trial"",""time""
""fullscreenenter"",""1"",""3199""
","
","","","","","","null","<div style=""font-size:60px;"">+</div>","null","","fixation","","","","","","","","",""
"memory-trial","152","369590","0.0-15.0-1.54","1986","2","""event"",""trial"",""time""
""fullscreenenter"",""1"",""3199""
","
","
","""event"",""trial"",""time""
""fullscreenenter"",""1"",""3199""
","
","","","","","","1102.8999999761581","images/truck2.png","","","memory_trial","4","definitely_new","","","","","","",""
"html-keyboard-response","153","370092","0.0-15.0-0.55","1986","2","""event"",""trial"",""time""
""fullscreenenter"",""1"",""3199""
","
","
","""event"",""trial"",""time""
""fullscreenenter"",""1"",""3199""
","
","","","","","","null","<div style=""font-size:60px;"">+</div>","null","","fixation","","","","","","","","",""
"memory-trial","154","372281","0.0-15.0-1.55","1986","2","""event"",""trial"",""time""
""fullscreenenter"",""1"",""3199""
","
","
","""event"",""trial"",""time""
""fullscreenenter"",""1"",""3199""
","
","","","","","","1184.1000000238419","images/cactus4.png","","","memory_trial","4","definitely_new","","","","","","",""
"html-keyboard-response","155","372783","0.0-15.0-0.56","1986","2","""event"",""trial"",""time""
""fullscreenenter"",""1"",""3199""
","
","
","""event"",""trial"",""time""
""fullscreenenter"",""1"",""3199""
","
","","","","","","null","<div style=""font-size:60px;"">+</div>","null","","fixation","","","","","","","","",""
"memory-trial","156","374670","0.0-15.0-1.56","1986","2","""event"",""trial"",""time""
""fullscreenenter"",""1"",""3199""
","
","
","""event"",""trial"",""time""
""fullscreenenter"",""1"",""3199""
","
","","","","","","883.1000000238419","images/plane4.png","","","memory_trial","1","definitely_old","","","","","","",""
"html-keyboard-response","157","375173","0.0-15.0-0.57","1986","2","""event"",""trial"",""time""
""fullscreenenter"",""1"",""3199""
","
","
","""event"",""trial"",""time""
""fullscreenenter"",""1"",""3199""
","
","","","","","","null","<div style=""font-size:60px;"">+</div>","null","","fixation","","","","","","","","",""
"memory-trial","158","377021","0.0-15.0-1.57","1986","2","""event"",""trial"",""time""
""fullscreenenter"",""1"",""3199""
","
","
","""event"",""trial"",""time""
""fullscreenenter"",""1"",""3199""
","
","","","","","","842.7999999523163","images/rodent1.png","","","memory_trial","1","definitely_old","","","","","","",""
"html-keyboard-response","159","377523","0.0-15.0-0.58","1986","2","""event"",""trial"",""time""
""fullscreenenter"",""1"",""3199""
","
","
","""event"",""trial"",""time""
""fullscreenenter"",""1"",""3199""
","
","","","","","","null","<div style=""font-size:60px;"">+</div>","null","","fixation","","","","","","","","",""
"memory-trial","160","379890","0.0-15.0-1.58","1986","2","""event"",""trial"",""time""
""fullscreenenter"",""1"",""3199""
","
","
","""event"",""trial"",""time""
""fullscreenenter"",""1"",""3199""
","
","","","","","","1360","images/bed4.png","","","memory_trial","4","definitely_new","","","","","","",""
"html-keyboard-response","161","380392","0.0-15.0-0.59","1986","2","""event"",""trial"",""time""
""fullscreenenter"",""1"",""3199""
","
","
","""event"",""trial"",""time""
""fullscreenenter"",""1"",""3199""
","
","","","","","","null","<div style=""font-size:60px;"">+</div>","null","","fixation","","","","","","","","",""
"memory-trial","162","382251","0.0-15.0-1.59","1986","2","""event"",""trial"",""time""
""fullscreenenter"",""1"",""3199""
","
","
","""event"",""trial"",""time""
""fullscreenenter"",""1"",""3199""
","
","","","","","","853.6999999284744","images/apple4.png","","","memory_trial","4","definitely_new","","","","","","",""
"html-keyboard-response","163","382753","0.0-15.0-0.60","1986","2","""event"",""trial"",""time""
""fullscreenenter"",""1"",""3199""
","
","
","""event"",""trial"",""time""
""fullscreenenter"",""1"",""3199""
","
","","","","","","null","<div style=""font-size:60px;"">+</div>","null","","fixation","","","","","","","","",""
"memory-trial","164","384475","0.0-15.0-1.60","1986","2","""event"",""trial"",""time""
""fullscreenenter"",""1"",""3199""
","
","
","""event"",""trial"",""time""
""fullscreenenter"",""1"",""3199""
","
","","","","","","703.2999999523163","images/boat1.png","","","memory_trial","1","definitely_old","","","","","","",""
"html-keyboard-response","165","384976","0.0-15.0-0.61","1986","2","""event"",""trial"",""time""
""fullscreenenter"",""1"",""3199""
","
","
","""event"",""trial"",""time""
""fullscreenenter"",""1"",""3199""
","
","","","","","","null","<div style=""font-size:60px;"">+</div>","null","","fixation","","","","","","","","",""
"memory-trial","166","386900","0.0-15.0-1.61","1986","2","""event"",""trial"",""time""
""fullscreenenter"",""1"",""3199""
","
","
","""event"",""trial"",""time""
""fullscreenenter"",""1"",""3199""
","
","","","","","","918.2999999523163","images/dog5.png","","","memory_trial","4","definitely_new","","","","","","",""
"html-keyboard-response","167","387401","0.0-15.0-0.62","1986","2","""event"",""trial"",""time""
""fullscreenenter"",""1"",""3199""
","
","
","""event"",""trial"",""time""
""fullscreenenter"",""1"",""3199""
","
","","","","","","null","<div style=""font-size:60px;"">+</div>","null","","fixation","","","","","","","","",""
"memory-trial","168","389471","0.0-15.0-1.62","1986","2","""event"",""trial"",""time""
""fullscreenenter"",""1"",""3199""
","
","
","""event"",""trial"",""time""
""fullscreenenter"",""1"",""3199""
","
","","","","","","1064.8000000715256","images/table1.png","","","memory_trial","4","definitely_new","","","","","","",""
"html-keyboard-response","169","389973","0.0-15.0-0.63","1986","2","""event"",""trial"",""time""
""fullscreenenter"",""1"",""3199""
","
","
","""event"",""trial"",""time""
""fullscreenenter"",""1"",""3199""
","
","","","","","","null","<div style=""font-size:60px;"">+</div>","null","","fixation","","","","","","","","",""
"memory-trial","170","391730","0.0-15.0-1.63","1986","2","""event"",""trial"",""time""
""fullscreenenter"",""1"",""3199""
","
","
","""event"",""trial"",""time""
""fullscreenenter"",""1"",""3199""
","
","","","","","","753.1999999284744","images/horse1.png","","","memory_trial","4","definitely_new","","","","","","",""
"html-keyboard-response","171","392233","0.0-15.0-0.64","1986","2","""event"",""trial"",""time""
""fullscreenenter"",""1"",""3199""
","
","
","""event"",""trial"",""time""
""fullscreenenter"",""1"",""3199""
","
","","","","","","null","<div style=""font-size:60px;"">+</div>","null","","fixation","","","","","","","","",""
"memory-trial","172","394522","0.0-15.0-1.64","1986","2","""event"",""trial"",""time""
""fullscreenenter"",""1"",""3199""
","
","
","""event"",""trial"",""time""
""fullscreenenter"",""1"",""3199""
","
","","","","","","1273.7000000476837","images/flower3.png","","","memory_trial","1","definitely_old","","","","","","",""
"html-keyboard-response","173","395024","0.0-15.0-0.65","1986","2","""event"",""trial"",""time""
""fullscreenenter"",""1"",""3199""
","
","
","""event"",""trial"",""time""
""fullscreenenter"",""1"",""3199""
","
","","","","","","null","<div style=""font-size:60px;"">+</div>","null","","fixation","","","","","","","","",""
"memory-trial","174","397041","0.0-15.0-1.65","1986","2","""event"",""trial"",""time""
""fullscreenenter"",""1"",""3199""
","
","
","""event"",""trial"",""time""
""fullscreenenter"",""1"",""3199""
","
","","","","","","1010.7000000476837","images/banana4.png","","","memory_trial","1","definitely_old","","","","","","",""
"html-keyboard-response","175","397543","0.0-15.0-0.66","1986","2","""event"",""trial"",""time""
""fullscreenenter"",""1"",""3199""
","
","
","""event"",""trial"",""time""
""fullscreenenter"",""1"",""3199""
","
","","","","","","null","<div style=""font-size:60px;"">+</div>","null","","fixation","","","","","","","","",""
"memory-trial","176","399510","0.0-15.0-1.66","1986","2","""event"",""trial"",""time""
""fullscreenenter"",""1"",""3199""
","
","
","""event"",""trial"",""time""
""fullscreenenter"",""1"",""3199""
","
","","","","","","963.2999999523163","images/plane1.png","","","memory_trial","1","definitely_old","","","","","","",""
"html-keyboard-response","177","400013","0.0-15.0-0.67","1986","2","""event"",""trial"",""time""
""fullscreenenter"",""1"",""3199""
","
","
","""event"",""trial"",""time""
""fullscreenenter"",""1"",""3199""
","
","","","","","","null","<div style=""font-size:60px;"">+</div>","null","","fixation","","","","","","","","",""
"memory-trial","178","402241","0.0-15.0-1.67","1986","2","""event"",""trial"",""time""
""fullscreenenter"",""1"",""3199""
","
","
","""event"",""trial"",""time""
""fullscreenenter"",""1"",""3199""
","
","","","","","","1223.5","images/cow3.png","","","memory_trial","1","definitely_old","","","","","","",""
"html-keyboard-response","179","402743","0.0-15.0-0.68","1986","2","""event"",""trial"",""time""
""fullscreenenter"",""1"",""3199""
","
","
","""event"",""trial"",""time""
""fullscreenenter"",""1"",""3199""
","
","","","","","","null","<div style=""font-size:60px;"">+</div>","null","","fixation","","","","","","","","",""
"memory-trial","180","404921","0.0-15.0-1.68","1986","2","""event"",""trial"",""time""
""fullscreenenter"",""1"",""3199""
","
","
","""event"",""trial"",""time""
""fullscreenenter"",""1"",""3199""
","
","","","","","","1173.7000000476837","images/banana5.png","","","memory_trial","1","definitely_old","","","","","","",""
"html-keyboard-response","181","405423","0.0-15.0-0.69","1986","2","""event"",""trial"",""time""
""fullscreenenter"",""1"",""3199""
","
","
","""event"",""trial"",""time""
""fullscreenenter"",""1"",""3199""
","
","","","","","","null","<div style=""font-size:60px;"">+</div>","null","","fixation","","","","","","","","",""
"memory-trial","182","407160","0.0-15.0-1.69","1986","2","""event"",""trial"",""time""
""fullscreenenter"",""1"",""3199""
","
","
","""event"",""trial"",""time""
""fullscreenenter"",""1"",""3199""
","
","","","","","","731.8000000715256","images/flower1.png","","","memory_trial","1","definitely_old","","","","","","",""
"html-keyboard-response","183","407662","0.0-15.0-0.70","1986","2","""event"",""trial"",""time""
""fullscreenenter"",""1"",""3199""
","
","
","""event"",""trial"",""time""
""fullscreenenter"",""1"",""3199""
","
","","","","","","null","<div style=""font-size:60px;"">+</div>","null","","fixation","","","","","","","","",""
"memory-trial","184","409480","0.0-15.0-1.70","1986","2","""event"",""trial"",""time""
""fullscreenenter"",""1"",""3199""
","
","
","""event"",""trial"",""time""
""fullscreenenter"",""1"",""3199""
","
","","","","","","813.8999999761581","images/dog3.png","","","memory_trial","1","definitely_old","","","","","","",""
"html-keyboard-response","185","409984","0.0-15.0-0.71","1986","2","""event"",""trial"",""time""
""fullscreenenter"",""1"",""3199""
","
","
","""event"",""trial"",""time""
""fullscreenenter"",""1"",""3199""
","
","","","","","","null","<div style=""font-size:60px;"">+</div>","null","","fixation","","","","","","","","",""
"memory-trial","186","411853","0.0-15.0-1.71","1986","2","""event"",""trial"",""time""
""fullscreenenter"",""1"",""3199""
","
","
","""event"",""trial"",""time""
""fullscreenenter"",""1"",""3199""
","
","","","","","","852.4000000953674","images/horse5.png","","","memory_trial","1","definitely_old","","","","","","",""
"html-keyboard-response","187","412356","0.0-15.0-0.72","1986","2","""event"",""trial"",""time""
""fullscreenenter"",""1"",""3199""
","
","
","""event"",""trial"",""time""
""fullscreenenter"",""1"",""3199""
","
","","","","","","null","<div style=""font-size:60px;"">+</div>","null","","fixation","","","","","","","","",""
"memory-trial","188","414161","0.0-15.0-1.72","1986","2","""event"",""trial"",""time""
""fullscreenenter"",""1"",""3199""
","
","
","""event"",""trial"",""time""
""fullscreenenter"",""1"",""3199""
","
","","","","","","799.6999999284744","images/cactus1.png","","","memory_trial","4","definitely_new","","","","","","",""
"html-keyboard-response","189","414663","0.0-15.0-0.73","1986","2","""event"",""trial"",""time""
""fullscreenenter"",""1"",""3199""
","
","
","""event"",""trial"",""time""
""fullscreenenter"",""1"",""3199""
","
","","","","","","null","<div style=""font-size:60px;"">+</div>","null","","fixation","","","","","","","","",""
"memory-trial","190","416340","0.0-15.0-1.73","1986","2","""event"",""trial"",""time""
""fullscreenenter"",""1"",""3199""
","
","
","""event"",""trial"",""time""
""fullscreenenter"",""1"",""3199""
","
","","","","","","672.1999999284744","images/table2.png","","","memory_trial","1","definitely_old","","","","","","",""
"html-keyboard-response","191","416842","0.0-15.0-0.74","1986","2","""event"",""trial"",""time""
""fullscreenenter"",""1"",""3199""
","
","
","""event"",""trial"",""time""
""fullscreenenter"",""1"",""3199""
","
","","","","","","null","<div style=""font-size:60px;"">+</div>","null","","fixation","","","","","","","","",""
"memory-trial","192","418700","0.0-15.0-1.74","1986","2","""event"",""trial"",""time""
""fullscreenenter"",""1"",""3199""
","
","
","""event"",""trial"",""time""
""fullscreenenter"",""1"",""3199""
","
","","","","","","853.2999999523163","images/rabbit2.png","","","memory_trial","1","definitely_old","","","","","","",""
"html-keyboard-response","193","419203","0.0-15.0-0.75","1986","2","""event"",""trial"",""time""
""fullscreenenter"",""1"",""3199""
","
","
","""event"",""trial"",""time""
""fullscreenenter"",""1"",""3199""
","
","","","","","","null","<div style=""font-size:60px;"">+</div>","null","","fixation","","","","","","","","",""
"memory-trial","194","421050","0.0-15.0-1.75","1986","2","""event"",""trial"",""time""
""fullscreenenter"",""1"",""3199""
","
","
","""event"",""trial"",""time""
""fullscreenenter"",""1"",""3199""
","
","","","","","","841.9000000953674","images/train3.png","","","memory_trial","1","definitely_old","","","","","","",""
"html-keyboard-response","195","421552","0.0-15.0-0.76","1986","2","""event"",""trial"",""time""
""fullscreenenter"",""1"",""3199""
","
","
","""event"",""trial"",""time""
""fullscreenenter"",""1"",""3199""
","
","","","","","","null","<div style=""font-size:60px;"">+</div>","null","","fixation","","","","","","","","",""
"memory-trial","196","423490","0.0-15.0-1.76","1986","2","""event"",""trial"",""time""
""fullscreenenter"",""1"",""3199""
","
","
","""event"",""trial"",""time""
""fullscreenenter"",""1"",""3199""
","
","","","","","","933.7999999523163","images/cow5.png","","","memory_trial","1","definitely_old","","","","","","",""
"html-keyboard-response","197","423992","0.0-15.0-0.77","1986","2","""event"",""trial"",""time""
""fullscreenenter"",""1"",""3199""
","
","
","""event"",""trial"",""time""
""fullscreenenter"",""1"",""3199""
","
","","","","","","null","<div style=""font-size:60px;"">+</div>","null","","fixation","","","","","","","","",""
"memory-trial","198","425750","0.0-15.0-1.77","1986","2","""event"",""trial"",""time""
""fullscreenenter"",""1"",""3199""
","
","
","""event"",""trial"",""time""
""fullscreenenter"",""1"",""3199""
","
","","","","","","753.6000000238419","images/bed2.png","","","memory_trial","4","definitely_new","","","","","","",""
"html-keyboard-response","199","426252","0.0-15.0-0.78","1986","2","""event"",""trial"",""time""
""fullscreenenter"",""1"",""3199""
","
","
","""event"",""trial"",""time""
""fullscreenenter"",""1"",""3199""
","
","","","","","","null","<div style=""font-size:60px;"">+</div>","null","","fixation","","","","","","","","",""
"memory-trial","200","428090","0.0-15.0-1.78","1986","2","""event"",""trial"",""time""
""fullscreenenter"",""1"",""3199""
","
","
","""event"",""trial"",""time""
""fullscreenenter"",""1"",""3199""
","
","","","","","","833.9000000953674","images/orange3.png","","","memory_trial","1","definitely_old","","","","","","",""
"html-keyboard-response","201","428593","0.0-15.0-0.79","1986","2","""event"",""trial"",""time""
""fullscreenenter"",""1"",""3199""
","
","
","""event"",""trial"",""time""
""fullscreenenter"",""1"",""3199""
","
","","","","","","null","<div style=""font-size:60px;"">+</div>","null","","fixation","","","","","","","","",""
"memory-trial","202","430340","0.0-15.0-1.79","1986","2","""event"",""trial"",""time""
""fullscreenenter"",""1"",""3199""
","
","
","""event"",""trial"",""time""
""fullscreenenter"",""1"",""3199""
","
","","","","","","744.1999999284744","images/rodent2.png","","","memory_trial","1","definitely_old","","","","","","",""
"html-keyboard-response","203","430842","0.0-15.0-0.80","1986","2","""event"",""trial"",""time""
""fullscreenenter"",""1"",""3199""
","
","
","""event"",""trial"",""time""
""fullscreenenter"",""1"",""3199""
","
","","","","","","null","<div style=""font-size:60px;"">+</div>","null","","fixation","","","","","","","","",""
"memory-trial","204","432670","0.0-15.0-1.80","1986","2","""event"",""trial"",""time""
""fullscreenenter"",""1"",""3199""
","
","
","""event"",""trial"",""time""
""fullscreenenter"",""1"",""3199""
","
","","","","","","813.3999999761581","images/straw1.png","","","memory_trial","1","definitely_old","","","","","","",""
"html-keyboard-response","205","433172","0.0-15.0-0.81","1986","2","""event"",""trial"",""time""
""fullscreenenter"",""1"",""3199""
","
","
","""event"",""trial"",""time""
""fullscreenenter"",""1"",""3199""
","
","","","","","","null","<div style=""font-size:60px;"">+</div>","null","","fixation","","","","","","","","",""
"memory-trial","206","435150","0.0-15.0-1.81","1986","2","""event"",""trial"",""time""
""fullscreenenter"",""1"",""3199""
","
","
","""event"",""trial"",""time""
""fullscreenenter"",""1"",""3199""
","
","","","","","","972.4000000953674","images/straw4.png","","","memory_trial","1","definitely_old","","","","","","",""
"html-keyboard-response","207","435653","0.0-15.0-0.82","1986","2","""event"",""trial"",""time""
""fullscreenenter"",""1"",""3199""
","
","
","""event"",""trial"",""time""
""fullscreenenter"",""1"",""3199""
","
","","","","","","null","<div style=""font-size:60px;"">+</div>","null","","fixation","","","","","","","","",""
"memory-trial","208","437499","0.0-15.0-1.82","1986","2","""event"",""trial"",""time""
""fullscreenenter"",""1"",""3199""
","
","
","""event"",""trial"",""time""
""fullscreenenter"",""1"",""3199""
","
","","","","","","842.6000000238419","images/bush5.png","","","memory_trial","1","definitely_old","","","","","","",""
"html-keyboard-response","209","438001","0.0-15.0-0.83","1986","2","""event"",""trial"",""time""
""fullscreenenter"",""1"",""3199""
","
","
","""event"",""trial"",""time""
""fullscreenenter"",""1"",""3199""
","
","","","","","","null","<div style=""font-size:60px;"">+</div>","null","","fixation","","","","","","","","",""
"memory-trial","210","439801","0.0-15.0-1.83","1986","2","""event"",""trial"",""time""
""fullscreenenter"",""1"",""3199""
","
","
","""event"",""trial"",""time""
""fullscreenenter"",""1"",""3199""
","
","","","","","","794.5999999046326","images/sheep1.png","","","memory_trial","4","definitely_new","","","","","","",""
"html-keyboard-response","211","440303","0.0-15.0-0.84","1986","2","""event"",""trial"",""time""
""fullscreenenter"",""1"",""3199""
","
","
","""event"",""trial"",""time""
""fullscreenenter"",""1"",""3199""
","
","","","","","","null","<div style=""font-size:60px;"">+</div>","null","","fixation","","","","","","","","",""
"memory-trial","212","442130","0.0-15.0-1.84","1986","2","""event"",""trial"",""time""
""fullscreenenter"",""1"",""3199""
","
","
","""event"",""trial"",""time""
""fullscreenenter"",""1"",""3199""
","
","","","","","","822.8000000715256","images/table5.png","","","memory_trial","4","definitely_new","","","","","","",""
"html-keyboard-response","213","442632","0.0-15.0-0.85","1986","2","""event"",""trial"",""time""
""fullscreenenter"",""1"",""3199""
","
","
","""event"",""trial"",""time""
""fullscreenenter"",""1"",""3199""
","
","","","","","","null","<div style=""font-size:60px;"">+</div>","null","","fixation","","","","","","","","",""
"memory-trial","214","444359","0.0-15.0-1.85","1986","2","""event"",""trial"",""time""
""fullscreenenter"",""1"",""3199""
","
","
","""event"",""trial"",""time""
""fullscreenenter"",""1"",""3199""
","
","","","","","","723.1999999284744","images/banana1.png","","","memory_trial","1","definitely_old","","","","","","",""
"html-keyboard-response","215","444861","0.0-15.0-0.86","1986","2","""event"",""trial"",""time""
""fullscreenenter"",""1"",""3199""
","
","
","""event"",""trial"",""time""
""fullscreenenter"",""1"",""3199""
","
","","","","","","null","<div style=""font-size:60px;"">+</div>","null","","fixation","","","","","","","","",""
"memory-trial","216","446540","0.0-15.0-1.86","1986","2","""event"",""trial"",""time""
""fullscreenenter"",""1"",""3199""
","
","
","""event"",""trial"",""time""
""fullscreenenter"",""1"",""3199""
","
","","","","","","674.7000000476837","images/cow1.png","","","memory_trial","1","definitely_old","","","","","","",""
"html-keyboard-response","217","447041","0.0-15.0-0.87","1986","2","""event"",""trial"",""time""
""fullscreenenter"",""1"",""3199""
","
","
","""event"",""trial"",""time""
""fullscreenenter"",""1"",""3199""
","
","","","","","","null","<div style=""font-size:60px;"">+</div>","null","","fixation","","","","","","","","",""
"memory-trial","218","448990","0.0-15.0-1.87","1986","2","""event"",""trial"",""time""
""fullscreenenter"",""1"",""3199""
","
","
","""event"",""trial"",""time""
""fullscreenenter"",""1"",""3199""
","
","","","","","","943.3000000715256","images/boat4.png","","","memory_trial","1","definitely_old","","","","","","",""
"html-keyboard-response","219","449491","0.0-15.0-0.88","1986","2","""event"",""trial"",""time""
""fullscreenenter"",""1"",""3199""
","
","
","""event"",""trial"",""time""
""fullscreenenter"",""1"",""3199""
","
","","","","","","null","<div style=""font-size:60px;"">+</div>","null","","fixation","","","","","","","","",""
"memory-trial","220","451840","0.0-15.0-1.88","1986","2","""event"",""trial"",""time""
""fullscreenenter"",""1"",""3199""
","
","
","""event"",""trial"",""time""
""fullscreenenter"",""1"",""3199""
","
","","","","","","1345.2000000476837","images/truck3.png","","","memory_trial","4","definitely_new","","","","","","",""
"html-keyboard-response","221","452357","0.0-15.0-0.89","1986","2","""event"",""trial"",""time""
""fullscreenenter"",""1"",""3199""
","
","
","""event"",""trial"",""time""
""fullscreenenter"",""1"",""3199""
","
","","","","","","null","<div style=""font-size:60px;"">+</div>","null","","fixation","","","","","","","","",""
"memory-trial","222","454130","0.0-15.0-1.89","1986","2","""event"",""trial"",""time""
""fullscreenenter"",""1"",""3199""
","
","
","""event"",""trial"",""time""
""fullscreenenter"",""1"",""3199""
","
","","","","","","769.1000000238419","images/cactus2.png","","","memory_trial","4","definitely_new","","","","","","",""
"html-keyboard-response","223","454632","0.0-15.0-0.90","1986","2","""event"",""trial"",""time""
""fullscreenenter"",""1"",""3199""
","
","
","""event"",""trial"",""time""
""fullscreenenter"",""1"",""3199""
","
","","","","","","null","<div style=""font-size:60px;"">+</div>","null","","fixation","","","","","","","","",""
"memory-trial","224","456625","0.0-15.0-1.90","1986","2","""event"",""trial"",""time""
""fullscreenenter"",""1"",""3199""
","
","
","""event"",""trial"",""time""
""fullscreenenter"",""1"",""3199""
","
","","","","","","983.2999999523163","images/orange5.png","","","memory_trial","4","definitely_new","","","","","","",""
"html-keyboard-response","225","457132","0.0-15.0-0.91","1986","2","""event"",""trial"",""time""
""fullscreenenter"",""1"",""3199""
","
","
","""event"",""trial"",""time""
""fullscreenenter"",""1"",""3199""
","
","","","","","","null","<div style=""font-size:60px;"">+</div>","null","","fixation","","","","","","","","",""
"memory-trial","226","458860","0.0-15.0-1.91","1986","2","""event"",""trial"",""time""
""fullscreenenter"",""1"",""3199""
","
","
","""event"",""trial"",""time""
""fullscreenenter"",""1"",""3199""
","
","","","","","","722.3000000715256","images/straw5.png","","","memory_trial","4","definitely_new","","","","","","",""
"html-keyboard-response","227","459377","0.0-15.0-0.92","1986","2","""event"",""trial"",""time""
""fullscreenenter"",""1"",""3199""
","
","
","""event"",""trial"",""time""
""fullscreenenter"",""1"",""3199""
","
","","","","","","null","<div style=""font-size:60px;"">+</div>","null","","fixation","","","","","","","","",""
"memory-trial","228","461480","0.0-15.0-1.92","1986","2","""event"",""trial"",""time""
""fullscreenenter"",""1"",""3199""
","
","
","""event"",""trial"",""time""
""fullscreenenter"",""1"",""3199""
","
","","","","","","1099.5","images/truck4.png","","","memory_trial","4","definitely_new","","","","","","",""
"html-keyboard-response","229","461983","0.0-15.0-0.93","1986","2","""event"",""trial"",""time""
""fullscreenenter"",""1"",""3199""
","
","
","""event"",""trial"",""time""
""fullscreenenter"",""1"",""3199""
","
","","","","","","null","<div style=""font-size:60px;"">+</div>","null","","fixation","","","","","","","","",""
"memory-trial","230","464160","0.0-15.0-1.93","1986","2","""event"",""trial"",""time""
""fullscreenenter"",""1"",""3199""
","
","
","""event"",""trial"",""time""
""fullscreenenter"",""1"",""3199""
","
","","","","","","1173.1000000238419","images/horse4.png","","","memory_trial","1","definitely_old","","","","","","",""
"html-keyboard-response","231","464663","0.0-15.0-0.94","1986","2","""event"",""trial"",""time""
""fullscreenenter"",""1"",""3199""
","
","
","""event"",""trial"",""time""
""fullscreenenter"",""1"",""3199""
","
","","","","","","null","<div style=""font-size:60px;"">+</div>","null","","fixation","","","","","","","","",""
"memory-trial","232","466330","0.0-15.0-1.94","1986","2","""event"",""trial"",""time""
""fullscreenenter"",""1"",""3199""
","
","
","""event"",""trial"",""time""
""fullscreenenter"",""1"",""3199""
","
","","","","","","661.8999999761581","images/bed5.png","","","memory_trial","4","definitely_new","","","","","","",""
"html-keyboard-response","233","466833","0.0-15.0-0.95","1986","2","""event"",""trial"",""time""
""fullscreenenter"",""1"",""3199""
","
","
","""event"",""trial"",""time""
""fullscreenenter"",""1"",""3199""
","
","","","","","","null","<div style=""font-size:60px;"">+</div>","null","","fixation","","","","","","","","",""
"memory-trial","234","468680","0.0-15.0-1.95","1986","2","""event"",""trial"",""time""
""fullscreenenter"",""1"",""3199""
","
","
","""event"",""trial"",""time""
""fullscreenenter"",""1"",""3199""
","
","","","","","","842.6000000238419","images/boat2.png","","","memory_trial","4","definitely_new","","","","","","",""
"html-keyboard-response","235","469182","0.0-15.0-0.96","1986","2","""event"",""trial"",""time""
""fullscreenenter"",""1"",""3199""
","
","
","""event"",""trial"",""time""
""fullscreenenter"",""1"",""3199""
","
","","","","","","null","<div style=""font-size:60px;"">+</div>","null","","fixation","","","","","","","","",""
"memory-trial","236","470830","0.0-15.0-1.96","1986","2","""event"",""trial"",""time""
""fullscreenenter"",""1"",""3199""
","
","
","""event"",""trial"",""time""
""fullscreenenter"",""1"",""3199""
","
","","","","","","641.8000000715256","images/feline5.png","","","memory_trial","4","definitely_new","","","","","","",""
"html-keyboard-response","237","471331","0.0-15.0-0.97","1986","2","""event"",""trial"",""time""
""fullscreenenter"",""1"",""3199""
","
","
","""event"",""trial"",""time""
""fullscreenenter"",""1"",""3199""
","
","","","","","","null","<div style=""font-size:60px;"">+</div>","null","","fixation","","","","","","","","",""
"memory-trial","238","473158","0.0-15.0-1.97","1986","2","""event"",""trial"",""time""
""fullscreenenter"",""1"",""3199""
","
","
","""event"",""trial"",""time""
""fullscreenenter"",""1"",""3199""
","
","","","","","","824","images/sofa3.png","","","memory_trial","4","definitely_new","","","","","","",""
"html-keyboard-response","239","473659","0.0-15.0-0.98","1986","2","""event"",""trial"",""time""
""fullscreenenter"",""1"",""3199""
","
","
","""event"",""trial"",""time""
""fullscreenenter"",""1"",""3199""
","
","","","","","","null","<div style=""font-size:60px;"">+</div>","null","","fixation","","","","","","","","",""
"memory-trial","240","475380","0.0-15.0-1.98","1986","2","""event"",""trial"",""time""
""fullscreenenter"",""1"",""3199""
","
","
","""event"",""trial"",""time""
""fullscreenenter"",""1"",""3199""
","
","","","","","","706.7999999523163","images/rabbit1.png","","","memory_trial","1","definitely_old","","","","","","",""
"html-keyboard-response","241","475882","0.0-15.0-0.99","1986","2","""event"",""trial"",""time""
""fullscreenenter"",""1"",""3199""
","
","
","""event"",""trial"",""time""
""fullscreenenter"",""1"",""3199""
","
","","","","","","null","<div style=""font-size:60px;"">+</div>","null","","fixation","","","","","","","","",""
"memory-trial","242","477741","0.0-15.0-1.99","1986","2","""event"",""trial"",""time""
""fullscreenenter"",""1"",""3199""
","
","
","""event"",""trial"",""time""
""fullscreenenter"",""1"",""3199""
","
","","","","","","853.8999999761581","images/cactus3.png","","","memory_trial","4","definitely_new","","","","","","",""
"html-keyboard-response","243","478243","0.0-15.0-0.100","1986","2","""event"",""trial"",""time""
""fullscreenenter"",""1"",""3199""
","
","
","""event"",""trial"",""time""
""fullscreenenter"",""1"",""3199""
","
","","","","","","null","<div style=""font-size:60px;"">+</div>","null","","fixation","","","","","","","","",""
"memory-trial","244","480118","0.0-15.0-1.100","1986","2","""event"",""trial"",""time""
""fullscreenenter"",""1"",""3199""
","
","
","""event"",""trial"",""time""
""fullscreenenter"",""1"",""3199""
","
","","","","","","871","images/horse2.png","","","memory_trial","4","definitely_new","","","","","","",""
"html-keyboard-response","245","480621","0.0-15.0-0.101","1986","2","""event"",""trial"",""time""
""fullscreenenter"",""1"",""3199""
","
","
","""event"",""trial"",""time""
""fullscreenenter"",""1"",""3199""
","
","","","","","","null","<div style=""font-size:60px;"">+</div>","null","","fixation","","","","","","","","",""
"memory-trial","246","482360","0.0-15.0-1.101","1986","2","""event"",""trial"",""time""
""fullscreenenter"",""1"",""3199""
","
","
","""event"",""trial"",""time""
""fullscreenenter"",""1"",""3199""
","
","","","","","","734.3000000715256","images/cactus5.png","","","memory_trial","4","definitely_new","","","","","","",""
"html-button-response","247","483798","0.0-15.0-2.101-0.101","1986","2","""event"",""trial"",""time""
""fullscreenenter"",""1"",""3199""
","
","
","""event"",""trial"",""time""
""fullscreenenter"",""1"",""3199""
","
","","","","","","1436.3999999761581","<p> Take a break! </p><p> Click the button to continue. </p>","0","","break","","","","","","","","",""
"html-keyboard-response","248","484301","0.0-15.0-0.102","1986","2","""event"",""trial"",""time""
""fullscreenenter"",""1"",""3199""
","
","
","""event"",""trial"",""time""
""fullscreenenter"",""1"",""3199""
","
","","","","","","null","<div style=""font-size:60px;"">+</div>","null","","fixation","","","","","","","","",""
"memory-trial","249","486580","0.0-15.0-1.102","1986","2","""event"",""trial"",""time""
""fullscreenenter"",""1"",""3199""
","
","
","""event"",""trial"",""time""
""fullscreenenter"",""1"",""3199""
","
","","","","","","1274.8999999761581","images/banana3.png","","","memory_trial","1","definitely_old","","","","","","",""
"html-keyboard-response","250","487082","0.0-15.0-0.103","1986","2","""event"",""trial"",""time""
""fullscreenenter"",""1"",""3199""
","
","
","""event"",""trial"",""time""
""fullscreenenter"",""1"",""3199""
","
","","","","","","null","<div style=""font-size:60px;"">+</div>","null","","fixation","","","","","","","","",""
"memory-trial","251","488800","0.0-15.0-1.103","1986","2","""event"",""trial"",""time""
""fullscreenenter"",""1"",""3199""
","
","
","""event"",""trial"",""time""
""fullscreenenter"",""1"",""3199""
","
","","","","","","712.5","images/tree3.png","","","memory_trial","4","definitely_new","","","","","","",""
"html-keyboard-response","252","489302","0.0-15.0-0.104","1986","2","""event"",""trial"",""time""
""fullscreenenter"",""1"",""3199""
","
","
","""event"",""trial"",""time""
""fullscreenenter"",""1"",""3199""
","
","","","","","","null","<div style=""font-size:60px;"">+</div>","null","","fixation","","","","","","","","",""
"memory-trial","253","491088","0.0-15.0-1.104","1986","2","""event"",""trial"",""time""
""fullscreenenter"",""1"",""3199""
","
","
","""event"",""trial"",""time""
""fullscreenenter"",""1"",""3199""
","
","","","","","","781.7999999523163","images/sheep2.png","","","memory_trial","4","definitely_new","","","","","","",""
"html-keyboard-response","254","491590","0.0-15.0-0.105","1986","2","""event"",""trial"",""time""
""fullscreenenter"",""1"",""3199""
","
","
","""event"",""trial"",""time""
""fullscreenenter"",""1"",""3199""
","
","","","","","","null","<div style=""font-size:60px;"">+</div>","null","","fixation","","","","","","","","",""
"memory-trial","255","493218","0.0-15.0-1.105","1986","2","""event"",""trial"",""time""
""fullscreenenter"",""1"",""3199""
","
","
","""event"",""trial"",""time""
""fullscreenenter"",""1"",""3199""
","
","","","","","","624.6000000238419","images/apple5.png","","","memory_trial","1","definitely_old","","","","","","",""
"html-keyboard-response","256","493720","0.0-15.0-0.106","1986","2","""event"",""trial"",""time""
""fullscreenenter"",""1"",""3199""
","
","
","""event"",""trial"",""time""
""fullscreenenter"",""1"",""3199""
","
","","","","","","null","<div style=""font-size:60px;"">+</div>","null","","fixation","","","","","","","","",""
"memory-trial","257","495381","0.0-15.0-1.106","1986","2","""event"",""trial"",""time""
""fullscreenenter"",""1"",""3199""
","
","
","""event"",""trial"",""time""
""fullscreenenter"",""1"",""3199""
","
","","","","","","655.1000000238419","images/goat4.png","","","memory_trial","4","definitely_new","","","","","","",""
"html-keyboard-response","258","495882","0.0-15.0-0.107","1986","2","""event"",""trial"",""time""
""fullscreenenter"",""1"",""3199""
","
","
","""event"",""trial"",""time""
""fullscreenenter"",""1"",""3199""
","
","","","","","","null","<div style=""font-size:60px;"">+</div>","null","","fixation","","","","","","","","",""
"memory-trial","259","497610","0.0-15.0-1.107","1986","2","""event"",""trial"",""time""
""fullscreenenter"",""1"",""3199""
","
","
","""event"",""trial"",""time""
""fullscreenenter"",""1"",""3199""
","
","","","","","","723.4000000953674","images/bed3.png","","","memory_trial","1","definitely_old","","","","","","",""
"html-keyboard-response","260","498112","0.0-15.0-0.108","1986","2","""event"",""trial"",""time""
""fullscreenenter"",""1"",""3199""
","
","
","""event"",""trial"",""time""
""fullscreenenter"",""1"",""3199""
","
","","","","","","null","<div style=""font-size:60px;"">+</div>","null","","fixation","","","","","","","","",""
"memory-trial","261","499950","0.0-15.0-1.108","1986","2","""event"",""trial"",""time""
""fullscreenenter"",""1"",""3199""
","
","
","""event"",""trial"",""time""
""fullscreenenter"",""1"",""3199""
","
","","","","","","832.8999999761581","images/chair2.png","","","memory_trial","1","definitely_old","","","","","","",""
"html-keyboard-response","262","500467","0.0-15.0-0.109","1986","2","""event"",""trial"",""time""
""fullscreenenter"",""1"",""3199""
","
","
","""event"",""trial"",""time""
""fullscreenenter"",""1"",""3199""
","
","","","","","","null","<div style=""font-size:60px;"">+</div>","null","","fixation","","","","","","","","",""
"memory-trial","263","502450","0.0-15.0-1.109","1986","2","""event"",""trial"",""time""
""fullscreenenter"",""1"",""3199""
","
","
","""event"",""trial"",""time""
""fullscreenenter"",""1"",""3199""
","
","","","","","","978.5","images/goat1.png","","","memory_trial","1","definitely_old","","","","","","",""
"html-keyboard-response","264","502952","0.0-15.0-0.110","1986","2","""event"",""trial"",""time""
""fullscreenenter"",""1"",""3199""
","
","
","""event"",""trial"",""time""
""fullscreenenter"",""1"",""3199""
","
","","","","","","null","<div style=""font-size:60px;"">+</div>","null","","fixation","","","","","","","","",""
"memory-trial","265","504680","0.0-15.0-1.110","1986","2","""event"",""trial"",""time""
""fullscreenenter"",""1"",""3199""
","
","
","""event"",""trial"",""time""
""fullscreenenter"",""1"",""3199""
","
","","","","","","723.5","images/chair4.png","","","memory_trial","4","definitely_new","","","","","","",""
"html-keyboard-response","266","505181","0.0-15.0-0.111","1986","2","""event"",""trial"",""time""
""fullscreenenter"",""1"",""3199""
","
","
","""event"",""trial"",""time""
""fullscreenenter"",""1"",""3199""
","
","","","","","","null","<div style=""font-size:60px;"">+</div>","null","","fixation","","","","","","","","",""
"memory-trial","267","506990","0.0-15.0-1.111","1986","2","""event"",""trial"",""time""
""fullscreenenter"",""1"",""3199""
","
","
","""event"",""trial"",""time""
""fullscreenenter"",""1"",""3199""
","
","","","","","","802.7000000476837","images/straw3.png","","","memory_trial","1","definitely_old","","","","","","",""
"html-keyboard-response","268","507492","0.0-15.0-0.112","1986","2","""event"",""trial"",""time""
""fullscreenenter"",""1"",""3199""
","
","
","""event"",""trial"",""time""
""fullscreenenter"",""1"",""3199""
","
","","","","","","null","<div style=""font-size:60px;"">+</div>","null","","fixation","","","","","","","","",""
"memory-trial","269","509170","0.0-15.0-1.112","1986","2","""event"",""trial"",""time""
""fullscreenenter"",""1"",""3199""
","
","
","""event"",""trial"",""time""
""fullscreenenter"",""1"",""3199""
","
","","","","","","673.1000000238419","images/flower4.png","","","memory_trial","1","definitely_old","","","","","","",""
"html-keyboard-response","270","509672","0.0-15.0-0.113","1986","2","""event"",""trial"",""time""
""fullscreenenter"",""1"",""3199""
","
","
","""event"",""trial"",""time""
""fullscreenenter"",""1"",""3199""
","
","","","","","","null","<div style=""font-size:60px;"">+</div>","null","","fixation","","","","","","","","",""
"memory-trial","271","511659","0.0-15.0-1.113","1986","2","""event"",""trial"",""time""
""fullscreenenter"",""1"",""3199""
","
","
","""event"",""trial"",""time""
""fullscreenenter"",""1"",""3199""
","
","","","","","","983.1000000238419","images/dog1.png","","","memory_trial","4","definitely_new","","","","","","",""
"html-keyboard-response","272","512161","0.0-15.0-0.114","1986","2","""event"",""trial"",""time""
""fullscreenenter"",""1"",""3199""
","
","
","""event"",""trial"",""time""
""fullscreenenter"",""1"",""3199""
","
","","","","","","null","<div style=""font-size:60px;"">+</div>","null","","fixation","","","","","","","","",""
"memory-trial","273","513899","0.0-15.0-1.114","1986","2","""event"",""trial"",""time""
""fullscreenenter"",""1"",""3199""
","
","
","""event"",""trial"",""time""
""fullscreenenter"",""1"",""3199""
","
","","","","","","734.5","images/sofa1.png","","","memory_trial","1","definitely_old","","","","","","",""
"html-keyboard-response","274","514401","0.0-15.0-0.115","1986","2","""event"",""trial"",""time""
""fullscreenenter"",""1"",""3199""
","
","
","""event"",""trial"",""time""
""fullscreenenter"",""1"",""3199""
","
","","","","","","null","<div style=""font-size:60px;"">+</div>","null","","fixation","","","","","","","","",""
"memory-trial","275","516269","0.0-15.0-1.115","1986","2","""event"",""trial"",""time""
""fullscreenenter"",""1"",""3199""
","
","
","""event"",""trial"",""time""
""fullscreenenter"",""1"",""3199""
","
","","","","","","854.1000000238419","images/chair5.png","","","memory_trial","4","definitely_new","","","","","","",""
"html-keyboard-response","276","516770","0.0-15.0-0.116","1986","2","""event"",""trial"",""time""
""fullscreenenter"",""1"",""3199""
","
","
","""event"",""trial"",""time""
""fullscreenenter"",""1"",""3199""
","
","","","","","","null","<div style=""font-size:60px;"">+</div>","null","","fixation","","","","","","","","",""
"memory-trial","277","518610","0.0-15.0-1.116","1986","2","""event"",""trial"",""time""
""fullscreenenter"",""1"",""3199""
","
","
","""event"",""trial"",""time""
""fullscreenenter"",""1"",""3199""
","
","","","","","","834.8000000715256","images/dog2.png","","","memory_trial","1","definitely_old","","","","","","",""
"html-keyboard-response","278","519111","0.0-15.0-0.117","1986","2","""event"",""trial"",""time""
""fullscreenenter"",""1"",""3199""
","
","
","""event"",""trial"",""time""
""fullscreenenter"",""1"",""3199""
","
","","","","","","null","<div style=""font-size:60px;"">+</div>","null","","fixation","","","","","","","","",""
"memory-trial","279","521014","0.0-15.0-1.117","1986","2","""event"",""trial"",""time""
""fullscreenenter"",""1"",""3199""
","
","
","""event"",""trial"",""time""
""fullscreenenter"",""1"",""3199""
","
","","","","","","892.2000000476837","images/straw2.png","","","memory_trial","4","definitely_new","","","","","","",""
"html-keyboard-response","280","521516","0.0-15.0-0.118","1986","2","""event"",""trial"",""time""
""fullscreenenter"",""1"",""3199""
","
","
","""event"",""trial"",""time""
""fullscreenenter"",""1"",""3199""
","
","","","","","","null","<div style=""font-size:60px;"">+</div>","null","","fixation","","","","","","","","",""
"memory-trial","281","523849","0.0-15.0-1.118","1986","2","""event"",""trial"",""time""
""fullscreenenter"",""1"",""3199""
","
","
","""event"",""trial"",""time""
""fullscreenenter"",""1"",""3199""
","
","","","","","","1328.6000000238419","images/bush1.png","","","memory_trial","1","definitely_old","","","","","","",""
"html-keyboard-response","282","524352","0.0-15.0-0.119","1986","2","""event"",""trial"",""time""
""fullscreenenter"",""1"",""3199""
","
","
","""event"",""trial"",""time""
""fullscreenenter"",""1"",""3199""
","
","","","","","","null","<div style=""font-size:60px;"">+</div>","null","","fixation","","","","","","","","",""
"memory-trial","283","526234","0.0-15.0-1.119","1986","2","""event"",""trial"",""time""
""fullscreenenter"",""1"",""3199""
","
","
","""event"",""trial"",""time""
""fullscreenenter"",""1"",""3199""
","
","","","","","","863.5","images/goat2.png","","","memory_trial","1","definitely_old","","","","","","",""
"preload","284","531732","0.0-16.0","1986","2","""event"",""trial"",""time""
""fullscreenenter"",""1"",""3199""
","
","
","""event"",""trial"",""time""
""fullscreenenter"",""1"",""3199""
","
","true","false","[]","[]","[]","","","","","","","","","","","","","",""
"learning-instructions","285","535699","0.0-17.0-0.0-0.0-0.0","1986","2","""event"",""trial"",""time""
""fullscreenenter"",""1"",""3199""
","
","
","""event"",""trial"",""time""
""fullscreenenter"",""1"",""3199""
","
","","","","","","961.6999999284744","<p> We're now going to ask you to buy fruit again. </p>","","0","instructions","","","","","","","","",""
"learning-instructions","286","541228","0.0-17.0-0.0-0.0-0.1","1986","2","""event"",""trial"",""time""
""fullscreenenter"",""1"",""3199""
","
","
","""event"",""trial"",""time""
""fullscreenenter"",""1"",""3199""
","
","","","","","","660.9000000953674","<p> On each trial, you will see a fruit. Select the store where you think you can buy the fruit. </p>","","0","instructions","","","","","","","","",""
"learning-instructions","287","550415","0.0-17.0-0.0-0.0-0.2","1986","2","""event"",""trial"",""time""
""fullscreenenter"",""1"",""3199""
","
","
","""event"",""trial"",""time""
""fullscreenenter"",""1"",""3199""
","
","","","","","","2118.0999999046326","<p> To make your selection, think about what you learned last week. You will NOT receive any feedback about your choice. </p>","","0","instructions","","","","","","","","",""
"learning-instructions","288","559146","0.0-17.0-0.0-0.0-0.3","1986","2","""event"",""trial"",""time""
""fullscreenenter"",""1"",""3199""
","
","
","""event"",""trial"",""time""
""fullscreenenter"",""1"",""3199""
","
","","","","","","1138.5","<p> You should use the 1 key to select the store on the left, the 2 key to select the store in the middle, and the 3 key to select the store on the right. </p><br><div class=""choice-mem-instructions-grid""> <div class=""choice-mem-option""><img src=""images/fruit_choice1.png"" class=""choice-mem-option-img"" stage=""instructions"" position=""0"" ><div class=""choice-mem-option-text""> Press ""1."" </div></div><div class=""choice-mem-option""><img src=""images/fruit_choice2.png"" class=""choice-mem-option-img"" stage=""instructions"" position=""1"" ><div class=""choice-mem-option-text""> Press ""2."" </div></div><div class=""choice-mem-option""><img src=""images/fruit_choice3.png"" class=""choice-mem-option-img"" stage=""instructions"" position=""2"" ><div class=""choice-mem-option-text""> Press ""3."" </div></div></div>","","0","instructions","","","","","","","","",""
"learning-instructions","289","566579","0.0-17.0-0.0-0.0-0.4","1986","2","""event"",""trial"",""time""
""fullscreenenter"",""1"",""3199""
","
","
","""event"",""trial"",""time""
""fullscreenenter"",""1"",""3199""
","
","","","","","","1142","<p> You will have 10 seconds to make each selection. Try to respond before time runs out! </p>","","0","instructions","","","","","","","","",""
"learning-instructions","290","572285","0.0-17.0-0.0-1.0","1986","2","""event"",""trial"",""time""
""fullscreenenter"",""1"",""3199""
","
","
","""event"",""trial"",""time""
""fullscreenenter"",""1"",""3199""
","
","","","","","","3638","<p> You are now ready to begin the game. </p>","","0","instructions","","","","","","","","",""
"html-keyboard-response","291","572916","0.0-17.0-0.0-2.0-0.0","1986","2","""event"",""trial"",""time""
""fullscreenenter"",""1"",""3199""
","
","
","""event"",""trial"",""time""
""fullscreenenter"",""1"",""3199""
","
","","","","","","null","<div style=""font-size:60px;"">+</div>","null","","fixation","","","","","","","","",""
