"trial_type","trial_index","time_elapsed","internal_node_id","subject_id","task_version","interactions","blur_events","focus_events","fullscreenenter_events","fullscreenexit_events","success","timeout","failed_images","failed_audio","failed_video","rt","stimulus","response","button_pressed","task_part","key_press","answer","correct","left_choice","middle_choice","right_choice","choice_positions","option_selected","block"
"pavlovia","0","5","0.0-0.0","1912","2","""event"",""trial"",""time""
""fullscreenenter"",""1"",""2904""
","
","
","""event"",""trial"",""time""
""fullscreenenter"",""1"",""2904""
","
","","","","","","","","","","","","","","","","","","",""
"fullscreen","1","3894","0.0-1.0","1912","2","""event"",""trial"",""time""
""fullscreenenter"",""1"",""2904""
","
","
","""event"",""trial"",""time""
""fullscreenenter"",""1"",""2904""
","
","true","","","","","","","","","","","","","","","","","",""
"preload","2","4919","0.0-2.0","1912","2","""event"",""trial"",""time""
""fullscreenenter"",""1"",""2904""
","
","
","""event"",""trial"",""time""
""fullscreenenter"",""1"",""2904""
","
","true","false","[]","[]","[]","","","","","","","","","","","","","",""
"audio-keyboard-response","3","7374","0.0-3.0","1912","2","""event"",""trial"",""time""
""fullscreenenter"",""1"",""2904""
","
","
","""event"",""trial"",""time""
""fullscreenenter"",""1"",""2904""
","
","","","","","","2455.5102040816328","audio/beep_loop.wav"," ","","","","","","","","","","",""
"audio-button-response","4","8890","0.0-4.0","1912","2","""event"",""trial"",""time""
""fullscreenenter"",""1"",""2904""
","
","
","""event"",""trial"",""time""
""fullscreenenter"",""1"",""2904""
","
","","","","","","1515","audio/turtle.wav","3","","","","","","","","","","",""
"audio-button-response","5","10803","0.0-5.0","1912","2","""event"",""trial"",""time""
""fullscreenenter"",""1"",""2904""
","
","
","""event"",""trial"",""time""
""fullscreenenter"",""1"",""2904""
","
","","","","","","911","audio/shark.wav","2","","","","","","","","","","",""
"preload","6","14677","0.0-6.0","1912","2","""event"",""trial"",""time""
""fullscreenenter"",""1"",""2904""
","
","
","""event"",""trial"",""time""
""fullscreenenter"",""1"",""2904""
","
","true","false","[]","[]","[]","","","","","","","","","","","","","",""
"learning-instructions","7","22006","0.0-7.0-0.0","1912","2","""event"",""trial"",""time""
""fullscreenenter"",""1"",""2904""
","
","
","""event"",""trial"",""time""
""fullscreenenter"",""1"",""2904""
","
","","","","","","2524.10000000149","<p> Welcome back! </p><p> Last week, you had to make choices about lots of different items.  </p>","","0","instructions","","","","","","","","",""
"learning-instructions","8","27036","0.0-7.0-0.1","1912","2","""event"",""trial"",""time""
""fullscreenenter"",""1"",""2904""
","
","
","""event"",""trial"",""time""
""fullscreenenter"",""1"",""2904""
","
","","","","","","728.6999999992549","<p> Today, we are going to ask you to try to remember all the items. </p>","","0","instructions","","","","","","","","",""
"learning-instructions","9","37818","0.0-7.0-0.2","1912","2","""event"",""trial"",""time""
""fullscreenenter"",""1"",""2904""
","
","
","""event"",""trial"",""time""
""fullscreenenter"",""1"",""2904""
","
","","","","","","646.1000000014901","<p> On every trial, you will see an image. </p><p> The image may be an OLD image you saw during the games last week or it may be a NEW image that was not presented. </p>","","0","instructions","","","","","","","","",""
"learning-instructions","10","47239","0.0-7.0-0.3","1912","2","""event"",""trial"",""time""
""fullscreenenter"",""1"",""2904""
","
","
","""event"",""trial"",""time""
""fullscreenenter"",""1"",""2904""
","
","","","","","","926.5","<p> You need to select whether the image is:  </p><p>  'Definitely old', 'Maybe old', 'Maybe new', or 'Definitely new.'  </p><div class=""mem-choice-instructions-grid""><div class=""choice-option"" id=""choice-option-1"" ><img src=""images/definitely_old_1.png"" id=""choice-option-img-1"" class=""choice-option-img"" stage=""1""></div><div class=""choice-option"" id=""choice-option-2"" ><img src=""images/maybe_old_1.png"" id=""choice-option-img-2"" class=""choice-option-img"" stage=""1""></div><div class=""choice-option"" id=""choice-option-3"" ><img src=""images/maybe_new_1.png"" id=""choice-option-img-3"" class=""choice-option-img"" stage=""1""></div><div class=""choice-option"" id=""choice-option-4"" > <img src=""images/definitely_new_1.png"" id=""choice-option-img-4"" class=""choice-option-img"" stage=""1""></div></div>","","0","instructions","","","","","","","","",""
"learning-instructions","11","54488","0.0-7.0-0.4","1912","2","""event"",""trial"",""time""
""fullscreenenter"",""1"",""2904""
","
","
","""event"",""trial"",""time""
""fullscreenenter"",""1"",""2904""
","
","","","","","","558.3000000007451","<p> You should use the 1, 2, 3, and 4 keys to make your responses.  </p><div class=""mem-choice-instructions-grid""><div class=""choice-option"" id=""choice-option-1"" ><img src=""images/definitely_old.png"" id=""choice-option-img-1"" class=""choice-option-img"" stage=""1""></div><div class=""choice-option"" id=""choice-option-2"" ><img src=""images/maybe_old.png"" id=""choice-option-img-2"" class=""choice-option-img"" stage=""1""></div><div class=""choice-option"" id=""choice-option-3"" ><img src=""images/maybe_new.png"" id=""choice-option-img-3"" class=""choice-option-img"" stage=""1""></div><div class=""choice-option"" id=""choice-option-4"" > <img src=""images/definitely_new.png"" id=""choice-option-img-4"" class=""choice-option-img"" stage=""1""></div></div>","","0","instructions","","","","","","","","",""
"learning-instructions","12","62013","0.0-7.0-0.5","1912","2","""event"",""trial"",""time""
""fullscreenenter"",""1"",""2904""
","
","
","""event"",""trial"",""time""
""fullscreenenter"",""1"",""2904""
","
","","","","","","764.4000000022352","<p> You will have 10 seconds to make each response.  </p><p>  Make sure to respond before time runs out! </p>","","0","instructions","","","","","","","","",""
"learning-instructions","13","70128","0.0-7.0-0.6","1912","2","""event"",""trial"",""time""
""fullscreenenter"",""1"",""2904""
","
","
","""event"",""trial"",""time""
""fullscreenenter"",""1"",""2904""
","
","","","","","","535.6000000014901","<p> Today, you will see each image ONCE only.  </p><p>  That means none of the images will repeat. </p>","","0","instructions","","","","","","","","",""
"learning-instructions","14","84955","0.0-7.0-0.7","1912","2","""event"",""trial"",""time""
""fullscreenenter"",""1"",""2904""
","
","
","""event"",""trial"",""time""
""fullscreenenter"",""1"",""2904""
","
","","","","","","2162.89999999851","<p> Before you play the real game, it is time to practice. </p><p>  Just like in the real game, some of the images in the practice will be ones you have seen before. </p><p>  Others will be entirely new. </p>","","0","instructions","","","","","","","","",""
"html-button-response","15","86700","0.0-8.0","1912","2","""event"",""trial"",""time""
""fullscreenenter"",""1"",""2904""
","
","
","""event"",""trial"",""time""
""fullscreenenter"",""1"",""2904""
","
","","","","","","1641.9000000022352","<p> Ready to practice? </p><p> Remember, use the 1, 2, 3, and 4 keys to make your responses. </p>","0","","instructions","","","","","","","","",""
"html-keyboard-response","16","87308","0.0-9.0-0.0","1912","2","""event"",""trial"",""time""
""fullscreenenter"",""1"",""2904""
","
","
","""event"",""trial"",""time""
""fullscreenenter"",""1"",""2904""
","
","","","","","","null","<div style=""font-size:60px;"">+</div>","null","","fixation","","","","","","","","",""
"memory-trial","17","90878","0.0-9.0-1.0","1912","2","""event"",""trial"",""time""
""fullscreenenter"",""1"",""2904""
","
","
","""event"",""trial"",""time""
""fullscreenenter"",""1"",""2904""
","
","","","","","","2562.599999997765","images/ball3.png","","","practice","2","maybe_old","","","","","","",""
"html-keyboard-response","18","91383","0.0-9.0-0.1","1912","2","""event"",""trial"",""time""
""fullscreenenter"",""1"",""2904""
","
","
","""event"",""trial"",""time""
""fullscreenenter"",""1"",""2904""
","
","","","","","","null","<div style=""font-size:60px;"">+</div>","null","","fixation","","","","","","","","",""
"memory-trial","19","95387","0.0-9.0-1.1","1912","2","""event"",""trial"",""time""
""fullscreenenter"",""1"",""2904""
","
","
","""event"",""trial"",""time""
""fullscreenenter"",""1"",""2904""
","
","","","","","","3001.7999999970198","images/racket1.png","","","practice","4","definitely_new","","","","","","",""
"html-keyboard-response","20","95888","0.0-9.0-0.2","1912","2","""event"",""trial"",""time""
""fullscreenenter"",""1"",""2904""
","
","
","""event"",""trial"",""time""
""fullscreenenter"",""1"",""2904""
","
","","","","","","null","<div style=""font-size:60px;"">+</div>","null","","fixation","","","","","","","","",""
"memory-trial","21","99790","0.0-9.0-1.2","1912","2","""event"",""trial"",""time""
""fullscreenenter"",""1"",""2904""
","
","
","""event"",""trial"",""time""
""fullscreenenter"",""1"",""2904""
","
","","","","","","2896.2000000029802","images/racket2.png","","","practice","3","maybe_new","","","","","","",""
"html-keyboard-response","22","100291","0.0-9.0-0.3","1912","2","""event"",""trial"",""time""
""fullscreenenter"",""1"",""2904""
","
","
","""event"",""trial"",""time""
""fullscreenenter"",""1"",""2904""
","
","","","","","","null","<div style=""font-size:60px;"">+</div>","null","","fixation","","","","","","","","",""
"memory-trial","23","103452","0.0-9.0-1.3","1912","2","""event"",""trial"",""time""
""fullscreenenter"",""1"",""2904""
","
","
","""event"",""trial"",""time""
""fullscreenenter"",""1"",""2904""
","
","","","","","","2157.10000000149","images/racket3.png","","","practice","1","definitely_old","","","","","","",""
"html-keyboard-response","24","103957","0.0-9.0-0.4","1912","2","""event"",""trial"",""time""
""fullscreenenter"",""1"",""2904""
","
","
","""event"",""trial"",""time""
""fullscreenenter"",""1"",""2904""
","
","","","","","","null","<div style=""font-size:60px;"">+</div>","null","","fixation","","","","","","","","",""
"memory-trial","25","107174","0.0-9.0-1.4","1912","2","""event"",""trial"",""time""
""fullscreenenter"",""1"",""2904""
","
","
","""event"",""trial"",""time""
""fullscreenenter"",""1"",""2904""
","
","","","","","","2209.900000002235","images/racket4.png","","","practice","4","definitely_new","","","","","","",""
"html-keyboard-response","26","107678","0.0-9.0-0.5","1912","2","""event"",""trial"",""time""
""fullscreenenter"",""1"",""2904""
","
","
","""event"",""trial"",""time""
""fullscreenenter"",""1"",""2904""
","
","","","","","","null","<div style=""font-size:60px;"">+</div>","null","","fixation","","","","","","","","",""
"memory-trial","27","111388","0.0-9.0-1.5","1912","2","""event"",""trial"",""time""
""fullscreenenter"",""1"",""2904""
","
","
","""event"",""trial"",""time""
""fullscreenenter"",""1"",""2904""
","
","","","","","","2702.800000000745","images/ball4.png","","","practice","2","maybe_old","","","","","","",""
"html-keyboard-response","28","111893","0.0-9.0-0.6","1912","2","""event"",""trial"",""time""
""fullscreenenter"",""1"",""2904""
","
","
","""event"",""trial"",""time""
""fullscreenenter"",""1"",""2904""
","
","","","","","","null","<div style=""font-size:60px;"">+</div>","null","","fixation","","","","","","","","",""
"memory-trial","29","114884","0.0-9.0-1.6","1912","2","""event"",""trial"",""time""
""fullscreenenter"",""1"",""2904""
","
","
","""event"",""trial"",""time""
""fullscreenenter"",""1"",""2904""
","
","","","","","","1987.199999999255","images/ball2.png","","","practice","2","maybe_old","","","","","","",""
"html-keyboard-response","30","115389","0.0-9.0-0.7","1912","2","""event"",""trial"",""time""
""fullscreenenter"",""1"",""2904""
","
","
","""event"",""trial"",""time""
""fullscreenenter"",""1"",""2904""
","
","","","","","","null","<div style=""font-size:60px;"">+</div>","null","","fixation","","","","","","","","",""
"memory-trial","31","118495","0.0-9.0-1.7","1912","2","""event"",""trial"",""time""
""fullscreenenter"",""1"",""2904""
","
","
","""event"",""trial"",""time""
""fullscreenenter"",""1"",""2904""
","
","","","","","","2100.89999999851","images/ball1.png","","","practice","1","definitely_old","","","","","","",""
"learning-instructions","32","127399","0.0-10.0-0.0","1912","2","""event"",""trial"",""time""
""fullscreenenter"",""1"",""2904""
","
","
","""event"",""trial"",""time""
""fullscreenenter"",""1"",""2904""
","
","","","","","","943.6000000014901","<p> Great! You have completed the practice. </p><p> Before you start, we're going to ask you a few questions about how the game works.  </p>","","0","instructions","","","","","","","","",""
"preload","33","129947","0.0-11.0","1912","2","""event"",""trial"",""time""
""fullscreenenter"",""1"",""2904""
","
","
","""event"",""trial"",""time""
""fullscreenenter"",""1"",""2904""
","
","true","false","[]","[]","[]","","","","","","","","","","","","","",""
"comp-q","34","137518","0.0-12.0-0.0","1912","2","""event"",""trial"",""time""
""fullscreenenter"",""1"",""2904""
","
","
","""event"",""trial"",""time""
""fullscreenenter"",""1"",""2904""
","
","","","","","","1739","<p> <b> True or False? </b> </p><p> In this game, you will only see each image once. </p>","","0","comp_question","","","true","","","","","",""
"comp-q","35","145511","0.0-12.0-1.0","1912","2","""event"",""trial"",""time""
""fullscreenenter"",""1"",""2904""
","
","
","""event"",""trial"",""time""
""fullscreenenter"",""1"",""2904""
","
","","","","","","1657.699999999255","<p> <b> That's right! </b> You will see many different images <i> one time each </i> in this game. </p>","","0","comp_answer","","","","","","","","",""
"comp-q","36","152390","0.0-12.0-0.1","1912","2","""event"",""trial"",""time""
""fullscreenenter"",""1"",""2904""
","
","
","""event"",""trial"",""time""
""fullscreenenter"",""1"",""2904""
","
","","","","","","1083","<p> <b> True or False? </b> </p><p> You should use the mouse and click to make your response. </p>","","1","comp_question","","","true","","","","","",""
"comp-q","37","160772","0.0-12.0-1.1","1912","2","""event"",""trial"",""time""
""fullscreenenter"",""1"",""2904""
","
","
","""event"",""trial"",""time""
""fullscreenenter"",""1"",""2904""
","
","","","","","","1036.199999999255","<p><b> That's right! </b> You should use the '1', '2', '3', and '4' keys to make your response. </p>","","0","comp_answer","","","","","","","","",""
"comp-q","38","167696","0.0-12.0-0.2","1912","2","""event"",""trial"",""time""
""fullscreenenter"",""1"",""2904""
","
","
","""event"",""trial"",""time""
""fullscreenenter"",""1"",""2904""
","
","","","","","","929.5","<p> <b> True or False? </b> </p><p> You will have as much time as you want to make each choice. </p>","","1","comp_question","","","true","","","","","",""
"comp-q","39","174737","0.0-12.0-1.2","1912","2","""event"",""trial"",""time""
""fullscreenenter"",""1"",""2904""
","
","
","""event"",""trial"",""time""
""fullscreenenter"",""1"",""2904""
","
","","","","","","1648.800000000745","<p> <b> That's right! </b> You will only have 10 seconds to make each choice. </p>","","0","comp_answer","","","","","","","","",""
"learning-instructions","40","184943","0.0-13.0","1912","2","""event"",""trial"",""time""
""fullscreenenter"",""1"",""2904""
","
","
","""event"",""trial"",""time""
""fullscreenenter"",""1"",""2904""
","
","","","","","","1532.8999999985099","<p> Great! You are now ready to begin the game. </p><p> Remember, use the 1, 2, 3, and 4 keys to make your responses. </p>","","0","instructions","","","","","","","","",""
"preload","41","190425","0.0-14.0","1912","2","""event"",""trial"",""time""
""fullscreenenter"",""1"",""2904""
","
","
","""event"",""trial"",""time""
""fullscreenenter"",""1"",""2904""
","
","true","false","[]","[]","[]","","","","","","","","","","","","","",""
"html-keyboard-response","42","190927","0.0-15.0-0.0","1912","2","""event"",""trial"",""time""
""fullscreenenter"",""1"",""2904""
","
","
","""event"",""trial"",""time""
""fullscreenenter"",""1"",""2904""
","
","","","","","","null","<div style=""font-size:60px;"">+</div>","null","","fixation","","","","","","","","",""
"memory-trial","43","193516","0.0-15.0-1.0","1912","2","""event"",""trial"",""time""
""fullscreenenter"",""1"",""2904""
","
","
","""event"",""trial"",""time""
""fullscreenenter"",""1"",""2904""
","
","","","","","","1584.6000000014901","images/rodent4.png","","","memory_trial","1","definitely_old","","","","","","",""
"html-keyboard-response","44","194021","0.0-15.0-0.1","1912","2","""event"",""trial"",""time""
""fullscreenenter"",""1"",""2904""
","
","
","""event"",""trial"",""time""
""fullscreenenter"",""1"",""2904""
","
","","","","","","null","<div style=""font-size:60px;"">+</div>","null","","fixation","","","","","","","","",""
"memory-trial","45","196671","0.0-15.0-1.1","1912","2","""event"",""trial"",""time""
""fullscreenenter"",""1"",""2904""
","
","
","""event"",""trial"",""time""
""fullscreenenter"",""1"",""2904""
","
","","","","","","1644.199999999255","images/boat3.png","","","memory_trial","2","maybe_old","","","","","","",""
"html-keyboard-response","46","197173","0.0-15.0-0.2","1912","2","""event"",""trial"",""time""
""fullscreenenter"",""1"",""2904""
","
","
","""event"",""trial"",""time""
""fullscreenenter"",""1"",""2904""
","
","","","","","","null","<div style=""font-size:60px;"">+</div>","null","","fixation","","","","","","","","",""
"memory-trial","47","199542","0.0-15.0-1.2","1912","2","""event"",""trial"",""time""
""fullscreenenter"",""1"",""2904""
","
","
","""event"",""trial"",""time""
""fullscreenenter"",""1"",""2904""
","
","","","","","","1363.0999999977648","images/horse4.png","","","memory_trial","1","definitely_old","","","","","","",""
"html-keyboard-response","48","200046","0.0-15.0-0.3","1912","2","""event"",""trial"",""time""
""fullscreenenter"",""1"",""2904""
","
","
","""event"",""trial"",""time""
""fullscreenenter"",""1"",""2904""
","
","","","","","","null","<div style=""font-size:60px;"">+</div>","null","","fixation","","","","","","","","",""
"memory-trial","49","202229","0.0-15.0-1.3","1912","2","""event"",""trial"",""time""
""fullscreenenter"",""1"",""2904""
","
","
","""event"",""trial"",""time""
""fullscreenenter"",""1"",""2904""
","
","","","","","","1175.9000000022352","images/table1.png","","","memory_trial","2","maybe_old","","","","","","",""
"html-keyboard-response","50","202734","0.0-15.0-0.4","1912","2","""event"",""trial"",""time""
""fullscreenenter"",""1"",""2904""
","
","
","""event"",""trial"",""time""
""fullscreenenter"",""1"",""2904""
","
","","","","","","null","<div style=""font-size:60px;"">+</div>","null","","fixation","","","","","","","","",""
"memory-trial","51","204882","0.0-15.0-1.4","1912","2","""event"",""trial"",""time""
""fullscreenenter"",""1"",""2904""
","
","
","""event"",""trial"",""time""
""fullscreenenter"",""1"",""2904""
","
","","","","","","1143.199999999255","images/dog2.png","","","memory_trial","1","definitely_old","","","","","","",""
"html-keyboard-response","52","205388","0.0-15.0-0.5","1912","2","""event"",""trial"",""time""
""fullscreenenter"",""1"",""2904""
","
","
","""event"",""trial"",""time""
""fullscreenenter"",""1"",""2904""
","
","","","","","","null","<div style=""font-size:60px;"">+</div>","null","","fixation","","","","","","","","",""
"memory-trial","53","207686","0.0-15.0-1.5","1912","2","""event"",""trial"",""time""
""fullscreenenter"",""1"",""2904""
","
","
","""event"",""trial"",""time""
""fullscreenenter"",""1"",""2904""
","
","","","","","","1295.8999999985099","images/goat5.png","","","memory_trial","1","definitely_old","","","","","","",""
"html-keyboard-response","54","208191","0.0-15.0-0.6","1912","2","""event"",""trial"",""time""
""fullscreenenter"",""1"",""2904""
","
","
","""event"",""trial"",""time""
""fullscreenenter"",""1"",""2904""
","
","","","","","","null","<div style=""font-size:60px;"">+</div>","null","","fixation","","","","","","","","",""
"memory-trial","55","210589","0.0-15.0-1.6","1912","2","""event"",""trial"",""time""
""fullscreenenter"",""1"",""2904""
","
","
","""event"",""trial"",""time""
""fullscreenenter"",""1"",""2904""
","
","","","","","","1392.4000000022352","images/truck3.png","","","memory_trial","4","definitely_new","","","","","","",""
"html-keyboard-response","56","211093","0.0-15.0-0.7","1912","2","""event"",""trial"",""time""
""fullscreenenter"",""1"",""2904""
","
","
","""event"",""trial"",""time""
""fullscreenenter"",""1"",""2904""
","
","","","","","","null","<div style=""font-size:60px;"">+</div>","null","","fixation","","","","","","","","",""
"memory-trial","57","213253","0.0-15.0-1.7","1912","2","""event"",""trial"",""time""
""fullscreenenter"",""1"",""2904""
","
","
","""event"",""trial"",""time""
""fullscreenenter"",""1"",""2904""
","
","","","","","","1157.3999999985099","images/horse2.png","","","memory_trial","1","definitely_old","","","","","","",""
"html-keyboard-response","58","213759","0.0-15.0-0.8","1912","2","""event"",""trial"",""time""
""fullscreenenter"",""1"",""2904""
","
","
","""event"",""trial"",""time""
""fullscreenenter"",""1"",""2904""
","
","","","","","","null","<div style=""font-size:60px;"">+</div>","null","","fixation","","","","","","","","",""
"memory-trial","59","216494","0.0-15.0-1.8","1912","2","""event"",""trial"",""time""
""fullscreenenter"",""1"",""2904""
","
","
","""event"",""trial"",""time""
""fullscreenenter"",""1"",""2904""
","
","","","","","","1732.199999999255","images/feline4.png","","","memory_trial","2","maybe_old","","","","","","",""
"html-keyboard-response","60","216999","0.0-15.0-0.9","1912","2","""event"",""trial"",""time""
""fullscreenenter"",""1"",""2904""
","
","
","""event"",""trial"",""time""
""fullscreenenter"",""1"",""2904""
","
","","","","","","null","<div style=""font-size:60px;"">+</div>","null","","fixation","","","","","","","","",""
"memory-trial","61","220772","0.0-15.0-1.9","1912","2","""event"",""trial"",""time""
""fullscreenenter"",""1"",""2904""
","
","
","""event"",""trial"",""time""
""fullscreenenter"",""1"",""2904""
","
","","","","","","2770","images/straw4.png","","","memory_trial","1","definitely_old","","","","","","",""
"html-keyboard-response","62","221277","0.0-15.0-0.10","1912","2","""event"",""trial"",""time""
""fullscreenenter"",""1"",""2904""
","
","
","""event"",""trial"",""time""
""fullscreenenter"",""1"",""2904""
","
","","","","","","null","<div style=""font-size:60px;"">+</div>","null","","fixation","","","","","","","","",""
"memory-trial","63","224975","0.0-15.0-1.10","1912","2","""event"",""trial"",""time""
""fullscreenenter"",""1"",""2904""
","
","
","""event"",""trial"",""time""
""fullscreenenter"",""1"",""2904""
","
","","","","","","2694.60000000149","images/flower2.png","","","memory_trial","3","maybe_new","","","","","","",""
"html-keyboard-response","64","225480","0.0-15.0-0.11","1912","2","""event"",""trial"",""time""
""fullscreenenter"",""1"",""2904""
","
","
","""event"",""trial"",""time""
""fullscreenenter"",""1"",""2904""
","
","","","","","","null","<div style=""font-size:60px;"">+</div>","null","","fixation","","","","","","","","",""
"memory-trial","65","228084","0.0-15.0-1.11","1912","2","""event"",""trial"",""time""
""fullscreenenter"",""1"",""2904""
","
","
","""event"",""trial"",""time""
""fullscreenenter"",""1"",""2904""
","
","","","","","","1598.300000000745","images/plane4.png","","","memory_trial","4","definitely_new","","","","","","",""
"html-keyboard-response","66","228590","0.0-15.0-0.12","1912","2","""event"",""trial"",""time""
""fullscreenenter"",""1"",""2904""
","
","
","""event"",""trial"",""time""
""fullscreenenter"",""1"",""2904""
","
","","","","","","null","<div style=""font-size:60px;"">+</div>","null","","fixation","","","","","","","","",""
"memory-trial","67","231523","0.0-15.0-1.12","1912","2","""event"",""trial"",""time""
""fullscreenenter"",""1"",""2904""
","
","
","""event"",""trial"",""time""
""fullscreenenter"",""1"",""2904""
","
","","","","","","1931.199999999255","images/plane3.png","","","memory_trial","1","definitely_old","","","","","","",""
"html-keyboard-response","68","232028","0.0-15.0-0.13","1912","2","""event"",""trial"",""time""
""fullscreenenter"",""1"",""2904""
","
","
","""event"",""trial"",""time""
""fullscreenenter"",""1"",""2904""
","
","","","","","","null","<div style=""font-size:60px;"">+</div>","null","","fixation","","","","","","","","",""
"memory-trial","69","235030","0.0-15.0-1.13","1912","2","""event"",""trial"",""time""
""fullscreenenter"",""1"",""2904""
","
","
","""event"",""trial"",""time""
""fullscreenenter"",""1"",""2904""
","
","","","","","","1999.1000000014901","images/sheep3.png","","","memory_trial","3","maybe_new","","","","","","",""
"html-keyboard-response","70","235534","0.0-15.0-0.14","1912","2","""event"",""trial"",""time""
""fullscreenenter"",""1"",""2904""
","
","
","""event"",""trial"",""time""
""fullscreenenter"",""1"",""2904""
","
","","","","","","null","<div style=""font-size:60px;"">+</div>","null","","fixation","","","","","","","","",""
"memory-trial","71","238008","0.0-15.0-1.14","1912","2","""event"",""trial"",""time""
""fullscreenenter"",""1"",""2904""
","
","
","""event"",""trial"",""time""
""fullscreenenter"",""1"",""2904""
","
","","","","","","1469.800000000745","images/sofa1.png","","","memory_trial","1","definitely_old","","","","","","",""
"html-keyboard-response","72","238513","0.0-15.0-0.15","1912","2","""event"",""trial"",""time""
""fullscreenenter"",""1"",""2904""
","
","
","""event"",""trial"",""time""
""fullscreenenter"",""1"",""2904""
","
","","","","","","null","<div style=""font-size:60px;"">+</div>","null","","fixation","","","","","","","","",""
"memory-trial","73","240625","0.0-15.0-1.15","1912","2","""event"",""trial"",""time""
""fullscreenenter"",""1"",""2904""
","
","
","""event"",""trial"",""time""
""fullscreenenter"",""1"",""2904""
","
","","","","","","1105.699999999255","images/rodent2.png","","","memory_trial","1","definitely_old","","","","","","",""
"html-keyboard-response","74","241130","0.0-15.0-0.16","1912","2","""event"",""trial"",""time""
""fullscreenenter"",""1"",""2904""
","
","
","""event"",""trial"",""time""
""fullscreenenter"",""1"",""2904""
","
","","","","","","null","<div style=""font-size:60px;"">+</div>","null","","fixation","","","","","","","","",""
"memory-trial","75","244248","0.0-15.0-1.16","1912","2","""event"",""trial"",""time""
""fullscreenenter"",""1"",""2904""
","
","
","""event"",""trial"",""time""
""fullscreenenter"",""1"",""2904""
","
","","","","","","2114.10000000149","images/rabbit4.png","","","memory_trial","2","maybe_old","","","","","","",""
"html-keyboard-response","76","244753","0.0-15.0-0.17","1912","2","""event"",""trial"",""time""
""fullscreenenter"",""1"",""2904""
","
","
","""event"",""trial"",""time""
""fullscreenenter"",""1"",""2904""
","
","","","","","","null","<div style=""font-size:60px;"">+</div>","null","","fixation","","","","","","","","",""
"memory-trial","77","247104","0.0-15.0-1.17","1912","2","""event"",""trial"",""time""
""fullscreenenter"",""1"",""2904""
","
","
","""event"",""trial"",""time""
""fullscreenenter"",""1"",""2904""
","
","","","","","","1346.3999999985099","images/tree2.png","","","memory_trial","1","definitely_old","","","","","","",""
"html-keyboard-response","78","247609","0.0-15.0-0.18","1912","2","""event"",""trial"",""time""
""fullscreenenter"",""1"",""2904""
","
","
","""event"",""trial"",""time""
""fullscreenenter"",""1"",""2904""
","
","","","","","","null","<div style=""font-size:60px;"">+</div>","null","","fixation","","","","","","","","",""
"memory-trial","79","251197","0.0-15.0-1.18","1912","2","""event"",""trial"",""time""
""fullscreenenter"",""1"",""2904""
","
","
","""event"",""trial"",""time""
""fullscreenenter"",""1"",""2904""
","
","","","","","","2584","images/dog1.png","","","memory_trial","3","maybe_new","","","","","","",""
"html-keyboard-response","80","251702","0.0-15.0-0.19","1912","2","""event"",""trial"",""time""
""fullscreenenter"",""1"",""2904""
","
","
","""event"",""trial"",""time""
""fullscreenenter"",""1"",""2904""
","
","","","","","","null","<div style=""font-size:60px;"">+</div>","null","","fixation","","","","","","","","",""
"memory-trial","81","254413","0.0-15.0-1.19","1912","2","""event"",""trial"",""time""
""fullscreenenter"",""1"",""2904""
","
","
","""event"",""trial"",""time""
""fullscreenenter"",""1"",""2904""
","
","","","","","","1704.6000000014901","images/chair3.png","","","memory_trial","3","maybe_new","","","","","","",""
"html-keyboard-response","82","254918","0.0-15.0-0.20","1912","2","""event"",""trial"",""time""
""fullscreenenter"",""1"",""2904""
","
","
","""event"",""trial"",""time""
""fullscreenenter"",""1"",""2904""
","
","","","","","","null","<div style=""font-size:60px;"">+</div>","null","","fixation","","","","","","","","",""
"memory-trial","83","258250","0.0-15.0-1.20","1912","2","""event"",""trial"",""time""
""fullscreenenter"",""1"",""2904""
","
","
","""event"",""trial"",""time""
""fullscreenenter"",""1"",""2904""
","
","","","","","","2330.599999997765","images/sofa4.png","","","memory_trial","2","maybe_old","","","","","","",""
"html-keyboard-response","84","258755","0.0-15.0-0.21","1912","2","""event"",""trial"",""time""
""fullscreenenter"",""1"",""2904""
","
","
","""event"",""trial"",""time""
""fullscreenenter"",""1"",""2904""
","
","","","","","","null","<div style=""font-size:60px;"">+</div>","null","","fixation","","","","","","","","",""
"memory-trial","85","261745","0.0-15.0-1.21","1912","2","""event"",""trial"",""time""
""fullscreenenter"",""1"",""2904""
","
","
","""event"",""trial"",""time""
""fullscreenenter"",""1"",""2904""
","
","","","","","","1983.7999999970198","images/tree5.png","","","memory_trial","2","maybe_old","","","","","","",""
"html-keyboard-response","86","262250","0.0-15.0-0.22","1912","2","""event"",""trial"",""time""
""fullscreenenter"",""1"",""2904""
","
","
","""event"",""trial"",""time""
""fullscreenenter"",""1"",""2904""
","
","","","","","","null","<div style=""font-size:60px;"">+</div>","null","","fixation","","","","","","","","",""
"memory-trial","87","265414","0.0-15.0-1.22","1912","2","""event"",""trial"",""time""
""fullscreenenter"",""1"",""2904""
","
","
","""event"",""trial"",""time""
""fullscreenenter"",""1"",""2904""
","
","","","","","","2157.199999999255","images/plane5.png","","","memory_trial","2","maybe_old","","","","","","",""
"html-keyboard-response","88","265919","0.0-15.0-0.23","1912","2","""event"",""trial"",""time""
""fullscreenenter"",""1"",""2904""
","
","
","""event"",""trial"",""time""
""fullscreenenter"",""1"",""2904""
","
","","","","","","null","<div style=""font-size:60px;"">+</div>","null","","fixation","","","","","","","","",""
"memory-trial","89","268740","0.0-15.0-1.23","1912","2","""event"",""trial"",""time""
""fullscreenenter"",""1"",""2904""
","
","
","""event"",""trial"",""time""
""fullscreenenter"",""1"",""2904""
","
","","","","","","1816.8999999985099","images/cactus1.png","","","memory_trial","3","maybe_new","","","","","","",""
"html-keyboard-response","90","269245","0.0-15.0-0.24","1912","2","""event"",""trial"",""time""
""fullscreenenter"",""1"",""2904""
","
","
","""event"",""trial"",""time""
""fullscreenenter"",""1"",""2904""
","
","","","","","","null","<div style=""font-size:60px;"">+</div>","null","","fixation","","","","","","","","",""
"memory-trial","91","271770","0.0-15.0-1.24","1912","2","""event"",""trial"",""time""
""fullscreenenter"",""1"",""2904""
","
","
","""event"",""trial"",""time""
""fullscreenenter"",""1"",""2904""
","
","","","","","","1520.699999999255","images/truck5.png","","","memory_trial","4","definitely_new","","","","","","",""
"html-keyboard-response","92","272275","0.0-15.0-0.25","1912","2","""event"",""trial"",""time""
""fullscreenenter"",""1"",""2904""
","
","
","""event"",""trial"",""time""
""fullscreenenter"",""1"",""2904""
","
","","","","","","null","<div style=""font-size:60px;"">+</div>","null","","fixation","","","","","","","","",""
"memory-trial","93","274632","0.0-15.0-1.25","1912","2","""event"",""trial"",""time""
""fullscreenenter"",""1"",""2904""
","
","
","""event"",""trial"",""time""
""fullscreenenter"",""1"",""2904""
","
","","","","","","1350.8999999985099","images/flower5.png","","","memory_trial","4","definitely_new","","","","","","",""
"html-keyboard-response","94","275137","0.0-15.0-0.26","1912","2","""event"",""trial"",""time""
""fullscreenenter"",""1"",""2904""
","
","
","""event"",""trial"",""time""
""fullscreenenter"",""1"",""2904""
","
","","","","","","null","<div style=""font-size:60px;"">+</div>","null","","fixation","","","","","","","","",""
"memory-trial","95","277291","0.0-15.0-1.26","1912","2","""event"",""trial"",""time""
""fullscreenenter"",""1"",""2904""
","
","
","""event"",""trial"",""time""
""fullscreenenter"",""1"",""2904""
","
","","","","","","1149.8999999985099","images/bush4.png","","","memory_trial","4","definitely_new","","","","","","",""
"html-keyboard-response","96","277796","0.0-15.0-0.27","1912","2","""event"",""trial"",""time""
""fullscreenenter"",""1"",""2904""
","
","
","""event"",""trial"",""time""
""fullscreenenter"",""1"",""2904""
","
","","","","","","null","<div style=""font-size:60px;"">+</div>","null","","fixation","","","","","","","","",""
"memory-trial","97","279996","0.0-15.0-1.27","1912","2","""event"",""trial"",""time""
""fullscreenenter"",""1"",""2904""
","
","
","""event"",""trial"",""time""
""fullscreenenter"",""1"",""2904""
","
","","","","","","1194.7999999970198","images/dog5.png","","","memory_trial","4","definitely_new","","","","","","",""
"html-keyboard-response","98","280501","0.0-15.0-0.28","1912","2","""event"",""trial"",""time""
""fullscreenenter"",""1"",""2904""
","
","
","""event"",""trial"",""time""
""fullscreenenter"",""1"",""2904""
","
","","","","","","null","<div style=""font-size:60px;"">+</div>","null","","fixation","","","","","","","","",""
"memory-trial","99","282742","0.0-15.0-1.28","1912","2","""event"",""trial"",""time""
""fullscreenenter"",""1"",""2904""
","
","
","""event"",""trial"",""time""
""fullscreenenter"",""1"",""2904""
","
","","","","","","1236.699999999255","images/plane2.png","","","memory_trial","4","definitely_new","","","","","","",""
"html-keyboard-response","100","283247","0.0-15.0-0.29","1912","2","""event"",""trial"",""time""
""fullscreenenter"",""1"",""2904""
","
","
","""event"",""trial"",""time""
""fullscreenenter"",""1"",""2904""
","
","","","","","","null","<div style=""font-size:60px;"">+</div>","null","","fixation","","","","","","","","",""
"memory-trial","101","286463","0.0-15.0-1.29","1912","2","""event"",""trial"",""time""
""fullscreenenter"",""1"",""2904""
","
","
","""event"",""trial"",""time""
""fullscreenenter"",""1"",""2904""
","
","","","","","","2212.400000002235","images/table3.png","","","memory_trial","3","maybe_new","","","","","","",""
"html-keyboard-response","102","286968","0.0-15.0-0.30","1912","2","""event"",""trial"",""time""
""fullscreenenter"",""1"",""2904""
","
","
","""event"",""trial"",""time""
""fullscreenenter"",""1"",""2904""
","
","","","","","","null","<div style=""font-size:60px;"">+</div>","null","","fixation","","","","","","","","",""
"memory-trial","103","289273","0.0-15.0-1.30","1912","2","""event"",""trial"",""time""
""fullscreenenter"",""1"",""2904""
","
","
","""event"",""trial"",""time""
""fullscreenenter"",""1"",""2904""
","
","","","","","","1302.1000000014901","images/cow4.png","","","memory_trial","3","maybe_new","","","","","","",""
"html-keyboard-response","104","289778","0.0-15.0-0.31","1912","2","""event"",""trial"",""time""
""fullscreenenter"",""1"",""2904""
","
","
","""event"",""trial"",""time""
""fullscreenenter"",""1"",""2904""
","
","","","","","","null","<div style=""font-size:60px;"">+</div>","null","","fixation","","","","","","","","",""
"memory-trial","105","292042","0.0-15.0-1.31","1912","2","""event"",""trial"",""time""
""fullscreenenter"",""1"",""2904""
","
","
","""event"",""trial"",""time""
""fullscreenenter"",""1"",""2904""
","
","","","","","","1261.800000000745","images/cactus3.png","","","memory_trial","4","definitely_new","","","","","","",""
"html-keyboard-response","106","292547","0.0-15.0-0.32","1912","2","""event"",""trial"",""time""
""fullscreenenter"",""1"",""2904""
","
","
","""event"",""trial"",""time""
""fullscreenenter"",""1"",""2904""
","
","","","","","","null","<div style=""font-size:60px;"">+</div>","null","","fixation","","","","","","","","",""
"memory-trial","107","294712","0.0-15.0-1.32","1912","2","""event"",""trial"",""time""
""fullscreenenter"",""1"",""2904""
","
","
","""event"",""trial"",""time""
""fullscreenenter"",""1"",""2904""
","
","","","","","","1161","images/goat1.png","","","memory_trial","4","definitely_new","","","","","","",""
"html-keyboard-response","108","295217","0.0-15.0-0.33","1912","2","""event"",""trial"",""time""
""fullscreenenter"",""1"",""2904""
","
","
","""event"",""trial"",""time""
""fullscreenenter"",""1"",""2904""
","
","","","","","","null","<div style=""font-size:60px;"">+</div>","null","","fixation","","","","","","","","",""
"memory-trial","109","298184","0.0-15.0-1.33","1912","2","""event"",""trial"",""time""
""fullscreenenter"",""1"",""2904""
","
","
","""event"",""trial"",""time""
""fullscreenenter"",""1"",""2904""
","
","","","","","","1963.1000000014901","images/flower4.png","","","memory_trial","2","maybe_old","","","","","","",""
"html-keyboard-response","110","298689","0.0-15.0-0.34","1912","2","""event"",""trial"",""time""
""fullscreenenter"",""1"",""2904""
","
","
","""event"",""trial"",""time""
""fullscreenenter"",""1"",""2904""
","
","","","","","","null","<div style=""font-size:60px;"">+</div>","null","","fixation","","","","","","","","",""
"memory-trial","111","301145","0.0-15.0-1.34","1912","2","""event"",""trial"",""time""
""fullscreenenter"",""1"",""2904""
","
","
","""event"",""trial"",""time""
""fullscreenenter"",""1"",""2904""
","
","","","","","","1451.0999999977648","images/feline3.png","","","memory_trial","4","definitely_new","","","","","","",""
"html-keyboard-response","112","301649","0.0-15.0-0.35","1912","2","""event"",""trial"",""time""
""fullscreenenter"",""1"",""2904""
","
","
","""event"",""trial"",""time""
""fullscreenenter"",""1"",""2904""
","
","","","","","","null","<div style=""font-size:60px;"">+</div>","null","","fixation","","","","","","","","",""
"memory-trial","113","303838","0.0-15.0-1.35","1912","2","""event"",""trial"",""time""
""fullscreenenter"",""1"",""2904""
","
","
","""event"",""trial"",""time""
""fullscreenenter"",""1"",""2904""
","
","","","","","","1183","images/cow1.png","","","memory_trial","1","definitely_old","","","","","","",""
"html-keyboard-response","114","304343","0.0-15.0-0.36","1912","2","""event"",""trial"",""time""
""fullscreenenter"",""1"",""2904""
","
","
","""event"",""trial"",""time""
""fullscreenenter"",""1"",""2904""
","
","","","","","","null","<div style=""font-size:60px;"">+</div>","null","","fixation","","","","","","","","",""
"memory-trial","115","306764","0.0-15.0-1.36","1912","2","""event"",""trial"",""time""
""fullscreenenter"",""1"",""2904""
","
","
","""event"",""trial"",""time""
""fullscreenenter"",""1"",""2904""
","
","","","","","","1417.800000000745","images/orange5.png","","","memory_trial","4","definitely_new","","","","","","",""
"html-keyboard-response","116","307269","0.0-15.0-0.37","1912","2","""event"",""trial"",""time""
""fullscreenenter"",""1"",""2904""
","
","
","""event"",""trial"",""time""
""fullscreenenter"",""1"",""2904""
","
","","","","","","null","<div style=""font-size:60px;"">+</div>","null","","fixation","","","","","","","","",""
"memory-trial","117","309463","0.0-15.0-1.37","1912","2","""event"",""trial"",""time""
""fullscreenenter"",""1"",""2904""
","
","
","""event"",""trial"",""time""
""fullscreenenter"",""1"",""2904""
","
","","","","","","1189.5","images/boat2.png","","","memory_trial","4","definitely_new","","","","","","",""
"html-keyboard-response","118","309968","0.0-15.0-0.38","1912","2","""event"",""trial"",""time""
""fullscreenenter"",""1"",""2904""
","
","
","""event"",""trial"",""time""
""fullscreenenter"",""1"",""2904""
","
","","","","","","null","<div style=""font-size:60px;"">+</div>","null","","fixation","","","","","","","","",""
"memory-trial","119","312650","0.0-15.0-1.38","1912","2","""event"",""trial"",""time""
""fullscreenenter"",""1"",""2904""
","
","
","""event"",""trial"",""time""
""fullscreenenter"",""1"",""2904""
","
","","","","","","1677.8999999985099","images/orange3.png","","","memory_trial","4","definitely_new","","","","","","",""
"html-keyboard-response","120","313155","0.0-15.0-0.39","1912","2","""event"",""trial"",""time""
""fullscreenenter"",""1"",""2904""
","
","
","""event"",""trial"",""time""
""fullscreenenter"",""1"",""2904""
","
","","","","","","null","<div style=""font-size:60px;"">+</div>","null","","fixation","","","","","","","","",""
"memory-trial","121","315216","0.0-15.0-1.39","1912","2","""event"",""trial"",""time""
""fullscreenenter"",""1"",""2904""
","
","
","""event"",""trial"",""time""
""fullscreenenter"",""1"",""2904""
","
","","","","","","1057.8999999985099","images/rodent1.png","","","memory_trial","1","definitely_old","","","","","","",""
"html-keyboard-response","122","315721","0.0-15.0-0.40","1912","2","""event"",""trial"",""time""
""fullscreenenter"",""1"",""2904""
","
","
","""event"",""trial"",""time""
""fullscreenenter"",""1"",""2904""
","
","","","","","","null","<div style=""font-size:60px;"">+</div>","null","","fixation","","","","","","","","",""
"memory-trial","123","318635","0.0-15.0-1.40","1912","2","""event"",""trial"",""time""
""fullscreenenter"",""1"",""2904""
","
","
","""event"",""trial"",""time""
""fullscreenenter"",""1"",""2904""
","
","","","","","","1907.6000000014901","images/rodent5.png","","","memory_trial","3","maybe_new","","","","","","",""
"html-keyboard-response","124","319141","0.0-15.0-0.41","1912","2","""event"",""trial"",""time""
""fullscreenenter"",""1"",""2904""
","
","
","""event"",""trial"",""time""
""fullscreenenter"",""1"",""2904""
","
","","","","","","null","<div style=""font-size:60px;"">+</div>","null","","fixation","","","","","","","","",""
"memory-trial","125","321276","0.0-15.0-1.41","1912","2","""event"",""trial"",""time""
""fullscreenenter"",""1"",""2904""
","
","
","""event"",""trial"",""time""
""fullscreenenter"",""1"",""2904""
","
","","","","","","1128.5","images/bed5.png","","","memory_trial","4","definitely_new","","","","","","",""
"html-keyboard-response","126","321781","0.0-15.0-0.42","1912","2","""event"",""trial"",""time""
""fullscreenenter"",""1"",""2904""
","
","
","""event"",""trial"",""time""
""fullscreenenter"",""1"",""2904""
","
","","","","","","null","<div style=""font-size:60px;"">+</div>","null","","fixation","","","","","","","","",""
"memory-trial","127","324812","0.0-15.0-1.42","1912","2","""event"",""trial"",""time""
""fullscreenenter"",""1"",""2904""
","
","
","""event"",""trial"",""time""
""fullscreenenter"",""1"",""2904""
","
","","","","","","2026.3999999985099","images/apple4.png","","","memory_trial","2","maybe_old","","","","","","",""
"html-keyboard-response","128","325317","0.0-15.0-0.43","1912","2","""event"",""trial"",""time""
""fullscreenenter"",""1"",""2904""
","
","
","""event"",""trial"",""time""
""fullscreenenter"",""1"",""2904""
","
","","","","","","null","<div style=""font-size:60px;"">+</div>","null","","fixation","","","","","","","","",""
"memory-trial","129","327773","0.0-15.0-1.43","1912","2","""event"",""trial"",""time""
""fullscreenenter"",""1"",""2904""
","
","
","""event"",""trial"",""time""
""fullscreenenter"",""1"",""2904""
","
","","","","","","1449.300000000745","images/apple3.png","","","memory_trial","1","definitely_old","","","","","","",""
"html-keyboard-response","130","328278","0.0-15.0-0.44","1912","2","""event"",""trial"",""time""
""fullscreenenter"",""1"",""2904""
","
","
","""event"",""trial"",""time""
""fullscreenenter"",""1"",""2904""
","
","","","","","","null","<div style=""font-size:60px;"">+</div>","null","","fixation","","","","","","","","",""
"memory-trial","131","330791","0.0-15.0-1.44","1912","2","""event"",""trial"",""time""
""fullscreenenter"",""1"",""2904""
","
","
","""event"",""trial"",""time""
""fullscreenenter"",""1"",""2904""
","
","","","","","","1510.800000000745","images/sofa2.png","","","memory_trial","3","maybe_new","","","","","","",""
"html-keyboard-response","132","331296","0.0-15.0-0.45","1912","2","""event"",""trial"",""time""
""fullscreenenter"",""1"",""2904""
","
","
","""event"",""trial"",""time""
""fullscreenenter"",""1"",""2904""
","
","","","","","","null","<div style=""font-size:60px;"">+</div>","null","","fixation","","","","","","","","",""
"memory-trial","133","333828","0.0-15.0-1.45","1912","2","""event"",""trial"",""time""
""fullscreenenter"",""1"",""2904""
","
","
","""event"",""trial"",""time""
""fullscreenenter"",""1"",""2904""
","
","","","","","","1524.7999999970198","images/boat4.png","","","memory_trial","1","definitely_old","","","","","","",""
"html-keyboard-response","134","334332","0.0-15.0-0.46","1912","2","""event"",""trial"",""time""
""fullscreenenter"",""1"",""2904""
","
","
","""event"",""trial"",""time""
""fullscreenenter"",""1"",""2904""
","
","","","","","","null","<div style=""font-size:60px;"">+</div>","null","","fixation","","","","","","","","",""
"memory-trial","135","337287","0.0-15.0-1.46","1912","2","""event"",""trial"",""time""
""fullscreenenter"",""1"",""2904""
","
","
","""event"",""trial"",""time""
""fullscreenenter"",""1"",""2904""
","
","","","","","","1947.3999999985099","images/table4.png","","","memory_trial","3","maybe_new","","","","","","",""
"html-button-response","136","340411","0.0-15.0-2.46-0.46","1912","2","""event"",""trial"",""time""
""fullscreenenter"",""1"",""2904""
","
","
","""event"",""trial"",""time""
""fullscreenenter"",""1"",""2904""
","
","","","","","","3123.300000000745","<p> Take a break! </p><p> Click the button to continue. </p>","0","","break","","","","","","","","",""
"html-keyboard-response","137","340912","0.0-15.0-0.47","1912","2","""event"",""trial"",""time""
""fullscreenenter"",""1"",""2904""
","
","
","""event"",""trial"",""time""
""fullscreenenter"",""1"",""2904""
","
","","","","","","null","<div style=""font-size:60px;"">+</div>","null","","fixation","","","","","","","","",""
"memory-trial","138","343168","0.0-15.0-1.47","1912","2","""event"",""trial"",""time""
""fullscreenenter"",""1"",""2904""
","
","
","""event"",""trial"",""time""
""fullscreenenter"",""1"",""2904""
","
","","","","","","1252.4000000022352","images/sofa5.png","","","memory_trial","4","definitely_new","","","","","","",""
"html-keyboard-response","139","343673","0.0-15.0-0.48","1912","2","""event"",""trial"",""time""
""fullscreenenter"",""1"",""2904""
","
","
","""event"",""trial"",""time""
""fullscreenenter"",""1"",""2904""
","
","","","","","","null","<div style=""font-size:60px;"">+</div>","null","","fixation","","","","","","","","",""
"memory-trial","140","345978","0.0-15.0-1.48","1912","2","""event"",""trial"",""time""
""fullscreenenter"",""1"",""2904""
","
","
","""event"",""trial"",""time""
""fullscreenenter"",""1"",""2904""
","
","","","","","","1298.300000000745","images/boat5.png","","","memory_trial","4","definitely_new","","","","","","",""
"html-keyboard-response","141","346483","0.0-15.0-0.49","1912","2","""event"",""trial"",""time""
""fullscreenenter"",""1"",""2904""
","
","
","""event"",""trial"",""time""
""fullscreenenter"",""1"",""2904""
","
","","","","","","null","<div style=""font-size:60px;"">+</div>","null","","fixation","","","","","","","","",""
"memory-trial","142","348666","0.0-15.0-1.49","1912","2","""event"",""trial"",""time""
""fullscreenenter"",""1"",""2904""
","
","
","""event"",""trial"",""time""
""fullscreenenter"",""1"",""2904""
","
","","","","","","1176.0999999977648","images/truck4.png","","","memory_trial","4","definitely_new","","","","","","",""
"html-keyboard-response","143","349171","0.0-15.0-0.50","1912","2","""event"",""trial"",""time""
""fullscreenenter"",""1"",""2904""
","
","
","""event"",""trial"",""time""
""fullscreenenter"",""1"",""2904""
","
","","","","","","null","<div style=""font-size:60px;"">+</div>","null","","fixation","","","","","","","","",""
"memory-trial","144","351673","0.0-15.0-1.50","1912","2","""event"",""trial"",""time""
""fullscreenenter"",""1"",""2904""
","
","
","""event"",""trial"",""time""
""fullscreenenter"",""1"",""2904""
","
","","","","","","1499.5","images/chair5.png","","","memory_trial","4","definitely_new","","","","","","",""
"html-keyboard-response","145","352178","0.0-15.0-0.51","1912","2","""event"",""trial"",""time""
""fullscreenenter"",""1"",""2904""
","
","
","""event"",""trial"",""time""
""fullscreenenter"",""1"",""2904""
","
","","","","","","null","<div style=""font-size:60px;"">+</div>","null","","fixation","","","","","","","","",""
"memory-trial","146","354871","0.0-15.0-1.51","1912","2","""event"",""trial"",""time""
""fullscreenenter"",""1"",""2904""
","
","
","""event"",""trial"",""time""
""fullscreenenter"",""1"",""2904""
","
","","","","","","1690","images/horse3.png","","","memory_trial","3","maybe_new","","","","","","",""
"html-keyboard-response","147","355376","0.0-15.0-0.52","1912","2","""event"",""trial"",""time""
""fullscreenenter"",""1"",""2904""
","
","
","""event"",""trial"",""time""
""fullscreenenter"",""1"",""2904""
","
","","","","","","null","<div style=""font-size:60px;"">+</div>","null","","fixation","","","","","","","","",""
"memory-trial","148","358110","0.0-15.0-1.52","1912","2","""event"",""trial"",""time""
""fullscreenenter"",""1"",""2904""
","
","
","""event"",""trial"",""time""
""fullscreenenter"",""1"",""2904""
","
","","","","","","1728.8999999985099","images/apple2.png","","","memory_trial","3","maybe_new","","","","","","",""
"html-keyboard-response","149","358616","0.0-15.0-0.53","1912","2","""event"",""trial"",""time""
""fullscreenenter"",""1"",""2904""
","
","
","""event"",""trial"",""time""
""fullscreenenter"",""1"",""2904""
","
","","","","","","null","<div style=""font-size:60px;"">+</div>","null","","fixation","","","","","","","","",""
"memory-trial","150","361425","0.0-15.0-1.53","1912","2","""event"",""trial"",""time""
""fullscreenenter"",""1"",""2904""
","
","
","""event"",""trial"",""time""
""fullscreenenter"",""1"",""2904""
","
","","","","","","1803.199999999255","images/plane1.png","","","memory_trial","3","maybe_new","","","","","","",""
"html-keyboard-response","151","361930","0.0-15.0-0.54","1912","2","""event"",""trial"",""time""
""fullscreenenter"",""1"",""2904""
","
","
","""event"",""trial"",""time""
""fullscreenenter"",""1"",""2904""
","
","","","","","","null","<div style=""font-size:60px;"">+</div>","null","","fixation","","","","","","","","",""
"memory-trial","152","363858","0.0-15.0-1.54","1912","2","""event"",""trial"",""time""
""fullscreenenter"",""1"",""2904""
","
","
","""event"",""trial"",""time""
""fullscreenenter"",""1"",""2904""
","
","","","","","","922.6000000014901","images/train5.png","","","memory_trial","1","definitely_old","","","","","","",""
"html-keyboard-response","153","364363","0.0-15.0-0.55","1912","2","""event"",""trial"",""time""
""fullscreenenter"",""1"",""2904""
","
","
","""event"",""trial"",""time""
""fullscreenenter"",""1"",""2904""
","
","","","","","","null","<div style=""font-size:60px;"">+</div>","null","","fixation","","","","","","","","",""
"memory-trial","154","366476","0.0-15.0-1.55","1912","2","""event"",""trial"",""time""
""fullscreenenter"",""1"",""2904""
","
","
","""event"",""trial"",""time""
""fullscreenenter"",""1"",""2904""
","
","","","","","","1110.699999999255","images/train3.png","","","memory_trial","1","definitely_old","","","","","","",""
"html-keyboard-response","155","366981","0.0-15.0-0.56","1912","2","""event"",""trial"",""time""
""fullscreenenter"",""1"",""2904""
","
","
","""event"",""trial"",""time""
""fullscreenenter"",""1"",""2904""
","
","","","","","","null","<div style=""font-size:60px;"">+</div>","null","","fixation","","","","","","","","",""
"memory-trial","156","369146","0.0-15.0-1.56","1912","2","""event"",""trial"",""time""
""fullscreenenter"",""1"",""2904""
","
","
","""event"",""trial"",""time""
""fullscreenenter"",""1"",""2904""
","
","","","","","","1158.800000000745","images/bush5.png","","","memory_trial","4","definitely_new","","","","","","",""
"html-keyboard-response","157","369651","0.0-15.0-0.57","1912","2","""event"",""trial"",""time""
""fullscreenenter"",""1"",""2904""
","
","
","""event"",""trial"",""time""
""fullscreenenter"",""1"",""2904""
","
","","","","","","null","<div style=""font-size:60px;"">+</div>","null","","fixation","","","","","","","","",""
"memory-trial","158","371625","0.0-15.0-1.57","1912","2","""event"",""trial"",""time""
""fullscreenenter"",""1"",""2904""
","
","
","""event"",""trial"",""time""
""fullscreenenter"",""1"",""2904""
","
","","","","","","967.4000000022352","images/goat4.png","","","memory_trial","1","definitely_old","","","","","","",""
"html-keyboard-response","159","372130","0.0-15.0-0.58","1912","2","""event"",""trial"",""time""
""fullscreenenter"",""1"",""2904""
","
","
","""event"",""trial"",""time""
""fullscreenenter"",""1"",""2904""
","
","","","","","","null","<div style=""font-size:60px;"">+</div>","null","","fixation","","","","","","","","",""
"memory-trial","160","374864","0.0-15.0-1.58","1912","2","""event"",""trial"",""time""
""fullscreenenter"",""1"",""2904""
","
","
","""event"",""trial"",""time""
""fullscreenenter"",""1"",""2904""
","
","","","","","","1730.6000000014901","images/sheep4.png","","","memory_trial","2","maybe_old","","","","","","",""
"html-keyboard-response","161","375369","0.0-15.0-0.59","1912","2","""event"",""trial"",""time""
""fullscreenenter"",""1"",""2904""
","
","
","""event"",""trial"",""time""
""fullscreenenter"",""1"",""2904""
","
","","","","","","null","<div style=""font-size:60px;"">+</div>","null","","fixation","","","","","","","","",""
"memory-trial","162","377273","0.0-15.0-1.59","1912","2","""event"",""trial"",""time""
""fullscreenenter"",""1"",""2904""
","
","
","""event"",""trial"",""time""
""fullscreenenter"",""1"",""2904""
","
","","","","","","898.1999999992549","images/rabbit2.png","","","memory_trial","1","definitely_old","","","","","","",""
"html-keyboard-response","163","377778","0.0-15.0-0.60","1912","2","""event"",""trial"",""time""
""fullscreenenter"",""1"",""2904""
","
","
","""event"",""trial"",""time""
""fullscreenenter"",""1"",""2904""
","
","","","","","","null","<div style=""font-size:60px;"">+</div>","null","","fixation","","","","","","","","",""
"memory-trial","164","379955","0.0-15.0-1.60","1912","2","""event"",""trial"",""time""
""fullscreenenter"",""1"",""2904""
","
","
","""event"",""trial"",""time""
""fullscreenenter"",""1"",""2904""
","
","","","","","","1172.1000000014901","images/tree3.png","","","memory_trial","4","definitely_new","","","","","","",""
"html-keyboard-response","165","380460","0.0-15.0-0.61","1912","2","""event"",""trial"",""time""
""fullscreenenter"",""1"",""2904""
","
","
","""event"",""trial"",""time""
""fullscreenenter"",""1"",""2904""
","
","","","","","","null","<div style=""font-size:60px;"">+</div>","null","","fixation","","","","","","","","",""
"memory-trial","166","383205","0.0-15.0-1.61","1912","2","""event"",""trial"",""time""
""fullscreenenter"",""1"",""2904""
","
","
","""event"",""trial"",""time""
""fullscreenenter"",""1"",""2904""
","
","","","","","","1741.300000000745","images/cow3.png","","","memory_trial","3","maybe_new","","","","","","",""
"html-keyboard-response","167","383711","0.0-15.0-0.62","1912","2","""event"",""trial"",""time""
""fullscreenenter"",""1"",""2904""
","
","
","""event"",""trial"",""time""
""fullscreenenter"",""1"",""2904""
","
","","","","","","null","<div style=""font-size:60px;"">+</div>","null","","fixation","","","","","","","","",""
"memory-trial","168","386567","0.0-15.0-1.62","1912","2","""event"",""trial"",""time""
""fullscreenenter"",""1"",""2904""
","
","
","""event"",""trial"",""time""
""fullscreenenter"",""1"",""2904""
","
","","","","","","1849.699999999255","images/cow5.png","","","memory_trial","3","maybe_new","","","","","","",""
"html-keyboard-response","169","387072","0.0-15.0-0.63","1912","2","""event"",""trial"",""time""
""fullscreenenter"",""1"",""2904""
","
","
","""event"",""trial"",""time""
""fullscreenenter"",""1"",""2904""
","
","","","","","","null","<div style=""font-size:60px;"">+</div>","null","","fixation","","","","","","","","",""
"memory-trial","170","389766","0.0-15.0-1.63","1912","2","""event"",""trial"",""time""
""fullscreenenter"",""1"",""2904""
","
","
","""event"",""trial"",""time""
""fullscreenenter"",""1"",""2904""
","
","","","","","","1687.300000000745","images/straw3.png","","","memory_trial","4","definitely_new","","","","","","",""
"html-keyboard-response","171","390271","0.0-15.0-0.64","1912","2","""event"",""trial"",""time""
""fullscreenenter"",""1"",""2904""
","
","
","""event"",""trial"",""time""
""fullscreenenter"",""1"",""2904""
","
","","","","","","null","<div style=""font-size:60px;"">+</div>","null","","fixation","","","","","","","","",""
"memory-trial","172","392744","0.0-15.0-1.64","1912","2","""event"",""trial"",""time""
""fullscreenenter"",""1"",""2904""
","
","
","""event"",""trial"",""time""
""fullscreenenter"",""1"",""2904""
","
","","","","","","1467","images/dog3.png","","","memory_trial","1","definitely_old","","","","","","",""
"html-keyboard-response","173","393249","0.0-15.0-0.65","1912","2","""event"",""trial"",""time""
""fullscreenenter"",""1"",""2904""
","
","
","""event"",""trial"",""time""
""fullscreenenter"",""1"",""2904""
","
","","","","","","null","<div style=""font-size:60px;"">+</div>","null","","fixation","","","","","","","","",""
"memory-trial","174","395618","0.0-15.0-1.65","1912","2","""event"",""trial"",""time""
""fullscreenenter"",""1"",""2904""
","
","
","""event"",""trial"",""time""
""fullscreenenter"",""1"",""2904""
","
","","","","","","1365.2999999970198","images/feline1.png","","","memory_trial","4","definitely_new","","","","","","",""
"html-keyboard-response","175","396123","0.0-15.0-0.66","1912","2","""event"",""trial"",""time""
""fullscreenenter"",""1"",""2904""
","
","
","""event"",""trial"",""time""
""fullscreenenter"",""1"",""2904""
","
","","","","","","null","<div style=""font-size:60px;"">+</div>","null","","fixation","","","","","","","","",""
"memory-trial","176","398712","0.0-15.0-1.66","1912","2","""event"",""trial"",""time""
""fullscreenenter"",""1"",""2904""
","
","
","""event"",""trial"",""time""
""fullscreenenter"",""1"",""2904""
","
","","","","","","1582.7999999970198","images/banana3.png","","","memory_trial","1","definitely_old","","","","","","",""
"html-keyboard-response","177","399217","0.0-15.0-0.67","1912","2","""event"",""trial"",""time""
""fullscreenenter"",""1"",""2904""
","
","
","""event"",""trial"",""time""
""fullscreenenter"",""1"",""2904""
","
","","","","","","null","<div style=""font-size:60px;"">+</div>","null","","fixation","","","","","","","","",""
"memory-trial","178","402015","0.0-15.0-1.67","1912","2","""event"",""trial"",""time""
""fullscreenenter"",""1"",""2904""
","
","
","""event"",""trial"",""time""
""fullscreenenter"",""1"",""2904""
","
","","","","","","1795.5","images/rabbit5.png","","","memory_trial","2","maybe_old","","","","","","",""
"html-keyboard-response","179","402520","0.0-15.0-0.68","1912","2","""event"",""trial"",""time""
""fullscreenenter"",""1"",""2904""
","
","
","""event"",""trial"",""time""
""fullscreenenter"",""1"",""2904""
","
","","","","","","null","<div style=""font-size:60px;"">+</div>","null","","fixation","","","","","","","","",""
"memory-trial","180","404987","0.0-15.0-1.68","1912","2","""event"",""trial"",""time""
""fullscreenenter"",""1"",""2904""
","
","
","""event"",""trial"",""time""
""fullscreenenter"",""1"",""2904""
","
","","","","","","1462.0999999977648","images/horse1.png","","","memory_trial","1","definitely_old","","","","","","",""
"html-keyboard-response","181","405492","0.0-15.0-0.69","1912","2","""event"",""trial"",""time""
""fullscreenenter"",""1"",""2904""
","
","
","""event"",""trial"",""time""
""fullscreenenter"",""1"",""2904""
","
","","","","","","null","<div style=""font-size:60px;"">+</div>","null","","fixation","","","","","","","","",""
"memory-trial","182","407884","0.0-15.0-1.69","1912","2","""event"",""trial"",""time""
""fullscreenenter"",""1"",""2904""
","
","
","""event"",""trial"",""time""
""fullscreenenter"",""1"",""2904""
","
","","","","","","1385.800000000745","images/rodent3.png","","","memory_trial","1","definitely_old","","","","","","",""
"html-keyboard-response","183","408389","0.0-15.0-0.70","1912","2","""event"",""trial"",""time""
""fullscreenenter"",""1"",""2904""
","
","
","""event"",""trial"",""time""
""fullscreenenter"",""1"",""2904""
","
","","","","","","null","<div style=""font-size:60px;"">+</div>","null","","fixation","","","","","","","","",""
"memory-trial","184","411059","0.0-15.0-1.70","1912","2","""event"",""trial"",""time""
""fullscreenenter"",""1"",""2904""
","
","
","""event"",""trial"",""time""
""fullscreenenter"",""1"",""2904""
","
","","","","","","1665.300000000745","images/flower1.png","","","memory_trial","4","definitely_new","","","","","","",""
"html-keyboard-response","185","411564","0.0-15.0-0.71","1912","2","""event"",""trial"",""time""
""fullscreenenter"",""1"",""2904""
","
","
","""event"",""trial"",""time""
""fullscreenenter"",""1"",""2904""
","
","","","","","","null","<div style=""font-size:60px;"">+</div>","null","","fixation","","","","","","","","",""
"memory-trial","186","413776","0.0-15.0-1.71","1912","2","""event"",""trial"",""time""
""fullscreenenter"",""1"",""2904""
","
","
","""event"",""trial"",""time""
""fullscreenenter"",""1"",""2904""
","
","","","","","","1209.5999999977648","images/dog4.png","","","memory_trial","1","definitely_old","","","","","","",""
"html-keyboard-response","187","414280","0.0-15.0-0.72","1912","2","""event"",""trial"",""time""
""fullscreenenter"",""1"",""2904""
","
","
","""event"",""trial"",""time""
""fullscreenenter"",""1"",""2904""
","
","","","","","","null","<div style=""font-size:60px;"">+</div>","null","","fixation","","","","","","","","",""
"memory-trial","188","417010","0.0-15.0-1.72","1912","2","""event"",""trial"",""time""
""fullscreenenter"",""1"",""2904""
","
","
","""event"",""trial"",""time""
""fullscreenenter"",""1"",""2904""
","
","","","","","","1723.800000000745","images/goat3.png","","","memory_trial","4","definitely_new","","","","","","",""
"html-keyboard-response","189","417514","0.0-15.0-0.73","1912","2","""event"",""trial"",""time""
""fullscreenenter"",""1"",""2904""
","
","
","""event"",""trial"",""time""
""fullscreenenter"",""1"",""2904""
","
","","","","","","null","<div style=""font-size:60px;"">+</div>","null","","fixation","","","","","","","","",""
"memory-trial","190","420841","0.0-15.0-1.73","1912","2","""event"",""trial"",""time""
""fullscreenenter"",""1"",""2904""
","
","
","""event"",""trial"",""time""
""fullscreenenter"",""1"",""2904""
","
","","","","","","2323.599999997765","images/chair2.png","","","memory_trial","2","maybe_old","","","","","","",""
"html-keyboard-response","191","421346","0.0-15.0-0.74","1912","2","""event"",""trial"",""time""
""fullscreenenter"",""1"",""2904""
","
","
","""event"",""trial"",""time""
""fullscreenenter"",""1"",""2904""
","
","","","","","","null","<div style=""font-size:60px;"">+</div>","null","","fixation","","","","","","","","",""
"memory-trial","192","423815","0.0-15.0-1.74","1912","2","""event"",""trial"",""time""
""fullscreenenter"",""1"",""2904""
","
","
","""event"",""trial"",""time""
""fullscreenenter"",""1"",""2904""
","
","","","","","","1461.5999999977648","images/apple1.png","","","memory_trial","1","definitely_old","","","","","","",""
"html-keyboard-response","193","424320","0.0-15.0-0.75","1912","2","""event"",""trial"",""time""
""fullscreenenter"",""1"",""2904""
","
","
","""event"",""trial"",""time""
""fullscreenenter"",""1"",""2904""
","
","","","","","","null","<div style=""font-size:60px;"">+</div>","null","","fixation","","","","","","","","",""
"memory-trial","194","426472","0.0-15.0-1.75","1912","2","""event"",""trial"",""time""
""fullscreenenter"",""1"",""2904""
","
","
","""event"",""trial"",""time""
""fullscreenenter"",""1"",""2904""
","
","","","","","","1149.0999999977648","images/bed4.png","","","memory_trial","4","definitely_new","","","","","","",""
"html-keyboard-response","195","426977","0.0-15.0-0.76","1912","2","""event"",""trial"",""time""
""fullscreenenter"",""1"",""2904""
","
","
","""event"",""trial"",""time""
""fullscreenenter"",""1"",""2904""
","
","","","","","","null","<div style=""font-size:60px;"">+</div>","null","","fixation","","","","","","","","",""
"memory-trial","196","429316","0.0-15.0-1.76","1912","2","""event"",""trial"",""time""
""fullscreenenter"",""1"",""2904""
","
","
","""event"",""trial"",""time""
""fullscreenenter"",""1"",""2904""
","
","","","","","","1333.199999999255","images/train1.png","","","memory_trial","4","definitely_new","","","","","","",""
"html-keyboard-response","197","429822","0.0-15.0-0.77","1912","2","""event"",""trial"",""time""
""fullscreenenter"",""1"",""2904""
","
","
","""event"",""trial"",""time""
""fullscreenenter"",""1"",""2904""
","
","","","","","","null","<div style=""font-size:60px;"">+</div>","null","","fixation","","","","","","","","",""
"memory-trial","198","432150","0.0-15.0-1.77","1912","2","""event"",""trial"",""time""
""fullscreenenter"",""1"",""2904""
","
","
","""event"",""trial"",""time""
""fullscreenenter"",""1"",""2904""
","
","","","","","","1321.800000000745","images/tree1.png","","","memory_trial","4","definitely_new","","","","","","",""
"html-keyboard-response","199","432655","0.0-15.0-0.78","1912","2","""event"",""trial"",""time""
""fullscreenenter"",""1"",""2904""
","
","
","""event"",""trial"",""time""
""fullscreenenter"",""1"",""2904""
","
","","","","","","null","<div style=""font-size:60px;"">+</div>","null","","fixation","","","","","","","","",""
"memory-trial","200","435726","0.0-15.0-1.78","1912","2","""event"",""trial"",""time""
""fullscreenenter"",""1"",""2904""
","
","
","""event"",""trial"",""time""
""fullscreenenter"",""1"",""2904""
","
","","","","","","2068.699999999255","images/table2.png","","","memory_trial","3","maybe_new","","","","","","",""
"html-keyboard-response","201","436231","0.0-15.0-0.79","1912","2","""event"",""trial"",""time""
""fullscreenenter"",""1"",""2904""
","
","
","""event"",""trial"",""time""
""fullscreenenter"",""1"",""2904""
","
","","","","","","null","<div style=""font-size:60px;"">+</div>","null","","fixation","","","","","","","","",""
"memory-trial","202","438680","0.0-15.0-1.79","1912","2","""event"",""trial"",""time""
""fullscreenenter"",""1"",""2904""
","
","
","""event"",""trial"",""time""
""fullscreenenter"",""1"",""2904""
","
","","","","","","1444.699999999255","images/tree4.png","","","memory_trial","1","definitely_old","","","","","","",""
"html-keyboard-response","203","439185","0.0-15.0-0.80","1912","2","""event"",""trial"",""time""
""fullscreenenter"",""1"",""2904""
","
","
","""event"",""trial"",""time""
""fullscreenenter"",""1"",""2904""
","
","","","","","","null","<div style=""font-size:60px;"">+</div>","null","","fixation","","","","","","","","",""
"memory-trial","204","441264","0.0-15.0-1.80","1912","2","""event"",""trial"",""time""
""fullscreenenter"",""1"",""2904""
","
","
","""event"",""trial"",""time""
""fullscreenenter"",""1"",""2904""
","
","","","","","","1073.0999999977648","images/truck1.png","","","memory_trial","4","definitely_new","","","","","","",""
"html-keyboard-response","205","441768","0.0-15.0-0.81","1912","2","""event"",""trial"",""time""
""fullscreenenter"",""1"",""2904""
","
","
","""event"",""trial"",""time""
""fullscreenenter"",""1"",""2904""
","
","","","","","","null","<div style=""font-size:60px;"">+</div>","null","","fixation","","","","","","","","",""
"memory-trial","206","445612","0.0-15.0-1.81","1912","2","""event"",""trial"",""time""
""fullscreenenter"",""1"",""2904""
","
","
","""event"",""trial"",""time""
""fullscreenenter"",""1"",""2904""
","
","","","","","","2837.099999997765","images/chair4.png","","","memory_trial","2","maybe_old","","","","","","",""
"html-keyboard-response","207","446117","0.0-15.0-0.82","1912","2","""event"",""trial"",""time""
""fullscreenenter"",""1"",""2904""
","
","
","""event"",""trial"",""time""
""fullscreenenter"",""1"",""2904""
","
","","","","","","null","<div style=""font-size:60px;"">+</div>","null","","fixation","","","","","","","","",""
"memory-trial","208","449773","0.0-15.0-1.82","1912","2","""event"",""trial"",""time""
""fullscreenenter"",""1"",""2904""
","
","
","""event"",""trial"",""time""
""fullscreenenter"",""1"",""2904""
","
","","","","","","2649.199999999255","images/straw5.png","","","memory_trial","2","maybe_old","","","","","","",""
"html-keyboard-response","209","450279","0.0-15.0-0.83","1912","2","""event"",""trial"",""time""
""fullscreenenter"",""1"",""2904""
","
","
","""event"",""trial"",""time""
""fullscreenenter"",""1"",""2904""
","
","","","","","","null","<div style=""font-size:60px;"">+</div>","null","","fixation","","","","","","","","",""
"memory-trial","210","453060","0.0-15.0-1.83","1912","2","""event"",""trial"",""time""
""fullscreenenter"",""1"",""2904""
","
","
","""event"",""trial"",""time""
""fullscreenenter"",""1"",""2904""
","
","","","","","","1778.300000000745","images/horse5.png","","","memory_trial","3","maybe_new","","","","","","",""
"html-keyboard-response","211","453565","0.0-15.0-0.84","1912","2","""event"",""trial"",""time""
""fullscreenenter"",""1"",""2904""
","
","
","""event"",""trial"",""time""
""fullscreenenter"",""1"",""2904""
","
","","","","","","null","<div style=""font-size:60px;"">+</div>","null","","fixation","","","","","","","","",""
"memory-trial","212","456293","0.0-15.0-1.84","1912","2","""event"",""trial"",""time""
""fullscreenenter"",""1"",""2904""
","
","
","""event"",""trial"",""time""
""fullscreenenter"",""1"",""2904""
","
","","","","","","1723.9000000022352","images/flower3.png","","","memory_trial","2","maybe_old","","","","","","",""
"html-keyboard-response","213","456798","0.0-15.0-0.85","1912","2","""event"",""trial"",""time""
""fullscreenenter"",""1"",""2904""
","
","
","""event"",""trial"",""time""
""fullscreenenter"",""1"",""2904""
","
","","","","","","null","<div style=""font-size:60px;"">+</div>","null","","fixation","","","","","","","","",""
"memory-trial","214","459219","0.0-15.0-1.85","1912","2","""event"",""trial"",""time""
""fullscreenenter"",""1"",""2904""
","
","
","""event"",""trial"",""time""
""fullscreenenter"",""1"",""2904""
","
","","","","","","1418.300000000745","images/train4.png","","","memory_trial","4","definitely_new","","","","","","",""
"html-keyboard-response","215","459724","0.0-15.0-0.86","1912","2","""event"",""trial"",""time""
""fullscreenenter"",""1"",""2904""
","
","
","""event"",""trial"",""time""
""fullscreenenter"",""1"",""2904""
","
","","","","","","null","<div style=""font-size:60px;"">+</div>","null","","fixation","","","","","","","","",""
"memory-trial","216","462226","0.0-15.0-1.86","1912","2","""event"",""trial"",""time""
""fullscreenenter"",""1"",""2904""
","
","
","""event"",""trial"",""time""
""fullscreenenter"",""1"",""2904""
","
","","","","","","1495.2999999970198","images/cactus5.png","","","memory_trial","1","definitely_old","","","","","","",""
"html-keyboard-response","217","462731","0.0-15.0-0.87","1912","2","""event"",""trial"",""time""
""fullscreenenter"",""1"",""2904""
","
","
","""event"",""trial"",""time""
""fullscreenenter"",""1"",""2904""
","
","","","","","","null","<div style=""font-size:60px;"">+</div>","null","","fixation","","","","","","","","",""
"memory-trial","218","464815","0.0-15.0-1.87","1912","2","""event"",""trial"",""time""
""fullscreenenter"",""1"",""2904""
","
","
","""event"",""trial"",""time""
""fullscreenenter"",""1"",""2904""
","
","","","","","","1080.5","images/cactus2.png","","","memory_trial","1","definitely_old","","","","","","",""
"html-keyboard-response","219","465317","0.0-15.0-0.88","1912","2","""event"",""trial"",""time""
""fullscreenenter"",""1"",""2904""
","
","
","""event"",""trial"",""time""
""fullscreenenter"",""1"",""2904""
","
","","","","","","null","<div style=""font-size:60px;"">+</div>","null","","fixation","","","","","","","","",""
"memory-trial","220","467851","0.0-15.0-1.88","1912","2","""event"",""trial"",""time""
""fullscreenenter"",""1"",""2904""
","
","
","""event"",""trial"",""time""
""fullscreenenter"",""1"",""2904""
","
","","","","","","1530.199999999255","images/cow2.png","","","memory_trial","2","maybe_old","","","","","","",""
"html-keyboard-response","221","468356","0.0-15.0-0.89","1912","2","""event"",""trial"",""time""
""fullscreenenter"",""1"",""2904""
","
","
","""event"",""trial"",""time""
""fullscreenenter"",""1"",""2904""
","
","","","","","","null","<div style=""font-size:60px;"">+</div>","null","","fixation","","","","","","","","",""
"memory-trial","222","470580","0.0-15.0-1.89","1912","2","""event"",""trial"",""time""
""fullscreenenter"",""1"",""2904""
","
","
","""event"",""trial"",""time""
""fullscreenenter"",""1"",""2904""
","
","","","","","","1217.699999999255","images/sofa3.png","","","memory_trial","1","definitely_old","","","","","","",""
"html-keyboard-response","223","471084","0.0-15.0-0.90","1912","2","""event"",""trial"",""time""
""fullscreenenter"",""1"",""2904""
","
","
","""event"",""trial"",""time""
""fullscreenenter"",""1"",""2904""
","
","","","","","","null","<div style=""font-size:60px;"">+</div>","null","","fixation","","","","","","","","",""
"memory-trial","224","473314","0.0-15.0-1.90","1912","2","""event"",""trial"",""time""
""fullscreenenter"",""1"",""2904""
","
","
","""event"",""trial"",""time""
""fullscreenenter"",""1"",""2904""
","
","","","","","","1226.5","images/sheep1.png","","","memory_trial","4","definitely_new","","","","","","",""
"html-keyboard-response","225","473819","0.0-15.0-0.91","1912","2","""event"",""trial"",""time""
""fullscreenenter"",""1"",""2904""
","
","
","""event"",""trial"",""time""
""fullscreenenter"",""1"",""2904""
","
","","","","","","null","<div style=""font-size:60px;"">+</div>","null","","fixation","","","","","","","","",""
"memory-trial","226","476124","0.0-15.0-1.91","1912","2","""event"",""trial"",""time""
""fullscreenenter"",""1"",""2904""
","
","
","""event"",""trial"",""time""
""fullscreenenter"",""1"",""2904""
","
","","","","","","1302.300000000745","images/goat2.png","","","memory_trial","1","definitely_old","","","","","","",""
"html-keyboard-response","227","476629","0.0-15.0-0.92","1912","2","""event"",""trial"",""time""
""fullscreenenter"",""1"",""2904""
","
","
","""event"",""trial"",""time""
""fullscreenenter"",""1"",""2904""
","
","","","","","","null","<div style=""font-size:60px;"">+</div>","null","","fixation","","","","","","","","",""
"memory-trial","228","479061","0.0-15.0-1.92","1912","2","""event"",""trial"",""time""
""fullscreenenter"",""1"",""2904""
","
","
","""event"",""trial"",""time""
""fullscreenenter"",""1"",""2904""
","
","","","","","","1428.300000000745","images/bed2.png","","","memory_trial","4","definitely_new","","","","","","",""
"html-keyboard-response","229","479566","0.0-15.0-0.93","1912","2","""event"",""trial"",""time""
""fullscreenenter"",""1"",""2904""
","
","
","""event"",""trial"",""time""
""fullscreenenter"",""1"",""2904""
","
","","","","","","null","<div style=""font-size:60px;"">+</div>","null","","fixation","","","","","","","","",""
"memory-trial","230","482026","0.0-15.0-1.93","1912","2","""event"",""trial"",""time""
""fullscreenenter"",""1"",""2904""
","
","
","""event"",""trial"",""time""
""fullscreenenter"",""1"",""2904""
","
","","","","","","1453.800000000745","images/bush1.png","","","memory_trial","4","definitely_new","","","","","","",""
"html-keyboard-response","231","482532","0.0-15.0-0.94","1912","2","""event"",""trial"",""time""
""fullscreenenter"",""1"",""2904""
","
","
","""event"",""trial"",""time""
""fullscreenenter"",""1"",""2904""
","
","","","","","","null","<div style=""font-size:60px;"">+</div>","null","","fixation","","","","","","","","",""
"memory-trial","232","485458","0.0-15.0-1.94","1912","2","""event"",""trial"",""time""
""fullscreenenter"",""1"",""2904""
","
","
","""event"",""trial"",""time""
""fullscreenenter"",""1"",""2904""
","
","","","","","","1923.7000000029802","images/rabbit1.png","","","memory_trial","3","maybe_new","","","","","","",""
"html-keyboard-response","233","485963","0.0-15.0-0.95","1912","2","""event"",""trial"",""time""
""fullscreenenter"",""1"",""2904""
","
","
","""event"",""trial"",""time""
""fullscreenenter"",""1"",""2904""
","
","","","","","","null","<div style=""font-size:60px;"">+</div>","null","","fixation","","","","","","","","",""
"memory-trial","234","489260","0.0-15.0-1.95","1912","2","""event"",""trial"",""time""
""fullscreenenter"",""1"",""2904""
","
","
","""event"",""trial"",""time""
""fullscreenenter"",""1"",""2904""
","
","","","","","","2291.7000000029802","images/banana4.png","","","memory_trial","2","maybe_old","","","","","","",""
"html-keyboard-response","235","489765","0.0-15.0-0.96","1912","2","""event"",""trial"",""time""
""fullscreenenter"",""1"",""2904""
","
","
","""event"",""trial"",""time""
""fullscreenenter"",""1"",""2904""
","
","","","","","","null","<div style=""font-size:60px;"">+</div>","null","","fixation","","","","","","","","",""
"memory-trial","236","492982","0.0-15.0-1.96","1912","2","""event"",""trial"",""time""
""fullscreenenter"",""1"",""2904""
","
","
","""event"",""trial"",""time""
""fullscreenenter"",""1"",""2904""
","
","","","","","","2209.39999999851","images/chair1.png","","","memory_trial","2","maybe_old","","","","","","",""
"html-keyboard-response","237","493487","0.0-15.0-0.97","1912","2","""event"",""trial"",""time""
""fullscreenenter"",""1"",""2904""
","
","
","""event"",""trial"",""time""
""fullscreenenter"",""1"",""2904""
","
","","","","","","null","<div style=""font-size:60px;"">+</div>","null","","fixation","","","","","","","","",""
"memory-trial","238","495565","0.0-15.0-1.97","1912","2","""event"",""trial"",""time""
""fullscreenenter"",""1"",""2904""
","
","
","""event"",""trial"",""time""
""fullscreenenter"",""1"",""2904""
","
","","","","","","1072","images/rabbit3.png","","","memory_trial","4","definitely_new","","","","","","",""
"html-keyboard-response","239","496070","0.0-15.0-0.98","1912","2","""event"",""trial"",""time""
""fullscreenenter"",""1"",""2904""
","
","
","""event"",""trial"",""time""
""fullscreenenter"",""1"",""2904""
","
","","","","","","null","<div style=""font-size:60px;"">+</div>","null","","fixation","","","","","","","","",""
"memory-trial","240","499199","0.0-15.0-1.98","1912","2","""event"",""trial"",""time""
""fullscreenenter"",""1"",""2904""
","
","
","""event"",""trial"",""time""
""fullscreenenter"",""1"",""2904""
","
","","","","","","2122.39999999851","images/straw1.png","","","memory_trial","2","maybe_old","","","","","","",""
"html-keyboard-response","241","499704","0.0-15.0-0.99","1912","2","""event"",""trial"",""time""
""fullscreenenter"",""1"",""2904""
","
","
","""event"",""trial"",""time""
""fullscreenenter"",""1"",""2904""
","
","","","","","","null","<div style=""font-size:60px;"">+</div>","null","","fixation","","","","","","","","",""
"memory-trial","242","502369","0.0-15.0-1.99","1912","2","""event"",""trial"",""time""
""fullscreenenter"",""1"",""2904""
","
","
","""event"",""trial"",""time""
""fullscreenenter"",""1"",""2904""
","
","","","","","","1660.6000000014901","images/orange2.png","","","memory_trial","4","definitely_new","","","","","","",""
"html-keyboard-response","243","502874","0.0-15.0-0.100","1912","2","""event"",""trial"",""time""
""fullscreenenter"",""1"",""2904""
","
","
","""event"",""trial"",""time""
""fullscreenenter"",""1"",""2904""
","
","","","","","","null","<div style=""font-size:60px;"">+</div>","null","","fixation","","","","","","","","",""
"memory-trial","244","504801","0.0-15.0-1.100","1912","2","""event"",""trial"",""time""
""fullscreenenter"",""1"",""2904""
","
","
","""event"",""trial"",""time""
""fullscreenenter"",""1"",""2904""
","
","","","","","","923.1000000014901","images/bush3.png","","","memory_trial","4","definitely_new","","","","","","",""
"html-keyboard-response","245","505306","0.0-15.0-0.101","1912","2","""event"",""trial"",""time""
""fullscreenenter"",""1"",""2904""
","
","
","""event"",""trial"",""time""
""fullscreenenter"",""1"",""2904""
","
","","","","","","null","<div style=""font-size:60px;"">+</div>","null","","fixation","","","","","","","","",""
"memory-trial","246","507837","0.0-15.0-1.101","1912","2","""event"",""trial"",""time""
""fullscreenenter"",""1"",""2904""
","
","
","""event"",""trial"",""time""
""fullscreenenter"",""1"",""2904""
","
","","","","","","1528","images/straw2.png","","","memory_trial","2","maybe_old","","","","","","",""
"html-button-response","247","511138","0.0-15.0-2.101-0.101","1912","2","""event"",""trial"",""time""
""fullscreenenter"",""1"",""2904""
","
","
","""event"",""trial"",""time""
""fullscreenenter"",""1"",""2904""
","
","","","","","","3299.5","<p> Take a break! </p><p> Click the button to continue. </p>","0","","break","","","","","","","","",""
"html-keyboard-response","248","511639","0.0-15.0-0.102","1912","2","""event"",""trial"",""time""
""fullscreenenter"",""1"",""2904""
","
","
","""event"",""trial"",""time""
""fullscreenenter"",""1"",""2904""
","
","","","","","","null","<div style=""font-size:60px;"">+</div>","null","","fixation","","","","","","","","",""
"memory-trial","249","513863","0.0-15.0-1.102","1912","2","""event"",""trial"",""time""
""fullscreenenter"",""1"",""2904""
","
","
","""event"",""trial"",""time""
""fullscreenenter"",""1"",""2904""
","
","","","","","","1221.300000000745","images/feline2.png","","","memory_trial","4","definitely_new","","","","","","",""
"html-keyboard-response","250","514368","0.0-15.0-0.103","1912","2","""event"",""trial"",""time""
""fullscreenenter"",""1"",""2904""
","
","
","""event"",""trial"",""time""
""fullscreenenter"",""1"",""2904""
","
","","","","","","null","<div style=""font-size:60px;"">+</div>","null","","fixation","","","","","","","","",""
"memory-trial","251","516864","0.0-15.0-1.103","1912","2","""event"",""trial"",""time""
""fullscreenenter"",""1"",""2904""
","
","
","""event"",""trial"",""time""
""fullscreenenter"",""1"",""2904""
","
","","","","","","1491.800000000745","images/sheep2.png","","","memory_trial","2","maybe_old","","","","","","",""
"html-keyboard-response","252","517369","0.0-15.0-0.104","1912","2","""event"",""trial"",""time""
""fullscreenenter"",""1"",""2904""
","
","
","""event"",""trial"",""time""
""fullscreenenter"",""1"",""2904""
","
","","","","","","null","<div style=""font-size:60px;"">+</div>","null","","fixation","","","","","","","","",""
"memory-trial","253","519392","0.0-15.0-1.104","1912","2","""event"",""trial"",""time""
""fullscreenenter"",""1"",""2904""
","
","
","""event"",""trial"",""time""
""fullscreenenter"",""1"",""2904""
","
","","","","","","1018.6999999992549","images/table5.png","","","memory_trial","1","definitely_old","","","","","","",""
"html-keyboard-response","254","519894","0.0-15.0-0.105","1912","2","""event"",""trial"",""time""
""fullscreenenter"",""1"",""2904""
","
","
","""event"",""trial"",""time""
""fullscreenenter"",""1"",""2904""
","
","","","","","","null","<div style=""font-size:60px;"">+</div>","null","","fixation","","","","","","","","",""
"memory-trial","255","522339","0.0-15.0-1.105","1912","2","""event"",""trial"",""time""
""fullscreenenter"",""1"",""2904""
","
","
","""event"",""trial"",""time""
""fullscreenenter"",""1"",""2904""
","
","","","","","","1438.5","images/boat1.png","","","memory_trial","4","definitely_new","","","","","","",""
"html-keyboard-response","256","522844","0.0-15.0-0.106","1912","2","""event"",""trial"",""time""
""fullscreenenter"",""1"",""2904""
","
","
","""event"",""trial"",""time""
""fullscreenenter"",""1"",""2904""
","
","","","","","","null","<div style=""font-size:60px;"">+</div>","null","","fixation","","","","","","","","",""
"memory-trial","257","524643","0.0-15.0-1.106","1912","2","""event"",""trial"",""time""
""fullscreenenter"",""1"",""2904""
","
","
","""event"",""trial"",""time""
""fullscreenenter"",""1"",""2904""
","
","","","","","","794","images/bush2.png","","","memory_trial","4","definitely_new","","","","","","",""
"html-keyboard-response","258","525148","0.0-15.0-0.107","1912","2","""event"",""trial"",""time""
""fullscreenenter"",""1"",""2904""
","
","
","""event"",""trial"",""time""
""fullscreenenter"",""1"",""2904""
","
","","","","","","null","<div style=""font-size:60px;"">+</div>","null","","fixation","","","","","","","","",""
"memory-trial","259","527725","0.0-15.0-1.107","1912","2","""event"",""trial"",""time""
""fullscreenenter"",""1"",""2904""
","
","
","""event"",""trial"",""time""
""fullscreenenter"",""1"",""2904""
","
","","","","","","1570.3999999985099","images/orange1.png","","","memory_trial","2","maybe_old","","","","","","",""
"html-keyboard-response","260","528231","0.0-15.0-0.108","1912","2","""event"",""trial"",""time""
""fullscreenenter"",""1"",""2904""
","
","
","""event"",""trial"",""time""
""fullscreenenter"",""1"",""2904""
","
","","","","","","null","<div style=""font-size:60px;"">+</div>","null","","fixation","","","","","","","","",""
"memory-trial","261","530477","0.0-15.0-1.108","1912","2","""event"",""trial"",""time""
""fullscreenenter"",""1"",""2904""
","
","
","""event"",""trial"",""time""
""fullscreenenter"",""1"",""2904""
","
","","","","","","1241.699999999255","images/apple5.png","","","memory_trial","4","definitely_new","","","","","","",""
"html-keyboard-response","262","530982","0.0-15.0-0.109","1912","2","""event"",""trial"",""time""
""fullscreenenter"",""1"",""2904""
","
","
","""event"",""trial"",""time""
""fullscreenenter"",""1"",""2904""
","
","","","","","","null","<div style=""font-size:60px;"">+</div>","null","","fixation","","","","","","","","",""
"memory-trial","263","533860","0.0-15.0-1.109","1912","2","""event"",""trial"",""time""
""fullscreenenter"",""1"",""2904""
","
","
","""event"",""trial"",""time""
""fullscreenenter"",""1"",""2904""
","
","","","","","","1872.3999999985099","images/sheep5.png","","","memory_trial","3","maybe_new","","","","","","",""
"html-keyboard-response","264","534361","0.0-15.0-0.110","1912","2","""event"",""trial"",""time""
""fullscreenenter"",""1"",""2904""
","
","
","""event"",""trial"",""time""
""fullscreenenter"",""1"",""2904""
","
","","","","","","null","<div style=""font-size:60px;"">+</div>","null","","fixation","","","","","","","","",""
"memory-trial","265","537235","0.0-15.0-1.110","1912","2","""event"",""trial"",""time""
""fullscreenenter"",""1"",""2904""
","
","
","""event"",""trial"",""time""
""fullscreenenter"",""1"",""2904""
","
","","","","","","1867.4000000022352","images/banana1.png","","","memory_trial","2","maybe_old","","","","","","",""
"html-keyboard-response","266","537740","0.0-15.0-0.111","1912","2","""event"",""trial"",""time""
""fullscreenenter"",""1"",""2904""
","
","
","""event"",""trial"",""time""
""fullscreenenter"",""1"",""2904""
","
","","","","","","null","<div style=""font-size:60px;"">+</div>","null","","fixation","","","","","","","","",""
"memory-trial","267","540296","0.0-15.0-1.111","1912","2","""event"",""trial"",""time""
""fullscreenenter"",""1"",""2904""
","
","
","""event"",""trial"",""time""
""fullscreenenter"",""1"",""2904""
","
","","","","","","1552.699999999255","images/feline5.png","","","memory_trial","4","definitely_new","","","","","","",""
"html-keyboard-response","268","540799","0.0-15.0-0.112","1912","2","""event"",""trial"",""time""
""fullscreenenter"",""1"",""2904""
","
","
","""event"",""trial"",""time""
""fullscreenenter"",""1"",""2904""
","
","","","","","","null","<div style=""font-size:60px;"">+</div>","null","","fixation","","","","","","","","",""
"memory-trial","269","544038","0.0-15.0-1.112","1912","2","""event"",""trial"",""time""
""fullscreenenter"",""1"",""2904""
","
","
","""event"",""trial"",""time""
""fullscreenenter"",""1"",""2904""
","
","","","","","","2237.599999997765","images/truck2.png","","","memory_trial","3","maybe_new","","","","","","",""
"html-keyboard-response","270","544543","0.0-15.0-0.113","1912","2","""event"",""trial"",""time""
""fullscreenenter"",""1"",""2904""
","
","
","""event"",""trial"",""time""
""fullscreenenter"",""1"",""2904""
","
","","","","","","null","<div style=""font-size:60px;"">+</div>","null","","fixation","","","","","","","","",""
"memory-trial","271","547289","0.0-15.0-1.113","1912","2","""event"",""trial"",""time""
""fullscreenenter"",""1"",""2904""
","
","
","""event"",""trial"",""time""
""fullscreenenter"",""1"",""2904""
","
","","","","","","1738.5","images/bed1.png","","","memory_trial","3","maybe_new","","","","","","",""
"html-keyboard-response","272","547794","0.0-15.0-0.114","1912","2","""event"",""trial"",""time""
""fullscreenenter"",""1"",""2904""
","
","
","""event"",""trial"",""time""
""fullscreenenter"",""1"",""2904""
","
","","","","","","null","<div style=""font-size:60px;"">+</div>","null","","fixation","","","","","","","","",""
"memory-trial","273","550203","0.0-15.0-1.114","1912","2","""event"",""trial"",""time""
""fullscreenenter"",""1"",""2904""
","
","
","""event"",""trial"",""time""
""fullscreenenter"",""1"",""2904""
","
","","","","","","1405.5","images/banana2.png","","","memory_trial","1","definitely_old","","","","","","",""
"html-keyboard-response","274","550708","0.0-15.0-0.115","1912","2","""event"",""trial"",""time""
""fullscreenenter"",""1"",""2904""
","
","
","""event"",""trial"",""time""
""fullscreenenter"",""1"",""2904""
","
","","","","","","null","<div style=""font-size:60px;"">+</div>","null","","fixation","","","","","","","","",""
"memory-trial","275","553094","0.0-15.0-1.115","1912","2","""event"",""trial"",""time""
""fullscreenenter"",""1"",""2904""
","
","
","""event"",""trial"",""time""
""fullscreenenter"",""1"",""2904""
","
","","","","","","1379.5","images/train2.png","","","memory_trial","1","definitely_old","","","","","","",""
"html-keyboard-response","276","553599","0.0-15.0-0.116","1912","2","""event"",""trial"",""time""
""fullscreenenter"",""1"",""2904""
","
","
","""event"",""trial"",""time""
""fullscreenenter"",""1"",""2904""
","
","","","","","","null","<div style=""font-size:60px;"">+</div>","null","","fixation","","","","","","","","",""
"memory-trial","277","555869","0.0-15.0-1.116","1912","2","""event"",""trial"",""time""
""fullscreenenter"",""1"",""2904""
","
","
","""event"",""trial"",""time""
""fullscreenenter"",""1"",""2904""
","
","","","","","","1263.300000000745","images/banana5.png","","","memory_trial","1","definitely_old","","","","","","",""
"html-keyboard-response","278","556374","0.0-15.0-0.117","1912","2","""event"",""trial"",""time""
""fullscreenenter"",""1"",""2904""
","
","
","""event"",""trial"",""time""
""fullscreenenter"",""1"",""2904""
","
","","","","","","null","<div style=""font-size:60px;"">+</div>","null","","fixation","","","","","","","","",""
"memory-trial","279","559241","0.0-15.0-1.117","1912","2","""event"",""trial"",""time""
""fullscreenenter"",""1"",""2904""
","
","
","""event"",""trial"",""time""
""fullscreenenter"",""1"",""2904""
","
","","","","","","1863.8999999985099","images/orange4.png","","","memory_trial","2","maybe_old","","","","","","",""
"html-keyboard-response","280","559747","0.0-15.0-0.118","1912","2","""event"",""trial"",""time""
""fullscreenenter"",""1"",""2904""
","
","
","""event"",""trial"",""time""
""fullscreenenter"",""1"",""2904""
","
","","","","","","null","<div style=""font-size:60px;"">+</div>","null","","fixation","","","","","","","","",""
"memory-trial","281","561907","0.0-15.0-1.118","1912","2","""event"",""trial"",""time""
""fullscreenenter"",""1"",""2904""
","
","
","""event"",""trial"",""time""
""fullscreenenter"",""1"",""2904""
","
","","","","","","1156.6000000014901","images/bed3.png","","","memory_trial","4","definitely_new","","","","","","",""
"html-keyboard-response","282","562411","0.0-15.0-0.119","1912","2","""event"",""trial"",""time""
""fullscreenenter"",""1"",""2904""
","
","
","""event"",""trial"",""time""
""fullscreenenter"",""1"",""2904""
","
","","","","","","null","<div style=""font-size:60px;"">+</div>","null","","fixation","","","","","","","","",""
"memory-trial","283","565477","0.0-15.0-1.119","1912","2","""event"",""trial"",""time""
""fullscreenenter"",""1"",""2904""
","
","
","""event"",""trial"",""time""
""fullscreenenter"",""1"",""2904""
","
","","","","","","2060.400000002235","images/cactus4.png","","","memory_trial","2","maybe_old","","","","","","",""
"preload","284","569921","0.0-16.0","1912","2","""event"",""trial"",""time""
""fullscreenenter"",""1"",""2904""
","
","
","""event"",""trial"",""time""
""fullscreenenter"",""1"",""2904""
","
","true","false","[]","[]","[]","","","","","","","","","","","","","",""
"learning-instructions","285","574769","0.0-17.0-0.0-0.0-0.0","1912","2","""event"",""trial"",""time""
""fullscreenenter"",""1"",""2904""
","
","
","""event"",""trial"",""time""
""fullscreenenter"",""1"",""2904""
","
","","","","","","1939.5","<p> We're now going to ask you to buy fruit again. </p>","","0","instructions","","","","","","","","",""
"learning-instructions","286","580516","0.0-17.0-0.0-0.0-0.1","1912","2","""event"",""trial"",""time""
""fullscreenenter"",""1"",""2904""
","
","
","""event"",""trial"",""time""
""fullscreenenter"",""1"",""2904""
","
","","","","","","896.5999999977648","<p> On each trial, you will see a fruit. Select the store where you think you can buy the fruit. </p>","","0","instructions","","","","","","","","",""
"learning-instructions","287","588085","0.0-17.0-0.0-0.0-0.2","1912","2","""event"",""trial"",""time""
""fullscreenenter"",""1"",""2904""
","
","
","""event"",""trial"",""time""
""fullscreenenter"",""1"",""2904""
","
","","","","","","506.6000000014901","<p> To make your selection, think about what you learned last week. You will NOT receive any feedback about your choice. </p>","","0","instructions","","","","","","","","",""
"learning-instructions","288","596408","0.0-17.0-0.0-0.0-0.3","1912","2","""event"",""trial"",""time""
""fullscreenenter"",""1"",""2904""
","
","
","""event"",""trial"",""time""
""fullscreenenter"",""1"",""2904""
","
","","","","","","730.8999999985099","<p> You should use the 1 key to select the store on the left, the 2 key to select the store in the middle, and the 3 key to select the store on the right. </p><br><div class=""choice-mem-instructions-grid""> <div class=""choice-mem-option""><img src=""images/fruit_choice1.png"" class=""choice-mem-option-img"" stage=""instructions"" position=""0"" ><div class=""choice-mem-option-text""> Press ""1."" </div></div><div class=""choice-mem-option""><img src=""images/fruit_choice2.png"" class=""choice-mem-option-img"" stage=""instructions"" position=""1"" ><div class=""choice-mem-option-text""> Press ""2."" </div></div><div class=""choice-mem-option""><img src=""images/fruit_choice3.png"" class=""choice-mem-option-img"" stage=""instructions"" position=""2"" ><div class=""choice-mem-option-text""> Press ""3."" </div></div></div>","","0","instructions","","","","","","","","",""
"learning-instructions","289","603159","0.0-17.0-0.0-0.0-0.4","1912","2","""event"",""trial"",""time""
""fullscreenenter"",""1"",""2904""
","
","
","""event"",""trial"",""time""
""fullscreenenter"",""1"",""2904""
","
","","","","","","481.3999999985099","<p> You will have 10 seconds to make each selection. Try to respond before time runs out! </p>","","0","instructions","","","","","","","","",""
"learning-instructions","290","605702","0.0-17.0-0.0-1.0","1912","2","""event"",""trial"",""time""
""fullscreenenter"",""1"",""2904""
","
","
","""event"",""trial"",""time""
""fullscreenenter"",""1"",""2904""
","
","","","","","","482.5","<p> You are now ready to begin the game. </p>","","0","instructions","","","","","","","","",""
"html-keyboard-response","291","606311","0.0-17.0-0.0-2.0-0.0","1912","2","""event"",""trial"",""time""
""fullscreenenter"",""1"",""2904""
","
","
","""event"",""trial"",""time""
""fullscreenenter"",""1"",""2904""
","
","","","","","","null","<div style=""font-size:60px;"">+</div>","null","","fixation","","","","","","","","",""
"choice-memory-trial","292","608366","0.0-17.0-0.0-2.0-1.0","1912","2","""event"",""trial"",""time""
""fullscreenenter"",""1"",""2904""
","
","
","""event"",""trial"",""time""
""fullscreenenter"",""1"",""2904""
","
