"trial_type","trial_index","time_elapsed","internal_node_id","subject_id","task_version","interactions","blur_events","focus_events","fullscreenenter_events","fullscreenexit_events","success","timeout","failed_images","failed_audio","failed_video","rt","stimulus","response","button_pressed","task_part","key_press","answer","correct","left_choice","middle_choice","right_choice","choice_positions","option_selected","block"
"pavlovia","0","4","0.0-0.0","1998","2","""event"",""trial"",""time""
""fullscreenenter"",""1"",""1763""
","
","
","""event"",""trial"",""time""
""fullscreenenter"",""1"",""1763""
","
","","","","","","","","","","","","","","","","","","",""
"fullscreen","1","2739","0.0-1.0","1998","2","""event"",""trial"",""time""
""fullscreenenter"",""1"",""1763""
","
","
","""event"",""trial"",""time""
""fullscreenenter"",""1"",""1763""
","
","true","","","","","","","","","","","","","","","","","",""
"preload","2","3488","0.0-2.0","1998","2","""event"",""trial"",""time""
""fullscreenenter"",""1"",""1763""
","
","
","""event"",""trial"",""time""
""fullscreenenter"",""1"",""1763""
","
","true","false","[]","[]","[]","","","","","","","","","","","","","",""
"audio-keyboard-response","3","5307","0.0-3.0","1998","2","""event"",""trial"",""time""
""fullscreenenter"",""1"",""1763""
","
","
","""event"",""trial"",""time""
""fullscreenenter"",""1"",""1763""
","
","","","","","","1810.666666666667","audio/beep_loop.wav"," ","","","","","","","","","","",""
"audio-button-response","4","6643","0.0-4.0","1998","2","""event"",""trial"",""time""
""fullscreenenter"",""1"",""1763""
","
","
","""event"",""trial"",""time""
""fullscreenenter"",""1"",""1763""
","
","","","","","","1339","audio/turtle.wav","3","","","","","","","","","","",""
"audio-button-response","5","8676","0.0-5.0","1998","2","""event"",""trial"",""time""
""fullscreenenter"",""1"",""1763""
","
","
","""event"",""trial"",""time""
""fullscreenenter"",""1"",""1763""
","
","","","","","","1008","audio/shark.wav","2","","","","","","","","","","",""
"preload","6","17304","0.0-6.0","1998","2","""event"",""trial"",""time""
""fullscreenenter"",""1"",""1763""
","
","
","""event"",""trial"",""time""
""fullscreenenter"",""1"",""1763""
","
","true","false","[]","[]","[]","","","","","","","","","","","","","",""
"learning-instructions","7","24280","0.0-7.0-0.0","1998","2","""event"",""trial"",""time""
""fullscreenenter"",""1"",""1763""
","
","
","""event"",""trial"",""time""
""fullscreenenter"",""1"",""1763""
","
","","","","","","2169.900000035763","<p> Welcome back! </p><p> Last week, you had to make choices about lots of different items.  </p>","","0","instructions","","","","","","","","",""
"learning-instructions","8","29013","0.0-7.0-0.1","1998","2","""event"",""trial"",""time""
""fullscreenenter"",""1"",""1763""
","
","
","""event"",""trial"",""time""
""fullscreenenter"",""1"",""1763""
","
","","","","","","432.19999998807907","<p> Today, we are going to ask you to try to remember all the items. </p>","","0","instructions","","","","","","","","",""
"learning-instructions","9","39548","0.0-7.0-0.2","1998","2","""event"",""trial"",""time""
""fullscreenenter"",""1"",""1763""
","
","
","""event"",""trial"",""time""
""fullscreenenter"",""1"",""1763""
","
","","","","","","396.80000001192093","<p> On every trial, you will see an image. </p><p> The image may be an OLD image you saw during the games last week or it may be a NEW image that was not presented. </p>","","0","instructions","","","","","","","","",""
"learning-instructions","10","48666","0.0-7.0-0.3","1998","2","""event"",""trial"",""time""
""fullscreenenter"",""1"",""1763""
","
","
","""event"",""trial"",""time""
""fullscreenenter"",""1"",""1763""
","
","","","","","","604.6999999880791","<p> You need to select whether the image is:  </p><p>  'Definitely old', 'Maybe old', 'Maybe new', or 'Definitely new.'  </p><div class=""mem-choice-instructions-grid""><div class=""choice-option"" id=""choice-option-1"" ><img src=""images/definitely_old_1.png"" id=""choice-option-img-1"" class=""choice-option-img"" stage=""1""></div><div class=""choice-option"" id=""choice-option-2"" ><img src=""images/maybe_old_1.png"" id=""choice-option-img-2"" class=""choice-option-img"" stage=""1""></div><div class=""choice-option"" id=""choice-option-3"" ><img src=""images/maybe_new_1.png"" id=""choice-option-img-3"" class=""choice-option-img"" stage=""1""></div><div class=""choice-option"" id=""choice-option-4"" > <img src=""images/definitely_new_1.png"" id=""choice-option-img-4"" class=""choice-option-img"" stage=""1""></div></div>","","0","instructions","","","","","","","","",""
"learning-instructions","11","56055","0.0-7.0-0.4","1998","2","""event"",""trial"",""time""
""fullscreenenter"",""1"",""1763""
","
","
","""event"",""trial"",""time""
""fullscreenenter"",""1"",""1763""
","
","","","","","","683.5","<p> You should use the 1, 2, 3, and 4 keys to make your responses.  </p><div class=""mem-choice-instructions-grid""><div class=""choice-option"" id=""choice-option-1"" ><img src=""images/definitely_old.png"" id=""choice-option-img-1"" class=""choice-option-img"" stage=""1""></div><div class=""choice-option"" id=""choice-option-2"" ><img src=""images/maybe_old.png"" id=""choice-option-img-2"" class=""choice-option-img"" stage=""1""></div><div class=""choice-option"" id=""choice-option-3"" ><img src=""images/maybe_new.png"" id=""choice-option-img-3"" class=""choice-option-img"" stage=""1""></div><div class=""choice-option"" id=""choice-option-4"" > <img src=""images/definitely_new.png"" id=""choice-option-img-4"" class=""choice-option-img"" stage=""1""></div></div>","","0","instructions","","","","","","","","",""
"learning-instructions","12","63214","0.0-7.0-0.5","1998","2","""event"",""trial"",""time""
""fullscreenenter"",""1"",""1763""
","
","
","""event"",""trial"",""time""
""fullscreenenter"",""1"",""1763""
","
","","","","","","392.39999997615814","<p> You will have 10 seconds to make each response.  </p><p>  Make sure to respond before time runs out! </p>","","0","instructions","","","","","","","","",""
"learning-instructions","13","71180","0.0-7.0-0.6","1998","2","""event"",""trial"",""time""
""fullscreenenter"",""1"",""1763""
","
","
","""event"",""trial"",""time""
""fullscreenenter"",""1"",""1763""
","
","","","","","","379.69999998807907","<p> Today, you will see each image ONCE only.  </p><p>  That means none of the images will repeat. </p>","","0","instructions","","","","","","","","",""
"learning-instructions","14","84392","0.0-7.0-0.7","1998","2","""event"",""trial"",""time""
""fullscreenenter"",""1"",""1763""
","
","
","""event"",""trial"",""time""
""fullscreenenter"",""1"",""1763""
","
","","","","","","541","<p> Before you play the real game, it is time to practice. </p><p>  Just like in the real game, some of the images in the practice will be ones you have seen before. </p><p>  Others will be entirely new. </p>","","0","instructions","","","","","","","","",""
"html-button-response","15","87388","0.0-8.0","1998","2","""event"",""trial"",""time""
""fullscreenenter"",""1"",""1763""
","
","
","""event"",""trial"",""time""
""fullscreenenter"",""1"",""1763""
","
","","","","","","2882.600000023842","<p> Ready to practice? </p><p> Remember, use the 1, 2, 3, and 4 keys to make your responses. </p>","0","","instructions","","","","","","","","",""
"html-keyboard-response","16","87997","0.0-9.0-0.0","1998","2","""event"",""trial"",""time""
""fullscreenenter"",""1"",""1763""
","
","
","""event"",""trial"",""time""
""fullscreenenter"",""1"",""1763""
","
","","","","","","null","<div style=""font-size:60px;"">+</div>","null","","fixation","","","","","","","","",""
"memory-trial","17","90056","0.0-9.0-1.0","1998","2","""event"",""trial"",""time""
""fullscreenenter"",""1"",""1763""
","
","
","""event"",""trial"",""time""
""fullscreenenter"",""1"",""1763""
","
","","","","","","1046.9000000357628","images/ball3.png","","","practice","2","maybe_old","","","","","","",""
"html-keyboard-response","18","90568","0.0-9.0-0.1","1998","2","""event"",""trial"",""time""
""fullscreenenter"",""1"",""1763""
","
","
","""event"",""trial"",""time""
""fullscreenenter"",""1"",""1763""
","
","","","","","","null","<div style=""font-size:60px;"">+</div>","null","","fixation","","","","","","","","",""
"memory-trial","19","92706","0.0-9.0-1.1","1998","2","""event"",""trial"",""time""
""fullscreenenter"",""1"",""1763""
","
","
","""event"",""trial"",""time""
""fullscreenenter"",""1"",""1763""
","
","","","","","","1134.5999999642372","images/racket1.png","","","practice","3","maybe_new","","","","","","",""
"html-keyboard-response","20","93209","0.0-9.0-0.2","1998","2","""event"",""trial"",""time""
""fullscreenenter"",""1"",""1763""
","
","
","""event"",""trial"",""time""
""fullscreenenter"",""1"",""1763""
","
","","","","","","null","<div style=""font-size:60px;"">+</div>","null","","fixation","","","","","","","","",""
"memory-trial","21","95189","0.0-9.0-1.2","1998","2","""event"",""trial"",""time""
""fullscreenenter"",""1"",""1763""
","
","
","""event"",""trial"",""time""
""fullscreenenter"",""1"",""1763""
","
","","","","","","976","images/ball4.png","","","practice","2","maybe_old","","","","","","",""
"html-keyboard-response","22","95705","0.0-9.0-0.3","1998","2","""event"",""trial"",""time""
""fullscreenenter"",""1"",""1763""
","
","
","""event"",""trial"",""time""
""fullscreenenter"",""1"",""1763""
","
","","","","","","null","<div style=""font-size:60px;"">+</div>","null","","fixation","","","","","","","","",""
"memory-trial","23","97329","0.0-9.0-1.3","1998","2","""event"",""trial"",""time""
""fullscreenenter"",""1"",""1763""
","
","
","""event"",""trial"",""time""
""fullscreenenter"",""1"",""1763""
","
","","","","","","608.6999999880791","images/racket4.png","","","practice","2","maybe_old","","","","","","",""
"html-keyboard-response","24","97841","0.0-9.0-0.4","1998","2","""event"",""trial"",""time""
""fullscreenenter"",""1"",""1763""
","
","
","""event"",""trial"",""time""
""fullscreenenter"",""1"",""1763""
","
","","","","","","null","<div style=""font-size:60px;"">+</div>","null","","fixation","","","","","","","","",""
"memory-trial","25","100615","0.0-9.0-1.4","1998","2","""event"",""trial"",""time""
""fullscreenenter"",""1"",""1763""
","
","
","""event"",""trial"",""time""
""fullscreenenter"",""1"",""1763""
","
","","","","","","1760.6000000238419","images/ball1.png","","","practice","1","definitely_old","","","","","","",""
"html-keyboard-response","26","101118","0.0-9.0-0.5","1998","2","""event"",""trial"",""time""
""fullscreenenter"",""1"",""1763""
","
","
","""event"",""trial"",""time""
""fullscreenenter"",""1"",""1763""
","
","","","","","","null","<div style=""font-size:60px;"">+</div>","null","","fixation","","","","","","","","",""
"memory-trial","27","102978","0.0-9.0-1.5","1998","2","""event"",""trial"",""time""
""fullscreenenter"",""1"",""1763""
","
","
","""event"",""trial"",""time""
""fullscreenenter"",""1"",""1763""
","
","","","","","","843","images/racket2.png","","","practice","2","maybe_old","","","","","","",""
"html-keyboard-response","28","103485","0.0-9.0-0.6","1998","2","""event"",""trial"",""time""
""fullscreenenter"",""1"",""1763""
","
","
","""event"",""trial"",""time""
""fullscreenenter"",""1"",""1763""
","
","","","","","","null","<div style=""font-size:60px;"">+</div>","null","","fixation","","","","","","","","",""
"memory-trial","29","105334","0.0-9.0-1.6","1998","2","""event"",""trial"",""time""
""fullscreenenter"",""1"",""1763""
","
","
","""event"",""trial"",""time""
""fullscreenenter"",""1"",""1763""
","
","","","","","","840.5","images/ball2.png","","","practice","3","maybe_new","","","","","","",""
"html-keyboard-response","30","105844","0.0-9.0-0.7","1998","2","""event"",""trial"",""time""
""fullscreenenter"",""1"",""1763""
","
","
","""event"",""trial"",""time""
""fullscreenenter"",""1"",""1763""
","
","","","","","","null","<div style=""font-size:60px;"">+</div>","null","","fixation","","","","","","","","",""
"memory-trial","31","107465","0.0-9.0-1.7","1998","2","""event"",""trial"",""time""
""fullscreenenter"",""1"",""1763""
","
","
","""event"",""trial"",""time""
""fullscreenenter"",""1"",""1763""
","
","","","","","","606.3999999761581","images/racket3.png","","","practice","3","maybe_new","","","","","","",""
"learning-instructions","32","116878","0.0-10.0-0.0","1998","2","""event"",""trial"",""time""
""fullscreenenter"",""1"",""1763""
","
","
","""event"",""trial"",""time""
""fullscreenenter"",""1"",""1763""
","
","","","","","","1465.800000011921","<p> Great! You have completed the practice. </p><p> Before you start, we're going to ask you a few questions about how the game works.  </p>","","0","instructions","","","","","","","","",""
"preload","33","121655","0.0-11.0","1998","2","""event"",""trial"",""time""
""fullscreenenter"",""1"",""1763""
","
","
","""event"",""trial"",""time""
""fullscreenenter"",""1"",""1763""
","
","true","false","[]","[]","[]","","","","","","","","","","","","","",""
"comp-q","34","129225","0.0-12.0-0.0","1998","2","""event"",""trial"",""time""
""fullscreenenter"",""1"",""1763""
","
","
","""event"",""trial"",""time""
""fullscreenenter"",""1"",""1763""
","
","","","","","","1743.8999999761581","<p> <b> True or False? </b> </p><p> In this game, you will only see each image once. </p>","","0","comp_question","","","true","","","","","",""
"comp-q","35","136692","0.0-12.0-1.0","1998","2","""event"",""trial"",""time""
""fullscreenenter"",""1"",""1763""
","
","
","""event"",""trial"",""time""
""fullscreenenter"",""1"",""1763""
","
","","","","","","1110.800000011921","<p> <b> That's right! </b> You will see many different images <i> one time each </i> in this game. </p>","","0","comp_answer","","","","","","","","",""
"comp-q","36","143596","0.0-12.0-0.1","1998","2","""event"",""trial"",""time""
""fullscreenenter"",""1"",""1763""
","
","
","""event"",""trial"",""time""
""fullscreenenter"",""1"",""1763""
","
","","","","","","1094","<p> <b> True or False? </b> </p><p> You should use the mouse and click to make your response. </p>","","1","comp_question","","","true","","","","","",""
"comp-q","37","151975","0.0-12.0-1.1","1998","2","""event"",""trial"",""time""
""fullscreenenter"",""1"",""1763""
","
","
","""event"",""trial"",""time""
""fullscreenenter"",""1"",""1763""
","
","","","","","","1014.1000000238419","<p><b> That's right! </b> You should use the '1', '2', '3', and '4' keys to make your response. </p>","","0","comp_answer","","","","","","","","",""
"comp-q","38","159151","0.0-12.0-0.2","1998","2","""event"",""trial"",""time""
""fullscreenenter"",""1"",""1763""
","
","
","""event"",""trial"",""time""
""fullscreenenter"",""1"",""1763""
","
","","","","","","1168.3999999761581","<p> <b> True or False? </b> </p><p> You will have as much time as you want to make each choice. </p>","","1","comp_question","","","true","","","","","",""
"comp-q","39","165935","0.0-12.0-1.2","1998","2","""event"",""trial"",""time""
""fullscreenenter"",""1"",""1763""
","
","
","""event"",""trial"",""time""
""fullscreenenter"",""1"",""1763""
","
","","","","","","1384.3999999761581","<p> <b> That's right! </b> You will only have 10 seconds to make each choice. </p>","","0","comp_answer","","","","","","","","",""
"learning-instructions","40","176331","0.0-13.0","1998","2","""event"",""trial"",""time""
""fullscreenenter"",""1"",""1763""
","
","
","""event"",""trial"",""time""
""fullscreenenter"",""1"",""1763""
","
","","","","","","1719.300000011921","<p> Great! You are now ready to begin the game. </p><p> Remember, use the 1, 2, 3, and 4 keys to make your responses. </p>","","0","instructions","","","","","","","","",""
"preload","41","187710","0.0-14.0","1998","2","""event"",""trial"",""time""
""fullscreenenter"",""1"",""1763""
","
","
","""event"",""trial"",""time""
""fullscreenenter"",""1"",""1763""
","
","true","false","[]","[]","[]","","","","","","","","","","","","","",""
"html-keyboard-response","42","188226","0.0-15.0-0.0","1998","2","""event"",""trial"",""time""
""fullscreenenter"",""1"",""1763""
","
","
","""event"",""trial"",""time""
""fullscreenenter"",""1"",""1763""
","
","","","","","","null","<div style=""font-size:60px;"">+</div>","null","","fixation","","","","","","","","",""
"memory-trial","43","193582","0.0-15.0-1.0","1998","2","""event"",""trial"",""time""
""fullscreenenter"",""1"",""1763""
","
","
","""event"",""trial"",""time""
""fullscreenenter"",""1"",""1763""
","
","","","","","","4342.300000011921","images/orange4.png","","","memory_trial","1","definitely_old","","","","","","",""
"html-keyboard-response","44","194094","0.0-15.0-0.1","1998","2","""event"",""trial"",""time""
""fullscreenenter"",""1"",""1763""
","
","
","""event"",""trial"",""time""
""fullscreenenter"",""1"",""1763""
","
","","","","","","null","<div style=""font-size:60px;"">+</div>","null","","fixation","","","","","","","","",""
"memory-trial","45","196409","0.0-15.0-1.1","1998","2","""event"",""trial"",""time""
""fullscreenenter"",""1"",""1763""
","
","
","""event"",""trial"",""time""
""fullscreenenter"",""1"",""1763""
","
","","","","","","1304.1000000238419","images/chair1.png","","","memory_trial","1","definitely_old","","","","","","",""
"html-keyboard-response","46","196926","0.0-15.0-0.2","1998","2","""event"",""trial"",""time""
""fullscreenenter"",""1"",""1763""
","
","
","""event"",""trial"",""time""
""fullscreenenter"",""1"",""1763""
","
","","","","","","null","<div style=""font-size:60px;"">+</div>","null","","fixation","","","","","","","","",""
"memory-trial","47","198670","0.0-15.0-1.2","1998","2","""event"",""trial"",""time""
""fullscreenenter"",""1"",""1763""
","
","
","""event"",""trial"",""time""
""fullscreenenter"",""1"",""1763""
","
","","","","","","738.2999999523163","images/table1.png","","","memory_trial","1","definitely_old","","","","","","",""
"html-keyboard-response","48","199176","0.0-15.0-0.3","1998","2","""event"",""trial"",""time""
""fullscreenenter"",""1"",""1763""
","
","
","""event"",""trial"",""time""
""fullscreenenter"",""1"",""1763""
","
","","","","","","null","<div style=""font-size:60px;"">+</div>","null","","fixation","","","","","","","","",""
"memory-trial","49","201052","0.0-15.0-1.3","1998","2","""event"",""trial"",""time""
""fullscreenenter"",""1"",""1763""
","
","
","""event"",""trial"",""time""
""fullscreenenter"",""1"",""1763""
","
","","","","","","865.3999999761581","images/horse2.png","","","memory_trial","2","maybe_old","","","","","","",""
"html-keyboard-response","50","201561","0.0-15.0-0.4","1998","2","""event"",""trial"",""time""
""fullscreenenter"",""1"",""1763""
","
","
","""event"",""trial"",""time""
""fullscreenenter"",""1"",""1763""
","
","","","","","","null","<div style=""font-size:60px;"">+</div>","null","","fixation","","","","","","","","",""
"memory-trial","51","204053","0.0-15.0-1.4","1998","2","""event"",""trial"",""time""
""fullscreenenter"",""1"",""1763""
","
","
","""event"",""trial"",""time""
""fullscreenenter"",""1"",""1763""
","
","","","","","","1489.300000011921","images/cactus1.png","","","memory_trial","2","maybe_old","","","","","","",""
"html-keyboard-response","52","204555","0.0-15.0-0.5","1998","2","""event"",""trial"",""time""
""fullscreenenter"",""1"",""1763""
","
","
","""event"",""trial"",""time""
""fullscreenenter"",""1"",""1763""
","
","","","","","","null","<div style=""font-size:60px;"">+</div>","null","","fixation","","","","","","","","",""
"memory-trial","53","206502","0.0-15.0-1.5","1998","2","""event"",""trial"",""time""
""fullscreenenter"",""1"",""1763""
","
","
","""event"",""trial"",""time""
""fullscreenenter"",""1"",""1763""
","
","","","","","","944.6999999880791","images/bed3.png","","","memory_trial","3","maybe_new","","","","","","",""
"html-keyboard-response","54","207004","0.0-15.0-0.6","1998","2","""event"",""trial"",""time""
""fullscreenenter"",""1"",""1763""
","
","
","""event"",""trial"",""time""
""fullscreenenter"",""1"",""1763""
","
","","","","","","null","<div style=""font-size:60px;"">+</div>","null","","fixation","","","","","","","","",""
"memory-trial","55","208979","0.0-15.0-1.6","1998","2","""event"",""trial"",""time""
""fullscreenenter"",""1"",""1763""
","
","
","""event"",""trial"",""time""
""fullscreenenter"",""1"",""1763""
","
","","","","","","972.6999999880791","images/flower4.png","","","memory_trial","2","maybe_old","","","","","","",""
"html-keyboard-response","56","209482","0.0-15.0-0.7","1998","2","""event"",""trial"",""time""
""fullscreenenter"",""1"",""1763""
","
","
","""event"",""trial"",""time""
""fullscreenenter"",""1"",""1763""
","
","","","","","","null","<div style=""font-size:60px;"">+</div>","null","","fixation","","","","","","","","",""
"memory-trial","57","210856","0.0-15.0-1.7","1998","2","""event"",""trial"",""time""
""fullscreenenter"",""1"",""1763""
","
","
","""event"",""trial"",""time""
""fullscreenenter"",""1"",""1763""
","
","","","","","","372","images/feline1.png","","","memory_trial","2","maybe_old","","","","","","",""
"html-keyboard-response","58","211358","0.0-15.0-0.8","1998","2","""event"",""trial"",""time""
""fullscreenenter"",""1"",""1763""
","
","
","""event"",""trial"",""time""
""fullscreenenter"",""1"",""1763""
","
","","","","","","null","<div style=""font-size:60px;"">+</div>","null","","fixation","","","","","","","","",""
"memory-trial","59","212702","0.0-15.0-1.8","1998","2","""event"",""trial"",""time""
""fullscreenenter"",""1"",""1763""
","
","
","""event"",""trial"",""time""
""fullscreenenter"",""1"",""1763""
","
","","","","","","342","images/table2.png","","","memory_trial","2","maybe_old","","","","","","",""
"html-keyboard-response","60","213205","0.0-15.0-0.9","1998","2","""event"",""trial"",""time""
""fullscreenenter"",""1"",""1763""
","
","
","""event"",""trial"",""time""
""fullscreenenter"",""1"",""1763""
","
","","","","","","null","<div style=""font-size:60px;"">+</div>","null","","fixation","","","","","","","","",""
"memory-trial","61","214619","0.0-15.0-1.9","1998","2","""event"",""trial"",""time""
""fullscreenenter"",""1"",""1763""
","
","
","""event"",""trial"",""time""
""fullscreenenter"",""1"",""1763""
","
","","","","","","411.4000000357628","images/rodent2.png","","","memory_trial","2","maybe_old","","","","","","",""
"html-keyboard-response","62","215121","0.0-15.0-0.10","1998","2","""event"",""trial"",""time""
""fullscreenenter"",""1"",""1763""
","
","
","""event"",""trial"",""time""
""fullscreenenter"",""1"",""1763""
","
","","","","","","null","<div style=""font-size:60px;"">+</div>","null","","fixation","","","","","","","","",""
"memory-trial","63","216431","0.0-15.0-1.10","1998","2","""event"",""trial"",""time""
""fullscreenenter"",""1"",""1763""
","
","
","""event"",""trial"",""time""
""fullscreenenter"",""1"",""1763""
","
","","","","","","307.89999997615814","images/rabbit4.png","","","memory_trial","2","maybe_old","","","","","","",""
"html-keyboard-response","64","216933","0.0-15.0-0.11","1998","2","""event"",""trial"",""time""
""fullscreenenter"",""1"",""1763""
","
","
","""event"",""trial"",""time""
""fullscreenenter"",""1"",""1763""
","
","","","","","","null","<div style=""font-size:60px;"">+</div>","null","","fixation","","","","","","","","",""
"memory-trial","65","218300","0.0-15.0-1.11","1998","2","""event"",""trial"",""time""
""fullscreenenter"",""1"",""1763""
","
","
","""event"",""trial"",""time""
""fullscreenenter"",""1"",""1763""
","
","","","","","","364.5","images/cow3.png","","","memory_trial","2","maybe_old","","","","","","",""
"html-keyboard-response","66","218802","0.0-15.0-0.12","1998","2","""event"",""trial"",""time""
""fullscreenenter"",""1"",""1763""
","
","
","""event"",""trial"",""time""
""fullscreenenter"",""1"",""1763""
","
","","","","","","null","<div style=""font-size:60px;"">+</div>","null","","fixation","","","","","","","","",""
"memory-trial","67","220188","0.0-15.0-1.12","1998","2","""event"",""trial"",""time""
""fullscreenenter"",""1"",""1763""
","
","
","""event"",""trial"",""time""
""fullscreenenter"",""1"",""1763""
","
","","","","","","382.80000001192093","images/bed1.png","","","memory_trial","4","definitely_new","","","","","","",""
"html-keyboard-response","68","220690","0.0-15.0-0.13","1998","2","""event"",""trial"",""time""
""fullscreenenter"",""1"",""1763""
","
","
","""event"",""trial"",""time""
""fullscreenenter"",""1"",""1763""
","
","","","","","","null","<div style=""font-size:60px;"">+</div>","null","","fixation","","","","","","","","",""
"memory-trial","69","222006","0.0-15.0-1.13","1998","2","""event"",""trial"",""time""
""fullscreenenter"",""1"",""1763""
","
","
","""event"",""trial"",""time""
""fullscreenenter"",""1"",""1763""
","
","","","","","","313.5","images/plane4.png","","","memory_trial","3","maybe_new","","","","","","",""
"html-keyboard-response","70","222508","0.0-15.0-0.14","1998","2","""event"",""trial"",""time""
""fullscreenenter"",""1"",""1763""
","
","
","""event"",""trial"",""time""
""fullscreenenter"",""1"",""1763""
","
","","","","","","null","<div style=""font-size:60px;"">+</div>","null","","fixation","","","","","","","","",""
"memory-trial","71","223712","0.0-15.0-1.14","1998","2","""event"",""trial"",""time""
""fullscreenenter"",""1"",""1763""
","
","
","""event"",""trial"",""time""
""fullscreenenter"",""1"",""1763""
","
","","","","","","202.0999999642372","images/tree1.png","","","memory_trial","2","maybe_old","","","","","","",""
"html-keyboard-response","72","224213","0.0-15.0-0.15","1998","2","""event"",""trial"",""time""
""fullscreenenter"",""1"",""1763""
","
","
","""event"",""trial"",""time""
""fullscreenenter"",""1"",""1763""
","
","","","","","","null","<div style=""font-size:60px;"">+</div>","null","","fixation","","","","","","","","",""
"memory-trial","73","225505","0.0-15.0-1.15","1998","2","""event"",""trial"",""time""
""fullscreenenter"",""1"",""1763""
","
","
","""event"",""trial"",""time""
""fullscreenenter"",""1"",""1763""
","
","","","","","","288.5999999642372","images/plane3.png","","","memory_trial","4","definitely_new","","","","","","",""
"html-keyboard-response","74","226007","0.0-15.0-0.16","1998","2","""event"",""trial"",""time""
""fullscreenenter"",""1"",""1763""
","
","
","""event"",""trial"",""time""
""fullscreenenter"",""1"",""1763""
","
","","","","","","null","<div style=""font-size:60px;"">+</div>","null","","fixation","","","","","","","","",""
"memory-trial","75","227312","0.0-15.0-1.16","1998","2","""event"",""trial"",""time""
""fullscreenenter"",""1"",""1763""
","
","
","""event"",""trial"",""time""
""fullscreenenter"",""1"",""1763""
","
","","","","","","302.4000000357628","images/flower1.png","","","memory_trial","3","maybe_new","","","","","","",""
"html-keyboard-response","76","227814","0.0-15.0-0.17","1998","2","""event"",""trial"",""time""
""fullscreenenter"",""1"",""1763""
","
","
","""event"",""trial"",""time""
""fullscreenenter"",""1"",""1763""
","
","","","","","","null","<div style=""font-size:60px;"">+</div>","null","","fixation","","","","","","","","",""
"memory-trial","77","229393","0.0-15.0-1.17","1998","2","""event"",""trial"",""time""
""fullscreenenter"",""1"",""1763""
","
","
","""event"",""trial"",""time""
""fullscreenenter"",""1"",""1763""
","
","","","","","","575.9000000357628","images/rodent5.png","","","memory_trial","2","maybe_old","","","","","","",""
"html-keyboard-response","78","229895","0.0-15.0-0.18","1998","2","""event"",""trial"",""time""
""fullscreenenter"",""1"",""1763""
","
","
","""event"",""trial"",""time""
""fullscreenenter"",""1"",""1763""
","
","","","","","","null","<div style=""font-size:60px;"">+</div>","null","","fixation","","","","","","","","",""
"memory-trial","79","231463","0.0-15.0-1.18","1998","2","""event"",""trial"",""time""
""fullscreenenter"",""1"",""1763""
","
","
","""event"",""trial"",""time""
""fullscreenenter"",""1"",""1763""
","
","","","","","","567","images/train3.png","","","memory_trial","2","maybe_old","","","","","","",""
"html-keyboard-response","80","231965","0.0-15.0-0.19","1998","2","""event"",""trial"",""time""
""fullscreenenter"",""1"",""1763""
","
","
","""event"",""trial"",""time""
""fullscreenenter"",""1"",""1763""
","
","","","","","","null","<div style=""font-size:60px;"">+</div>","null","","fixation","","","","","","","","",""
"memory-trial","81","233227","0.0-15.0-1.19","1998","2","""event"",""trial"",""time""
""fullscreenenter"",""1"",""1763""
","
","
","""event"",""trial"",""time""
""fullscreenenter"",""1"",""1763""
","
","","","","","","259.80000001192093","images/sofa1.png","","","memory_trial","2","maybe_old","","","","","","",""
"html-keyboard-response","82","233728","0.0-15.0-0.20","1998","2","""event"",""trial"",""time""
""fullscreenenter"",""1"",""1763""
","
","
","""event"",""trial"",""time""
""fullscreenenter"",""1"",""1763""
","
","","","","","","null","<div style=""font-size:60px;"">+</div>","null","","fixation","","","","","","","","",""
"memory-trial","83","234952","0.0-15.0-1.20","1998","2","""event"",""trial"",""time""
""fullscreenenter"",""1"",""1763""
","
","
","""event"",""trial"",""time""
""fullscreenenter"",""1"",""1763""
","
","","","","","","222.39999997615814","images/tree5.png","","","memory_trial","2","maybe_old","","","","","","",""
"html-keyboard-response","84","235454","0.0-15.0-0.21","1998","2","""event"",""trial"",""time""
""fullscreenenter"",""1"",""1763""
","
","
","""event"",""trial"",""time""
""fullscreenenter"",""1"",""1763""
","
","","","","","","null","<div style=""font-size:60px;"">+</div>","null","","fixation","","","","","","","","",""
"memory-trial","85","236710","0.0-15.0-1.21","1998","2","""event"",""trial"",""time""
""fullscreenenter"",""1"",""1763""
","
","
","""event"",""trial"",""time""
""fullscreenenter"",""1"",""1763""
","
","","","","","","254.10000002384186","images/cactus5.png","","","memory_trial","1","definitely_old","","","","","","",""
"html-keyboard-response","86","237210","0.0-15.0-0.22","1998","2","""event"",""trial"",""time""
""fullscreenenter"",""1"",""1763""
","
","
","""event"",""trial"",""time""
""fullscreenenter"",""1"",""1763""
","
","","","","","","null","<div style=""font-size:60px;"">+</div>","null","","fixation","","","","","","","","",""
"memory-trial","87","238493","0.0-15.0-1.22","1998","2","""event"",""trial"",""time""
""fullscreenenter"",""1"",""1763""
","
","
","""event"",""trial"",""time""
""fullscreenenter"",""1"",""1763""
","
","","","","","","279.89999997615814","images/horse5.png","","","memory_trial","4","definitely_new","","","","","","",""
"html-keyboard-response","88","238994","0.0-15.0-0.23","1998","2","""event"",""trial"",""time""
""fullscreenenter"",""1"",""1763""
","
","
","""event"",""trial"",""time""
""fullscreenenter"",""1"",""1763""
","
","","","","","","null","<div style=""font-size:60px;"">+</div>","null","","fixation","","","","","","","","",""
"memory-trial","89","240262","0.0-15.0-1.23","1998","2","""event"",""trial"",""time""
""fullscreenenter"",""1"",""1763""
","
","
","""event"",""trial"",""time""
""fullscreenenter"",""1"",""1763""
","
","","","","","","264.69999998807907","images/goat2.png","","","memory_trial","3","maybe_new","","","","","","",""
"html-keyboard-response","90","240764","0.0-15.0-0.24","1998","2","""event"",""trial"",""time""
""fullscreenenter"",""1"",""1763""
","
","
","""event"",""trial"",""time""
""fullscreenenter"",""1"",""1763""
","
","","","","","","null","<div style=""font-size:60px;"">+</div>","null","","fixation","","","","","","","","",""
"memory-trial","91","242008","0.0-15.0-1.24","1998","2","""event"",""trial"",""time""
""fullscreenenter"",""1"",""1763""
","
","
","""event"",""trial"",""time""
""fullscreenenter"",""1"",""1763""
","
","","","","","","241.79999995231628","images/cow4.png","","","memory_trial","3","maybe_new","","","","","","",""
"html-keyboard-response","92","242510","0.0-15.0-0.25","1998","2","""event"",""trial"",""time""
""fullscreenenter"",""1"",""1763""
","
","
","""event"",""trial"",""time""
""fullscreenenter"",""1"",""1763""
","
","","","","","","null","<div style=""font-size:60px;"">+</div>","null","","fixation","","","","","","","","",""
"memory-trial","93","243524","0.0-15.0-1.25","1998","2","""event"",""trial"",""time""
""fullscreenenter"",""1"",""1763""
","
","
","""event"",""trial"",""time""
""fullscreenenter"",""1"",""1763""
","
","","","","","","10","images/apple2.png","","","memory_trial","3","maybe_new","","","","","","",""
"html-keyboard-response","94","244026","0.0-15.0-0.26","1998","2","""event"",""trial"",""time""
""fullscreenenter"",""1"",""1763""
","
","
","""event"",""trial"",""time""
""fullscreenenter"",""1"",""1763""
","
","","","","","","null","<div style=""font-size:60px;"">+</div>","null","","fixation","","","","","","","","",""
"memory-trial","95","245298","0.0-15.0-1.26","1998","2","""event"",""trial"",""time""
""fullscreenenter"",""1"",""1763""
","
","
","""event"",""trial"",""time""
""fullscreenenter"",""1"",""1763""
","
","","","","","","266.0999999642372","images/sheep4.png","","","memory_trial","2","maybe_old","","","","","","",""
"html-keyboard-response","96","245800","0.0-15.0-0.27","1998","2","""event"",""trial"",""time""
""fullscreenenter"",""1"",""1763""
","
","
","""event"",""trial"",""time""
""fullscreenenter"",""1"",""1763""
","
","","","","","","null","<div style=""font-size:60px;"">+</div>","null","","fixation","","","","","","","","",""
"memory-trial","97","247006","0.0-15.0-1.27","1998","2","""event"",""trial"",""time""
""fullscreenenter"",""1"",""1763""
","
","
","""event"",""trial"",""time""
""fullscreenenter"",""1"",""1763""
","
","","","","","","202.5","images/rabbit3.png","","","memory_trial","2","maybe_old","","","","","","",""
"html-keyboard-response","98","247507","0.0-15.0-0.28","1998","2","""event"",""trial"",""time""
""fullscreenenter"",""1"",""1763""
","
","
","""event"",""trial"",""time""
""fullscreenenter"",""1"",""1763""
","
","","","","","","null","<div style=""font-size:60px;"">+</div>","null","","fixation","","","","","","","","",""
"memory-trial","99","248802","0.0-15.0-1.28","1998","2","""event"",""trial"",""time""
""fullscreenenter"",""1"",""1763""
","
","
","""event"",""trial"",""time""
""fullscreenenter"",""1"",""1763""
","
","","","","","","292.39999997615814","images/table5.png","","","memory_trial","3","maybe_new","","","","","","",""
"html-keyboard-response","100","249304","0.0-15.0-0.29","1998","2","""event"",""trial"",""time""
""fullscreenenter"",""1"",""1763""
","
","
","""event"",""trial"",""time""
""fullscreenenter"",""1"",""1763""
","
","","","","","","null","<div style=""font-size:60px;"">+</div>","null","","fixation","","","","","","","","",""
"memory-trial","101","250602","0.0-15.0-1.29","1998","2","""event"",""trial"",""time""
""fullscreenenter"",""1"",""1763""
","
","
","""event"",""trial"",""time""
""fullscreenenter"",""1"",""1763""
","
","","","","","","295.7999999523163","images/flower2.png","","","memory_trial","3","maybe_new","","","","","","",""
"html-keyboard-response","102","251110","0.0-15.0-0.30","1998","2","""event"",""trial"",""time""
""fullscreenenter"",""1"",""1763""
","
","
","""event"",""trial"",""time""
""fullscreenenter"",""1"",""1763""
","
","","","","","","null","<div style=""font-size:60px;"">+</div>","null","","fixation","","","","","","","","",""
"memory-trial","103","252388","0.0-15.0-1.30","1998","2","""event"",""trial"",""time""
""fullscreenenter"",""1"",""1763""
","
","
","""event"",""trial"",""time""
""fullscreenenter"",""1"",""1763""
","
","","","","","","275.0999999642372","images/bed5.png","","","memory_trial","2","maybe_old","","","","","","",""
"html-keyboard-response","104","252889","0.0-15.0-0.31","1998","2","""event"",""trial"",""time""
""fullscreenenter"",""1"",""1763""
","
","
","""event"",""trial"",""time""
""fullscreenenter"",""1"",""1763""
","
","","","","","","null","<div style=""font-size:60px;"">+</div>","null","","fixation","","","","","","","","",""
"memory-trial","105","253998","0.0-15.0-1.31","1998","2","""event"",""trial"",""time""
""fullscreenenter"",""1"",""1763""
","
","
","""event"",""trial"",""time""
""fullscreenenter"",""1"",""1763""
","
","","","","","","105.69999998807907","images/truck4.png","","","memory_trial","3","maybe_new","","","","","","",""
"html-keyboard-response","106","254500","0.0-15.0-0.32","1998","2","""event"",""trial"",""time""
""fullscreenenter"",""1"",""1763""
","
","
","""event"",""trial"",""time""
""fullscreenenter"",""1"",""1763""
","
","","","","","","null","<div style=""font-size:60px;"">+</div>","null","","fixation","","","","","","","","",""
"memory-trial","107","255965","0.0-15.0-1.32","1998","2","""event"",""trial"",""time""
""fullscreenenter"",""1"",""1763""
","
","
","""event"",""trial"",""time""
""fullscreenenter"",""1"",""1763""
","
","","","","","","461.80000001192093","images/rodent4.png","","","memory_trial","2","maybe_old","","","","","","",""
"html-keyboard-response","108","256467","0.0-15.0-0.33","1998","2","""event"",""trial"",""time""
""fullscreenenter"",""1"",""1763""
","
","
","""event"",""trial"",""time""
""fullscreenenter"",""1"",""1763""
","
","","","","","","null","<div style=""font-size:60px;"">+</div>","null","","fixation","","","","","","","","",""
"memory-trial","109","257684","0.0-15.0-1.33","1998","2","""event"",""trial"",""time""
""fullscreenenter"",""1"",""1763""
","
","
","""event"",""trial"",""time""
""fullscreenenter"",""1"",""1763""
","
","","","","","","214.39999997615814","images/goat3.png","","","memory_trial","3","maybe_new","","","","","","",""
"html-keyboard-response","110","258192","0.0-15.0-0.34","1998","2","""event"",""trial"",""time""
""fullscreenenter"",""1"",""1763""
","
","
","""event"",""trial"",""time""
""fullscreenenter"",""1"",""1763""
","
","","","","","","null","<div style=""font-size:60px;"">+</div>","null","","fixation","","","","","","","","",""
"memory-trial","111","259445","0.0-15.0-1.34","1998","2","""event"",""trial"",""time""
""fullscreenenter"",""1"",""1763""
","
","
","""event"",""trial"",""time""
""fullscreenenter"",""1"",""1763""
","
","","","","","","251.30000001192093","images/plane5.png","","","memory_trial","2","maybe_old","","","","","","",""
"html-keyboard-response","112","259947","0.0-15.0-0.35","1998","2","""event"",""trial"",""time""
""fullscreenenter"",""1"",""1763""
","
","
","""event"",""trial"",""time""
""fullscreenenter"",""1"",""1763""
","
","","","","","","null","<div style=""font-size:60px;"">+</div>","null","","fixation","","","","","","","","",""
"memory-trial","113","261348","0.0-15.0-1.35","1998","2","""event"",""trial"",""time""
""fullscreenenter"",""1"",""1763""
","
","
","""event"",""trial"",""time""
""fullscreenenter"",""1"",""1763""
","
","","","","","","398.89999997615814","images/boat5.png","","","memory_trial","2","maybe_old","","","","","","",""
"html-keyboard-response","114","261850","0.0-15.0-0.36","1998","2","""event"",""trial"",""time""
""fullscreenenter"",""1"",""1763""
","
","
","""event"",""trial"",""time""
""fullscreenenter"",""1"",""1763""
","
","","","","","","null","<div style=""font-size:60px;"">+</div>","null","","fixation","","","","","","","","",""
"memory-trial","115","263478","0.0-15.0-1.36","1998","2","""event"",""trial"",""time""
""fullscreenenter"",""1"",""1763""
","
","
","""event"",""trial"",""time""
""fullscreenenter"",""1"",""1763""
","
","","","","","","625.6999999880791","images/sofa5.png","","","memory_trial","1","definitely_old","","","","","","",""
"html-keyboard-response","116","263979","0.0-15.0-0.37","1998","2","""event"",""trial"",""time""
""fullscreenenter"",""1"",""1763""
","
","
","""event"",""trial"",""time""
""fullscreenenter"",""1"",""1763""
","
","","","","","","null","<div style=""font-size:60px;"">+</div>","null","","fixation","","","","","","","","",""
"memory-trial","117","265295","0.0-15.0-1.37","1998","2","""event"",""trial"",""time""
""fullscreenenter"",""1"",""1763""
","
","
","""event"",""trial"",""time""
""fullscreenenter"",""1"",""1763""
","
","","","","","","312.5","images/plane2.png","","","memory_trial","4","definitely_new","","","","","","",""
"html-keyboard-response","118","265796","0.0-15.0-0.38","1998","2","""event"",""trial"",""time""
""fullscreenenter"",""1"",""1763""
","
","
","""event"",""trial"",""time""
""fullscreenenter"",""1"",""1763""
","
","","","","","","null","<div style=""font-size:60px;"">+</div>","null","","fixation","","","","","","","","",""
"memory-trial","119","266941","0.0-15.0-1.38","1998","2","""event"",""trial"",""time""
""fullscreenenter"",""1"",""1763""
","
","
","""event"",""trial"",""time""
""fullscreenenter"",""1"",""1763""
","
","","","","","","143.10000002384186","images/cow1.png","","","memory_trial","3","maybe_new","","","","","","",""
"html-keyboard-response","120","267454","0.0-15.0-0.39","1998","2","""event"",""trial"",""time""
""fullscreenenter"",""1"",""1763""
","
","
","""event"",""trial"",""time""
""fullscreenenter"",""1"",""1763""
","
","","","","","","null","<div style=""font-size:60px;"">+</div>","null","","fixation","","","","","","","","",""
"memory-trial","121","268659","0.0-15.0-1.39","1998","2","""event"",""trial"",""time""
""fullscreenenter"",""1"",""1763""
","
","
","""event"",""trial"",""time""
""fullscreenenter"",""1"",""1763""
","
","","","","","","202.19999998807907","images/feline2.png","","","memory_trial","3","maybe_new","","","","","","",""
"html-keyboard-response","122","269161","0.0-15.0-0.40","1998","2","""event"",""trial"",""time""
""fullscreenenter"",""1"",""1763""
","
","
","""event"",""trial"",""time""
""fullscreenenter"",""1"",""1763""
","
","","","","","","null","<div style=""font-size:60px;"">+</div>","null","","fixation","","","","","","","","",""
"memory-trial","123","270472","0.0-15.0-1.40","1998","2","""event"",""trial"",""time""
""fullscreenenter"",""1"",""1763""
","
","
","""event"",""trial"",""time""
""fullscreenenter"",""1"",""1763""
","
","","","","","","307.5","images/rabbit1.png","","","memory_trial","2","maybe_old","","","","","","",""
"html-keyboard-response","124","270974","0.0-15.0-0.41","1998","2","""event"",""trial"",""time""
""fullscreenenter"",""1"",""1763""
","
","
","""event"",""trial"",""time""
""fullscreenenter"",""1"",""1763""
","
","","","","","","null","<div style=""font-size:60px;"">+</div>","null","","fixation","","","","","","","","",""
"memory-trial","125","272315","0.0-15.0-1.41","1998","2","""event"",""trial"",""time""
""fullscreenenter"",""1"",""1763""
","
","
","""event"",""trial"",""time""
""fullscreenenter"",""1"",""1763""
","
","","","","","","338.69999998807907","images/sheep3.png","","","memory_trial","2","maybe_old","","","","","","",""
"html-keyboard-response","126","272816","0.0-15.0-0.42","1998","2","""event"",""trial"",""time""
""fullscreenenter"",""1"",""1763""
","
","
","""event"",""trial"",""time""
""fullscreenenter"",""1"",""1763""
","
","","","","","","null","<div style=""font-size:60px;"">+</div>","null","","fixation","","","","","","","","",""
"memory-trial","127","274121","0.0-15.0-1.42","1998","2","""event"",""trial"",""time""
""fullscreenenter"",""1"",""1763""
","
","
","""event"",""trial"",""time""
""fullscreenenter"",""1"",""1763""
","
","","","","","","302.10000002384186","images/sheep1.png","","","memory_trial","2","maybe_old","","","","","","",""
"html-keyboard-response","128","274624","0.0-15.0-0.43","1998","2","""event"",""trial"",""time""
""fullscreenenter"",""1"",""1763""
","
","
","""event"",""trial"",""time""
""fullscreenenter"",""1"",""1763""
","
","","","","","","null","<div style=""font-size:60px;"">+</div>","null","","fixation","","","","","","","","",""
"memory-trial","129","275918","0.0-15.0-1.43","1998","2","""event"",""trial"",""time""
""fullscreenenter"",""1"",""1763""
","
","
","""event"",""trial"",""time""
""fullscreenenter"",""1"",""1763""
","
","","","","","","292","images/banana5.png","","","memory_trial","2","maybe_old","","","","","","",""
"html-keyboard-response","130","276420","0.0-15.0-0.44","1998","2","""event"",""trial"",""time""
""fullscreenenter"",""1"",""1763""
","
","
","""event"",""trial"",""time""
""fullscreenenter"",""1"",""1763""
","
","","","","","","null","<div style=""font-size:60px;"">+</div>","null","","fixation","","","","","","","","",""
"memory-trial","131","278347","0.0-15.0-1.44","1998","2","""event"",""trial"",""time""
""fullscreenenter"",""1"",""1763""
","
","
","""event"",""trial"",""time""
""fullscreenenter"",""1"",""1763""
","
","","","","","","925","images/bush5.png","","","memory_trial","3","maybe_new","","","","","","",""
"html-keyboard-response","132","278849","0.0-15.0-0.45","1998","2","""event"",""trial"",""time""
""fullscreenenter"",""1"",""1763""
","
","
","""event"",""trial"",""time""
""fullscreenenter"",""1"",""1763""
","
","","","","","","null","<div style=""font-size:60px;"">+</div>","null","","fixation","","","","","","","","",""
"memory-trial","133","280164","0.0-15.0-1.45","1998","2","""event"",""trial"",""time""
""fullscreenenter"",""1"",""1763""
","
","
","""event"",""trial"",""time""
""fullscreenenter"",""1"",""1763""
","
","","","","","","312.30000001192093","images/boat4.png","","","memory_trial","2","maybe_old","","","","","","",""
"html-keyboard-response","134","280667","0.0-15.0-0.46","1998","2","""event"",""trial"",""time""
""fullscreenenter"",""1"",""1763""
","
","
","""event"",""trial"",""time""
""fullscreenenter"",""1"",""1763""
","
","","","","","","null","<div style=""font-size:60px;"">+</div>","null","","fixation","","","","","","","","",""
"memory-trial","135","281896","0.0-15.0-1.46","1998","2","""event"",""trial"",""time""
""fullscreenenter"",""1"",""1763""
","
","
","""event"",""trial"",""time""
""fullscreenenter"",""1"",""1763""
","
","","","","","","223.30000001192093","images/dog1.png","","","memory_trial","2","maybe_old","","","","","","",""
"html-button-response","136","283724","0.0-15.0-2.46-0.46","1998","2","""event"",""trial"",""time""
""fullscreenenter"",""1"",""1763""
","
","
","""event"",""trial"",""time""
""fullscreenenter"",""1"",""1763""
","
","","","","","","1826.800000011921","<p> Take a break! </p><p> Click the button to continue. </p>","0","","break","","","","","","","","",""
"html-keyboard-response","137","284225","0.0-15.0-0.47","1998","2","""event"",""trial"",""time""
""fullscreenenter"",""1"",""1763""
","
","
","""event"",""trial"",""time""
""fullscreenenter"",""1"",""1763""
","
","","","","","","null","<div style=""font-size:60px;"">+</div>","null","","fixation","","","","","","","","",""
"memory-trial","138","286301","0.0-15.0-1.47","1998","2","""event"",""trial"",""time""
""fullscreenenter"",""1"",""1763""
","
","
","""event"",""trial"",""time""
""fullscreenenter"",""1"",""1763""
","
","","","","","","1072.800000011921","images/sheep2.png","","","memory_trial","4","definitely_new","","","","","","",""
"html-keyboard-response","139","286804","0.0-15.0-0.48","1998","2","""event"",""trial"",""time""
""fullscreenenter"",""1"",""1763""
","
","
","""event"",""trial"",""time""
""fullscreenenter"",""1"",""1763""
","
","","","","","","null","<div style=""font-size:60px;"">+</div>","null","","fixation","","","","","","","","",""
"memory-trial","140","288056","0.0-15.0-1.48","1998","2","""event"",""trial"",""time""
""fullscreenenter"",""1"",""1763""
","
","
","""event"",""trial"",""time""
""fullscreenenter"",""1"",""1763""
","
","","","","","","249.9000000357628","images/chair4.png","","","memory_trial","3","maybe_new","","","","","","",""
"html-keyboard-response","141","288566","0.0-15.0-0.49","1998","2","""event"",""trial"",""time""
""fullscreenenter"",""1"",""1763""
","
","
","""event"",""trial"",""time""
""fullscreenenter"",""1"",""1763""
","
","","","","","","null","<div style=""font-size:60px;"">+</div>","null","","fixation","","","","","","","","",""
"memory-trial","142","289799","0.0-15.0-1.49","1998","2","""event"",""trial"",""time""
""fullscreenenter"",""1"",""1763""
","
","
","""event"",""trial"",""time""
""fullscreenenter"",""1"",""1763""
","
","","","","","","230.5","images/orange5.png","","","memory_trial","3","maybe_new","","","","","","",""
"html-keyboard-response","143","290300","0.0-15.0-0.50","1998","2","""event"",""trial"",""time""
""fullscreenenter"",""1"",""1763""
","
","
","""event"",""trial"",""time""
""fullscreenenter"",""1"",""1763""
","
","","","","","","null","<div style=""font-size:60px;"">+</div>","null","","fixation","","","","","","","","",""
"memory-trial","144","291571","0.0-15.0-1.50","1998","2","""event"",""trial"",""time""
""fullscreenenter"",""1"",""1763""
","
","
","""event"",""trial"",""time""
""fullscreenenter"",""1"",""1763""
","
","","","","","","268.19999998807907","images/boat1.png","","","memory_trial","3","maybe_new","","","","","","",""
"html-keyboard-response","145","292073","0.0-15.0-0.51","1998","2","""event"",""trial"",""time""
""fullscreenenter"",""1"",""1763""
","
","
","""event"",""trial"",""time""
""fullscreenenter"",""1"",""1763""
","
","","","","","","null","<div style=""font-size:60px;"">+</div>","null","","fixation","","","","","","","","",""
"memory-trial","146","293308","0.0-15.0-1.51","1998","2","""event"",""trial"",""time""
""fullscreenenter"",""1"",""1763""
","
","
","""event"",""trial"",""time""
""fullscreenenter"",""1"",""1763""
","
","","","","","","233.29999995231628","images/tree3.png","","","memory_trial","2","maybe_old","","","","","","",""
"html-keyboard-response","147","293811","0.0-15.0-0.52","1998","2","""event"",""trial"",""time""
""fullscreenenter"",""1"",""1763""
","
","
","""event"",""trial"",""time""
""fullscreenenter"",""1"",""1763""
","
","","","","","","null","<div style=""font-size:60px;"">+</div>","null","","fixation","","","","","","","","",""
"memory-trial","148","294885","0.0-15.0-1.52","1998","2","""event"",""trial"",""time""
""fullscreenenter"",""1"",""1763""
","
","
","""event"",""trial"",""time""
""fullscreenenter"",""1"",""1763""
","
","","","","","","72.39999997615814","images/truck5.png","","","memory_trial","3","maybe_new","","","","","","",""
"html-keyboard-response","149","295387","0.0-15.0-0.53","1998","2","""event"",""trial"",""time""
""fullscreenenter"",""1"",""1763""
","
","
","""event"",""trial"",""time""
""fullscreenenter"",""1"",""1763""
","
","","","","","","null","<div style=""font-size:60px;"">+</div>","null","","fixation","","","","","","","","",""
"memory-trial","150","296621","0.0-15.0-1.53","1998","2","""event"",""trial"",""time""
""fullscreenenter"",""1"",""1763""
","
","
","""event"",""trial"",""time""
""fullscreenenter"",""1"",""1763""
","
","","","","","","232.5999999642372","images/dog3.png","","","memory_trial","3","maybe_new","","","","","","",""
"html-keyboard-response","151","297124","0.0-15.0-0.54","1998","2","""event"",""trial"",""time""
""fullscreenenter"",""1"",""1763""
","
","
","""event"",""trial"",""time""
""fullscreenenter"",""1"",""1763""
","
","","","","","","null","<div style=""font-size:60px;"">+</div>","null","","fixation","","","","","","","","",""
"memory-trial","152","298386","0.0-15.0-1.54","1998","2","""event"",""trial"",""time""
""fullscreenenter"",""1"",""1763""
","
","
","""event"",""trial"",""time""
""fullscreenenter"",""1"",""1763""
","
","","","","","","259.10000002384186","images/truck1.png","","","memory_trial","3","maybe_new","","","","","","",""
"html-keyboard-response","153","298888","0.0-15.0-0.55","1998","2","""event"",""trial"",""time""
""fullscreenenter"",""1"",""1763""
","
","
","""event"",""trial"",""time""
""fullscreenenter"",""1"",""1763""
","
","","","","","","null","<div style=""font-size:60px;"">+</div>","null","","fixation","","","","","","","","",""
"memory-trial","154","300185","0.0-15.0-1.55","1998","2","""event"",""trial"",""time""
""fullscreenenter"",""1"",""1763""
","
","
","""event"",""trial"",""time""
""fullscreenenter"",""1"",""1763""
","
","","","","","","294.5999999642372","images/train2.png","","","memory_trial","3","maybe_new","","","","","","",""
"html-keyboard-response","155","300686","0.0-15.0-0.56","1998","2","""event"",""trial"",""time""
""fullscreenenter"",""1"",""1763""
","
","
","""event"",""trial"",""time""
""fullscreenenter"",""1"",""1763""
","
","","","","","","null","<div style=""font-size:60px;"">+</div>","null","","fixation","","","","","","","","",""
"memory-trial","156","302035","0.0-15.0-1.56","1998","2","""event"",""trial"",""time""
""fullscreenenter"",""1"",""1763""
","
","
","""event"",""trial"",""time""
""fullscreenenter"",""1"",""1763""
","
","","","","","","346.4000000357628","images/cactus2.png","","","memory_trial","3","maybe_new","","","","","","",""
"html-keyboard-response","157","302536","0.0-15.0-0.57","1998","2","""event"",""trial"",""time""
""fullscreenenter"",""1"",""1763""
","
","
","""event"",""trial"",""time""
""fullscreenenter"",""1"",""1763""
","
","","","","","","null","<div style=""font-size:60px;"">+</div>","null","","fixation","","","","","","","","",""
"memory-trial","158","303854","0.0-15.0-1.57","1998","2","""event"",""trial"",""time""
""fullscreenenter"",""1"",""1763""
","
","
","""event"",""trial"",""time""
""fullscreenenter"",""1"",""1763""
","
","","","","","","315.30000001192093","images/horse1.png","","","memory_trial","3","maybe_new","","","","","","",""
"html-keyboard-response","159","304356","0.0-15.0-0.58","1998","2","""event"",""trial"",""time""
""fullscreenenter"",""1"",""1763""
","
","
","""event"",""trial"",""time""
""fullscreenenter"",""1"",""1763""
","
","","","","","","null","<div style=""font-size:60px;"">+</div>","null","","fixation","","","","","","","","",""
"memory-trial","160","305663","0.0-15.0-1.58","1998","2","""event"",""trial"",""time""
""fullscreenenter"",""1"",""1763""
","
","
","""event"",""trial"",""time""
""fullscreenenter"",""1"",""1763""
","
","","","","","","303.80000001192093","images/goat1.png","","","memory_trial","2","maybe_old","","","","","","",""
"html-keyboard-response","161","306165","0.0-15.0-0.59","1998","2","""event"",""trial"",""time""
""fullscreenenter"",""1"",""1763""
","
","
","""event"",""trial"",""time""
""fullscreenenter"",""1"",""1763""
","
","","","","","","null","<div style=""font-size:60px;"">+</div>","null","","fixation","","","","","","","","",""
"memory-trial","162","307401","0.0-15.0-1.59","1998","2","""event"",""trial"",""time""
""fullscreenenter"",""1"",""1763""
","
","
","""event"",""trial"",""time""
""fullscreenenter"",""1"",""1763""
","
","","","","","","233.5","images/horse3.png","","","memory_trial","3","maybe_new","","","","","","",""
"html-keyboard-response","163","307902","0.0-15.0-0.60","1998","2","""event"",""trial"",""time""
""fullscreenenter"",""1"",""1763""
","
","
","""event"",""trial"",""time""
""fullscreenenter"",""1"",""1763""
","
","","","","","","null","<div style=""font-size:60px;"">+</div>","null","","fixation","","","","","","","","",""
"memory-trial","164","309305","0.0-15.0-1.60","1998","2","""event"",""trial"",""time""
""fullscreenenter"",""1"",""1763""
","
","
","""event"",""trial"",""time""
""fullscreenenter"",""1"",""1763""
","
","","","","","","399.4000000357628","images/dog5.png","","","memory_trial","3","maybe_new","","","","","","",""
"html-keyboard-response","165","309805","0.0-15.0-0.61","1998","2","""event"",""trial"",""time""
""fullscreenenter"",""1"",""1763""
","
","
","""event"",""trial"",""time""
""fullscreenenter"",""1"",""1763""
","
","","","","","","null","<div style=""font-size:60px;"">+</div>","null","","fixation","","","","","","","","",""
"memory-trial","166","311221","0.0-15.0-1.61","1998","2","""event"",""trial"",""time""
""fullscreenenter"",""1"",""1763""
","
","
","""event"",""trial"",""time""
""fullscreenenter"",""1"",""1763""
","
","","","","","","413","images/orange1.png","","","memory_trial","4","definitely_new","","","","","","",""
"html-keyboard-response","167","311722","0.0-15.0-0.62","1998","2","""event"",""trial"",""time""
""fullscreenenter"",""1"",""1763""
","
","
","""event"",""trial"",""time""
""fullscreenenter"",""1"",""1763""
","
","","","","","","null","<div style=""font-size:60px;"">+</div>","null","","fixation","","","","","","","","",""
"memory-trial","168","313007","0.0-15.0-1.62","1998","2","""event"",""trial"",""time""
""fullscreenenter"",""1"",""1763""
","
","
","""event"",""trial"",""time""
""fullscreenenter"",""1"",""1763""
","
","","","","","","279.30000001192093","images/apple3.png","","","memory_trial","3","maybe_new","","","","","","",""
"html-keyboard-response","169","313518","0.0-15.0-0.63","1998","2","""event"",""trial"",""time""
""fullscreenenter"",""1"",""1763""
","
","
","""event"",""trial"",""time""
""fullscreenenter"",""1"",""1763""
","
","","","","","","null","<div style=""font-size:60px;"">+</div>","null","","fixation","","","","","","","","",""
"memory-trial","170","314736","0.0-15.0-1.63","1998","2","""event"",""trial"",""time""
""fullscreenenter"",""1"",""1763""
","
","
","""event"",""trial"",""time""
""fullscreenenter"",""1"",""1763""
","
","","","","","","216.10000002384186","images/straw3.png","","","memory_trial","3","maybe_new","","","","","","",""
"html-keyboard-response","171","315238","0.0-15.0-0.64","1998","2","""event"",""trial"",""time""
""fullscreenenter"",""1"",""1763""
","
","
","""event"",""trial"",""time""
""fullscreenenter"",""1"",""1763""
","
","","","","","","null","<div style=""font-size:60px;"">+</div>","null","","fixation","","","","","","","","",""
"memory-trial","172","316561","0.0-15.0-1.64","1998","2","""event"",""trial"",""time""
""fullscreenenter"",""1"",""1763""
","
","
","""event"",""trial"",""time""
""fullscreenenter"",""1"",""1763""
","
","","","","","","321.39999997615814","images/sofa4.png","","","memory_trial","3","maybe_new","","","","","","",""
"html-keyboard-response","173","317062","0.0-15.0-0.65","1998","2","""event"",""trial"",""time""
""fullscreenenter"",""1"",""1763""
","
","
","""event"",""trial"",""time""
""fullscreenenter"",""1"",""1763""
","
","","","","","","null","<div style=""font-size:60px;"">+</div>","null","","fixation","","","","","","","","",""
"memory-trial","174","318441","0.0-15.0-1.65","1998","2","""event"",""trial"",""time""
""fullscreenenter"",""1"",""1763""
","
","
","""event"",""trial"",""time""
""fullscreenenter"",""1"",""1763""
","
","","","","","","375.19999998807907","images/boat2.png","","","memory_trial","2","maybe_old","","","","","","",""
"html-keyboard-response","175","318942","0.0-15.0-0.66","1998","2","""event"",""trial"",""time""
""fullscreenenter"",""1"",""1763""
","
","
","""event"",""trial"",""time""
""fullscreenenter"",""1"",""1763""
","
","","","","","","null","<div style=""font-size:60px;"">+</div>","null","","fixation","","","","","","","","",""
"memory-trial","176","320357","0.0-15.0-1.66","1998","2","""event"",""trial"",""time""
""fullscreenenter"",""1"",""1763""
","
","
","""event"",""trial"",""time""
""fullscreenenter"",""1"",""1763""
","
","","","","","","412.19999998807907","images/dog2.png","","","memory_trial","2","maybe_old","","","","","","",""
"html-keyboard-response","177","320859","0.0-15.0-0.67","1998","2","""event"",""trial"",""time""
""fullscreenenter"",""1"",""1763""
","
","
","""event"",""trial"",""time""
""fullscreenenter"",""1"",""1763""
","
","","","","","","null","<div style=""font-size:60px;"">+</div>","null","","fixation","","","","","","","","",""
"memory-trial","178","322032","0.0-15.0-1.67","1998","2","""event"",""trial"",""time""
""fullscreenenter"",""1"",""1763""
","
","
","""event"",""trial"",""time""
""fullscreenenter"",""1"",""1763""
","
","","","","","","170.39999997615814","images/cactus3.png","","","memory_trial","3","maybe_new","","","","","","",""
"html-keyboard-response","179","322535","0.0-15.0-0.68","1998","2","""event"",""trial"",""time""
""fullscreenenter"",""1"",""1763""
","
","
","""event"",""trial"",""time""
""fullscreenenter"",""1"",""1763""
","
","","","","","","null","<div style=""font-size:60px;"">+</div>","null","","fixation","","","","","","","","",""
"memory-trial","180","323729","0.0-15.0-1.68","1998","2","""event"",""trial"",""time""
""fullscreenenter"",""1"",""1763""
","
","
","""event"",""trial"",""time""
""fullscreenenter"",""1"",""1763""
","
","","","","","","192.80000001192093","images/chair2.png","","","memory_trial","3","maybe_new","","","","","","",""
"html-keyboard-response","181","324231","0.0-15.0-0.69","1998","2","""event"",""trial"",""time""
""fullscreenenter"",""1"",""1763""
","
","
","""event"",""trial"",""time""
""fullscreenenter"",""1"",""1763""
","
","","","","","","null","<div style=""font-size:60px;"">+</div>","null","","fixation","","","","","","","","",""
"memory-trial","182","325450","0.0-15.0-1.69","1998","2","""event"",""trial"",""time""
""fullscreenenter"",""1"",""1763""
","
","
","""event"",""trial"",""time""
""fullscreenenter"",""1"",""1763""
","
","","","","","","215.89999997615814","images/cow2.png","","","memory_trial","3","maybe_new","","","","","","",""
"html-keyboard-response","183","325951","0.0-15.0-0.70","1998","2","""event"",""trial"",""time""
""fullscreenenter"",""1"",""1763""
","
","
","""event"",""trial"",""time""
""fullscreenenter"",""1"",""1763""
","
","","","","","","null","<div style=""font-size:60px;"">+</div>","null","","fixation","","","","","","","","",""
"memory-trial","184","327064","0.0-15.0-1.70","1998","2","""event"",""trial"",""time""
""fullscreenenter"",""1"",""1763""
","
","
","""event"",""trial"",""time""
""fullscreenenter"",""1"",""1763""
","
","","","","","","108.69999998807907","images/train1.png","","","memory_trial","2","maybe_old","","","","","","",""
"html-keyboard-response","185","327564","0.0-15.0-0.71","1998","2","""event"",""trial"",""time""
""fullscreenenter"",""1"",""1763""
","
","
","""event"",""trial"",""time""
""fullscreenenter"",""1"",""1763""
","
","","","","","","null","<div style=""font-size:60px;"">+</div>","null","","fixation","","","","","","","","",""
"memory-trial","186","328793","0.0-15.0-1.71","1998","2","""event"",""trial"",""time""
""fullscreenenter"",""1"",""1763""
","
","
","""event"",""trial"",""time""
""fullscreenenter"",""1"",""1763""
","
","","","","","","225.60000002384186","images/goat5.png","","","memory_trial","3","maybe_new","","","","","","",""
"html-keyboard-response","187","329296","0.0-15.0-0.72","1998","2","""event"",""trial"",""time""
""fullscreenenter"",""1"",""1763""
","
","
","""event"",""trial"",""time""
""fullscreenenter"",""1"",""1763""
","
","","","","","","null","<div style=""font-size:60px;"">+</div>","null","","fixation","","","","","","","","",""
"memory-trial","188","330962","0.0-15.0-1.72","1998","2","""event"",""trial"",""time""
""fullscreenenter"",""1"",""1763""
","
","
","""event"",""trial"",""time""
""fullscreenenter"",""1"",""1763""
","
","","","","","","653.7999999523163","images/straw4.png","","","memory_trial","1","definitely_old","","","","","","",""
"html-keyboard-response","189","331471","0.0-15.0-0.73","1998","2","""event"",""trial"",""time""
""fullscreenenter"",""1"",""1763""
","
","
","""event"",""trial"",""time""
""fullscreenenter"",""1"",""1763""
","
","","","","","","null","<div style=""font-size:60px;"">+</div>","null","","fixation","","","","","","","","",""
"memory-trial","190","332738","0.0-15.0-1.73","1998","2","""event"",""trial"",""time""
""fullscreenenter"",""1"",""1763""
","
","
","""event"",""trial"",""time""
""fullscreenenter"",""1"",""1763""
","
","","","","","","261.60000002384186","images/sofa2.png","","","memory_trial","4","definitely_new","","","","","","",""
"html-keyboard-response","191","333239","0.0-15.0-0.74","1998","2","""event"",""trial"",""time""
""fullscreenenter"",""1"",""1763""
","
","
","""event"",""trial"",""time""
""fullscreenenter"",""1"",""1763""
","
","","","","","","null","<div style=""font-size:60px;"">+</div>","null","","fixation","","","","","","","","",""
"memory-trial","192","335661","0.0-15.0-1.74","1998","2","""event"",""trial"",""time""
""fullscreenenter"",""1"",""1763""
","
","
","""event"",""trial"",""time""
""fullscreenenter"",""1"",""1763""
","
","","","","","","1419.6000000238419","images/feline5.png","","","memory_trial","2","maybe_old","","","","","","",""
"html-keyboard-response","193","336162","0.0-15.0-0.75","1998","2","""event"",""trial"",""time""
""fullscreenenter"",""1"",""1763""
","
","
","""event"",""trial"",""time""
""fullscreenenter"",""1"",""1763""
","
","","","","","","null","<div style=""font-size:60px;"">+</div>","null","","fixation","","","","","","","","",""
"memory-trial","194","337576","0.0-15.0-1.75","1998","2","""event"",""trial"",""time""
""fullscreenenter"",""1"",""1763""
","
","
","""event"",""trial"",""time""
""fullscreenenter"",""1"",""1763""
","
","","","","","","396.5999999642372","images/plane1.png","","","memory_trial","2","maybe_old","","","","","","",""
"html-keyboard-response","195","338077","0.0-15.0-0.76","1998","2","""event"",""trial"",""time""
""fullscreenenter"",""1"",""1763""
","
","
","""event"",""trial"",""time""
""fullscreenenter"",""1"",""1763""
","
","","","","","","null","<div style=""font-size:60px;"">+</div>","null","","fixation","","","","","","","","",""
"memory-trial","196","339351","0.0-15.0-1.76","1998","2","""event"",""trial"",""time""
""fullscreenenter"",""1"",""1763""
","
","
","""event"",""trial"",""time""
""fullscreenenter"",""1"",""1763""
","
","","","","","","271","images/straw5.png","","","memory_trial","2","maybe_old","","","","","","",""
"html-keyboard-response","197","339852","0.0-15.0-0.77","1998","2","""event"",""trial"",""time""
""fullscreenenter"",""1"",""1763""
","
","
","""event"",""trial"",""time""
""fullscreenenter"",""1"",""1763""
","
","","","","","","null","<div style=""font-size:60px;"">+</div>","null","","fixation","","","","","","","","",""
"memory-trial","198","340994","0.0-15.0-1.77","1998","2","""event"",""trial"",""time""
""fullscreenenter"",""1"",""1763""
","
","
","""event"",""trial"",""time""
""fullscreenenter"",""1"",""1763""
","
","","","","","","139.4000000357628","images/rabbit2.png","","","memory_trial","3","maybe_new","","","","","","",""
"html-keyboard-response","199","341495","0.0-15.0-0.78","1998","2","""event"",""trial"",""time""
""fullscreenenter"",""1"",""1763""
","
","
","""event"",""trial"",""time""
""fullscreenenter"",""1"",""1763""
","
","","","","","","null","<div style=""font-size:60px;"">+</div>","null","","fixation","","","","","","","","",""
"memory-trial","200","342776","0.0-15.0-1.78","1998","2","""event"",""trial"",""time""
""fullscreenenter"",""1"",""1763""
","
","
","""event"",""trial"",""time""
""fullscreenenter"",""1"",""1763""
","
","","","","","","278.80000001192093","images/table4.png","","","memory_trial","3","maybe_new","","","","","","",""
"html-keyboard-response","201","343278","0.0-15.0-0.79","1998","2","""event"",""trial"",""time""
""fullscreenenter"",""1"",""1763""
","
","
","""event"",""trial"",""time""
""fullscreenenter"",""1"",""1763""
","
","","","","","","null","<div style=""font-size:60px;"">+</div>","null","","fixation","","","","","","","","",""
"memory-trial","202","344711","0.0-15.0-1.79","1998","2","""event"",""trial"",""time""
""fullscreenenter"",""1"",""1763""
","
","
","""event"",""trial"",""time""
""fullscreenenter"",""1"",""1763""
","
","","","","","","430.9000000357628","images/straw2.png","","","memory_trial","3","maybe_new","","","","","","",""
"html-keyboard-response","203","345213","0.0-15.0-0.80","1998","2","""event"",""trial"",""time""
""fullscreenenter"",""1"",""1763""
","
","
","""event"",""trial"",""time""
""fullscreenenter"",""1"",""1763""
","
","","","","","","null","<div style=""font-size:60px;"">+</div>","null","","fixation","","","","","","","","",""
"memory-trial","204","346473","0.0-15.0-1.80","1998","2","""event"",""trial"",""time""
""fullscreenenter"",""1"",""1763""
","
","
","""event"",""trial"",""time""
""fullscreenenter"",""1"",""1763""
","
","","","","","","256.0999999642372","images/horse4.png","","","memory_trial","2","maybe_old","","","","","","",""
"html-keyboard-response","205","346974","0.0-15.0-0.81","1998","2","""event"",""trial"",""time""
""fullscreenenter"",""1"",""1763""
","
","
","""event"",""trial"",""time""
""fullscreenenter"",""1"",""1763""
","
","","","","","","null","<div style=""font-size:60px;"">+</div>","null","","fixation","","","","","","","","",""
"memory-trial","206","348404","0.0-15.0-1.81","1998","2","""event"",""trial"",""time""
""fullscreenenter"",""1"",""1763""
","
","
","""event"",""trial"",""time""
""fullscreenenter"",""1"",""1763""
","
","","","","","","426.89999997615814","images/apple4.png","","","memory_trial","4","definitely_new","","","","","","",""
"html-keyboard-response","207","348912","0.0-15.0-0.82","1998","2","""event"",""trial"",""time""
""fullscreenenter"",""1"",""1763""
","
","
","""event"",""trial"",""time""
""fullscreenenter"",""1"",""1763""
","
","","","","","","null","<div style=""font-size:60px;"">+</div>","null","","fixation","","","","","","","","",""
"memory-trial","208","349980","0.0-15.0-1.82","1998","2","""event"",""trial"",""time""
""fullscreenenter"",""1"",""1763""
","
","
","""event"",""trial"",""time""
""fullscreenenter"",""1"",""1763""
","
","","","","","","64.60000002384186","images/sheep5.png","","","memory_trial","3","maybe_new","","","","","","",""
"html-keyboard-response","209","350481","0.0-15.0-0.83","1998","2","""event"",""trial"",""time""
""fullscreenenter"",""1"",""1763""
","
","
","""event"",""trial"",""time""
""fullscreenenter"",""1"",""1763""
","
","","","","","","null","<div style=""font-size:60px;"">+</div>","null","","fixation","","","","","","","","",""
"memory-trial","210","351845","0.0-15.0-1.83","1998","2","""event"",""trial"",""time""
""fullscreenenter"",""1"",""1763""
","
","
","""event"",""trial"",""time""
""fullscreenenter"",""1"",""1763""
","
","","","","","","358.80000001192093","images/feline4.png","","","memory_trial","3","maybe_new","","","","","","",""
"html-keyboard-response","211","352347","0.0-15.0-0.84","1998","2","""event"",""trial"",""time""
""fullscreenenter"",""1"",""1763""
","
","
","""event"",""trial"",""time""
""fullscreenenter"",""1"",""1763""
","
","","","","","","null","<div style=""font-size:60px;"">+</div>","null","","fixation","","","","","","","","",""
"memory-trial","212","353629","0.0-15.0-1.84","1998","2","""event"",""trial"",""time""
""fullscreenenter"",""1"",""1763""
","
","
","""event"",""trial"",""time""
""fullscreenenter"",""1"",""1763""
","
","","","","","","279.39999997615814","images/sofa3.png","","","memory_trial","2","maybe_old","","","","","","",""
"html-keyboard-response","213","354130","0.0-15.0-0.85","1998","2","""event"",""trial"",""time""
""fullscreenenter"",""1"",""1763""
","
","
","""event"",""trial"",""time""
""fullscreenenter"",""1"",""1763""
","
","","","","","","null","<div style=""font-size:60px;"">+</div>","null","","fixation","","","","","","","","",""
"memory-trial","214","355449","0.0-15.0-1.85","1998","2","""event"",""trial"",""time""
""fullscreenenter"",""1"",""1763""
","
","
","""event"",""trial"",""time""
""fullscreenenter"",""1"",""1763""
","
","","","","","","316.5","images/bed4.png","","","memory_trial","3","maybe_new","","","","","","",""
"html-keyboard-response","215","355950","0.0-15.0-0.86","1998","2","""event"",""trial"",""time""
""fullscreenenter"",""1"",""1763""
","
","
","""event"",""trial"",""time""
""fullscreenenter"",""1"",""1763""
","
","","","","","","null","<div style=""font-size:60px;"">+</div>","null","","fixation","","","","","","","","",""
"memory-trial","216","357176","0.0-15.0-1.86","1998","2","""event"",""trial"",""time""
""fullscreenenter"",""1"",""1763""
","
","
","""event"",""trial"",""time""
""fullscreenenter"",""1"",""1763""
","
","","","","","","222.39999997615814","images/bush4.png","","","memory_trial","2","maybe_old","","","","","","",""
"html-keyboard-response","217","357678","0.0-15.0-0.87","1998","2","""event"",""trial"",""time""
""fullscreenenter"",""1"",""1763""
","
","
","""event"",""trial"",""time""
""fullscreenenter"",""1"",""1763""
","
","","","","","","null","<div style=""font-size:60px;"">+</div>","null","","fixation","","","","","","","","",""
"memory-trial","218","360098","0.0-15.0-1.87","1998","2","""event"",""trial"",""time""
""fullscreenenter"",""1"",""1763""
","
","
","""event"",""trial"",""time""
""fullscreenenter"",""1"",""1763""
","
","","","","","","1417.6000000238419","images/banana4.png","","","memory_trial","4","definitely_new","","","","","","",""
"html-keyboard-response","219","360600","0.0-15.0-0.88","1998","2","""event"",""trial"",""time""
""fullscreenenter"",""1"",""1763""
","
","
","""event"",""trial"",""time""
""fullscreenenter"",""1"",""1763""
","
","","","","","","null","<div style=""font-size:60px;"">+</div>","null","","fixation","","","","","","","","",""
"memory-trial","220","361853","0.0-15.0-1.88","1998","2","""event"",""trial"",""time""
""fullscreenenter"",""1"",""1763""
","
","
","""event"",""trial"",""time""
""fullscreenenter"",""1"",""1763""
","
","","","","","","250.5","images/bush2.png","","","memory_trial","3","maybe_new","","","","","","",""
"html-keyboard-response","221","362356","0.0-15.0-0.89","1998","2","""event"",""trial"",""time""
""fullscreenenter"",""1"",""1763""
","
","
","""event"",""trial"",""time""
""fullscreenenter"",""1"",""1763""
","
","","","","","","null","<div style=""font-size:60px;"">+</div>","null","","fixation","","","","","","","","",""
"memory-trial","222","363885","0.0-15.0-1.89","1998","2","""event"",""trial"",""time""
""fullscreenenter"",""1"",""1763""
","
","
","""event"",""trial"",""time""
""fullscreenenter"",""1"",""1763""
","
","","","","","","526.5","images/boat3.png","","","memory_trial","3","maybe_new","","","","","","",""
"html-keyboard-response","223","364386","0.0-15.0-0.90","1998","2","""event"",""trial"",""time""
""fullscreenenter"",""1"",""1763""
","
","
","""event"",""trial"",""time""
""fullscreenenter"",""1"",""1763""
","
","","","","","","null","<div style=""font-size:60px;"">+</div>","null","","fixation","","","","","","","","",""
"memory-trial","224","365730","0.0-15.0-1.90","1998","2","""event"",""trial"",""time""
""fullscreenenter"",""1"",""1763""
","
","
","""event"",""trial"",""time""
""fullscreenenter"",""1"",""1763""
","
","","","","","","340.80000001192093","images/rodent1.png","","","memory_trial","3","maybe_new","","","","","","",""
"html-keyboard-response","225","366232","0.0-15.0-0.91","1998","2","""event"",""trial"",""time""
""fullscreenenter"",""1"",""1763""
","
","
","""event"",""trial"",""time""
""fullscreenenter"",""1"",""1763""
","
","","","","","","null","<div style=""font-size:60px;"">+</div>","null","","fixation","","","","","","","","",""
"memory-trial","226","367401","0.0-15.0-1.91","1998","2","""event"",""trial"",""time""
""fullscreenenter"",""1"",""1763""
","
","
","""event"",""trial"",""time""
""fullscreenenter"",""1"",""1763""
","
","","","","","","167.60000002384186","images/rabbit5.png","","","memory_trial","2","maybe_old","","","","","","",""
"html-keyboard-response","227","367902","0.0-15.0-0.92","1998","2","""event"",""trial"",""time""
""fullscreenenter"",""1"",""1763""
","
","
","""event"",""trial"",""time""
""fullscreenenter"",""1"",""1763""
","
","","","","","","null","<div style=""font-size:60px;"">+</div>","null","","fixation","","","","","","","","",""
"memory-trial","228","369255","0.0-15.0-1.92","1998","2","""event"",""trial"",""time""
""fullscreenenter"",""1"",""1763""
","
","
","""event"",""trial"",""time""
""fullscreenenter"",""1"",""1763""
","
","","","","","","350.5999999642372","images/table3.png","","","memory_trial","3","maybe_new","","","","","","",""
"html-keyboard-response","229","369757","0.0-15.0-0.93","1998","2","""event"",""trial"",""time""
""fullscreenenter"",""1"",""1763""
","
","
","""event"",""trial"",""time""
""fullscreenenter"",""1"",""1763""
","
","","","","","","null","<div style=""font-size:60px;"">+</div>","null","","fixation","","","","","","","","",""
"memory-trial","230","370985","0.0-15.0-1.93","1998","2","""event"",""trial"",""time""
""fullscreenenter"",""1"",""1763""
","
","
","""event"",""trial"",""time""
""fullscreenenter"",""1"",""1763""
","
","","","","","","225.69999998807907","images/banana3.png","","","memory_trial","2","maybe_old","","","","","","",""
"html-keyboard-response","231","371487","0.0-15.0-0.94","1998","2","""event"",""trial"",""time""
""fullscreenenter"",""1"",""1763""
","
","
","""event"",""trial"",""time""
""fullscreenenter"",""1"",""1763""
","
","","","","","","null","<div style=""font-size:60px;"">+</div>","null","","fixation","","","","","","","","",""
"memory-trial","232","372641","0.0-15.0-1.94","1998","2","""event"",""trial"",""time""
""fullscreenenter"",""1"",""1763""
","
","
","""event"",""trial"",""time""
""fullscreenenter"",""1"",""1763""
","
","","","","","","151.4000000357628","images/straw1.png","","","memory_trial","3","maybe_new","","","","","","",""
"html-keyboard-response","233","373143","0.0-15.0-0.95","1998","2","""event"",""trial"",""time""
""fullscreenenter"",""1"",""1763""
","
","
","""event"",""trial"",""time""
""fullscreenenter"",""1"",""1763""
","
","","","","","","null","<div style=""font-size:60px;"">+</div>","null","","fixation","","","","","","","","",""
"memory-trial","234","374353","0.0-15.0-1.95","1998","2","""event"",""trial"",""time""
""fullscreenenter"",""1"",""1763""
","
","
","""event"",""trial"",""time""
""fullscreenenter"",""1"",""1763""
","
","","","","","","208.20000004768372","images/feline3.png","","","memory_trial","2","maybe_old","","","","","","",""
"html-keyboard-response","235","374856","0.0-15.0-0.96","1998","2","""event"",""trial"",""time""
""fullscreenenter"",""1"",""1763""
","
","
","""event"",""trial"",""time""
""fullscreenenter"",""1"",""1763""
","
","","","","","","null","<div style=""font-size:60px;"">+</div>","null","","fixation","","","","","","","","",""
"memory-trial","236","376175","0.0-15.0-1.96","1998","2","""event"",""trial"",""time""
""fullscreenenter"",""1"",""1763""
","
","
","""event"",""trial"",""time""
""fullscreenenter"",""1"",""1763""
","
","","","","","","316.30000001192093","images/tree2.png","","","memory_trial","3","maybe_new","","","","","","",""
"html-keyboard-response","237","376676","0.0-15.0-0.97","1998","2","""event"",""trial"",""time""
""fullscreenenter"",""1"",""1763""
","
","
","""event"",""trial"",""time""
""fullscreenenter"",""1"",""1763""
","
","","","","","","null","<div style=""font-size:60px;"">+</div>","null","","fixation","","","","","","","","",""
"memory-trial","238","378755","0.0-15.0-1.97","1998","2","""event"",""trial"",""time""
""fullscreenenter"",""1"",""1763""
","
","
","""event"",""trial"",""time""
""fullscreenenter"",""1"",""1763""
","
","","","","","","1076.5999999642372","images/chair5.png","","","memory_trial","3","maybe_new","","","","","","",""
"html-keyboard-response","239","379258","0.0-15.0-0.98","1998","2","""event"",""trial"",""time""
""fullscreenenter"",""1"",""1763""
","
","
","""event"",""trial"",""time""
""fullscreenenter"",""1"",""1763""
","
","","","","","","null","<div style=""font-size:60px;"">+</div>","null","","fixation","","","","","","","","",""
"memory-trial","240","380698","0.0-15.0-1.98","1998","2","""event"",""trial"",""time""
""fullscreenenter"",""1"",""1763""
","
","
","""event"",""trial"",""time""
""fullscreenenter"",""1"",""1763""
","
","","","","","","437.30000001192093","images/chair3.png","","","memory_trial","3","maybe_new","","","","","","",""
"html-keyboard-response","241","381199","0.0-15.0-0.99","1998","2","""event"",""trial"",""time""
""fullscreenenter"",""1"",""1763""
","
","
","""event"",""trial"",""time""
""fullscreenenter"",""1"",""1763""
","
","","","","","","null","<div style=""font-size:60px;"">+</div>","null","","fixation","","","","","","","","",""
"memory-trial","242","382445","0.0-15.0-1.99","1998","2","""event"",""trial"",""time""
""fullscreenenter"",""1"",""1763""
","
","
","""event"",""trial"",""time""
""fullscreenenter"",""1"",""1763""
","
","","","","","","243.80000001192093","images/apple5.png","","","memory_trial","2","maybe_old","","","","","","",""
"html-keyboard-response","243","382947","0.0-15.0-0.100","1998","2","""event"",""trial"",""time""
""fullscreenenter"",""1"",""1763""
","
","
","""event"",""trial"",""time""
""fullscreenenter"",""1"",""1763""
","
","","","","","","null","<div style=""font-size:60px;"">+</div>","null","","fixation","","","","","","","","",""
"memory-trial","244","384110","0.0-15.0-1.100","1998","2","""event"",""trial"",""time""
""fullscreenenter"",""1"",""1763""
","
","
","""event"",""trial"",""time""
""fullscreenenter"",""1"",""1763""
","
","","","","","","160.30000001192093","images/truck3.png","","","memory_trial","3","maybe_new","","","","","","",""
"html-keyboard-response","245","384612","0.0-15.0-0.101","1998","2","""event"",""trial"",""time""
""fullscreenenter"",""1"",""1763""
","
","
","""event"",""trial"",""time""
""fullscreenenter"",""1"",""1763""
","
","","","","","","null","<div style=""font-size:60px;"">+</div>","null","","fixation","","","","","","","","",""
"memory-trial","246","385766","0.0-15.0-1.101","1998","2","""event"",""trial"",""time""
""fullscreenenter"",""1"",""1763""
","
","
","""event"",""trial"",""time""
""fullscreenenter"",""1"",""1763""
","
","","","","","","151.20000004768372","images/flower3.png","","","memory_trial","3","maybe_new","","","","","","",""
"html-button-response","247","387136","0.0-15.0-2.101-0.101","1998","2","""event"",""trial"",""time""
""fullscreenenter"",""1"",""1763""
","
","
","""event"",""trial"",""time""
""fullscreenenter"",""1"",""1763""
","
","","","","","","1368.3999999761581","<p> Take a break! </p><p> Click the button to continue. </p>","0","","break","","","","","","","","",""
"html-keyboard-response","248","387638","0.0-15.0-0.102","1998","2","""event"",""trial"",""time""
""fullscreenenter"",""1"",""1763""
","
","
","""event"",""trial"",""time""
""fullscreenenter"",""1"",""1763""
","
","","","","","","null","<div style=""font-size:60px;"">+</div>","null","","fixation","","","","","","","","",""
"memory-trial","249","389081","0.0-15.0-1.102","1998","2","""event"",""trial"",""time""
""fullscreenenter"",""1"",""1763""
","
","
","""event"",""trial"",""time""
""fullscreenenter"",""1"",""1763""
","
","","","","","","440.39999997615814","images/train5.png","","","memory_trial","2","maybe_old","","","","","","",""
"html-keyboard-response","250","389582","0.0-15.0-0.103","1998","2","""event"",""trial"",""time""
""fullscreenenter"",""1"",""1763""
","
","
","""event"",""trial"",""time""
""fullscreenenter"",""1"",""1763""
","
","","","","","","null","<div style=""font-size:60px;"">+</div>","null","","fixation","","","","","","","","",""
"memory-trial","251","390846","0.0-15.0-1.103","1998","2","""event"",""trial"",""time""
""fullscreenenter"",""1"",""1763""
","
","
","""event"",""trial"",""time""
""fullscreenenter"",""1"",""1763""
","
","","","","","","260.69999998807907","images/orange2.png","","","memory_trial","3","maybe_new","","","","","","",""
"html-keyboard-response","252","391348","0.0-15.0-0.104","1998","2","""event"",""trial"",""time""
""fullscreenenter"",""1"",""1763""
","
","
","""event"",""trial"",""time""
""fullscreenenter"",""1"",""1763""
","
","","","","","","null","<div style=""font-size:60px;"">+</div>","null","","fixation","","","","","","","","",""
"memory-trial","253","392544","0.0-15.0-1.104","1998","2","""event"",""trial"",""time""
""fullscreenenter"",""1"",""1763""
","
","
","""event"",""trial"",""time""
""fullscreenenter"",""1"",""1763""
","
","","","","","","193","images/bush3.png","","","memory_trial","3","maybe_new","","","","","","",""
"html-keyboard-response","254","393046","0.0-15.0-0.105","1998","2","""event"",""trial"",""time""
""fullscreenenter"",""1"",""1763""
","
","
","""event"",""trial"",""time""
""fullscreenenter"",""1"",""1763""
","
","","","","","","null","<div style=""font-size:60px;"">+</div>","null","","fixation","","","","","","","","",""
"memory-trial","255","394311","0.0-15.0-1.105","1998","2","""event"",""trial"",""time""
""fullscreenenter"",""1"",""1763""
","
","
","""event"",""trial"",""time""
""fullscreenenter"",""1"",""1763""
","
","","","","","","262.7000000476837","images/rodent3.png","","","memory_trial","3","maybe_new","","","","","","",""
"html-keyboard-response","256","394812","0.0-15.0-0.106","1998","2","""event"",""trial"",""time""
""fullscreenenter"",""1"",""1763""
","
","
","""event"",""trial"",""time""
""fullscreenenter"",""1"",""1763""
","
","","","","","","null","<div style=""font-size:60px;"">+</div>","null","","fixation","","","","","","","","",""
"memory-trial","257","396075","0.0-15.0-1.106","1998","2","""event"",""trial"",""time""
""fullscreenenter"",""1"",""1763""
","
","
","""event"",""trial"",""time""
""fullscreenenter"",""1"",""1763""
","
","","","","","","261.4000000357628","images/banana1.png","","","memory_trial","2","maybe_old","","","","","","",""
"html-keyboard-response","258","396577","0.0-15.0-0.107","1998","2","""event"",""trial"",""time""
""fullscreenenter"",""1"",""1763""
","
","
","""event"",""trial"",""time""
""fullscreenenter"",""1"",""1763""
","
","","","","","","null","<div style=""font-size:60px;"">+</div>","null","","fixation","","","","","","","","",""
"memory-trial","259","397873","0.0-15.0-1.107","1998","2","""event"",""trial"",""time""
""fullscreenenter"",""1"",""1763""
","
","
","""event"",""trial"",""time""
""fullscreenenter"",""1"",""1763""
","
","","","","","","293.5999999642372","images/train4.png","","","memory_trial","4","definitely_new","","","","","","",""
"html-keyboard-response","260","398375","0.0-15.0-0.108","1998","2","""event"",""trial"",""time""
""fullscreenenter"",""1"",""1763""
","
","
","""event"",""trial"",""time""
""fullscreenenter"",""1"",""1763""
","
","","","","","","null","<div style=""font-size:60px;"">+</div>","null","","fixation","","","","","","","","",""
"memory-trial","261","399774","0.0-15.0-1.108","1998","2","""event"",""trial"",""time""
""fullscreenenter"",""1"",""1763""
","
","
","""event"",""trial"",""time""
""fullscreenenter"",""1"",""1763""
","
","","","","","","395","images/flower5.png","","","memory_trial","3","maybe_new","","","","","","",""
"html-keyboard-response","262","400276","0.0-15.0-0.109","1998","2","""event"",""trial"",""time""
""fullscreenenter"",""1"",""1763""
","
","
","""event"",""trial"",""time""
""fullscreenenter"",""1"",""1763""
","
","","","","","","null","<div style=""font-size:60px;"">+</div>","null","","fixation","","","","","","","","",""
"memory-trial","263","401563","0.0-15.0-1.109","1998","2","""event"",""trial"",""time""
""fullscreenenter"",""1"",""1763""
","
","
","""event"",""trial"",""time""
""fullscreenenter"",""1"",""1763""
","
","","","","","","286","images/truck2.png","","","memory_trial","2","maybe_old","","","","","","",""
"html-keyboard-response","264","402066","0.0-15.0-0.110","1998","2","""event"",""trial"",""time""
""fullscreenenter"",""1"",""1763""
","
","
","""event"",""trial"",""time""
""fullscreenenter"",""1"",""1763""
","
","","","","","","null","<div style=""font-size:60px;"">+</div>","null","","fixation","","","","","","","","",""
"memory-trial","265","403389","0.0-15.0-1.110","1998","2","""event"",""trial"",""time""
""fullscreenenter"",""1"",""1763""
","
","
","""event"",""trial"",""time""
""fullscreenenter"",""1"",""1763""
","
","","","","","","321.2000000476837","images/orange3.png","","","memory_trial","3","maybe_new","","","","","","",""
"html-keyboard-response","266","403891","0.0-15.0-0.111","1998","2","""event"",""trial"",""time""
""fullscreenenter"",""1"",""1763""
","
","
","""event"",""trial"",""time""
""fullscreenenter"",""1"",""1763""
","
","","","","","","null","<div style=""font-size:60px;"">+</div>","null","","fixation","","","","","","","","",""
"memory-trial","267","405334","0.0-15.0-1.111","1998","2","""event"",""trial"",""time""
""fullscreenenter"",""1"",""1763""
","
","
","""event"",""trial"",""time""
""fullscreenenter"",""1"",""1763""
","
","","","","","","439.69999998807907","images/cactus4.png","","","memory_trial","3","maybe_new","","","","","","",""
"html-keyboard-response","268","405835","0.0-15.0-0.112","1998","2","""event"",""trial"",""time""
""fullscreenenter"",""1"",""1763""
","
","
","""event"",""trial"",""time""
""fullscreenenter"",""1"",""1763""
","
","","","","","","null","<div style=""font-size:60px;"">+</div>","null","","fixation","","","","","","","","",""
"memory-trial","269","407976","0.0-15.0-1.112","1998","2","""event"",""trial"",""time""
""fullscreenenter"",""1"",""1763""
","
","
","""event"",""trial"",""time""
""fullscreenenter"",""1"",""1763""
","
","","","","","","1138.199999988079","images/dog4.png","","","memory_trial","4","definitely_new","","","","","","",""
"html-keyboard-response","270","408478","0.0-15.0-0.113","1998","2","""event"",""trial"",""time""
""fullscreenenter"",""1"",""1763""
","
","
","""event"",""trial"",""time""
""fullscreenenter"",""1"",""1763""
","
","","","","","","null","<div style=""font-size:60px;"">+</div>","null","","fixation","","","","","","","","",""
"memory-trial","271","410698","0.0-15.0-1.113","1998","2","""event"",""trial"",""time""
""fullscreenenter"",""1"",""1763""
","
","
","""event"",""trial"",""time""
""fullscreenenter"",""1"",""1763""
","
","","","","","","1207","images/bed2.png","","","memory_trial","4","definitely_new","","","","","","",""
"html-keyboard-response","272","411199","0.0-15.0-0.114","1998","2","""event"",""trial"",""time""
""fullscreenenter"",""1"",""1763""
","
","
","""event"",""trial"",""time""
""fullscreenenter"",""1"",""1763""
","
","","","","","","null","<div style=""font-size:60px;"">+</div>","null","","fixation","","","","","","","","",""
"memory-trial","273","412731","0.0-15.0-1.114","1998","2","""event"",""trial"",""time""
""fullscreenenter"",""1"",""1763""
","
","
","""event"",""trial"",""time""
""fullscreenenter"",""1"",""1763""
","
","","","","","","530.8000000119209","images/bush1.png","","","memory_trial","3","maybe_new","","","","","","",""
"html-keyboard-response","274","413233","0.0-15.0-0.115","1998","2","""event"",""trial"",""time""
""fullscreenenter"",""1"",""1763""
","
","
","""event"",""trial"",""time""
""fullscreenenter"",""1"",""1763""
","
","","","","","","null","<div style=""font-size:60px;"">+</div>","null","","fixation","","","","","","","","",""
"memory-trial","275","414567","0.0-15.0-1.115","1998","2","""event"",""trial"",""time""
""fullscreenenter"",""1"",""1763""
","
","
","""event"",""trial"",""time""
""fullscreenenter"",""1"",""1763""
","
","","","","","","331.5","images/goat4.png","","","memory_trial","3","maybe_new","","","","","","",""
"html-keyboard-response","276","415068","0.0-15.0-0.116","1998","2","""event"",""trial"",""time""
""fullscreenenter"",""1"",""1763""
","
","
","""event"",""trial"",""time""
""fullscreenenter"",""1"",""1763""
","
","","","","","","null","<div style=""font-size:60px;"">+</div>","null","","fixation","","","","","","","","",""
"memory-trial","277","416337","0.0-15.0-1.116","1998","2","""event"",""trial"",""time""
""fullscreenenter"",""1"",""1763""
","
","
","""event"",""trial"",""time""
""fullscreenenter"",""1"",""1763""
","
","","","","","","265.60000002384186","images/apple1.png","","","memory_trial","2","maybe_old","","","","","","",""
"html-keyboard-response","278","416840","0.0-15.0-0.117","1998","2","""event"",""trial"",""time""
""fullscreenenter"",""1"",""1763""
","
","
","""event"",""trial"",""time""
""fullscreenenter"",""1"",""1763""
","
","","","","","","null","<div style=""font-size:60px;"">+</div>","null","","fixation","","","","","","","","",""
"memory-trial","279","418002","0.0-15.0-1.117","1998","2","""event"",""trial"",""time""
""fullscreenenter"",""1"",""1763""
","
","
","""event"",""trial"",""time""
""fullscreenenter"",""1"",""1763""
","
","","","","","","159.5","images/tree4.png","","","memory_trial","3","maybe_new","","","","","","",""
"html-keyboard-response","280","418504","0.0-15.0-0.118","1998","2","""event"",""trial"",""time""
""fullscreenenter"",""1"",""1763""
","
","
","""event"",""trial"",""time""
""fullscreenenter"",""1"",""1763""
","
","","","","","","null","<div style=""font-size:60px;"">+</div>","null","","fixation","","","","","","","","",""
"memory-trial","281","419863","0.0-15.0-1.118","1998","2","""event"",""trial"",""time""
""fullscreenenter"",""1"",""1763""
","
","
","""event"",""trial"",""time""
""fullscreenenter"",""1"",""1763""
","
","","","","","","356.39999997615814","images/banana2.png","","","memory_trial","3","maybe_new","","","","","","",""
"html-keyboard-response","282","420366","0.0-15.0-0.119","1998","2","""event"",""trial"",""time""
""fullscreenenter"",""1"",""1763""
","
","
","""event"",""trial"",""time""
""fullscreenenter"",""1"",""1763""
","
","","","","","","null","<div style=""font-size:60px;"">+</div>","null","","fixation","","","","","","","","",""
"memory-trial","283","422722","0.0-15.0-1.119","1998","2","""event"",""trial"",""time""
""fullscreenenter"",""1"",""1763""
","
","
","""event"",""trial"",""time""
""fullscreenenter"",""1"",""1763""
","
","","","","","","1354.3999999761581","images/cow5.png","","","memory_trial","4","definitely_new","","","","","","",""
"preload","284","431491","0.0-16.0","1998","2","""event"",""trial"",""time""
""fullscreenenter"",""1"",""1763""
","
","
","""event"",""trial"",""time""
""fullscreenenter"",""1"",""1763""
","
","true","false","[]","[]","[]","","","","","","","","","","","","","",""
"learning-instructions","285","437349","0.0-17.0-0.0-0.0-0.0","1998","2","""event"",""trial"",""time""
""fullscreenenter"",""1"",""1763""
","
","
","""event"",""trial"",""time""
""fullscreenenter"",""1"",""1763""
","
","","","","","","1790.4000000357628","<p> We're now going to ask you to put fuel in your vehicles again. </p>","","0","instructions","","","","","","","","",""
"learning-instructions","286","444244","0.0-17.0-0.0-0.0-0.1","1998","2","""event"",""trial"",""time""
""fullscreenenter"",""1"",""1763""
","
","
","""event"",""trial"",""time""
""fullscreenenter"",""1"",""1763""
","
","","","","","","855.1000000238419","<p> On each trial, you will see a vehicle. Select the fuel that you think will make the vehicle start. </p>","","0","instructions","","","","","","","","",""
"learning-instructions","287","451983","0.0-17.0-0.0-0.0-0.2","1998","2","""event"",""trial"",""time""
""fullscreenenter"",""1"",""1763""
","
","
","""event"",""trial"",""time""
""fullscreenenter"",""1"",""1763""
","
","","","","","","664.4000000357628","<p> To make your selection, think about what you learned last week. You will NOT receive any feedback about your choice. </p>","","0","instructions","","","","","","","","",""
"learning-instructions","288","460003","0.0-17.0-0.0-0.0-0.3","1998","2","""event"",""trial"",""time""
""fullscreenenter"",""1"",""1763""
","
","
","""event"",""trial"",""time""
""fullscreenenter"",""1"",""1763""
","
","","","","","","584.4000000357628","<p> You should use the 1 key to select the fuel on the left, the 2 key to select the fuel in the middle, and the 3 key to select the fuel on the right. </p><br><div class=""choice-mem-instructions-grid""> <div class=""choice-mem-option""><img src=""images/vehicles_choice1.png"" class=""choice-mem-option-img"" stage=""instructions"" position=""0"" ><div class=""choice-mem-option-text""> Press ""1."" </div></div><div class=""choice-mem-option""><img src=""images/vehicles_choice2.png"" class=""choice-mem-option-img"" stage=""instructions"" position=""1"" ><div class=""choice-mem-option-text""> Press ""2."" </div></div><div class=""choice-mem-option""><img src=""images/vehicles_choice3.png"" class=""choice-mem-option-img"" stage=""instructions"" position=""2"" ><div class=""choice-mem-option-text""> Press ""3."" </div></div></div>","","0","instructions","","","","","","","","",""
"learning-instructions","289","466677","0.0-17.0-0.0-0.0-0.4","1998","2","""event"",""trial"",""time""
""fullscreenenter"",""1"",""1763""
","
","
","""event"",""trial"",""time""
""fullscreenenter"",""1"",""1763""
","
","","","","","","389.0999999642372","<p> You will have 10 seconds to make each selection. Try to respond before time runs out! </p>","","0","instructions","","","","","","","","",""
"learning-instructions","290","470752","0.0-17.0-0.0-1.0","1998","2","""event"",""trial"",""time""
""fullscreenenter"",""1"",""1763""
","
","
","""event"",""trial"",""time""
""fullscreenenter"",""1"",""1763""
","
","","","","","","2013.300000011921","<p> You are now ready to begin the game. </p>","","0","instructions","","","","","","","","",""
"html-keyboard-response","291","471370","0.0-17.0-0.0-2.0-0.0","1998","2","""event"",""trial"",""time""
""fullscreenenter"",""1"",""1763""
","
","
","""event"",""trial"",""time""
""fullscreenenter"",""1"",""1763""
","
","","","","","","null","<div style=""font-size:60px;"">+</div>","null","","fixation","","","","","","","","",""
"choice-memory-trial","292","473416","0.0-17.0-0.0-2.0-1.0","1998","2","""event"",""trial"",""time""
""fullscreenenter"",""1"",""1763""
","
","
","""event"",""trial"",""time""
""fullscreenenter"",""1"",""1763""
","
","","","","","","1032.300000011921","images/boat1.png","","","choice_memory_trial","1","","","images/vehicles_choice2.png","images/vehicles_choice1.png","images/vehicles_choice3.png","[1,0,2]","images/vehicles_choice2.png","vehicles"
"html-keyboard-response","293","473927","0.0-17.0-0.0-2.0-0.1","1998","2","""event"",""trial"",""time""
""fullscreenenter"",""1"",""1763""
","
","
