"trial_type","trial_index","time_elapsed","internal_node_id","subject_id","task_version","interactions","blur_events","focus_events","fullscreenenter_events","fullscreenexit_events","success","timeout","failed_images","failed_audio","failed_video","rt","stimulus","response","button_pressed","task_part","key_press","answer","correct","left_choice","middle_choice","right_choice","choice_positions","option_selected","block"
"pavlovia","0","3","0.0-0.0","1902","2","""event"",""trial"",""time""
""fullscreenenter"",""1"",""4039""
","
","
","""event"",""trial"",""time""
""fullscreenenter"",""1"",""4039""
","
","","","","","","","","","","","","","","","","","","",""
"fullscreen","1","5005","0.0-1.0","1902","2","""event"",""trial"",""time""
""fullscreenenter"",""1"",""4039""
","
","
","""event"",""trial"",""time""
""fullscreenenter"",""1"",""4039""
","
","true","","","","","","","","","","","","","","","","","",""
"preload","2","5538","0.0-2.0","1902","2","""event"",""trial"",""time""
""fullscreenenter"",""1"",""4039""
","
","
","""event"",""trial"",""time""
""fullscreenenter"",""1"",""4039""
","
","true","false","[]","[]","[]","","","","","","","","","","","","","",""
"audio-keyboard-response","3","7386","0.0-3.0","1902","2","""event"",""trial"",""time""
""fullscreenenter"",""1"",""4039""
","
","
","""event"",""trial"",""time""
""fullscreenenter"",""1"",""4039""
","
","","","","","","1845.9863945578231","audio/beep_loop.wav"," ","","","","","","","","","","",""
"audio-button-response","4","10816","0.0-4.0","1902","2","""event"",""trial"",""time""
""fullscreenenter"",""1"",""4039""
","
","
","""event"",""trial"",""time""
""fullscreenenter"",""1"",""4039""
","
","","","","","","3425","audio/turtle.wav","3","","","","","","","","","","",""
"audio-button-response","5","12967","0.0-5.0","1902","2","""event"",""trial"",""time""
""fullscreenenter"",""1"",""4039""
","
","
","""event"",""trial"",""time""
""fullscreenenter"",""1"",""4039""
","
","","","","","","1149","audio/shark.wav","2","","","","","","","","","","",""
"preload","6","15129","0.0-6.0","1902","2","""event"",""trial"",""time""
""fullscreenenter"",""1"",""4039""
","
","
","""event"",""trial"",""time""
""fullscreenenter"",""1"",""4039""
","
","true","false","[]","[]","[]","","","","","","","","","","","","","",""
"learning-instructions","7","45628","0.0-7.0-0.0","1902","2","""event"",""trial"",""time""
""fullscreenenter"",""1"",""4039""
","
","
","""event"",""trial"",""time""
""fullscreenenter"",""1"",""4039""
","
","","","","","","25689.5","<p> Welcome back! </p><p> Last week, you had to make choices about lots of different items.  </p>","","0","instructions","","","","","","","","",""
"learning-instructions","8","55496","0.0-7.0-0.1","1902","2","""event"",""trial"",""time""
""fullscreenenter"",""1"",""4039""
","
","
","""event"",""trial"",""time""
""fullscreenenter"",""1"",""4039""
","
","","","","","","5569.699999999953","<p> Today, we are going to ask you to try to remember all the items. </p>","","0","instructions","","","","","","","","",""
"learning-instructions","9","67299","0.0-7.0-0.2","1902","2","""event"",""trial"",""time""
""fullscreenenter"",""1"",""4039""
","
","
","""event"",""trial"",""time""
""fullscreenenter"",""1"",""4039""
","
","","","","","","1670.3000000000466","<p> On every trial, you will see an image. </p><p> The image may be an OLD image you saw during the games last week or it may be a NEW image that was not presented. </p>","","0","instructions","","","","","","","","",""
"learning-instructions","10","77369","0.0-7.0-0.3","1902","2","""event"",""trial"",""time""
""fullscreenenter"",""1"",""4039""
","
","
","""event"",""trial"",""time""
""fullscreenenter"",""1"",""4039""
","
","","","","","","1574.6999999999534","<p> You need to select whether the image is:  </p><p>  'Definitely old', 'Maybe old', 'Maybe new', or 'Definitely new.'  </p><div class=""mem-choice-instructions-grid""><div class=""choice-option"" id=""choice-option-1"" ><img src=""images/definitely_old_1.png"" id=""choice-option-img-1"" class=""choice-option-img"" stage=""1""></div><div class=""choice-option"" id=""choice-option-2"" ><img src=""images/maybe_old_1.png"" id=""choice-option-img-2"" class=""choice-option-img"" stage=""1""></div><div class=""choice-option"" id=""choice-option-3"" ><img src=""images/maybe_new_1.png"" id=""choice-option-img-3"" class=""choice-option-img"" stage=""1""></div><div class=""choice-option"" id=""choice-option-4"" > <img src=""images/definitely_new_1.png"" id=""choice-option-img-4"" class=""choice-option-img"" stage=""1""></div></div>","","0","instructions","","","","","","","","",""
"learning-instructions","11","85438","0.0-7.0-0.4","1902","2","""event"",""trial"",""time""
""fullscreenenter"",""1"",""4039""
","
","
","""event"",""trial"",""time""
""fullscreenenter"",""1"",""4039""
","
","","","","","","1377.4000000001397","<p> You should use the 1, 2, 3, and 4 keys to make your responses.  </p><div class=""mem-choice-instructions-grid""><div class=""choice-option"" id=""choice-option-1"" ><img src=""images/definitely_old.png"" id=""choice-option-img-1"" class=""choice-option-img"" stage=""1""></div><div class=""choice-option"" id=""choice-option-2"" ><img src=""images/maybe_old.png"" id=""choice-option-img-2"" class=""choice-option-img"" stage=""1""></div><div class=""choice-option"" id=""choice-option-3"" ><img src=""images/maybe_new.png"" id=""choice-option-img-3"" class=""choice-option-img"" stage=""1""></div><div class=""choice-option"" id=""choice-option-4"" > <img src=""images/definitely_new.png"" id=""choice-option-img-4"" class=""choice-option-img"" stage=""1""></div></div>","","0","instructions","","","","","","","","",""
"learning-instructions","12","93824","0.0-7.0-0.5","1902","2","""event"",""trial"",""time""
""fullscreenenter"",""1"",""4039""
","
","
","""event"",""trial"",""time""
""fullscreenenter"",""1"",""4039""
","
","","","","","","1625.1999999999534","<p> You will have 10 seconds to make each response.  </p><p>  Make sure to respond before time runs out! </p>","","0","instructions","","","","","","","","",""
"learning-instructions","13","105144","0.0-7.0-0.6","1902","2","""event"",""trial"",""time""
""fullscreenenter"",""1"",""4039""
","
","
","""event"",""trial"",""time""
""fullscreenenter"",""1"",""4039""
","
","","","","","","3737.600000000093","<p> Today, you will see each image ONCE only.  </p><p>  That means none of the images will repeat. </p>","","0","instructions","","","","","","","","",""
"learning-instructions","14","120365","0.0-7.0-0.7","1902","2","""event"",""trial"",""time""
""fullscreenenter"",""1"",""4039""
","
","
","""event"",""trial"",""time""
""fullscreenenter"",""1"",""4039""
","
","","","","","","2559.6999999999534","<p> Before you play the real game, it is time to practice. </p><p>  Just like in the real game, some of the images in the practice will be ones you have seen before. </p><p>  Others will be entirely new. </p>","","0","instructions","","","","","","","","",""
"html-button-response","15","124865","0.0-8.0","1902","2","""event"",""trial"",""time""
""fullscreenenter"",""1"",""4039""
","
","
","""event"",""trial"",""time""
""fullscreenenter"",""1"",""4039""
","
","","","","","","4398","<p> Ready to practice? </p><p> Remember, use the 1, 2, 3, and 4 keys to make your responses. </p>","0","","instructions","","","","","","","","",""
"html-keyboard-response","16","125473","0.0-9.0-0.0","1902","2","""event"",""trial"",""time""
""fullscreenenter"",""1"",""4039""
","
","
","""event"",""trial"",""time""
""fullscreenenter"",""1"",""4039""
","
","","","","","","null","<div style=""font-size:60px;"">+</div>","null","","fixation","","","","","","","","",""
"memory-trial","17","129438","0.0-9.0-1.0","1902","2","""event"",""trial"",""time""
""fullscreenenter"",""1"",""4039""
","
","
","""event"",""trial"",""time""
""fullscreenenter"",""1"",""4039""
","
","","","","","","2957.2000000001863","images/ball4.png","","","practice","3","maybe_new","","","","","","",""
"html-keyboard-response","18","129943","0.0-9.0-0.1","1902","2","""event"",""trial"",""time""
""fullscreenenter"",""1"",""4039""
","
","
","""event"",""trial"",""time""
""fullscreenenter"",""1"",""4039""
","
","","","","","","null","<div style=""font-size:60px;"">+</div>","null","","fixation","","","","","","","","",""
"memory-trial","19","132756","0.0-9.0-1.1","1902","2","""event"",""trial"",""time""
""fullscreenenter"",""1"",""4039""
","
","
","""event"",""trial"",""time""
""fullscreenenter"",""1"",""4039""
","
","","","","","","1808.6000000000931","images/racket3.png","","","practice","1","definitely_old","","","","","","",""
"html-keyboard-response","20","133257","0.0-9.0-0.2","1902","2","""event"",""trial"",""time""
""fullscreenenter"",""1"",""4039""
","
","
","""event"",""trial"",""time""
""fullscreenenter"",""1"",""4039""
","
","","","","","","null","<div style=""font-size:60px;"">+</div>","null","","fixation","","","","","","","","",""
"memory-trial","21","135772","0.0-9.0-1.2","1902","2","""event"",""trial"",""time""
""fullscreenenter"",""1"",""4039""
","
","
","""event"",""trial"",""time""
""fullscreenenter"",""1"",""4039""
","
","","","","","","1509.5","images/ball1.png","","","practice","4","definitely_new","","","","","","",""
"html-keyboard-response","22","136278","0.0-9.0-0.3","1902","2","""event"",""trial"",""time""
""fullscreenenter"",""1"",""4039""
","
","
","""event"",""trial"",""time""
""fullscreenenter"",""1"",""4039""
","
","","","","","","null","<div style=""font-size:60px;"">+</div>","null","","fixation","","","","","","","","",""
"memory-trial","23","139765","0.0-9.0-1.3","1902","2","""event"",""trial"",""time""
""fullscreenenter"",""1"",""4039""
","
","
","""event"",""trial"",""time""
""fullscreenenter"",""1"",""4039""
","
","","","","","","2480.6999999999534","images/ball2.png","","","practice","2","maybe_old","","","","","","",""
"html-keyboard-response","24","140267","0.0-9.0-0.4","1902","2","""event"",""trial"",""time""
""fullscreenenter"",""1"",""4039""
","
","
","""event"",""trial"",""time""
""fullscreenenter"",""1"",""4039""
","
","","","","","","null","<div style=""font-size:60px;"">+</div>","null","","fixation","","","","","","","","",""
"memory-trial","25","142235","0.0-9.0-1.4","1902","2","""event"",""trial"",""time""
""fullscreenenter"",""1"",""4039""
","
","
","""event"",""trial"",""time""
""fullscreenenter"",""1"",""4039""
","
","","","","","","963.3000000000466","images/ball3.png","","","practice","4","definitely_new","","","","","","",""
"html-keyboard-response","26","142740","0.0-9.0-0.5","1902","2","""event"",""trial"",""time""
""fullscreenenter"",""1"",""4039""
","
","
","""event"",""trial"",""time""
""fullscreenenter"",""1"",""4039""
","
","","","","","","null","<div style=""font-size:60px;"">+</div>","null","","fixation","","","","","","","","",""
"memory-trial","27","144450","0.0-9.0-1.5","1902","2","""event"",""trial"",""time""
""fullscreenenter"",""1"",""4039""
","
","
","""event"",""trial"",""time""
""fullscreenenter"",""1"",""4039""
","
","","","","","","707.2000000001863","images/racket1.png","","","practice","2","maybe_old","","","","","","",""
"html-keyboard-response","28","144955","0.0-9.0-0.6","1902","2","""event"",""trial"",""time""
""fullscreenenter"",""1"",""4039""
","
","
","""event"",""trial"",""time""
""fullscreenenter"",""1"",""4039""
","
","","","","","","null","<div style=""font-size:60px;"">+</div>","null","","fixation","","","","","","","","",""
"memory-trial","29","146348","0.0-9.0-1.6","1902","2","""event"",""trial"",""time""
""fullscreenenter"",""1"",""4039""
","
","
","""event"",""trial"",""time""
""fullscreenenter"",""1"",""4039""
","
","","","","","","388.5999999998603","images/racket2.png","","","practice","4","definitely_new","","","","","","",""
"html-keyboard-response","30","146852","0.0-9.0-0.7","1902","2","""event"",""trial"",""time""
""fullscreenenter"",""1"",""4039""
","
","
","""event"",""trial"",""time""
""fullscreenenter"",""1"",""4039""
","
","","","","","","null","<div style=""font-size:60px;"">+</div>","null","","fixation","","","","","","","","",""
"memory-trial","31","148165","0.0-9.0-1.7","1902","2","""event"",""trial"",""time""
""fullscreenenter"",""1"",""4039""
","
","
","""event"",""trial"",""time""
""fullscreenenter"",""1"",""4039""
","
","","","","","","307.39999999990687","images/racket4.png","","","practice","1","definitely_old","","","","","","",""
"learning-instructions","32","159446","0.0-10.0-0.0","1902","2","""event"",""trial"",""time""
""fullscreenenter"",""1"",""4039""
","
","
","""event"",""trial"",""time""
""fullscreenenter"",""1"",""4039""
","
","","","","","","3328.3000000000466","<p> Great! You have completed the practice. </p><p> Before you start, we're going to ask you a few questions about how the game works.  </p>","","0","instructions","","","","","","","","",""
"preload","33","160464","0.0-11.0","1902","2","""event"",""trial"",""time""
""fullscreenenter"",""1"",""4039""
","
","
","""event"",""trial"",""time""
""fullscreenenter"",""1"",""4039""
","
","true","false","[]","[]","[]","","","","","","","","","","","","","",""
"comp-q","34","167766","0.0-12.0-0.0","1902","2","""event"",""trial"",""time""
""fullscreenenter"",""1"",""4039""
","
","
","""event"",""trial"",""time""
""fullscreenenter"",""1"",""4039""
","
","","","","","","1471.3000000000466","<p> <b> True or False? </b> </p><p> In this game, you will only see each image once. </p>","","0","comp_question","","","true","","","","","",""
"comp-q","35","175917","0.0-12.0-1.0","1902","2","""event"",""trial"",""time""
""fullscreenenter"",""1"",""4039""
","
","
","""event"",""trial"",""time""
""fullscreenenter"",""1"",""4039""
","
","","","","","","1815.0999999998603","<p> <b> That's right! </b> You will see many different images <i> one time each </i> in this game. </p>","","0","comp_answer","","","","","","","","",""
"comp-q","36","184303","0.0-12.0-0.1","1902","2","""event"",""trial"",""time""
""fullscreenenter"",""1"",""4039""
","
","
","""event"",""trial"",""time""
""fullscreenenter"",""1"",""4039""
","
","","","","","","2590","<p> <b> True or False? </b> </p><p> You should use the mouse and click to make your response. </p>","","1","comp_question","","","true","","","","","",""
"comp-q","37","193288","0.0-12.0-1.1","1902","2","""event"",""trial"",""time""
""fullscreenenter"",""1"",""4039""
","
","
","""event"",""trial"",""time""
""fullscreenenter"",""1"",""4039""
","
","","","","","","1637.6000000000931","<p><b> That's right! </b> You should use the '1', '2', '3', and '4' keys to make your response. </p>","","0","comp_answer","","","","","","","","",""
"comp-q","38","200825","0.0-12.0-0.2","1902","2","""event"",""trial"",""time""
""fullscreenenter"",""1"",""4039""
","
","
","""event"",""trial"",""time""
""fullscreenenter"",""1"",""4039""
","
","","","","","","1540.4000000001397","<p> <b> True or False? </b> </p><p> You will have as much time as you want to make each choice. </p>","","1","comp_question","","","true","","","","","",""
"comp-q","39","216228","0.0-12.0-1.2","1902","2","""event"",""trial"",""time""
""fullscreenenter"",""1"",""4039""
","
","
","""event"",""trial"",""time""
""fullscreenenter"",""1"",""4039""
","
","","","","","","10012.5","<p> <b> That's right! </b> You will only have 10 seconds to make each choice. </p>","","0","comp_answer","","","","","","","","",""
"learning-instructions","40","225613","0.0-13.0","1902","2","""event"",""trial"",""time""
""fullscreenenter"",""1"",""4039""
","
","
","""event"",""trial"",""time""
""fullscreenenter"",""1"",""4039""
","
","","","","","","711.0999999998603","<p> Great! You are now ready to begin the game. </p><p> Remember, use the 1, 2, 3, and 4 keys to make your responses. </p>","","0","instructions","","","","","","","","",""
"preload","41","227298","0.0-14.0","1902","2","""event"",""trial"",""time""
""fullscreenenter"",""1"",""4039""
","
","
","""event"",""trial"",""time""
""fullscreenenter"",""1"",""4039""
","
","true","false","[]","[]","[]","","","","","","","","","","","","","",""
"html-keyboard-response","42","227799","0.0-15.0-0.0","1902","2","""event"",""trial"",""time""
""fullscreenenter"",""1"",""4039""
","
","
","""event"",""trial"",""time""
""fullscreenenter"",""1"",""4039""
","
","","","","","","null","<div style=""font-size:60px;"">+</div>","null","","fixation","","","","","","","","",""
"memory-trial","43","230261","0.0-15.0-1.0","1902","2","""event"",""trial"",""time""
""fullscreenenter"",""1"",""4039""
","
","
","""event"",""trial"",""time""
""fullscreenenter"",""1"",""4039""
","
","","","","","","1457.1000000000931","images/truck1.png","","","memory_trial","4","definitely_new","","","","","","",""
"html-keyboard-response","44","230764","0.0-15.0-0.1","1902","2","""event"",""trial"",""time""
""fullscreenenter"",""1"",""4039""
","
","
","""event"",""trial"",""time""
""fullscreenenter"",""1"",""4039""
","
","","","","","","null","<div style=""font-size:60px;"">+</div>","null","","fixation","","","","","","","","",""
"memory-trial","45","233573","0.0-15.0-1.1","1902","2","""event"",""trial"",""time""
""fullscreenenter"",""1"",""4039""
","
","
","""event"",""trial"",""time""
""fullscreenenter"",""1"",""4039""
","
","","","","","","1803.8000000000466","images/cactus5.png","","","memory_trial","2","maybe_old","","","","","","",""
"html-keyboard-response","46","234074","0.0-15.0-0.2","1902","2","""event"",""trial"",""time""
""fullscreenenter"",""1"",""4039""
","
","
","""event"",""trial"",""time""
""fullscreenenter"",""1"",""4039""
","
","","","","","","null","<div style=""font-size:60px;"">+</div>","null","","fixation","","","","","","","","",""
"memory-trial","47","236436","0.0-15.0-1.2","1902","2","""event"",""trial"",""time""
""fullscreenenter"",""1"",""4039""
","
","
","""event"",""trial"",""time""
""fullscreenenter"",""1"",""4039""
","
","","","","","","1358.3000000000466","images/cow1.png","","","memory_trial","4","definitely_new","","","","","","",""
"html-keyboard-response","48","236941","0.0-15.0-0.3","1902","2","""event"",""trial"",""time""
""fullscreenenter"",""1"",""4039""
","
","
","""event"",""trial"",""time""
""fullscreenenter"",""1"",""4039""
","
","","","","","","null","<div style=""font-size:60px;"">+</div>","null","","fixation","","","","","","","","",""
"memory-trial","49","239442","0.0-15.0-1.3","1902","2","""event"",""trial"",""time""
""fullscreenenter"",""1"",""4039""
","
","
","""event"",""trial"",""time""
""fullscreenenter"",""1"",""4039""
","
","","","","","","1498.6000000000931","images/sofa1.png","","","memory_trial","1","definitely_old","","","","","","",""
"html-keyboard-response","50","239947","0.0-15.0-0.4","1902","2","""event"",""trial"",""time""
""fullscreenenter"",""1"",""4039""
","
","
","""event"",""trial"",""time""
""fullscreenenter"",""1"",""4039""
","
","","","","","","null","<div style=""font-size:60px;"">+</div>","null","","fixation","","","","","","","","",""
"memory-trial","51","242015","0.0-15.0-1.4","1902","2","""event"",""trial"",""time""
""fullscreenenter"",""1"",""4039""
","
","
","""event"",""trial"",""time""
""fullscreenenter"",""1"",""4039""
","
","","","","","","1061.4000000001397","images/rodent2.png","","","memory_trial","2","maybe_old","","","","","","",""
"html-keyboard-response","52","242520","0.0-15.0-0.5","1902","2","""event"",""trial"",""time""
""fullscreenenter"",""1"",""4039""
","
","
","""event"",""trial"",""time""
""fullscreenenter"",""1"",""4039""
","
","","","","","","null","<div style=""font-size:60px;"">+</div>","null","","fixation","","","","","","","","",""
"memory-trial","53","244997","0.0-15.0-1.5","1902","2","""event"",""trial"",""time""
""fullscreenenter"",""1"",""4039""
","
","
","""event"",""trial"",""time""
""fullscreenenter"",""1"",""4039""
","
","","","","","","1472.5","images/apple4.png","","","memory_trial","3","maybe_new","","","","","","",""
"html-keyboard-response","54","245502","0.0-15.0-0.6","1902","2","""event"",""trial"",""time""
""fullscreenenter"",""1"",""4039""
","
","
","""event"",""trial"",""time""
""fullscreenenter"",""1"",""4039""
","
","","","","","","null","<div style=""font-size:60px;"">+</div>","null","","fixation","","","","","","","","",""
"memory-trial","55","247495","0.0-15.0-1.6","1902","2","""event"",""trial"",""time""
""fullscreenenter"",""1"",""4039""
","
","
","""event"",""trial"",""time""
""fullscreenenter"",""1"",""4039""
","
","","","","","","985.9000000001397","images/rodent5.png","","","memory_trial","1","definitely_old","","","","","","",""
"html-keyboard-response","56","248000","0.0-15.0-0.7","1902","2","""event"",""trial"",""time""
""fullscreenenter"",""1"",""4039""
","
","
","""event"",""trial"",""time""
""fullscreenenter"",""1"",""4039""
","
","","","","","","null","<div style=""font-size:60px;"">+</div>","null","","fixation","","","","","","","","",""
"memory-trial","57","250467","0.0-15.0-1.7","1902","2","""event"",""trial"",""time""
""fullscreenenter"",""1"",""4039""
","
","
","""event"",""trial"",""time""
""fullscreenenter"",""1"",""4039""
","
","","","","","","1464","images/sofa3.png","","","memory_trial","4","definitely_new","","","","","","",""
"html-keyboard-response","58","250972","0.0-15.0-0.8","1902","2","""event"",""trial"",""time""
""fullscreenenter"",""1"",""4039""
","
","
","""event"",""trial"",""time""
""fullscreenenter"",""1"",""4039""
","
","","","","","","null","<div style=""font-size:60px;"">+</div>","null","","fixation","","","","","","","","",""
"memory-trial","59","253380","0.0-15.0-1.8","1902","2","""event"",""trial"",""time""
""fullscreenenter"",""1"",""4039""
","
","
","""event"",""trial"",""time""
""fullscreenenter"",""1"",""4039""
","
","","","","","","1404.6999999999534","images/bush4.png","","","memory_trial","1","definitely_old","","","","","","",""
"html-keyboard-response","60","253885","0.0-15.0-0.9","1902","2","""event"",""trial"",""time""
""fullscreenenter"",""1"",""4039""
","
","
","""event"",""trial"",""time""
""fullscreenenter"",""1"",""4039""
","
","","","","","","null","<div style=""font-size:60px;"">+</div>","null","","fixation","","","","","","","","",""
"memory-trial","61","257092","0.0-15.0-1.9","1902","2","""event"",""trial"",""time""
""fullscreenenter"",""1"",""4039""
","
","
","""event"",""trial"",""time""
""fullscreenenter"",""1"",""4039""
","
","","","","","","2202.600000000093","images/bed5.png","","","memory_trial","3","maybe_new","","","","","","",""
"html-keyboard-response","62","257597","0.0-15.0-0.10","1902","2","""event"",""trial"",""time""
""fullscreenenter"",""1"",""4039""
","
","
","""event"",""trial"",""time""
""fullscreenenter"",""1"",""4039""
","
","","","","","","null","<div style=""font-size:60px;"">+</div>","null","","fixation","","","","","","","","",""
"memory-trial","63","259894","0.0-15.0-1.10","1902","2","""event"",""trial"",""time""
""fullscreenenter"",""1"",""4039""
","
","
","""event"",""trial"",""time""
""fullscreenenter"",""1"",""4039""
","
","","","","","","1291.9000000001397","images/sheep4.png","","","memory_trial","3","maybe_new","","","","","","",""
"html-keyboard-response","64","260395","0.0-15.0-0.11","1902","2","""event"",""trial"",""time""
""fullscreenenter"",""1"",""4039""
","
","
","""event"",""trial"",""time""
""fullscreenenter"",""1"",""4039""
","
","","","","","","null","<div style=""font-size:60px;"">+</div>","null","","fixation","","","","","","","","",""
"memory-trial","65","262206","0.0-15.0-1.11","1902","2","""event"",""trial"",""time""
""fullscreenenter"",""1"",""4039""
","
","
","""event"",""trial"",""time""
""fullscreenenter"",""1"",""4039""
","
","","","","","","805.3999999999069","images/apple3.png","","","memory_trial","4","definitely_new","","","","","","",""
"html-keyboard-response","66","262711","0.0-15.0-0.12","1902","2","""event"",""trial"",""time""
""fullscreenenter"",""1"",""4039""
","
","
","""event"",""trial"",""time""
""fullscreenenter"",""1"",""4039""
","
","","","","","","null","<div style=""font-size:60px;"">+</div>","null","","fixation","","","","","","","","",""
"memory-trial","67","264685","0.0-15.0-1.12","1902","2","""event"",""trial"",""time""
""fullscreenenter"",""1"",""4039""
","
","
","""event"",""trial"",""time""
""fullscreenenter"",""1"",""4039""
","
","","","","","","970","images/truck4.png","","","memory_trial","4","definitely_new","","","","","","",""
"html-keyboard-response","68","265190","0.0-15.0-0.13","1902","2","""event"",""trial"",""time""
""fullscreenenter"",""1"",""4039""
","
","
","""event"",""trial"",""time""
""fullscreenenter"",""1"",""4039""
","
","","","","","","null","<div style=""font-size:60px;"">+</div>","null","","fixation","","","","","","","","",""
"memory-trial","69","267285","0.0-15.0-1.13","1902","2","""event"",""trial"",""time""
""fullscreenenter"",""1"",""4039""
","
","
","""event"",""trial"",""time""
""fullscreenenter"",""1"",""4039""
","
","","","","","","1090.8000000000466","images/goat5.png","","","memory_trial","4","definitely_new","","","","","","",""
"html-keyboard-response","70","267790","0.0-15.0-0.14","1902","2","""event"",""trial"",""time""
""fullscreenenter"",""1"",""4039""
","
","
","""event"",""trial"",""time""
""fullscreenenter"",""1"",""4039""
","
","","","","","","null","<div style=""font-size:60px;"">+</div>","null","","fixation","","","","","","","","",""
"memory-trial","71","269700","0.0-15.0-1.14","1902","2","""event"",""trial"",""time""
""fullscreenenter"",""1"",""4039""
","
","
","""event"",""trial"",""time""
""fullscreenenter"",""1"",""4039""
","
","","","","","","906.3000000000466","images/orange2.png","","","memory_trial","4","definitely_new","","","","","","",""
"html-keyboard-response","72","270205","0.0-15.0-0.15","1902","2","""event"",""trial"",""time""
""fullscreenenter"",""1"",""4039""
","
","
","""event"",""trial"",""time""
""fullscreenenter"",""1"",""4039""
","
","","","","","","null","<div style=""font-size:60px;"">+</div>","null","","fixation","","","","","","","","",""
"memory-trial","73","273480","0.0-15.0-1.15","1902","2","""event"",""trial"",""time""
""fullscreenenter"",""1"",""4039""
","
","
","""event"",""trial"",""time""
""fullscreenenter"",""1"",""4039""
","
","","","","","","2266.9000000001397","images/apple2.png","","","memory_trial","1","definitely_old","","","","","","",""
"html-keyboard-response","74","273984","0.0-15.0-0.16","1902","2","""event"",""trial"",""time""
""fullscreenenter"",""1"",""4039""
","
","
","""event"",""trial"",""time""
""fullscreenenter"",""1"",""4039""
","
","","","","","","null","<div style=""font-size:60px;"">+</div>","null","","fixation","","","","","","","","",""
"memory-trial","75","275796","0.0-15.0-1.16","1902","2","""event"",""trial"",""time""
""fullscreenenter"",""1"",""4039""
","
","
","""event"",""trial"",""time""
""fullscreenenter"",""1"",""4039""
","
","","","","","","808.3000000000466","images/straw3.png","","","memory_trial","1","definitely_old","","","","","","",""
"html-keyboard-response","76","276301","0.0-15.0-0.17","1902","2","""event"",""trial"",""time""
""fullscreenenter"",""1"",""4039""
","
","
","""event"",""trial"",""time""
""fullscreenenter"",""1"",""4039""
","
","","","","","","null","<div style=""font-size:60px;"">+</div>","null","","fixation","","","","","","","","",""
"memory-trial","77","278031","0.0-15.0-1.17","1902","2","""event"",""trial"",""time""
""fullscreenenter"",""1"",""4039""
","
","
","""event"",""trial"",""time""
""fullscreenenter"",""1"",""4039""
","
","","","","","","724.2000000001863","images/bed1.png","","","memory_trial","2","maybe_old","","","","","","",""
"html-keyboard-response","78","278536","0.0-15.0-0.18","1902","2","""event"",""trial"",""time""
""fullscreenenter"",""1"",""4039""
","
","
","""event"",""trial"",""time""
""fullscreenenter"",""1"",""4039""
","
","","","","","","null","<div style=""font-size:60px;"">+</div>","null","","fixation","","","","","","","","",""
"memory-trial","79","281055","0.0-15.0-1.18","1902","2","""event"",""trial"",""time""
""fullscreenenter"",""1"",""4039""
","
","
","""event"",""trial"",""time""
""fullscreenenter"",""1"",""4039""
","
","","","","","","1513.3000000000466","images/goat4.png","","","memory_trial","3","maybe_new","","","","","","",""
"html-keyboard-response","80","281560","0.0-15.0-0.19","1902","2","""event"",""trial"",""time""
""fullscreenenter"",""1"",""4039""
","
","
","""event"",""trial"",""time""
""fullscreenenter"",""1"",""4039""
","
","","","","","","null","<div style=""font-size:60px;"">+</div>","null","","fixation","","","","","","","","",""
"memory-trial","81","283255","0.0-15.0-1.19","1902","2","""event"",""trial"",""time""
""fullscreenenter"",""1"",""4039""
","
","
","""event"",""trial"",""time""
""fullscreenenter"",""1"",""4039""
","
","","","","","","688.6999999999534","images/cow3.png","","","memory_trial","4","definitely_new","","","","","","",""
"html-keyboard-response","82","283760","0.0-15.0-0.20","1902","2","""event"",""trial"",""time""
""fullscreenenter"",""1"",""4039""
","
","
","""event"",""trial"",""time""
""fullscreenenter"",""1"",""4039""
","
","","","","","","null","<div style=""font-size:60px;"">+</div>","null","","fixation","","","","","","","","",""
"memory-trial","83","285804","0.0-15.0-1.20","1902","2","""event"",""trial"",""time""
""fullscreenenter"",""1"",""4039""
","
","
","""event"",""trial"",""time""
""fullscreenenter"",""1"",""4039""
","
","","","","","","1040.9000000001397","images/banana1.png","","","memory_trial","1","definitely_old","","","","","","",""
"html-keyboard-response","84","286308","0.0-15.0-0.21","1902","2","""event"",""trial"",""time""
""fullscreenenter"",""1"",""4039""
","
","
","""event"",""trial"",""time""
""fullscreenenter"",""1"",""4039""
","
","","","","","","null","<div style=""font-size:60px;"">+</div>","null","","fixation","","","","","","","","",""
"memory-trial","85","288294","0.0-15.0-1.21","1902","2","""event"",""trial"",""time""
""fullscreenenter"",""1"",""4039""
","
","
","""event"",""trial"",""time""
""fullscreenenter"",""1"",""4039""
","
","","","","","","980","images/chair3.png","","","memory_trial","4","definitely_new","","","","","","",""
"html-keyboard-response","86","288799","0.0-15.0-0.22","1902","2","""event"",""trial"",""time""
""fullscreenenter"",""1"",""4039""
","
","
","""event"",""trial"",""time""
""fullscreenenter"",""1"",""4039""
","
","","","","","","null","<div style=""font-size:60px;"">+</div>","null","","fixation","","","","","","","","",""
"memory-trial","87","290871","0.0-15.0-1.22","1902","2","""event"",""trial"",""time""
""fullscreenenter"",""1"",""4039""
","
","
","""event"",""trial"",""time""
""fullscreenenter"",""1"",""4039""
","
","","","","","","1066.1000000000931","images/feline5.png","","","memory_trial","4","definitely_new","","","","","","",""
"html-keyboard-response","88","291376","0.0-15.0-0.23","1902","2","""event"",""trial"",""time""
""fullscreenenter"",""1"",""4039""
","
","
","""event"",""trial"",""time""
""fullscreenenter"",""1"",""4039""
","
","","","","","","null","<div style=""font-size:60px;"">+</div>","null","","fixation","","","","","","","","",""
"memory-trial","89","293791","0.0-15.0-1.23","1902","2","""event"",""trial"",""time""
""fullscreenenter"",""1"",""4039""
","
","
","""event"",""trial"",""time""
""fullscreenenter"",""1"",""4039""
","
","","","","","","1408.6000000000931","images/chair1.png","","","memory_trial","4","definitely_new","","","","","","",""
"html-keyboard-response","90","294296","0.0-15.0-0.24","1902","2","""event"",""trial"",""time""
""fullscreenenter"",""1"",""4039""
","
","
","""event"",""trial"",""time""
""fullscreenenter"",""1"",""4039""
","
","","","","","","null","<div style=""font-size:60px;"">+</div>","null","","fixation","","","","","","","","",""
"memory-trial","91","296165","0.0-15.0-1.24","1902","2","""event"",""trial"",""time""
""fullscreenenter"",""1"",""4039""
","
","
","""event"",""trial"",""time""
""fullscreenenter"",""1"",""4039""
","
","","","","","","864.3000000000466","images/boat1.png","","","memory_trial","4","definitely_new","","","","","","",""
"html-keyboard-response","92","296670","0.0-15.0-0.25","1902","2","""event"",""trial"",""time""
""fullscreenenter"",""1"",""4039""
","
","
","""event"",""trial"",""time""
""fullscreenenter"",""1"",""4039""
","
","","","","","","null","<div style=""font-size:60px;"">+</div>","null","","fixation","","","","","","","","",""
"memory-trial","93","298453","0.0-15.0-1.25","1902","2","""event"",""trial"",""time""
""fullscreenenter"",""1"",""4039""
","
","
","""event"",""trial"",""time""
""fullscreenenter"",""1"",""4039""
","
","","","","","","778.5","images/sofa2.png","","","memory_trial","3","maybe_new","","","","","","",""
"html-keyboard-response","94","298958","0.0-15.0-0.26","1902","2","""event"",""trial"",""time""
""fullscreenenter"",""1"",""4039""
","
","
","""event"",""trial"",""time""
""fullscreenenter"",""1"",""4039""
","
","","","","","","null","<div style=""font-size:60px;"">+</div>","null","","fixation","","","","","","","","",""
"memory-trial","95","300972","0.0-15.0-1.26","1902","2","""event"",""trial"",""time""
""fullscreenenter"",""1"",""4039""
","
","
","""event"",""trial"",""time""
""fullscreenenter"",""1"",""4039""
","
","","","","","","1011.5","images/dog4.png","","","memory_trial","3","maybe_new","","","","","","",""
"html-keyboard-response","96","301477","0.0-15.0-0.27","1902","2","""event"",""trial"",""time""
""fullscreenenter"",""1"",""4039""
","
","
","""event"",""trial"",""time""
""fullscreenenter"",""1"",""4039""
","
","","","","","","null","<div style=""font-size:60px;"">+</div>","null","","fixation","","","","","","","","",""
"memory-trial","97","303863","0.0-15.0-1.27","1902","2","""event"",""trial"",""time""
""fullscreenenter"",""1"",""4039""
","
","
","""event"",""trial"",""time""
""fullscreenenter"",""1"",""4039""
","
","","","","","","1379.8000000000466","images/rabbit5.png","","","memory_trial","1","definitely_old","","","","","","",""
"html-keyboard-response","98","304368","0.0-15.0-0.28","1902","2","""event"",""trial"",""time""
""fullscreenenter"",""1"",""4039""
","
","
","""event"",""trial"",""time""
""fullscreenenter"",""1"",""4039""
","
","","","","","","null","<div style=""font-size:60px;"">+</div>","null","","fixation","","","","","","","","",""
"memory-trial","99","306731","0.0-15.0-1.28","1902","2","""event"",""trial"",""time""
""fullscreenenter"",""1"",""4039""
","
","
","""event"",""trial"",""time""
""fullscreenenter"",""1"",""4039""
","
","","","","","","1360.9000000001397","images/feline2.png","","","memory_trial","3","maybe_new","","","","","","",""
"html-keyboard-response","100","307236","0.0-15.0-0.29","1902","2","""event"",""trial"",""time""
""fullscreenenter"",""1"",""4039""
","
","
","""event"",""trial"",""time""
""fullscreenenter"",""1"",""4039""
","
","","","","","","null","<div style=""font-size:60px;"">+</div>","null","","fixation","","","","","","","","",""
"memory-trial","101","308995","0.0-15.0-1.29","1902","2","""event"",""trial"",""time""
""fullscreenenter"",""1"",""4039""
","
","
","""event"",""trial"",""time""
""fullscreenenter"",""1"",""4039""
","
","","","","","","756.4000000001397","images/train2.png","","","memory_trial","4","definitely_new","","","","","","",""
"html-keyboard-response","102","309499","0.0-15.0-0.30","1902","2","""event"",""trial"",""time""
""fullscreenenter"",""1"",""4039""
","
","
","""event"",""trial"",""time""
""fullscreenenter"",""1"",""4039""
","
","","","","","","null","<div style=""font-size:60px;"">+</div>","null","","fixation","","","","","","","","",""
"memory-trial","103","311427","0.0-15.0-1.30","1902","2","""event"",""trial"",""time""
""fullscreenenter"",""1"",""4039""
","
","
","""event"",""trial"",""time""
""fullscreenenter"",""1"",""4039""
","
","","","","","","925.7999999998137","images/rodent1.png","","","memory_trial","1","definitely_old","","","","","","",""
"html-keyboard-response","104","311931","0.0-15.0-0.31","1902","2","""event"",""trial"",""time""
""fullscreenenter"",""1"",""4039""
","
","
","""event"",""trial"",""time""
""fullscreenenter"",""1"",""4039""
","
","","","","","","null","<div style=""font-size:60px;"">+</div>","null","","fixation","","","","","","","","",""
"memory-trial","105","313894","0.0-15.0-1.31","1902","2","""event"",""trial"",""time""
""fullscreenenter"",""1"",""4039""
","
","
","""event"",""trial"",""time""
""fullscreenenter"",""1"",""4039""
","
","","","","","","957.3000000000466","images/cow4.png","","","memory_trial","4","definitely_new","","","","","","",""
"html-keyboard-response","106","314399","0.0-15.0-0.32","1902","2","""event"",""trial"",""time""
""fullscreenenter"",""1"",""4039""
","
","
","""event"",""trial"",""time""
""fullscreenenter"",""1"",""4039""
","
","","","","","","null","<div style=""font-size:60px;"">+</div>","null","","fixation","","","","","","","","",""
"memory-trial","107","316181","0.0-15.0-1.32","1902","2","""event"",""trial"",""time""
""fullscreenenter"",""1"",""4039""
","
","
","""event"",""trial"",""time""
""fullscreenenter"",""1"",""4039""
","
","","","","","","778.0999999998603","images/table2.png","","","memory_trial","3","maybe_new","","","","","","",""
"html-keyboard-response","108","316686","0.0-15.0-0.33","1902","2","""event"",""trial"",""time""
""fullscreenenter"",""1"",""4039""
","
","
","""event"",""trial"",""time""
""fullscreenenter"",""1"",""4039""
","
","","","","","","null","<div style=""font-size:60px;"">+</div>","null","","fixation","","","","","","","","",""
"memory-trial","109","318414","0.0-15.0-1.33","1902","2","""event"",""trial"",""time""
""fullscreenenter"",""1"",""4039""
","
","
","""event"",""trial"",""time""
""fullscreenenter"",""1"",""4039""
","
","","","","","","723.1999999999534","images/goat2.png","","","memory_trial","3","maybe_new","","","","","","",""
"html-keyboard-response","110","318915","0.0-15.0-0.34","1902","2","""event"",""trial"",""time""
""fullscreenenter"",""1"",""4039""
","
","
","""event"",""trial"",""time""
""fullscreenenter"",""1"",""4039""
","
","","","","","","null","<div style=""font-size:60px;"">+</div>","null","","fixation","","","","","","","","",""
"memory-trial","111","320727","0.0-15.0-1.34","1902","2","""event"",""trial"",""time""
""fullscreenenter"",""1"",""4039""
","
","
","""event"",""trial"",""time""
""fullscreenenter"",""1"",""4039""
","
","","","","","","806.1000000000931","images/orange4.png","","","memory_trial","1","definitely_old","","","","","","",""
"html-keyboard-response","112","321232","0.0-15.0-0.35","1902","2","""event"",""trial"",""time""
""fullscreenenter"",""1"",""4039""
","
","
","""event"",""trial"",""time""
""fullscreenenter"",""1"",""4039""
","
","","","","","","null","<div style=""font-size:60px;"">+</div>","null","","fixation","","","","","","","","",""
"memory-trial","113","322788","0.0-15.0-1.35","1902","2","""event"",""trial"",""time""
""fullscreenenter"",""1"",""4039""
","
","
","""event"",""trial"",""time""
""fullscreenenter"",""1"",""4039""
","
","","","","","","553.5","images/straw2.png","","","memory_trial","1","definitely_old","","","","","","",""
"html-keyboard-response","114","323293","0.0-15.0-0.36","1902","2","""event"",""trial"",""time""
""fullscreenenter"",""1"",""4039""
","
","
","""event"",""trial"",""time""
""fullscreenenter"",""1"",""4039""
","
","","","","","","null","<div style=""font-size:60px;"">+</div>","null","","fixation","","","","","","","","",""
"memory-trial","115","324964","0.0-15.0-1.36","1902","2","""event"",""trial"",""time""
""fullscreenenter"",""1"",""4039""
","
","
","""event"",""trial"",""time""
""fullscreenenter"",""1"",""4039""
","
","","","","","","668.6999999999534","images/rabbit1.png","","","memory_trial","1","definitely_old","","","","","","",""
"html-keyboard-response","116","325469","0.0-15.0-0.37","1902","2","""event"",""trial"",""time""
""fullscreenenter"",""1"",""4039""
","
","
","""event"",""trial"",""time""
""fullscreenenter"",""1"",""4039""
","
","","","","","","null","<div style=""font-size:60px;"">+</div>","null","","fixation","","","","","","","","",""
"memory-trial","117","327124","0.0-15.0-1.37","1902","2","""event"",""trial"",""time""
""fullscreenenter"",""1"",""4039""
","
","
","""event"",""trial"",""time""
""fullscreenenter"",""1"",""4039""
","
","","","","","","652.3000000000466","images/rabbit3.png","","","memory_trial","2","maybe_old","","","","","","",""
"html-keyboard-response","118","327629","0.0-15.0-0.38","1902","2","""event"",""trial"",""time""
""fullscreenenter"",""1"",""4039""
","
","
","""event"",""trial"",""time""
""fullscreenenter"",""1"",""4039""
","
","","","","","","null","<div style=""font-size:60px;"">+</div>","null","","fixation","","","","","","","","",""
"memory-trial","119","329870","0.0-15.0-1.38","1902","2","""event"",""trial"",""time""
""fullscreenenter"",""1"",""4039""
","
","
","""event"",""trial"",""time""
""fullscreenenter"",""1"",""4039""
","
","","","","","","1236.7999999998137","images/chair2.png","","","memory_trial","4","definitely_new","","","","","","",""
"html-keyboard-response","120","330375","0.0-15.0-0.39","1902","2","""event"",""trial"",""time""
""fullscreenenter"",""1"",""4039""
","
","
","""event"",""trial"",""time""
""fullscreenenter"",""1"",""4039""
","
","","","","","","null","<div style=""font-size:60px;"">+</div>","null","","fixation","","","","","","","","",""
"memory-trial","121","332238","0.0-15.0-1.39","1902","2","""event"",""trial"",""time""
""fullscreenenter"",""1"",""4039""
","
","
","""event"",""trial"",""time""
""fullscreenenter"",""1"",""4039""
","
","","","","","","858.2000000001863","images/bush5.png","","","memory_trial","2","maybe_old","","","","","","",""
"html-keyboard-response","122","332743","0.0-15.0-0.40","1902","2","""event"",""trial"",""time""
""fullscreenenter"",""1"",""4039""
","
","
","""event"",""trial"",""time""
""fullscreenenter"",""1"",""4039""
","
","","","","","","null","<div style=""font-size:60px;"">+</div>","null","","fixation","","","","","","","","",""
"memory-trial","123","334485","0.0-15.0-1.40","1902","2","""event"",""trial"",""time""
""fullscreenenter"",""1"",""4039""
","
","
","""event"",""trial"",""time""
""fullscreenenter"",""1"",""4039""
","
","","","","","","738.5","images/banana5.png","","","memory_trial","1","definitely_old","","","","","","",""
"html-keyboard-response","124","334990","0.0-15.0-0.41","1902","2","""event"",""trial"",""time""
""fullscreenenter"",""1"",""4039""
","
","
","""event"",""trial"",""time""
""fullscreenenter"",""1"",""4039""
","
","","","","","","null","<div style=""font-size:60px;"">+</div>","null","","fixation","","","","","","","","",""
"memory-trial","125","337480","0.0-15.0-1.41","1902","2","""event"",""trial"",""time""
""fullscreenenter"",""1"",""4039""
","
","
","""event"",""trial"",""time""
""fullscreenenter"",""1"",""4039""
","
","","","","","","1483.7000000001863","images/tree1.png","","","memory_trial","3","maybe_new","","","","","","",""
"html-keyboard-response","126","337985","0.0-15.0-0.42","1902","2","""event"",""trial"",""time""
""fullscreenenter"",""1"",""4039""
","
","
","""event"",""trial"",""time""
""fullscreenenter"",""1"",""4039""
","
","","","","","","null","<div style=""font-size:60px;"">+</div>","null","","fixation","","","","","","","","",""
"memory-trial","127","339796","0.0-15.0-1.42","1902","2","""event"",""trial"",""time""
""fullscreenenter"",""1"",""4039""
","
","
","""event"",""trial"",""time""
""fullscreenenter"",""1"",""4039""
","
","","","","","","807.8000000000466","images/sofa4.png","","","memory_trial","4","definitely_new","","","","","","",""
"html-keyboard-response","128","340301","0.0-15.0-0.43","1902","2","""event"",""trial"",""time""
""fullscreenenter"",""1"",""4039""
","
","
","""event"",""trial"",""time""
""fullscreenenter"",""1"",""4039""
","
","","","","","","null","<div style=""font-size:60px;"">+</div>","null","","fixation","","","","","","","","",""
"memory-trial","129","342374","0.0-15.0-1.43","1902","2","""event"",""trial"",""time""
""fullscreenenter"",""1"",""4039""
","
","
","""event"",""trial"",""time""
""fullscreenenter"",""1"",""4039""
","
","","","","","","1068.6999999999534","images/cow2.png","","","memory_trial","4","definitely_new","","","","","","",""
"html-keyboard-response","130","342879","0.0-15.0-0.44","1902","2","""event"",""trial"",""time""
""fullscreenenter"",""1"",""4039""
","
","
","""event"",""trial"",""time""
""fullscreenenter"",""1"",""4039""
","
","","","","","","null","<div style=""font-size:60px;"">+</div>","null","","fixation","","","","","","","","",""
"memory-trial","131","344734","0.0-15.0-1.44","1902","2","""event"",""trial"",""time""
""fullscreenenter"",""1"",""4039""
","
","
","""event"",""trial"",""time""
""fullscreenenter"",""1"",""4039""
","
","","","","","","850.8000000000466","images/tree3.png","","","memory_trial","1","definitely_old","","","","","","",""
"html-keyboard-response","132","345236","0.0-15.0-0.45","1902","2","""event"",""trial"",""time""
""fullscreenenter"",""1"",""4039""
","
","
","""event"",""trial"",""time""
""fullscreenenter"",""1"",""4039""
","
","","","","","","null","<div style=""font-size:60px;"">+</div>","null","","fixation","","","","","","","","",""
"memory-trial","133","348182","0.0-15.0-1.45","1902","2","""event"",""trial"",""time""
""fullscreenenter"",""1"",""4039""
","
","
","""event"",""trial"",""time""
""fullscreenenter"",""1"",""4039""
","
","","","","","","1941.8999999999069","images/feline3.png","","","memory_trial","1","definitely_old","","","","","","",""
"html-keyboard-response","134","348684","0.0-15.0-0.46","1902","2","""event"",""trial"",""time""
""fullscreenenter"",""1"",""4039""
","
","
","""event"",""trial"",""time""
""fullscreenenter"",""1"",""4039""
","
","","","","","","null","<div style=""font-size:60px;"">+</div>","null","","fixation","","","","","","","","",""
"memory-trial","135","352016","0.0-15.0-1.46","1902","2","""event"",""trial"",""time""
""fullscreenenter"",""1"",""4039""
","
","
","""event"",""trial"",""time""
""fullscreenenter"",""1"",""4039""
","
","","","","","","2325.1999999999534","images/train1.png","","","memory_trial","4","definitely_new","","","","","","",""
"html-button-response","136","362673","0.0-15.0-2.46-0.46","1902","2","""event"",""trial"",""time""
""fullscreenenter"",""1"",""4039""
","
","
","""event"",""trial"",""time""
""fullscreenenter"",""1"",""4039""
","
","","","","","","10655.40000000014","<p> Take a break! </p><p> Click the button to continue. </p>","0","","break","","","","","","","","",""
"html-keyboard-response","137","363173","0.0-15.0-0.47","1902","2","""event"",""trial"",""time""
""fullscreenenter"",""1"",""4039""
","
","
","""event"",""trial"",""time""
""fullscreenenter"",""1"",""4039""
","
","","","","","","null","<div style=""font-size:60px;"">+</div>","null","","fixation","","","","","","","","",""
"memory-trial","138","366302","0.0-15.0-1.47","1902","2","""event"",""trial"",""time""
""fullscreenenter"",""1"",""4039""
","
","
","""event"",""trial"",""time""
""fullscreenenter"",""1"",""4039""
","
","","","","","","2123.9000000001397","images/tree2.png","","","memory_trial","4","definitely_new","","","","","","",""
"html-keyboard-response","139","366807","0.0-15.0-0.48","1902","2","""event"",""trial"",""time""
""fullscreenenter"",""1"",""4039""
","
","
","""event"",""trial"",""time""
""fullscreenenter"",""1"",""4039""
","
","","","","","","null","<div style=""font-size:60px;"">+</div>","null","","fixation","","","","","","","","",""
"memory-trial","140","370244","0.0-15.0-1.48","1902","2","""event"",""trial"",""time""
""fullscreenenter"",""1"",""4039""
","
","
","""event"",""trial"",""time""
""fullscreenenter"",""1"",""4039""
","
","","","","","","2434.399999999907","images/horse3.png","","","memory_trial","4","definitely_new","","","","","","",""
"html-keyboard-response","141","370749","0.0-15.0-0.49","1902","2","""event"",""trial"",""time""
""fullscreenenter"",""1"",""4039""
","
","
","""event"",""trial"",""time""
""fullscreenenter"",""1"",""4039""
","
","","","","","","null","<div style=""font-size:60px;"">+</div>","null","","fixation","","","","","","","","",""
"memory-trial","142","372374","0.0-15.0-1.49","1902","2","""event"",""trial"",""time""
""fullscreenenter"",""1"",""4039""
","
","
","""event"",""trial"",""time""
""fullscreenenter"",""1"",""4039""
","
","","","","","","620.5","images/straw1.png","","","memory_trial","1","definitely_old","","","","","","",""
"html-keyboard-response","143","372879","0.0-15.0-0.50","1902","2","""event"",""trial"",""time""
""fullscreenenter"",""1"",""4039""
","
","
","""event"",""trial"",""time""
""fullscreenenter"",""1"",""4039""
","
","","","","","","null","<div style=""font-size:60px;"">+</div>","null","","fixation","","","","","","","","",""
"memory-trial","144","375039","0.0-15.0-1.50","1902","2","""event"",""trial"",""time""
""fullscreenenter"",""1"",""4039""
","
","
","""event"",""trial"",""time""
""fullscreenenter"",""1"",""4039""
","
","","","","","","1154.8000000000466","images/flower5.png","","","memory_trial","1","definitely_old","","","","","","",""
"html-keyboard-response","145","375544","0.0-15.0-0.51","1902","2","""event"",""trial"",""time""
""fullscreenenter"",""1"",""4039""
","
","
","""event"",""trial"",""time""
""fullscreenenter"",""1"",""4039""
","
","","","","","","null","<div style=""font-size:60px;"">+</div>","null","","fixation","","","","","","","","",""
"memory-trial","146","377512","0.0-15.0-1.51","1902","2","""event"",""trial"",""time""
""fullscreenenter"",""1"",""4039""
","
","
","""event"",""trial"",""time""
""fullscreenenter"",""1"",""4039""
","
","","","","","","961.7000000001863","images/bush2.png","","","memory_trial","1","definitely_old","","","","","","",""
"html-keyboard-response","147","378017","0.0-15.0-0.52","1902","2","""event"",""trial"",""time""
""fullscreenenter"",""1"",""4039""
","
","
","""event"",""trial"",""time""
""fullscreenenter"",""1"",""4039""
","
","","","","","","null","<div style=""font-size:60px;"">+</div>","null","","fixation","","","","","","","","",""
"memory-trial","148","380774","0.0-15.0-1.52","1902","2","""event"",""trial"",""time""
""fullscreenenter"",""1"",""4039""
","
","
","""event"",""trial"",""time""
""fullscreenenter"",""1"",""4039""
","
","","","","","","1753.1000000000931","images/sheep3.png","","","memory_trial","4","definitely_new","","","","","","",""
"html-keyboard-response","149","381279","0.0-15.0-0.53","1902","2","""event"",""trial"",""time""
""fullscreenenter"",""1"",""4039""
","
","
","""event"",""trial"",""time""
""fullscreenenter"",""1"",""4039""
","
","","","","","","null","<div style=""font-size:60px;"">+</div>","null","","fixation","","","","","","","","",""
"memory-trial","150","383741","0.0-15.0-1.53","1902","2","""event"",""trial"",""time""
""fullscreenenter"",""1"",""4039""
","
","
","""event"",""trial"",""time""
""fullscreenenter"",""1"",""4039""
","
","","","","","","1458.1000000000931","images/apple5.png","","","memory_trial","1","definitely_old","","","","","","",""
"html-keyboard-response","151","384246","0.0-15.0-0.54","1902","2","""event"",""trial"",""time""
""fullscreenenter"",""1"",""4039""
","
","
","""event"",""trial"",""time""
""fullscreenenter"",""1"",""4039""
","
","","","","","","null","<div style=""font-size:60px;"">+</div>","null","","fixation","","","","","","","","",""
"memory-trial","152","386800","0.0-15.0-1.54","1902","2","""event"",""trial"",""time""
""fullscreenenter"",""1"",""4039""
","
","
","""event"",""trial"",""time""
""fullscreenenter"",""1"",""4039""
","
","","","","","","1548.3999999999069","images/sheep2.png","","","memory_trial","3","maybe_new","","","","","","",""
"html-keyboard-response","153","387305","0.0-15.0-0.55","1902","2","""event"",""trial"",""time""
""fullscreenenter"",""1"",""4039""
","
","
","""event"",""trial"",""time""
""fullscreenenter"",""1"",""4039""
","
","","","","","","null","<div style=""font-size:60px;"">+</div>","null","","fixation","","","","","","","","",""
"memory-trial","154","389232","0.0-15.0-1.55","1902","2","""event"",""trial"",""time""
""fullscreenenter"",""1"",""4039""
","
","
","""event"",""trial"",""time""
""fullscreenenter"",""1"",""4039""
","
","","","","","","920.8000000000466","images/rabbit2.png","","","memory_trial","1","definitely_old","","","","","","",""
"html-keyboard-response","155","389737","0.0-15.0-0.56","1902","2","""event"",""trial"",""time""
""fullscreenenter"",""1"",""4039""
","
","
","""event"",""trial"",""time""
""fullscreenenter"",""1"",""4039""
","
","","","","","","null","<div style=""font-size:60px;"">+</div>","null","","fixation","","","","","","","","",""
"memory-trial","156","391984","0.0-15.0-1.56","1902","2","""event"",""trial"",""time""
""fullscreenenter"",""1"",""4039""
","
","
","""event"",""trial"",""time""
""fullscreenenter"",""1"",""4039""
","
","","","","","","1240.8000000000466","images/orange1.png","","","memory_trial","2","maybe_old","","","","","","",""
"html-keyboard-response","157","392489","0.0-15.0-0.57","1902","2","""event"",""trial"",""time""
""fullscreenenter"",""1"",""4039""
","
","
","""event"",""trial"",""time""
""fullscreenenter"",""1"",""4039""
","
","","","","","","null","<div style=""font-size:60px;"">+</div>","null","","fixation","","","","","","","","",""
"memory-trial","158","394559","0.0-15.0-1.57","1902","2","""event"",""trial"",""time""
""fullscreenenter"",""1"",""4039""
","
","
","""event"",""trial"",""time""
""fullscreenenter"",""1"",""4039""
","
","","","","","","1065.3000000000466","images/apple1.png","","","memory_trial","4","definitely_new","","","","","","",""
"html-keyboard-response","159","395060","0.0-15.0-0.58","1902","2","""event"",""trial"",""time""
""fullscreenenter"",""1"",""4039""
","
","
","""event"",""trial"",""time""
""fullscreenenter"",""1"",""4039""
","
","","","","","","null","<div style=""font-size:60px;"">+</div>","null","","fixation","","","","","","","","",""
"memory-trial","160","396838","0.0-15.0-1.58","1902","2","""event"",""trial"",""time""
""fullscreenenter"",""1"",""4039""
","
","
","""event"",""trial"",""time""
""fullscreenenter"",""1"",""4039""
","
","","","","","","774.4000000001397","images/boat3.png","","","memory_trial","4","definitely_new","","","","","","",""
"html-keyboard-response","161","397342","0.0-15.0-0.59","1902","2","""event"",""trial"",""time""
""fullscreenenter"",""1"",""4039""
","
","
","""event"",""trial"",""time""
""fullscreenenter"",""1"",""4039""
","
","","","","","","null","<div style=""font-size:60px;"">+</div>","null","","fixation","","","","","","","","",""
"memory-trial","162","399807","0.0-15.0-1.59","1902","2","""event"",""trial"",""time""
""fullscreenenter"",""1"",""4039""
","
","
","""event"",""trial"",""time""
""fullscreenenter"",""1"",""4039""
","
","","","","","","1459.6000000000931","images/sheep5.png","","","memory_trial","3","maybe_new","","","","","","",""
"html-keyboard-response","163","400308","0.0-15.0-0.60","1902","2","""event"",""trial"",""time""
""fullscreenenter"",""1"",""4039""
","
","
","""event"",""trial"",""time""
""fullscreenenter"",""1"",""4039""
","
","","","","","","null","<div style=""font-size:60px;"">+</div>","null","","fixation","","","","","","","","",""
"memory-trial","164","402317","0.0-15.0-1.60","1902","2","""event"",""trial"",""time""
""fullscreenenter"",""1"",""4039""
","
","
","""event"",""trial"",""time""
""fullscreenenter"",""1"",""4039""
","
","","","","","","1005.8000000000466","images/dog2.png","","","memory_trial","3","maybe_new","","","","","","",""
"html-keyboard-response","165","402822","0.0-15.0-0.61","1902","2","""event"",""trial"",""time""
""fullscreenenter"",""1"",""4039""
","
","
","""event"",""trial"",""time""
""fullscreenenter"",""1"",""4039""
","
","","","","","","null","<div style=""font-size:60px;"">+</div>","null","","fixation","","","","","","","","",""
"memory-trial","166","404476","0.0-15.0-1.61","1902","2","""event"",""trial"",""time""
""fullscreenenter"",""1"",""4039""
","
","
","""event"",""trial"",""time""
""fullscreenenter"",""1"",""4039""
","
","","","","","","652.2999999998137","images/bush3.png","","","memory_trial","2","maybe_old","","","","","","",""
"html-keyboard-response","167","404981","0.0-15.0-0.62","1902","2","""event"",""trial"",""time""
""fullscreenenter"",""1"",""4039""
","
","
","""event"",""trial"",""time""
""fullscreenenter"",""1"",""4039""
","
","","","","","","null","<div style=""font-size:60px;"">+</div>","null","","fixation","","","","","","","","",""
"memory-trial","168","406781","0.0-15.0-1.62","1902","2","""event"",""trial"",""time""
""fullscreenenter"",""1"",""4039""
","
","
","""event"",""trial"",""time""
""fullscreenenter"",""1"",""4039""
","
","","","","","","796.7999999998137","images/orange3.png","","","memory_trial","1","definitely_old","","","","","","",""
"html-keyboard-response","169","407286","0.0-15.0-0.63","1902","2","""event"",""trial"",""time""
""fullscreenenter"",""1"",""4039""
","
","
","""event"",""trial"",""time""
""fullscreenenter"",""1"",""4039""
","
","","","","","","null","<div style=""font-size:60px;"">+</div>","null","","fixation","","","","","","","","",""
"memory-trial","170","409375","0.0-15.0-1.63","1902","2","""event"",""trial"",""time""
""fullscreenenter"",""1"",""4039""
","
","
","""event"",""trial"",""time""
""fullscreenenter"",""1"",""4039""
","
","","","","","","1084.1999999999534","images/cactus4.png","","","memory_trial","4","definitely_new","","","","","","",""
"html-keyboard-response","171","409881","0.0-15.0-0.64","1902","2","""event"",""trial"",""time""
""fullscreenenter"",""1"",""4039""
","
","
","""event"",""trial"",""time""
""fullscreenenter"",""1"",""4039""
","
","","","","","","null","<div style=""font-size:60px;"">+</div>","null","","fixation","","","","","","","","",""
"memory-trial","172","411576","0.0-15.0-1.64","1902","2","""event"",""trial"",""time""
""fullscreenenter"",""1"",""4039""
","
","
","""event"",""trial"",""time""
""fullscreenenter"",""1"",""4039""
","
","","","","","","689.3999999999069","images/dog5.png","","","memory_trial","3","maybe_new","","","","","","",""
"html-keyboard-response","173","412079","0.0-15.0-0.65","1902","2","""event"",""trial"",""time""
""fullscreenenter"",""1"",""4039""
","
","
","""event"",""trial"",""time""
""fullscreenenter"",""1"",""4039""
","
","","","","","","null","<div style=""font-size:60px;"">+</div>","null","","fixation","","","","","","","","",""
"memory-trial","174","413753","0.0-15.0-1.65","1902","2","""event"",""trial"",""time""
""fullscreenenter"",""1"",""4039""
","
","
","""event"",""trial"",""time""
""fullscreenenter"",""1"",""4039""
","
","","","","","","667.9000000001397","images/chair5.png","","","memory_trial","3","maybe_new","","","","","","",""
"html-keyboard-response","175","414258","0.0-15.0-0.66","1902","2","""event"",""trial"",""time""
""fullscreenenter"",""1"",""4039""
","
","
","""event"",""trial"",""time""
""fullscreenenter"",""1"",""4039""
","
","","","","","","null","<div style=""font-size:60px;"">+</div>","null","","fixation","","","","","","","","",""
"memory-trial","176","416278","0.0-15.0-1.66","1902","2","""event"",""trial"",""time""
""fullscreenenter"",""1"",""4039""
","
","
","""event"",""trial"",""time""
""fullscreenenter"",""1"",""4039""
","
","","","","","","1016.7000000001863","images/plane2.png","","","memory_trial","4","definitely_new","","","","","","",""
"html-keyboard-response","177","416782","0.0-15.0-0.67","1902","2","""event"",""trial"",""time""
""fullscreenenter"",""1"",""4039""
","
","
","""event"",""trial"",""time""
""fullscreenenter"",""1"",""4039""
","
","","","","","","null","<div style=""font-size:60px;"">+</div>","null","","fixation","","","","","","","","",""
"memory-trial","178","418431","0.0-15.0-1.67","1902","2","""event"",""trial"",""time""
""fullscreenenter"",""1"",""4039""
","
","
","""event"",""trial"",""time""
""fullscreenenter"",""1"",""4039""
","
","","","","","","643.7999999998137","images/horse5.png","","","memory_trial","4","definitely_new","","","","","","",""
"html-keyboard-response","179","418937","0.0-15.0-0.68","1902","2","""event"",""trial"",""time""
""fullscreenenter"",""1"",""4039""
","
","
","""event"",""trial"",""time""
""fullscreenenter"",""1"",""4039""
","
","","","","","","null","<div style=""font-size:60px;"">+</div>","null","","fixation","","","","","","","","",""
"memory-trial","180","420568","0.0-15.0-1.68","1902","2","""event"",""trial"",""time""
""fullscreenenter"",""1"",""4039""
","
","
","""event"",""trial"",""time""
""fullscreenenter"",""1"",""4039""
","
","","","","","","625.9000000001397","images/table5.png","","","memory_trial","4","definitely_new","","","","","","",""
"html-keyboard-response","181","421073","0.0-15.0-0.69","1902","2","""event"",""trial"",""time""
""fullscreenenter"",""1"",""4039""
","
","
","""event"",""trial"",""time""
""fullscreenenter"",""1"",""4039""
","
","","","","","","null","<div style=""font-size:60px;"">+</div>","null","","fixation","","","","","","","","",""
"memory-trial","182","422733","0.0-15.0-1.69","1902","2","""event"",""trial"",""time""
""fullscreenenter"",""1"",""4039""
","
","
","""event"",""trial"",""time""
""fullscreenenter"",""1"",""4039""
","
","","","","","","657.5999999998603","images/train3.png","","","memory_trial","4","definitely_new","","","","","","",""
"html-keyboard-response","183","423238","0.0-15.0-0.70","1902","2","""event"",""trial"",""time""
""fullscreenenter"",""1"",""4039""
","
","
","""event"",""trial"",""time""
""fullscreenenter"",""1"",""4039""
","
","","","","","","null","<div style=""font-size:60px;"">+</div>","null","","fixation","","","","","","","","",""
"memory-trial","184","424997","0.0-15.0-1.70","1902","2","""event"",""trial"",""time""
""fullscreenenter"",""1"",""4039""
","
","
","""event"",""trial"",""time""
""fullscreenenter"",""1"",""4039""
","
","","","","","","755.9000000001397","images/cactus1.png","","","memory_trial","3","maybe_new","","","","","","",""
"html-keyboard-response","185","425502","0.0-15.0-0.71","1902","2","""event"",""trial"",""time""
""fullscreenenter"",""1"",""4039""
","
","
","""event"",""trial"",""time""
""fullscreenenter"",""1"",""4039""
","
","","","","","","null","<div style=""font-size:60px;"">+</div>","null","","fixation","","","","","","","","",""
"memory-trial","186","427633","0.0-15.0-1.71","1902","2","""event"",""trial"",""time""
""fullscreenenter"",""1"",""4039""
","
","
","""event"",""trial"",""time""
""fullscreenenter"",""1"",""4039""
","
","","","","","","1123.8999999999069","images/rabbit4.png","","","memory_trial","2","maybe_old","","","","","","",""
"html-keyboard-response","187","428135","0.0-15.0-0.72","1902","2","""event"",""trial"",""time""
""fullscreenenter"",""1"",""4039""
","
","
","""event"",""trial"",""time""
""fullscreenenter"",""1"",""4039""
","
","","","","","","null","<div style=""font-size:60px;"">+</div>","null","","fixation","","","","","","","","",""
"memory-trial","188","430140","0.0-15.0-1.72","1902","2","""event"",""trial"",""time""
""fullscreenenter"",""1"",""4039""
","
","
","""event"",""trial"",""time""
""fullscreenenter"",""1"",""4039""
","
","","","","","","1002.8999999999069","images/tree4.png","","","memory_trial","2","maybe_old","","","","","","",""
"html-keyboard-response","189","430645","0.0-15.0-0.73","1902","2","""event"",""trial"",""time""
""fullscreenenter"",""1"",""4039""
","
","
","""event"",""trial"",""time""
""fullscreenenter"",""1"",""4039""
","
","","","","","","null","<div style=""font-size:60px;"">+</div>","null","","fixation","","","","","","","","",""
"memory-trial","190","432758","0.0-15.0-1.73","1902","2","""event"",""trial"",""time""
""fullscreenenter"",""1"",""4039""
","
","
","""event"",""trial"",""time""
""fullscreenenter"",""1"",""4039""
","
","","","","","","1109.5","images/boat5.png","","","memory_trial","4","definitely_new","","","","","","",""
"html-keyboard-response","191","433264","0.0-15.0-0.74","1902","2","""event"",""trial"",""time""
""fullscreenenter"",""1"",""4039""
","
","
","""event"",""trial"",""time""
""fullscreenenter"",""1"",""4039""
","
","","","","","","null","<div style=""font-size:60px;"">+</div>","null","","fixation","","","","","","","","",""
"memory-trial","192","435197","0.0-15.0-1.74","1902","2","""event"",""trial"",""time""
""fullscreenenter"",""1"",""4039""
","
","
","""event"",""trial"",""time""
""fullscreenenter"",""1"",""4039""
","
","","","","","","931","images/train4.png","","","memory_trial","4","definitely_new","","","","","","",""
"html-keyboard-response","193","435702","0.0-15.0-0.75","1902","2","""event"",""trial"",""time""
""fullscreenenter"",""1"",""4039""
","
","
","""event"",""trial"",""time""
""fullscreenenter"",""1"",""4039""
","
","","","","","","null","<div style=""font-size:60px;"">+</div>","null","","fixation","","","","","","","","",""
"memory-trial","194","437455","0.0-15.0-1.75","1902","2","""event"",""trial"",""time""
""fullscreenenter"",""1"",""4039""
","
","
","""event"",""trial"",""time""
""fullscreenenter"",""1"",""4039""
","
","","","","","","748.3999999999069","images/boat2.png","","","memory_trial","4","definitely_new","","","","","","",""
"html-keyboard-response","195","437960","0.0-15.0-0.76","1902","2","""event"",""trial"",""time""
""fullscreenenter"",""1"",""4039""
","
","
","""event"",""trial"",""time""
""fullscreenenter"",""1"",""4039""
","
","","","","","","null","<div style=""font-size:60px;"">+</div>","null","","fixation","","","","","","","","",""
"memory-trial","196","439655","0.0-15.0-1.76","1902","2","""event"",""trial"",""time""
""fullscreenenter"",""1"",""4039""
","
","
","""event"",""trial"",""time""
""fullscreenenter"",""1"",""4039""
","
","","","","","","690.6999999999534","images/plane3.png","","","memory_trial","3","maybe_new","","","","","","",""
"html-keyboard-response","197","440160","0.0-15.0-0.77","1902","2","""event"",""trial"",""time""
""fullscreenenter"",""1"",""4039""
","
","
","""event"",""trial"",""time""
""fullscreenenter"",""1"",""4039""
","
","","","","","","null","<div style=""font-size:60px;"">+</div>","null","","fixation","","","","","","","","",""
"memory-trial","198","441878","0.0-15.0-1.77","1902","2","""event"",""trial"",""time""
""fullscreenenter"",""1"",""4039""
","
","
","""event"",""trial"",""time""
""fullscreenenter"",""1"",""4039""
","
","","","","","","714.8000000000466","images/table3.png","","","memory_trial","3","maybe_new","","","","","","",""
"html-keyboard-response","199","442383","0.0-15.0-0.78","1902","2","""event"",""trial"",""time""
""fullscreenenter"",""1"",""4039""
","
","
","""event"",""trial"",""time""
""fullscreenenter"",""1"",""4039""
","
","","","","","","null","<div style=""font-size:60px;"">+</div>","null","","fixation","","","","","","","","",""
"memory-trial","200","444653","0.0-15.0-1.78","1902","2","""event"",""trial"",""time""
""fullscreenenter"",""1"",""4039""
","
","
","""event"",""trial"",""time""
""fullscreenenter"",""1"",""4039""
","
","","","","","","1267.6000000000931","images/train5.png","","","memory_trial","4","definitely_new","","","","","","",""
"html-keyboard-response","201","445158","0.0-15.0-0.79","1902","2","""event"",""trial"",""time""
""fullscreenenter"",""1"",""4039""
","
","
","""event"",""trial"",""time""
""fullscreenenter"",""1"",""4039""
","
","","","","","","null","<div style=""font-size:60px;"">+</div>","null","","fixation","","","","","","","","",""
"memory-trial","202","446942","0.0-15.0-1.79","1902","2","""event"",""trial"",""time""
""fullscreenenter"",""1"",""4039""
","
","
","""event"",""trial"",""time""
""fullscreenenter"",""1"",""4039""
","
","","","","","","780.6000000000931","images/rodent3.png","","","memory_trial","1","definitely_old","","","","","","",""
"html-keyboard-response","203","447445","0.0-15.0-0.80","1902","2","""event"",""trial"",""time""
""fullscreenenter"",""1"",""4039""
","
","
","""event"",""trial"",""time""
""fullscreenenter"",""1"",""4039""
","
","","","","","","null","<div style=""font-size:60px;"">+</div>","null","","fixation","","","","","","","","",""
"memory-trial","204","449152","0.0-15.0-1.80","1902","2","""event"",""trial"",""time""
""fullscreenenter"",""1"",""4039""
","
","
","""event"",""trial"",""time""
""fullscreenenter"",""1"",""4039""
","
","","","","","","701.3999999999069","images/table1.png","","","memory_trial","4","definitely_new","","","","","","",""
"html-keyboard-response","205","449657","0.0-15.0-0.81","1902","2","""event"",""trial"",""time""
""fullscreenenter"",""1"",""4039""
","
","
","""event"",""trial"",""time""
""fullscreenenter"",""1"",""4039""
","
","","","","","","null","<div style=""font-size:60px;"">+</div>","null","","fixation","","","","","","","","",""
"memory-trial","206","451277","0.0-15.0-1.81","1902","2","""event"",""trial"",""time""
""fullscreenenter"",""1"",""4039""
","
","
","""event"",""trial"",""time""
""fullscreenenter"",""1"",""4039""
","
","","","","","","617.4000000001397","images/truck5.png","","","memory_trial","4","definitely_new","","","","","","",""
"html-keyboard-response","207","451782","0.0-15.0-0.82","1902","2","""event"",""trial"",""time""
""fullscreenenter"",""1"",""4039""
","
","
","""event"",""trial"",""time""
""fullscreenenter"",""1"",""4039""
","
","","","","","","null","<div style=""font-size:60px;"">+</div>","null","","fixation","","","","","","","","",""
"memory-trial","208","453767","0.0-15.0-1.82","1902","2","""event"",""trial"",""time""
""fullscreenenter"",""1"",""4039""
","
","
","""event"",""trial"",""time""
""fullscreenenter"",""1"",""4039""
","
","","","","","","981.1000000000931","images/horse4.png","","","memory_trial","3","maybe_new","","","","","","",""
"html-keyboard-response","209","454272","0.0-15.0-0.83","1902","2","""event"",""trial"",""time""
""fullscreenenter"",""1"",""4039""
","
","
","""event"",""trial"",""time""
""fullscreenenter"",""1"",""4039""
","
","","","","","","null","<div style=""font-size:60px;"">+</div>","null","","fixation","","","","","","","","",""
"memory-trial","210","456350","0.0-15.0-1.83","1902","2","""event"",""trial"",""time""
""fullscreenenter"",""1"",""4039""
","
","
","""event"",""trial"",""time""
""fullscreenenter"",""1"",""4039""
","
","","","","","","1075.1999999999534","images/cactus3.png","","","memory_trial","3","maybe_new","","","","","","",""
"html-keyboard-response","211","456855","0.0-15.0-0.84","1902","2","""event"",""trial"",""time""
""fullscreenenter"",""1"",""4039""
","
","
","""event"",""trial"",""time""
""fullscreenenter"",""1"",""4039""
","
","","","","","","null","<div style=""font-size:60px;"">+</div>","null","","fixation","","","","","","","","",""
"memory-trial","212","458856","0.0-15.0-1.84","1902","2","""event"",""trial"",""time""
""fullscreenenter"",""1"",""4039""
","
","
","""event"",""trial"",""time""
""fullscreenenter"",""1"",""4039""
","
","","","","","","995.8000000000466","images/bush1.png","","","memory_trial","1","definitely_old","","","","","","",""
"html-keyboard-response","213","459357","0.0-15.0-0.85","1902","2","""event"",""trial"",""time""
""fullscreenenter"",""1"",""4039""
","
","
","""event"",""trial"",""time""
""fullscreenenter"",""1"",""4039""
","
","","","","","","null","<div style=""font-size:60px;"">+</div>","null","","fixation","","","","","","","","",""
"memory-trial","214","461169","0.0-15.0-1.85","1902","2","""event"",""trial"",""time""
""fullscreenenter"",""1"",""4039""
","
","
","""event"",""trial"",""time""
""fullscreenenter"",""1"",""4039""
","
","","","","","","804.8999999999069","images/chair4.png","","","memory_trial","4","definitely_new","","","","","","",""
"html-keyboard-response","215","461674","0.0-15.0-0.86","1902","2","""event"",""trial"",""time""
""fullscreenenter"",""1"",""4039""
","
","
","""event"",""trial"",""time""
""fullscreenenter"",""1"",""4039""
","
","","","","","","null","<div style=""font-size:60px;"">+</div>","null","","fixation","","","","","","","","",""
"memory-trial","216","465255","0.0-15.0-1.86","1902","2","""event"",""trial"",""time""
""fullscreenenter"",""1"",""4039""
","
","
","""event"",""trial"",""time""
""fullscreenenter"",""1"",""4039""
","
","","","","","","2577.5","images/truck2.png","","","memory_trial","4","definitely_new","","","","","","",""
"html-keyboard-response","217","465760","0.0-15.0-0.87","1902","2","""event"",""trial"",""time""
""fullscreenenter"",""1"",""4039""
","
","
","""event"",""trial"",""time""
""fullscreenenter"",""1"",""4039""
","
","","","","","","null","<div style=""font-size:60px;"">+</div>","null","","fixation","","","","","","","","",""
"memory-trial","218","468726","0.0-15.0-1.87","1902","2","""event"",""trial"",""time""
""fullscreenenter"",""1"",""4039""
","
","
","""event"",""trial"",""time""
""fullscreenenter"",""1"",""4039""
","
","","","","","","1962.5","images/table4.png","","","memory_trial","3","maybe_new","","","","","","",""
"html-keyboard-response","219","469232","0.0-15.0-0.88","1902","2","""event"",""trial"",""time""
""fullscreenenter"",""1"",""4039""
","
","
","""event"",""trial"",""time""
""fullscreenenter"",""1"",""4039""
","
","","","","","","null","<div style=""font-size:60px;"">+</div>","null","","fixation","","","","","","","","",""
"memory-trial","220","470896","0.0-15.0-1.88","1902","2","""event"",""trial"",""time""
""fullscreenenter"",""1"",""4039""
","
","
","""event"",""trial"",""time""
""fullscreenenter"",""1"",""4039""
","
","","","","","","659","images/horse1.png","","","memory_trial","4","definitely_new","","","","","","",""
"html-keyboard-response","221","471397","0.0-15.0-0.89","1902","2","""event"",""trial"",""time""
""fullscreenenter"",""1"",""4039""
","
","
","""event"",""trial"",""time""
""fullscreenenter"",""1"",""4039""
","
","","","","","","null","<div style=""font-size:60px;"">+</div>","null","","fixation","","","","","","","","",""
"memory-trial","222","473071","0.0-15.0-1.89","1902","2","""event"",""trial"",""time""
""fullscreenenter"",""1"",""4039""
","
","
","""event"",""trial"",""time""
""fullscreenenter"",""1"",""4039""
","
","","","","","","669.5","images/straw5.png","","","memory_trial","1","definitely_old","","","","","","",""
"html-keyboard-response","223","473574","0.0-15.0-0.90","1902","2","""event"",""trial"",""time""
""fullscreenenter"",""1"",""4039""
","
","
","""event"",""trial"",""time""
""fullscreenenter"",""1"",""4039""
","
","","","","","","null","<div style=""font-size:60px;"">+</div>","null","","fixation","","","","","","","","",""
"memory-trial","224","475333","0.0-15.0-1.90","1902","2","""event"",""trial"",""time""
""fullscreenenter"",""1"",""4039""
","
","
","""event"",""trial"",""time""
""fullscreenenter"",""1"",""4039""
","
","","","","","","757.1999999999534","images/goat1.png","","","memory_trial","4","definitely_new","","","","","","",""
"html-keyboard-response","225","475838","0.0-15.0-0.91","1902","2","""event"",""trial"",""time""
""fullscreenenter"",""1"",""4039""
","
","
","""event"",""trial"",""time""
""fullscreenenter"",""1"",""4039""
","
","","","","","","null","<div style=""font-size:60px;"">+</div>","null","","fixation","","","","","","","","",""
"memory-trial","226","477655","0.0-15.0-1.91","1902","2","""event"",""trial"",""time""
""fullscreenenter"",""1"",""4039""
","
","
","""event"",""trial"",""time""
""fullscreenenter"",""1"",""4039""
","
","","","","","","813.3999999999069","images/dog3.png","","","memory_trial","2","maybe_old","","","","","","",""
"html-keyboard-response","227","478160","0.0-15.0-0.92","1902","2","""event"",""trial"",""time""
""fullscreenenter"",""1"",""4039""
","
","
","""event"",""trial"",""time""
""fullscreenenter"",""1"",""4039""
","
","","","","","","null","<div style=""font-size:60px;"">+</div>","null","","fixation","","","","","","","","",""
"memory-trial","228","480389","0.0-15.0-1.92","1902","2","""event"",""trial"",""time""
""fullscreenenter"",""1"",""4039""
","
","
","""event"",""trial"",""time""
""fullscreenenter"",""1"",""4039""
","
","","","","","","1227.6000000000931","images/plane4.png","","","memory_trial","4","definitely_new","","","","","","",""
"html-keyboard-response","229","480894","0.0-15.0-0.93","1902","2","""event"",""trial"",""time""
""fullscreenenter"",""1"",""4039""
","
","
","""event"",""trial"",""time""
""fullscreenenter"",""1"",""4039""
","
","","","","","","null","<div style=""font-size:60px;"">+</div>","null","","fixation","","","","","","","","",""
"memory-trial","230","482641","0.0-15.0-1.93","1902","2","""event"",""trial"",""time""
""fullscreenenter"",""1"",""4039""
","
","
","""event"",""trial"",""time""
""fullscreenenter"",""1"",""4039""
","
","","","","","","740.8000000000466","images/horse2.png","","","memory_trial","4","definitely_new","","","","","","",""
"html-keyboard-response","231","483147","0.0-15.0-0.94","1902","2","""event"",""trial"",""time""
""fullscreenenter"",""1"",""4039""
","
","
","""event"",""trial"",""time""
""fullscreenenter"",""1"",""4039""
","
","","","","","","null","<div style=""font-size:60px;"">+</div>","null","","fixation","","","","","","","","",""
"memory-trial","232","484992","0.0-15.0-1.94","1902","2","""event"",""trial"",""time""
""fullscreenenter"",""1"",""4039""
","
","
","""event"",""trial"",""time""
""fullscreenenter"",""1"",""4039""
","
","","","","","","840.8000000000466","images/truck3.png","","","memory_trial","4","definitely_new","","","","","","",""
"html-keyboard-response","233","485497","0.0-15.0-0.95","1902","2","""event"",""trial"",""time""
""fullscreenenter"",""1"",""4039""
","
","
","""event"",""trial"",""time""
""fullscreenenter"",""1"",""4039""
","
","","","","","","null","<div style=""font-size:60px;"">+</div>","null","","fixation","","","","","","","","",""
"memory-trial","234","487322","0.0-15.0-1.95","1902","2","""event"",""trial"",""time""
""fullscreenenter"",""1"",""4039""
","
","
","""event"",""trial"",""time""
""fullscreenenter"",""1"",""4039""
","
","","","","","","818.1000000000931","images/feline4.png","","","memory_trial","1","definitely_old","","","","","","",""
"html-keyboard-response","235","487825","0.0-15.0-0.96","1902","2","""event"",""trial"",""time""
""fullscreenenter"",""1"",""4039""
","
","
","""event"",""trial"",""time""
""fullscreenenter"",""1"",""4039""
","
","","","","","","null","<div style=""font-size:60px;"">+</div>","null","","fixation","","","","","","","","",""
"memory-trial","236","489735","0.0-15.0-1.96","1902","2","""event"",""trial"",""time""
""fullscreenenter"",""1"",""4039""
","
","
","""event"",""trial"",""time""
""fullscreenenter"",""1"",""4039""
","
","","","","","","906.3999999999069","images/sheep1.png","","","memory_trial","4","definitely_new","","","","","","",""
"html-keyboard-response","237","490240","0.0-15.0-0.97","1902","2","""event"",""trial"",""time""
""fullscreenenter"",""1"",""4039""
","
","
","""event"",""trial"",""time""
""fullscreenenter"",""1"",""4039""
","
","","","","","","null","<div style=""font-size:60px;"">+</div>","null","","fixation","","","","","","","","",""
"memory-trial","238","491848","0.0-15.0-1.97","1902","2","""event"",""trial"",""time""
""fullscreenenter"",""1"",""4039""
","
","
","""event"",""trial"",""time""
""fullscreenenter"",""1"",""4039""
","
","","","","","","603.0999999998603","images/cow5.png","","","memory_trial","3","maybe_new","","","","","","",""
"html-keyboard-response","239","492353","0.0-15.0-0.98","1902","2","""event"",""trial"",""time""
""fullscreenenter"",""1"",""4039""
","
","
","""event"",""trial"",""time""
""fullscreenenter"",""1"",""4039""
","
","","","","","","null","<div style=""font-size:60px;"">+</div>","null","","fixation","","","","","","","","",""
"memory-trial","240","493928","0.0-15.0-1.98","1902","2","""event"",""trial"",""time""
""fullscreenenter"",""1"",""4039""
","
","
","""event"",""trial"",""time""
""fullscreenenter"",""1"",""4039""
","
","","","","","","569.8999999999069","images/plane5.png","","","memory_trial","3","maybe_new","","","","","","",""
"html-keyboard-response","241","494431","0.0-15.0-0.99","1902","2","""event"",""trial"",""time""
""fullscreenenter"",""1"",""4039""
","
","
","""event"",""trial"",""time""
""fullscreenenter"",""1"",""4039""
","
","","","","","","null","<div style=""font-size:60px;"">+</div>","null","","fixation","","","","","","","","",""
"memory-trial","242","496086","0.0-15.0-1.99","1902","2","""event"",""trial"",""time""
""fullscreenenter"",""1"",""4039""
","
","
","""event"",""trial"",""time""
""fullscreenenter"",""1"",""4039""
","
","","","","","","652.1999999999534","images/boat4.png","","","memory_trial","3","maybe_new","","","","","","",""
"html-keyboard-response","243","496591","0.0-15.0-0.100","1902","2","""event"",""trial"",""time""
""fullscreenenter"",""1"",""4039""
","
","
","""event"",""trial"",""time""
""fullscreenenter"",""1"",""4039""
","
","","","","","","null","<div style=""font-size:60px;"">+</div>","null","","fixation","","","","","","","","",""
"memory-trial","244","498391","0.0-15.0-1.100","1902","2","""event"",""trial"",""time""
""fullscreenenter"",""1"",""4039""
","
","
","""event"",""trial"",""time""
""fullscreenenter"",""1"",""4039""
","
","","","","","","796.3999999999069","images/rodent4.png","","","memory_trial","1","definitely_old","","","","","","",""
"html-keyboard-response","245","498895","0.0-15.0-0.101","1902","2","""event"",""trial"",""time""
""fullscreenenter"",""1"",""4039""
","
","
","""event"",""trial"",""time""
""fullscreenenter"",""1"",""4039""
","
","","","","","","null","<div style=""font-size:60px;"">+</div>","null","","fixation","","","","","","","","",""
"memory-trial","246","501902","0.0-15.0-1.101","1902","2","""event"",""trial"",""time""
""fullscreenenter"",""1"",""4039""
","
","
","""event"",""trial"",""time""
""fullscreenenter"",""1"",""4039""
","
","","","","","","2004.5","images/cactus2.png","","","memory_trial","2","maybe_old","","","","","","",""
"html-button-response","247","530145","0.0-15.0-2.101-0.101","1902","2","""event"",""trial"",""time""
""fullscreenenter"",""1"",""4039""
","
","
","""event"",""trial"",""time""
""fullscreenenter"",""1"",""4039""
","
","","","","","","28241.199999999953","<p> Take a break! </p><p> Click the button to continue. </p>","0","","break","","","","","","","","",""
"html-keyboard-response","248","530649","0.0-15.0-0.102","1902","2","""event"",""trial"",""time""
""fullscreenenter"",""1"",""4039""
","
","
","""event"",""trial"",""time""
""fullscreenenter"",""1"",""4039""
","
","","","","","","null","<div style=""font-size:60px;"">+</div>","null","","fixation","","","","","","","","",""
"memory-trial","249","533105","0.0-15.0-1.102","1902","2","""event"",""trial"",""time""
""fullscreenenter"",""1"",""4039""
","
","
","""event"",""trial"",""time""
""fullscreenenter"",""1"",""4039""
","
","","","","","","1449.6000000000931","images/sofa5.png","","","memory_trial","3","maybe_new","","","","","","",""
"html-keyboard-response","250","533610","0.0-15.0-0.103","1902","2","""event"",""trial"",""time""
""fullscreenenter"",""1"",""4039""
","
","
","""event"",""trial"",""time""
""fullscreenenter"",""1"",""4039""
","
","","","","","","null","<div style=""font-size:60px;"">+</div>","null","","fixation","","","","","","","","",""
"memory-trial","251","535600","0.0-15.0-1.103","1902","2","""event"",""trial"",""time""
""fullscreenenter"",""1"",""4039""
","
","
","""event"",""trial"",""time""
""fullscreenenter"",""1"",""4039""
","
","","","","","","985.8999999999069","images/banana2.png","","","memory_trial","1","definitely_old","","","","","","",""
"html-keyboard-response","252","536106","0.0-15.0-0.104","1902","2","""event"",""trial"",""time""
""fullscreenenter"",""1"",""4039""
","
","
","""event"",""trial"",""time""
""fullscreenenter"",""1"",""4039""
","
","","","","","","null","<div style=""font-size:60px;"">+</div>","null","","fixation","","","","","","","","",""
"memory-trial","253","537679","0.0-15.0-1.104","1902","2","""event"",""trial"",""time""
""fullscreenenter"",""1"",""4039""
","
","
","""event"",""trial"",""time""
""fullscreenenter"",""1"",""4039""
","
","","","","","","570","images/banana4.png","","","memory_trial","1","definitely_old","","","","","","",""
"html-keyboard-response","254","538184","0.0-15.0-0.105","1902","2","""event"",""trial"",""time""
""fullscreenenter"",""1"",""4039""
","
","
","""event"",""trial"",""time""
""fullscreenenter"",""1"",""4039""
","
","","","","","","null","<div style=""font-size:60px;"">+</div>","null","","fixation","","","","","","","","",""
"memory-trial","255","540303","0.0-15.0-1.105","1902","2","""event"",""trial"",""time""
""fullscreenenter"",""1"",""4039""
","
","
","""event"",""trial"",""time""
""fullscreenenter"",""1"",""4039""
","
","","","","","","1115.5","images/dog1.png","","","memory_trial","3","maybe_new","","","","","","",""
"html-keyboard-response","256","540808","0.0-15.0-0.106","1902","2","""event"",""trial"",""time""
""fullscreenenter"",""1"",""4039""
","
","
","""event"",""trial"",""time""
""fullscreenenter"",""1"",""4039""
","
","","","","","","null","<div style=""font-size:60px;"">+</div>","null","","fixation","","","","","","","","",""
"memory-trial","257","542457","0.0-15.0-1.106","1902","2","""event"",""trial"",""time""
""fullscreenenter"",""1"",""4039""
","
","
","""event"",""trial"",""time""
""fullscreenenter"",""1"",""4039""
","
","","","","","","643.5999999998603","images/goat3.png","","","memory_trial","4","definitely_new","","","","","","",""
"html-keyboard-response","258","542962","0.0-15.0-0.107","1902","2","""event"",""trial"",""time""
""fullscreenenter"",""1"",""4039""
","
","
","""event"",""trial"",""time""
""fullscreenenter"",""1"",""4039""
","
","","","","","","null","<div style=""font-size:60px;"">+</div>","null","","fixation","","","","","","","","",""
"memory-trial","259","544686","0.0-15.0-1.107","1902","2","""event"",""trial"",""time""
""fullscreenenter"",""1"",""4039""
","
","
","""event"",""trial"",""time""
""fullscreenenter"",""1"",""4039""
","
","","","","","","722","images/flower2.png","","","memory_trial","1","definitely_old","","","","","","",""
"html-keyboard-response","260","545191","0.0-15.0-0.108","1902","2","""event"",""trial"",""time""
""fullscreenenter"",""1"",""4039""
","
","
","""event"",""trial"",""time""
""fullscreenenter"",""1"",""4039""
","
","","","","","","null","<div style=""font-size:60px;"">+</div>","null","","fixation","","","","","","","","",""
"memory-trial","261","546862","0.0-15.0-1.108","1902","2","""event"",""trial"",""time""
""fullscreenenter"",""1"",""4039""
","
","
","""event"",""trial"",""time""
""fullscreenenter"",""1"",""4039""
","
","","","","","","669","images/flower1.png","","","memory_trial","1","definitely_old","","","","","","",""
"html-keyboard-response","262","547368","0.0-15.0-0.109","1902","2","""event"",""trial"",""time""
""fullscreenenter"",""1"",""4039""
","
","
","""event"",""trial"",""time""
""fullscreenenter"",""1"",""4039""
","
","","","","","","null","<div style=""font-size:60px;"">+</div>","null","","fixation","","","","","","","","",""
"memory-trial","263","548993","0.0-15.0-1.109","1902","2","""event"",""trial"",""time""
""fullscreenenter"",""1"",""4039""
","
","
","""event"",""trial"",""time""
""fullscreenenter"",""1"",""4039""
","
","","","","","","620.2000000001863","images/straw4.png","","","memory_trial","1","definitely_old","","","","","","",""
"html-keyboard-response","264","549498","0.0-15.0-0.110","1902","2","""event"",""trial"",""time""
""fullscreenenter"",""1"",""4039""
","
","
","""event"",""trial"",""time""
""fullscreenenter"",""1"",""4039""
","
","","","","","","null","<div style=""font-size:60px;"">+</div>","null","","fixation","","","","","","","","",""
"memory-trial","265","553120","0.0-15.0-1.110","1902","2","""event"",""trial"",""time""
""fullscreenenter"",""1"",""4039""
","
","
","""event"",""trial"",""time""
""fullscreenenter"",""1"",""4039""
","
","","","","","","2617.9000000001397","images/tree5.png","","","memory_trial","4","definitely_new","","","","","","",""
"html-keyboard-response","266","553626","0.0-15.0-0.111","1902","2","""event"",""trial"",""time""
""fullscreenenter"",""1"",""4039""
","
","
","""event"",""trial"",""time""
""fullscreenenter"",""1"",""4039""
","
","","","","","","null","<div style=""font-size:60px;"">+</div>","null","","fixation","","","","","","","","",""
"memory-trial","267","555250","0.0-15.0-1.111","1902","2","""event"",""trial"",""time""
""fullscreenenter"",""1"",""4039""
","
","
","""event"",""trial"",""time""
""fullscreenenter"",""1"",""4039""
","
","","","","","","618.1000000000931","images/bed3.png","","","memory_trial","4","definitely_new","","","","","","",""
"html-keyboard-response","268","555752","0.0-15.0-0.112","1902","2","""event"",""trial"",""time""
""fullscreenenter"",""1"",""4039""
","
","
","""event"",""trial"",""time""
""fullscreenenter"",""1"",""4039""
","
","","","","","","null","<div style=""font-size:60px;"">+</div>","null","","fixation","","","","","","","","",""
"memory-trial","269","557353","0.0-15.0-1.112","1902","2","""event"",""trial"",""time""
""fullscreenenter"",""1"",""4039""
","
","
","""event"",""trial"",""time""
""fullscreenenter"",""1"",""4039""
","
","","","","","","596.2000000001863","images/bed4.png","","","memory_trial","4","definitely_new","","","","","","",""
"html-keyboard-response","270","557858","0.0-15.0-0.113","1902","2","""event"",""trial"",""time""
""fullscreenenter"",""1"",""4039""
","
","
","""event"",""trial"",""time""
""fullscreenenter"",""1"",""4039""
","
","","","","","","null","<div style=""font-size:60px;"">+</div>","null","","fixation","","","","","","","","",""
"memory-trial","271","559535","0.0-15.0-1.113","1902","2","""event"",""trial"",""time""
""fullscreenenter"",""1"",""4039""
","
","
","""event"",""trial"",""time""
""fullscreenenter"",""1"",""4039""
","
","","","","","","674.3999999999069","images/feline1.png","","","memory_trial","3","maybe_new","","","","","","",""
"html-keyboard-response","272","560040","0.0-15.0-0.114","1902","2","""event"",""trial"",""time""
""fullscreenenter"",""1"",""4039""
","
","
","""event"",""trial"",""time""
""fullscreenenter"",""1"",""4039""
","
","","","","","","null","<div style=""font-size:60px;"">+</div>","null","","fixation","","","","","","","","",""
"memory-trial","273","561794","0.0-15.0-1.114","1902","2","""event"",""trial"",""time""
""fullscreenenter"",""1"",""4039""
","
","
","""event"",""trial"",""time""
""fullscreenenter"",""1"",""4039""
","
","","","","","","747.8999999999069","images/bed2.png","","","memory_trial","3","maybe_new","","","","","","",""
"html-keyboard-response","274","562299","0.0-15.0-0.115","1902","2","""event"",""trial"",""time""
""fullscreenenter"",""1"",""4039""
","
","
","""event"",""trial"",""time""
""fullscreenenter"",""1"",""4039""
","
","","","","","","null","<div style=""font-size:60px;"">+</div>","null","","fixation","","","","","","","","",""
"memory-trial","275","564359","0.0-15.0-1.115","1902","2","""event"",""trial"",""time""
""fullscreenenter"",""1"",""4039""
","
","
","""event"",""trial"",""time""
""fullscreenenter"",""1"",""4039""
","
","","","","","","1058.0999999998603","images/flower3.png","","","memory_trial","3","maybe_new","","","","","","",""
"html-keyboard-response","276","564864","0.0-15.0-0.116","1902","2","""event"",""trial"",""time""
""fullscreenenter"",""1"",""4039""
","
","
","""event"",""trial"",""time""
""fullscreenenter"",""1"",""4039""
","
","","","","","","null","<div style=""font-size:60px;"">+</div>","null","","fixation","","","","","","","","",""
"memory-trial","277","566489","0.0-15.0-1.116","1902","2","""event"",""trial"",""time""
""fullscreenenter"",""1"",""4039""
","
","
","""event"",""trial"",""time""
""fullscreenenter"",""1"",""4039""
","
","","","","","","619.3000000000466","images/orange5.png","","","memory_trial","1","definitely_old","","","","","","",""
"html-keyboard-response","278","566995","0.0-15.0-0.117","1902","2","""event"",""trial"",""time""
""fullscreenenter"",""1"",""4039""
","
","
","""event"",""trial"",""time""
""fullscreenenter"",""1"",""4039""
","
","","","","","","null","<div style=""font-size:60px;"">+</div>","null","","fixation","","","","","","","","",""
"memory-trial","279","569015","0.0-15.0-1.117","1902","2","""event"",""trial"",""time""
""fullscreenenter"",""1"",""4039""
","
","
","""event"",""trial"",""time""
""fullscreenenter"",""1"",""4039""
","
","","","","","","1017.3999999999069","images/plane1.png","","","memory_trial","3","maybe_new","","","","","","",""
"html-keyboard-response","280","569520","0.0-15.0-0.118","1902","2","""event"",""trial"",""time""
""fullscreenenter"",""1"",""4039""
","
","
","""event"",""trial"",""time""
""fullscreenenter"",""1"",""4039""
","
","","","","","","null","<div style=""font-size:60px;"">+</div>","null","","fixation","","","","","","","","",""
"memory-trial","281","571662","0.0-15.0-1.118","1902","2","""event"",""trial"",""time""
""fullscreenenter"",""1"",""4039""
","
","
","""event"",""trial"",""time""
""fullscreenenter"",""1"",""4039""
","
","","","","","","1140.1999999999534","images/banana3.png","","","memory_trial","2","maybe_old","","","","","","",""
"html-keyboard-response","282","572167","0.0-15.0-0.119","1902","2","""event"",""trial"",""time""
""fullscreenenter"",""1"",""4039""
","
","
","""event"",""trial"",""time""
""fullscreenenter"",""1"",""4039""
","
","","","","","","null","<div style=""font-size:60px;"">+</div>","null","","fixation","","","","","","","","",""
"memory-trial","283","574803","0.0-15.0-1.119","1902","2","""event"",""trial"",""time""
""fullscreenenter"",""1"",""4039""
","
","
","""event"",""trial"",""time""
""fullscreenenter"",""1"",""4039""
","
","","","","","","1629.5","images/flower4.png","","","memory_trial","2","maybe_old","","","","","","",""
"preload","284","576487","0.0-16.0","1902","2","""event"",""trial"",""time""
""fullscreenenter"",""1"",""4039""
","
","
","""event"",""trial"",""time""
""fullscreenenter"",""1"",""4039""
","
","true","false","[]","[]","[]","","","","","","","","","","","","","",""
"learning-instructions","285","583191","0.0-17.0-0.0-0.0-0.0","1902","2","""event"",""trial"",""time""
""fullscreenenter"",""1"",""4039""
","
","
","""event"",""trial"",""time""
""fullscreenenter"",""1"",""4039""
","
","","","","","","3812","<p> We're now going to ask you to buy fruit again. </p>","","0","instructions","","","","","","","","",""
"learning-instructions","286","589109","0.0-17.0-0.0-0.0-0.1","1902","2","""event"",""trial"",""time""
""fullscreenenter"",""1"",""4039""
","
","
","""event"",""trial"",""time""
""fullscreenenter"",""1"",""4039""
","
","","","","","","1069.2000000001863","<p> On each trial, you will see a fruit. Select the store where you think you can buy the fruit. </p>","","0","instructions","","","","","","","","",""
"learning-instructions","287","596961","0.0-17.0-0.0-0.0-0.2","1902","2","""event"",""trial"",""time""
""fullscreenenter"",""1"",""4039""
","
","
","""event"",""trial"",""time""
""fullscreenenter"",""1"",""4039""
","
","","","","","","788.1000000000931","<p> To make your selection, think about what you learned last week. You will NOT receive any feedback about your choice. </p>","","0","instructions","","","","","","","","",""
"learning-instructions","288","608547","0.0-17.0-0.0-0.0-0.3","1902","2","""event"",""trial"",""time""
""fullscreenenter"",""1"",""4039""
","
","
","""event"",""trial"",""time""
""fullscreenenter"",""1"",""4039""
","
","","","","","","3997.1999999999534","<p> You should use the 1 key to select the store on the left, the 2 key to select the store in the middle, and the 3 key to select the store on the right. </p><br><div class=""choice-mem-instructions-grid""> <div class=""choice-mem-option""><img src=""images/fruit_choice1.png"" class=""choice-mem-option-img"" stage=""instructions"" position=""0"" ><div class=""choice-mem-option-text""> Press ""1."" </div></div><div class=""choice-mem-option""><img src=""images/fruit_choice2.png"" class=""choice-mem-option-img"" stage=""instructions"" position=""1"" ><div class=""choice-mem-option-text""> Press ""2."" </div></div><div class=""choice-mem-option""><img src=""images/fruit_choice3.png"" class=""choice-mem-option-img"" stage=""instructions"" position=""2"" ><div class=""choice-mem-option-text""> Press ""3."" </div></div></div>","","0","instructions","","","","","","","","",""
"learning-instructions","289","621784","0.0-17.0-0.0-0.0-0.4","1902","2","""event"",""trial"",""time""
""fullscreenenter"",""1"",""4039""
","
","
","""event"",""trial"",""time""
""fullscreenenter"",""1"",""4039""
","
","","","","","","6970.800000000047","<p> You will have 10 seconds to make each selection. Try to respond before time runs out! </p>","","0","instructions","","","","","","","","",""
"learning-instructions","290","643473","0.0-17.0-0.0-1.0","1902","2","""event"",""trial"",""time""
""fullscreenenter"",""1"",""4039""
","
","
","""event"",""trial"",""time""
""fullscreenenter"",""1"",""4039""
","
","","","","","","19627.5","<p> You are now ready to begin the game. </p>","","0","instructions","","","","","","","","",""
"html-keyboard-response","291","644081","0.0-17.0-0.0-2.0-0.0","1902","2","""event"",""trial"",""time""
""fullscreenenter"",""1"",""4039""
","
","
","""event"",""trial"",""time""
""fullscreenenter"",""1"",""4039""
","
","","","","","","null","<div style=""font-size:60px;"">+</div>","null","","fixation","","","","","","","","",""
"choice-memory-trial","292","646127","0.0-17.0-0.0-2.0-1.0","1902","2","""event"",""trial"",""time""
""fullscreenenter"",""1"",""4039""
","
","
","""event"",""trial"",""time""
""fullscreenenter"",""1"",""4039""
","
