"trial_type","trial_index","time_elapsed","internal_node_id","subject_id","task_version","interactions","blur_events","focus_events","fullscreenenter_events","fullscreenexit_events","success","timeout","failed_images","failed_audio","failed_video","rt","stimulus","response","button_pressed","task_part","key_press","answer","correct","left_choice","middle_choice","right_choice","choice_positions","option_selected","block"
"pavlovia","0","13","0.0-0.0","1633","2","""event"",""trial"",""time""
""fullscreenenter"",""1"",""1502""
","
","
","""event"",""trial"",""time""
""fullscreenenter"",""1"",""1502""
","
","","","","","","","","","","","","","","","","","","",""
"fullscreen","1","2429","0.0-1.0","1633","2","""event"",""trial"",""time""
""fullscreenenter"",""1"",""1502""
","
","
","""event"",""trial"",""time""
""fullscreenenter"",""1"",""1502""
","
","true","","","","","","","","","","","","","","","","","",""
"preload","2","3101","0.0-2.0","1633","2","""event"",""trial"",""time""
""fullscreenenter"",""1"",""1502""
","
","
","""event"",""trial"",""time""
""fullscreenenter"",""1"",""1502""
","
","true","false","[]","[]","[]","","","","","","","","","","","","","",""
"audio-keyboard-response","3","5296","0.0-3.0","1633","2","""event"",""trial"",""time""
""fullscreenenter"",""1"",""1502""
","
","
","""event"",""trial"",""time""
""fullscreenenter"",""1"",""1502""
","
","","","","","","2189.3333333333335","audio/beep_loop.wav"," ","","","","","","","","","","",""
"audio-button-response","4","8189","0.0-4.0","1633","2","""event"",""trial"",""time""
""fullscreenenter"",""1"",""1502""
","
","
","""event"",""trial"",""time""
""fullscreenenter"",""1"",""1502""
","
","","","","","","2888","audio/turtle.wav","3","","","","","","","","","","",""
"audio-button-response","5","10663","0.0-5.0","1633","2","""event"",""trial"",""time""
""fullscreenenter"",""1"",""1502""
","
","
","""event"",""trial"",""time""
""fullscreenenter"",""1"",""1502""
","
","","","","","","1461","audio/shark.wav","2","","","","","","","","","","",""
"preload","6","13169","0.0-6.0","1633","2","""event"",""trial"",""time""
""fullscreenenter"",""1"",""1502""
","
","
","""event"",""trial"",""time""
""fullscreenenter"",""1"",""1502""
","
","true","false","[]","[]","[]","","","","","","","","","","","","","",""
"learning-instructions","7","22168","0.0-7.0-0.0","1633","2","""event"",""trial"",""time""
""fullscreenenter"",""1"",""1502""
","
","
","""event"",""trial"",""time""
""fullscreenenter"",""1"",""1502""
","
","","","","","","4190.5","<p> Welcome back! </p><p> Last week, you had to make choices about lots of different items.  </p>","","0","instructions","","","","","","","","",""
"learning-instructions","8","27179","0.0-7.0-0.1","1633","2","""event"",""trial"",""time""
""fullscreenenter"",""1"",""1502""
","
","
","""event"",""trial"",""time""
""fullscreenenter"",""1"",""1502""
","
","","","","","","702.5","<p> Today, we are going to ask you to try to remember all the items. </p>","","0","instructions","","","","","","","","",""
"learning-instructions","9","37874","0.0-7.0-0.2","1633","2","""event"",""trial"",""time""
""fullscreenenter"",""1"",""1502""
","
","
","""event"",""trial"",""time""
""fullscreenenter"",""1"",""1502""
","
","","","","","","548.0999999046326","<p> On every trial, you will see an image. </p><p> The image may be an OLD image you saw during the games last week or it may be a NEW image that was not presented. </p>","","0","instructions","","","","","","","","",""
"learning-instructions","10","47135","0.0-7.0-0.3","1633","2","""event"",""trial"",""time""
""fullscreenenter"",""1"",""1502""
","
","
","""event"",""trial"",""time""
""fullscreenenter"",""1"",""1502""
","
","","","","","","737.1000001430511","<p> You need to select whether the image is:  </p><p>  'Definitely old', 'Maybe old', 'Maybe new', or 'Definitely new.'  </p><div class=""mem-choice-instructions-grid""><div class=""choice-option"" id=""choice-option-1"" ><img src=""images/definitely_old_1.png"" id=""choice-option-img-1"" class=""choice-option-img"" stage=""1""></div><div class=""choice-option"" id=""choice-option-2"" ><img src=""images/maybe_old_1.png"" id=""choice-option-img-2"" class=""choice-option-img"" stage=""1""></div><div class=""choice-option"" id=""choice-option-3"" ><img src=""images/maybe_new_1.png"" id=""choice-option-img-3"" class=""choice-option-img"" stage=""1""></div><div class=""choice-option"" id=""choice-option-4"" > <img src=""images/definitely_new_1.png"" id=""choice-option-img-4"" class=""choice-option-img"" stage=""1""></div></div>","","0","instructions","","","","","","","","",""
"learning-instructions","11","54953","0.0-7.0-0.4","1633","2","""event"",""trial"",""time""
""fullscreenenter"",""1"",""1502""
","
","
","""event"",""trial"",""time""
""fullscreenenter"",""1"",""1502""
","
","","","","","","1105.7999999523163","<p> You should use the 1, 2, 3, and 4 keys to make your responses.  </p><div class=""mem-choice-instructions-grid""><div class=""choice-option"" id=""choice-option-1"" ><img src=""images/definitely_old.png"" id=""choice-option-img-1"" class=""choice-option-img"" stage=""1""></div><div class=""choice-option"" id=""choice-option-2"" ><img src=""images/maybe_old.png"" id=""choice-option-img-2"" class=""choice-option-img"" stage=""1""></div><div class=""choice-option"" id=""choice-option-3"" ><img src=""images/maybe_new.png"" id=""choice-option-img-3"" class=""choice-option-img"" stage=""1""></div><div class=""choice-option"" id=""choice-option-4"" > <img src=""images/definitely_new.png"" id=""choice-option-img-4"" class=""choice-option-img"" stage=""1""></div></div>","","0","instructions","","","","","","","","",""
"learning-instructions","12","63699","0.0-7.0-0.5","1633","2","""event"",""trial"",""time""
""fullscreenenter"",""1"",""1502""
","
","
","""event"",""trial"",""time""
""fullscreenenter"",""1"",""1502""
","
","","","","","","1978.2000000476837","<p> You will have 10 seconds to make each response.  </p><p>  Make sure to respond before time runs out! </p>","","0","instructions","","","","","","","","",""
"learning-instructions","13","71733","0.0-7.0-0.6","1633","2","""event"",""trial"",""time""
""fullscreenenter"",""1"",""1502""
","
","
","""event"",""trial"",""time""
""fullscreenenter"",""1"",""1502""
","
","","","","","","442.10000014305115","<p> Today, you will see each image ONCE only.  </p><p>  That means none of the images will repeat. </p>","","0","instructions","","","","","","","","",""
"learning-instructions","14","84783","0.0-7.0-0.7","1633","2","""event"",""trial"",""time""
""fullscreenenter"",""1"",""1502""
","
","
","""event"",""trial"",""time""
""fullscreenenter"",""1"",""1502""
","
","","","","","","361.7999999523163","<p> Before you play the real game, it is time to practice. </p><p>  Just like in the real game, some of the images in the practice will be ones you have seen before. </p><p>  Others will be entirely new. </p>","","0","instructions","","","","","","","","",""
"html-button-response","15","87513","0.0-8.0","1633","2","""event"",""trial"",""time""
""fullscreenenter"",""1"",""1502""
","
","
","""event"",""trial"",""time""
""fullscreenenter"",""1"",""1502""
","
","","","","","","2611.699999809265","<p> Ready to practice? </p><p> Remember, use the 1, 2, 3, and 4 keys to make your responses. </p>","0","","instructions","","","","","","","","",""
"html-keyboard-response","16","88129","0.0-9.0-0.0","1633","2","""event"",""trial"",""time""
""fullscreenenter"",""1"",""1502""
","
","
","""event"",""trial"",""time""
""fullscreenenter"",""1"",""1502""
","
","","","","","","null","<div style=""font-size:60px;"">+</div>","null","","fixation","","","","","","","","",""
"memory-trial","17","92380","0.0-9.0-1.0","1633","2","""event"",""trial"",""time""
""fullscreenenter"",""1"",""1502""
","
","
","""event"",""trial"",""time""
""fullscreenenter"",""1"",""1502""
","
","","","","","","3242.5999999046326","images/racket2.png","","","practice","4","definitely_new","","","","","","",""
"html-keyboard-response","18","92894","0.0-9.0-0.1","1633","2","""event"",""trial"",""time""
""fullscreenenter"",""1"",""1502""
","
","
","""event"",""trial"",""time""
""fullscreenenter"",""1"",""1502""
","
","","","","","","null","<div style=""font-size:60px;"">+</div>","null","","fixation","","","","","","","","",""
"memory-trial","19","97378","0.0-9.0-1.1","1633","2","""event"",""trial"",""time""
""fullscreenenter"",""1"",""1502""
","
","
","""event"",""trial"",""time""
""fullscreenenter"",""1"",""1502""
","
","","","","","","3473.5","images/ball3.png","","","practice","1","definitely_old","","","","","","",""
"html-keyboard-response","20","97884","0.0-9.0-0.2","1633","2","""event"",""trial"",""time""
""fullscreenenter"",""1"",""1502""
","
","
","""event"",""trial"",""time""
""fullscreenenter"",""1"",""1502""
","
","","","","","","null","<div style=""font-size:60px;"">+</div>","null","","fixation","","","","","","","","",""
"memory-trial","21","100100","0.0-9.0-1.2","1633","2","""event"",""trial"",""time""
""fullscreenenter"",""1"",""1502""
","
","
","""event"",""trial"",""time""
""fullscreenenter"",""1"",""1502""
","
","","","","","","1198.1999998092651","images/racket3.png","","","practice","1","definitely_old","","","","","","",""
"html-keyboard-response","22","100619","0.0-9.0-0.3","1633","2","""event"",""trial"",""time""
""fullscreenenter"",""1"",""1502""
","
","
","""event"",""trial"",""time""
""fullscreenenter"",""1"",""1502""
","
","","","","","","null","<div style=""font-size:60px;"">+</div>","null","","fixation","","","","","","","","",""
"memory-trial","23","103830","0.0-9.0-1.3","1633","2","""event"",""trial"",""time""
""fullscreenenter"",""1"",""1502""
","
","
","""event"",""trial"",""time""
""fullscreenenter"",""1"",""1502""
","
","","","","","","2199.5999999046326","images/ball4.png","","","practice","1","definitely_old","","","","","","",""
"html-keyboard-response","24","104350","0.0-9.0-0.4","1633","2","""event"",""trial"",""time""
""fullscreenenter"",""1"",""1502""
","
","
","""event"",""trial"",""time""
""fullscreenenter"",""1"",""1502""
","
","","","","","","null","<div style=""font-size:60px;"">+</div>","null","","fixation","","","","","","","","",""
"memory-trial","25","108079","0.0-9.0-1.4","1633","2","""event"",""trial"",""time""
""fullscreenenter"",""1"",""1502""
","
","
","""event"",""trial"",""time""
""fullscreenenter"",""1"",""1502""
","
","","","","","","2719.100000143051","images/ball1.png","","","practice","2","maybe_old","","","","","","",""
"html-keyboard-response","26","108583","0.0-9.0-0.5","1633","2","""event"",""trial"",""time""
""fullscreenenter"",""1"",""1502""
","
","
","""event"",""trial"",""time""
""fullscreenenter"",""1"",""1502""
","
","","","","","","null","<div style=""font-size:60px;"">+</div>","null","","fixation","","","","","","","","",""
"memory-trial","27","111850","0.0-9.0-1.5","1633","2","""event"",""trial"",""time""
""fullscreenenter"",""1"",""1502""
","
","
","""event"",""trial"",""time""
""fullscreenenter"",""1"",""1502""
","
","","","","","","2248.0999999046326","images/racket4.png","","","practice","2","maybe_old","","","","","","",""
"html-keyboard-response","28","112369","0.0-9.0-0.6","1633","2","""event"",""trial"",""time""
""fullscreenenter"",""1"",""1502""
","
","
","""event"",""trial"",""time""
""fullscreenenter"",""1"",""1502""
","
","","","","","","null","<div style=""font-size:60px;"">+</div>","null","","fixation","","","","","","","","",""
"memory-trial","29","114429","0.0-9.0-1.6","1633","2","""event"",""trial"",""time""
""fullscreenenter"",""1"",""1502""
","
","
","""event"",""trial"",""time""
""fullscreenenter"",""1"",""1502""
","
","","","","","","1049.9000000953674","images/ball2.png","","","practice","1","definitely_old","","","","","","",""
"html-keyboard-response","30","114938","0.0-9.0-0.7","1633","2","""event"",""trial"",""time""
""fullscreenenter"",""1"",""1502""
","
","
","""event"",""trial"",""time""
""fullscreenenter"",""1"",""1502""
","
","","","","","","null","<div style=""font-size:60px;"">+</div>","null","","fixation","","","","","","","","",""
"memory-trial","31","117322","0.0-9.0-1.7","1633","2","""event"",""trial"",""time""
""fullscreenenter"",""1"",""1502""
","
","
","""event"",""trial"",""time""
""fullscreenenter"",""1"",""1502""
","
","","","","","","1372.5","images/racket1.png","","","practice","2","maybe_old","","","","","","",""
"learning-instructions","32","128423","0.0-10.0-0.0","1633","2","""event"",""trial"",""time""
""fullscreenenter"",""1"",""1502""
","
","
","""event"",""trial"",""time""
""fullscreenenter"",""1"",""1502""
","
","","","","","","3151.7999999523163","<p> Great! You have completed the practice. </p><p> Before you start, we're going to ask you a few questions about how the game works.  </p>","","0","instructions","","","","","","","","",""
"preload","33","130209","0.0-11.0","1633","2","""event"",""trial"",""time""
""fullscreenenter"",""1"",""1502""
","
","
","""event"",""trial"",""time""
""fullscreenenter"",""1"",""1502""
","
","true","false","[]","[]","[]","","","","","","","","","","","","","",""
"comp-q","34","137421","0.0-12.0-0.0","1633","2","""event"",""trial"",""time""
""fullscreenenter"",""1"",""1502""
","
","
","""event"",""trial"",""time""
""fullscreenenter"",""1"",""1502""
","
","","","","","","1379.7000000476837","<p> <b> True or False? </b> </p><p> In this game, you will only see each image once. </p>","","0","comp_question","","","true","","","","","",""
"comp-q","35","145579","0.0-12.0-1.0","1633","2","""event"",""trial"",""time""
""fullscreenenter"",""1"",""1502""
","
","
","""event"",""trial"",""time""
""fullscreenenter"",""1"",""1502""
","
","","","","","","1827.7999999523163","<p> <b> That's right! </b> You will see many different images <i> one time each </i> in this game. </p>","","0","comp_answer","","","","","","","","",""
"comp-q","36","152288","0.0-12.0-0.1","1633","2","""event"",""trial"",""time""
""fullscreenenter"",""1"",""1502""
","
","
","""event"",""trial"",""time""
""fullscreenenter"",""1"",""1502""
","
","","","","","","895.5","<p> <b> True or False? </b> </p><p> You should use the mouse and click to make your response. </p>","","1","comp_question","","","true","","","","","",""
"comp-q","37","160765","0.0-12.0-1.1","1633","2","""event"",""trial"",""time""
""fullscreenenter"",""1"",""1502""
","
","
","""event"",""trial"",""time""
""fullscreenenter"",""1"",""1502""
","
","","","","","","1123.6999998092651","<p><b> That's right! </b> You should use the '1', '2', '3', and '4' keys to make your response. </p>","","0","comp_answer","","","","","","","","",""
"comp-q","38","169555","0.0-12.0-0.2","1633","2","""event"",""trial"",""time""
""fullscreenenter"",""1"",""1502""
","
","
","""event"",""trial"",""time""
""fullscreenenter"",""1"",""1502""
","
","","","","","","2784.0999999046326","<p> <b> True or False? </b> </p><p> You will have as much time as you want to make each choice. </p>","","1","comp_question","","","true","","","","","",""
"comp-q","39","175915","0.0-12.0-1.2","1633","2","""event"",""trial"",""time""
""fullscreenenter"",""1"",""1502""
","
","
","""event"",""trial"",""time""
""fullscreenenter"",""1"",""1502""
","
","","","","","","953.6000001430511","<p> <b> That's right! </b> You will only have 10 seconds to make each choice. </p>","","0","comp_answer","","","","","","","","",""
"learning-instructions","40","186050","0.0-13.0","1633","2","""event"",""trial"",""time""
""fullscreenenter"",""1"",""1502""
","
","
","""event"",""trial"",""time""
""fullscreenenter"",""1"",""1502""
","
","","","","","","1456.5","<p> Great! You are now ready to begin the game. </p><p> Remember, use the 1, 2, 3, and 4 keys to make your responses. </p>","","0","instructions","","","","","","","","",""
"preload","41","187891","0.0-14.0","1633","2","""event"",""trial"",""time""
""fullscreenenter"",""1"",""1502""
","
","
","""event"",""trial"",""time""
""fullscreenenter"",""1"",""1502""
","
","true","false","[]","[]","[]","","","","","","","","","","","","","",""
"html-keyboard-response","42","188405","0.0-15.0-0.0","1633","2","""event"",""trial"",""time""
""fullscreenenter"",""1"",""1502""
","
","
","""event"",""trial"",""time""
""fullscreenenter"",""1"",""1502""
","
","","","","","","null","<div style=""font-size:60px;"">+</div>","null","","fixation","","","","","","","","",""
"memory-trial","43","191711","0.0-15.0-1.0","1633","2","""event"",""trial"",""time""
""fullscreenenter"",""1"",""1502""
","
","
","""event"",""trial"",""time""
""fullscreenenter"",""1"",""1502""
","
","","","","","","2287.2000000476837","images/orange1.png","","","memory_trial","1","definitely_old","","","","","","",""
"html-keyboard-response","44","192221","0.0-15.0-0.1","1633","2","""event"",""trial"",""time""
""fullscreenenter"",""1"",""1502""
","
","
","""event"",""trial"",""time""
""fullscreenenter"",""1"",""1502""
","
","","","","","","null","<div style=""font-size:60px;"">+</div>","null","","fixation","","","","","","","","",""
"memory-trial","45","196111","0.0-15.0-1.1","1633","2","""event"",""trial"",""time""
""fullscreenenter"",""1"",""1502""
","
","
","""event"",""trial"",""time""
""fullscreenenter"",""1"",""1502""
","
","","","","","","2881.899999856949","images/cactus1.png","","","memory_trial","4","definitely_new","","","","","","",""
"html-keyboard-response","46","196622","0.0-15.0-0.2","1633","2","""event"",""trial"",""time""
""fullscreenenter"",""1"",""1502""
","
","
","""event"",""trial"",""time""
""fullscreenenter"",""1"",""1502""
","
","","","","","","null","<div style=""font-size:60px;"">+</div>","null","","fixation","","","","","","","","",""
"memory-trial","47","201289","0.0-15.0-1.2","1633","2","""event"",""trial"",""time""
""fullscreenenter"",""1"",""1502""
","
","
","""event"",""trial"",""time""
""fullscreenenter"",""1"",""1502""
","
","","","","","","3658.2000000476837","images/chair4.png","","","memory_trial","3","maybe_new","","","","","","",""
"html-keyboard-response","48","201802","0.0-15.0-0.3","1633","2","""event"",""trial"",""time""
""fullscreenenter"",""1"",""1502""
","
","
","""event"",""trial"",""time""
""fullscreenenter"",""1"",""1502""
","
","","","","","","null","<div style=""font-size:60px;"">+</div>","null","","fixation","","","","","","","","",""
"memory-trial","49","205052","0.0-15.0-1.3","1633","2","""event"",""trial"",""time""
""fullscreenenter"",""1"",""1502""
","
","
","""event"",""trial"",""time""
""fullscreenenter"",""1"",""1502""
","
","","","","","","2238.600000143051","images/straw1.png","","","memory_trial","1","definitely_old","","","","","","",""
"html-keyboard-response","50","205567","0.0-15.0-0.4","1633","2","""event"",""trial"",""time""
""fullscreenenter"",""1"",""1502""
","
","
","""event"",""trial"",""time""
""fullscreenenter"",""1"",""1502""
","
","","","","","","null","<div style=""font-size:60px;"">+</div>","null","","fixation","","","","","","","","",""
"memory-trial","51","208745","0.0-15.0-1.4","1633","2","""event"",""trial"",""time""
""fullscreenenter"",""1"",""1502""
","
","
","""event"",""trial"",""time""
""fullscreenenter"",""1"",""1502""
","
","","","","","","2175.0999999046326","images/rabbit2.png","","","memory_trial","2","maybe_old","","","","","","",""
"html-keyboard-response","52","209251","0.0-15.0-0.5","1633","2","""event"",""trial"",""time""
""fullscreenenter"",""1"",""1502""
","
","
","""event"",""trial"",""time""
""fullscreenenter"",""1"",""1502""
","
","","","","","","null","<div style=""font-size:60px;"">+</div>","null","","fixation","","","","","","","","",""
"memory-trial","53","212291","0.0-15.0-1.5","1633","2","""event"",""trial"",""time""
""fullscreenenter"",""1"",""1502""
","
","
","""event"",""trial"",""time""
""fullscreenenter"",""1"",""1502""
","
","","","","","","2029.4000000953674","images/flower5.png","","","memory_trial","2","maybe_old","","","","","","",""
"html-keyboard-response","54","212799","0.0-15.0-0.6","1633","2","""event"",""trial"",""time""
""fullscreenenter"",""1"",""1502""
","
","
","""event"",""trial"",""time""
""fullscreenenter"",""1"",""1502""
","
","","","","","","null","<div style=""font-size:60px;"">+</div>","null","","fixation","","","","","","","","",""
"memory-trial","55","216028","0.0-15.0-1.6","1633","2","""event"",""trial"",""time""
""fullscreenenter"",""1"",""1502""
","
","
","""event"",""trial"",""time""
""fullscreenenter"",""1"",""1502""
","
","","","","","","2220.9000000953674","images/chair1.png","","","memory_trial","2","maybe_old","","","","","","",""
"html-keyboard-response","56","216544","0.0-15.0-0.7","1633","2","""event"",""trial"",""time""
""fullscreenenter"",""1"",""1502""
","
","
","""event"",""trial"",""time""
""fullscreenenter"",""1"",""1502""
","
","","","","","","null","<div style=""font-size:60px;"">+</div>","null","","fixation","","","","","","","","",""
"memory-trial","57","219088","0.0-15.0-1.7","1633","2","""event"",""trial"",""time""
""fullscreenenter"",""1"",""1502""
","
","
","""event"",""trial"",""time""
""fullscreenenter"",""1"",""1502""
","
","","","","","","1537.1000001430511","images/rabbit5.png","","","memory_trial","1","definitely_old","","","","","","",""
"html-keyboard-response","58","219596","0.0-15.0-0.8","1633","2","""event"",""trial"",""time""
""fullscreenenter"",""1"",""1502""
","
","
","""event"",""trial"",""time""
""fullscreenenter"",""1"",""1502""
","
","","","","","","null","<div style=""font-size:60px;"">+</div>","null","","fixation","","","","","","","","",""
"memory-trial","59","222244","0.0-15.0-1.8","1633","2","""event"",""trial"",""time""
""fullscreenenter"",""1"",""1502""
","
","
","""event"",""trial"",""time""
""fullscreenenter"",""1"",""1502""
","
","","","","","","1643.5999999046326","images/feline2.png","","","memory_trial","2","maybe_old","","","","","","",""
"html-keyboard-response","60","222749","0.0-15.0-0.9","1633","2","""event"",""trial"",""time""
""fullscreenenter"",""1"",""1502""
","
","
","""event"",""trial"",""time""
""fullscreenenter"",""1"",""1502""
","
","","","","","","null","<div style=""font-size:60px;"">+</div>","null","","fixation","","","","","","","","",""
"memory-trial","61","225443","0.0-15.0-1.9","1633","2","""event"",""trial"",""time""
""fullscreenenter"",""1"",""1502""
","
","
","""event"",""trial"",""time""
""fullscreenenter"",""1"",""1502""
","
","","","","","","1683.5999999046326","images/cactus3.png","","","memory_trial","4","definitely_new","","","","","","",""
"html-keyboard-response","62","225948","0.0-15.0-0.10","1633","2","""event"",""trial"",""time""
""fullscreenenter"",""1"",""1502""
","
","
","""event"",""trial"",""time""
""fullscreenenter"",""1"",""1502""
","
","","","","","","null","<div style=""font-size:60px;"">+</div>","null","","fixation","","","","","","","","",""
"memory-trial","63","228940","0.0-15.0-1.10","1633","2","""event"",""trial"",""time""
""fullscreenenter"",""1"",""1502""
","
","
","""event"",""trial"",""time""
""fullscreenenter"",""1"",""1502""
","
","","","","","","1983.2999999523163","images/chair2.png","","","memory_trial","3","maybe_new","","","","","","",""
"html-keyboard-response","64","229455","0.0-15.0-0.11","1633","2","""event"",""trial"",""time""
""fullscreenenter"",""1"",""1502""
","
","
","""event"",""trial"",""time""
""fullscreenenter"",""1"",""1502""
","
","","","","","","null","<div style=""font-size:60px;"">+</div>","null","","fixation","","","","","","","","",""
"memory-trial","65","232823","0.0-15.0-1.11","1633","2","""event"",""trial"",""time""
""fullscreenenter"",""1"",""1502""
","
","
","""event"",""trial"",""time""
""fullscreenenter"",""1"",""1502""
","
","","","","","","2355.5","images/tree1.png","","","memory_trial","2","maybe_old","","","","","","",""
"html-keyboard-response","66","233329","0.0-15.0-0.12","1633","2","""event"",""trial"",""time""
""fullscreenenter"",""1"",""1502""
","
","
","""event"",""trial"",""time""
""fullscreenenter"",""1"",""1502""
","
","","","","","","null","<div style=""font-size:60px;"">+</div>","null","","fixation","","","","","","","","",""
"memory-trial","67","237451","0.0-15.0-1.12","1633","2","""event"",""trial"",""time""
""fullscreenenter"",""1"",""1502""
","
","
","""event"",""trial"",""time""
""fullscreenenter"",""1"",""1502""
","
","","","","","","3111.7999999523163","images/flower4.png","","","memory_trial","1","definitely_old","","","","","","",""
"html-keyboard-response","68","237956","0.0-15.0-0.13","1633","2","""event"",""trial"",""time""
""fullscreenenter"",""1"",""1502""
","
","
","""event"",""trial"",""time""
""fullscreenenter"",""1"",""1502""
","
","","","","","","null","<div style=""font-size:60px;"">+</div>","null","","fixation","","","","","","","","",""
"memory-trial","69","240852","0.0-15.0-1.13","1633","2","""event"",""trial"",""time""
""fullscreenenter"",""1"",""1502""
","
","
","""event"",""trial"",""time""
""fullscreenenter"",""1"",""1502""
","
","","","","","","1884.4000000953674","images/bush3.png","","","memory_trial","2","maybe_old","","","","","","",""
"html-keyboard-response","70","241357","0.0-15.0-0.14","1633","2","""event"",""trial"",""time""
""fullscreenenter"",""1"",""1502""
","
","
","""event"",""trial"",""time""
""fullscreenenter"",""1"",""1502""
","
","","","","","","null","<div style=""font-size:60px;"">+</div>","null","","fixation","","","","","","","","",""
"memory-trial","71","244635","0.0-15.0-1.14","1633","2","""event"",""trial"",""time""
""fullscreenenter"",""1"",""1502""
","
","
","""event"",""trial"",""time""
""fullscreenenter"",""1"",""1502""
","
","","","","","","2272.5999999046326","images/rodent4.png","","","memory_trial","4","definitely_new","","","","","","",""
"html-keyboard-response","72","245145","0.0-15.0-0.15","1633","2","""event"",""trial"",""time""
""fullscreenenter"",""1"",""1502""
","
","
","""event"",""trial"",""time""
""fullscreenenter"",""1"",""1502""
","
","","","","","","null","<div style=""font-size:60px;"">+</div>","null","","fixation","","","","","","","","",""
"memory-trial","73","247426","0.0-15.0-1.15","1633","2","""event"",""trial"",""time""
""fullscreenenter"",""1"",""1502""
","
","
","""event"",""trial"",""time""
""fullscreenenter"",""1"",""1502""
","
","","","","","","1274.9000000953674","images/bush2.png","","","memory_trial","1","definitely_old","","","","","","",""
"html-keyboard-response","74","247930","0.0-15.0-0.16","1633","2","""event"",""trial"",""time""
""fullscreenenter"",""1"",""1502""
","
","
","""event"",""trial"",""time""
""fullscreenenter"",""1"",""1502""
","
","","","","","","null","<div style=""font-size:60px;"">+</div>","null","","fixation","","","","","","","","",""
"memory-trial","75","251343","0.0-15.0-1.16","1633","2","""event"",""trial"",""time""
""fullscreenenter"",""1"",""1502""
","
","
","""event"",""trial"",""time""
""fullscreenenter"",""1"",""1502""
","
","","","","","","2400.899999856949","images/bed1.png","","","memory_trial","1","definitely_old","","","","","","",""
"html-keyboard-response","76","251851","0.0-15.0-0.17","1633","2","""event"",""trial"",""time""
""fullscreenenter"",""1"",""1502""
","
","
","""event"",""trial"",""time""
""fullscreenenter"",""1"",""1502""
","
","","","","","","null","<div style=""font-size:60px;"">+</div>","null","","fixation","","","","","","","","",""
"memory-trial","77","254646","0.0-15.0-1.17","1633","2","""event"",""trial"",""time""
""fullscreenenter"",""1"",""1502""
","
","
","""event"",""trial"",""time""
""fullscreenenter"",""1"",""1502""
","
","","","","","","1787.3000001907349","images/sofa5.png","","","memory_trial","2","maybe_old","","","","","","",""
"html-keyboard-response","78","255148","0.0-15.0-0.18","1633","2","""event"",""trial"",""time""
""fullscreenenter"",""1"",""1502""
","
","
","""event"",""trial"",""time""
""fullscreenenter"",""1"",""1502""
","
","","","","","","null","<div style=""font-size:60px;"">+</div>","null","","fixation","","","","","","","","",""
"memory-trial","79","258016","0.0-15.0-1.18","1633","2","""event"",""trial"",""time""
""fullscreenenter"",""1"",""1502""
","
","
","""event"",""trial"",""time""
""fullscreenenter"",""1"",""1502""
","
","","","","","","1861.4000000953674","images/straw3.png","","","memory_trial","1","definitely_old","","","","","","",""
"html-keyboard-response","80","258524","0.0-15.0-0.19","1633","2","""event"",""trial"",""time""
""fullscreenenter"",""1"",""1502""
","
","
","""event"",""trial"",""time""
""fullscreenenter"",""1"",""1502""
","
","","","","","","null","<div style=""font-size:60px;"">+</div>","null","","fixation","","","","","","","","",""
"memory-trial","81","261641","0.0-15.0-1.19","1633","2","""event"",""trial"",""time""
""fullscreenenter"",""1"",""1502""
","
","
","""event"",""trial"",""time""
""fullscreenenter"",""1"",""1502""
","
","","","","","","2099.899999856949","images/orange2.png","","","memory_trial","2","maybe_old","","","","","","",""
"html-keyboard-response","82","262151","0.0-15.0-0.20","1633","2","""event"",""trial"",""time""
""fullscreenenter"",""1"",""1502""
","
","
","""event"",""trial"",""time""
""fullscreenenter"",""1"",""1502""
","
","","","","","","null","<div style=""font-size:60px;"">+</div>","null","","fixation","","","","","","","","",""
"memory-trial","83","264286","0.0-15.0-1.20","1633","2","""event"",""trial"",""time""
""fullscreenenter"",""1"",""1502""
","
","
","""event"",""trial"",""time""
""fullscreenenter"",""1"",""1502""
","
","","","","","","1128.7999999523163","images/apple4.png","","","memory_trial","2","maybe_old","","","","","","",""
"html-keyboard-response","84","264791","0.0-15.0-0.21","1633","2","""event"",""trial"",""time""
""fullscreenenter"",""1"",""1502""
","
","
","""event"",""trial"",""time""
""fullscreenenter"",""1"",""1502""
","
","","","","","","null","<div style=""font-size:60px;"">+</div>","null","","fixation","","","","","","","","",""
"memory-trial","85","267547","0.0-15.0-1.21","1633","2","""event"",""trial"",""time""
""fullscreenenter"",""1"",""1502""
","
","
","""event"",""trial"",""time""
""fullscreenenter"",""1"",""1502""
","
","","","","","","1738.5","images/cactus5.png","","","memory_trial","4","definitely_new","","","","","","",""
"html-keyboard-response","86","268053","0.0-15.0-0.22","1633","2","""event"",""trial"",""time""
""fullscreenenter"",""1"",""1502""
","
","
","""event"",""trial"",""time""
""fullscreenenter"",""1"",""1502""
","
","","","","","","null","<div style=""font-size:60px;"">+</div>","null","","fixation","","","","","","","","",""
"memory-trial","87","271198","0.0-15.0-1.22","1633","2","""event"",""trial"",""time""
""fullscreenenter"",""1"",""1502""
","
","
","""event"",""trial"",""time""
""fullscreenenter"",""1"",""1502""
","
","","","","","","2137.5999999046326","images/bed2.png","","","memory_trial","4","definitely_new","","","","","","",""
"html-keyboard-response","88","271703","0.0-15.0-0.23","1633","2","""event"",""trial"",""time""
""fullscreenenter"",""1"",""1502""
","
","
","""event"",""trial"",""time""
""fullscreenenter"",""1"",""1502""
","
","","","","","","null","<div style=""font-size:60px;"">+</div>","null","","fixation","","","","","","","","",""
"memory-trial","89","273983","0.0-15.0-1.23","1633","2","""event"",""trial"",""time""
""fullscreenenter"",""1"",""1502""
","
","
","""event"",""trial"",""time""
""fullscreenenter"",""1"",""1502""
","
","","","","","","1268.1000001430511","images/orange4.png","","","memory_trial","1","definitely_old","","","","","","",""
"html-keyboard-response","90","274501","0.0-15.0-0.24","1633","2","""event"",""trial"",""time""
""fullscreenenter"",""1"",""1502""
","
","
","""event"",""trial"",""time""
""fullscreenenter"",""1"",""1502""
","
","","","","","","null","<div style=""font-size:60px;"">+</div>","null","","fixation","","","","","","","","",""
"memory-trial","91","276901","0.0-15.0-1.24","1633","2","""event"",""trial"",""time""
""fullscreenenter"",""1"",""1502""
","
","
","""event"",""trial"",""time""
""fullscreenenter"",""1"",""1502""
","
","","","","","","1381.0999999046326","images/table5.png","","","memory_trial","1","definitely_old","","","","","","",""
"html-keyboard-response","92","277404","0.0-15.0-0.25","1633","2","""event"",""trial"",""time""
""fullscreenenter"",""1"",""1502""
","
","
","""event"",""trial"",""time""
""fullscreenenter"",""1"",""1502""
","
","","","","","","null","<div style=""font-size:60px;"">+</div>","null","","fixation","","","","","","","","",""
"memory-trial","93","279398","0.0-15.0-1.25","1633","2","""event"",""trial"",""time""
""fullscreenenter"",""1"",""1502""
","
","
","""event"",""trial"",""time""
""fullscreenenter"",""1"",""1502""
","
","","","","","","985.8999998569489","images/goat5.png","","","memory_trial","1","definitely_old","","","","","","",""
"html-keyboard-response","94","279905","0.0-15.0-0.26","1633","2","""event"",""trial"",""time""
""fullscreenenter"",""1"",""1502""
","
","
","""event"",""trial"",""time""
""fullscreenenter"",""1"",""1502""
","
","","","","","","null","<div style=""font-size:60px;"">+</div>","null","","fixation","","","","","","","","",""
"memory-trial","95","283741","0.0-15.0-1.26","1633","2","""event"",""trial"",""time""
""fullscreenenter"",""1"",""1502""
","
","
","""event"",""trial"",""time""
""fullscreenenter"",""1"",""1502""
","
","","","","","","2826.5","images/orange5.png","","","memory_trial","3","maybe_new","","","","","","",""
"html-keyboard-response","96","284245","0.0-15.0-0.27","1633","2","""event"",""trial"",""time""
""fullscreenenter"",""1"",""1502""
","
","
","""event"",""trial"",""time""
""fullscreenenter"",""1"",""1502""
","
","","","","","","null","<div style=""font-size:60px;"">+</div>","null","","fixation","","","","","","","","",""
"memory-trial","97","286362","0.0-15.0-1.27","1633","2","""event"",""trial"",""time""
""fullscreenenter"",""1"",""1502""
","
","
","""event"",""trial"",""time""
""fullscreenenter"",""1"",""1502""
","
","","","","","","1107.9000000953674","images/apple2.png","","","memory_trial","1","definitely_old","","","","","","",""
"html-keyboard-response","98","286870","0.0-15.0-0.28","1633","2","""event"",""trial"",""time""
""fullscreenenter"",""1"",""1502""
","
","
","""event"",""trial"",""time""
""fullscreenenter"",""1"",""1502""
","
","","","","","","null","<div style=""font-size:60px;"">+</div>","null","","fixation","","","","","","","","",""
"memory-trial","99","288816","0.0-15.0-1.28","1633","2","""event"",""trial"",""time""
""fullscreenenter"",""1"",""1502""
","
","
","""event"",""trial"",""time""
""fullscreenenter"",""1"",""1502""
","
","","","","","","940.7999999523163","images/table3.png","","","memory_trial","1","definitely_old","","","","","","",""
"html-keyboard-response","100","289327","0.0-15.0-0.29","1633","2","""event"",""trial"",""time""
""fullscreenenter"",""1"",""1502""
","
","
","""event"",""trial"",""time""
""fullscreenenter"",""1"",""1502""
","
","","","","","","null","<div style=""font-size:60px;"">+</div>","null","","fixation","","","","","","","","",""
"memory-trial","101","292389","0.0-15.0-1.29","1633","2","""event"",""trial"",""time""
""fullscreenenter"",""1"",""1502""
","
","
","""event"",""trial"",""time""
""fullscreenenter"",""1"",""1502""
","
","","","","","","2054.2000000476837","images/dog5.png","","","memory_trial","4","definitely_new","","","","","","",""
"html-keyboard-response","102","292898","0.0-15.0-0.30","1633","2","""event"",""trial"",""time""
""fullscreenenter"",""1"",""1502""
","
","
","""event"",""trial"",""time""
""fullscreenenter"",""1"",""1502""
","
","","","","","","null","<div style=""font-size:60px;"">+</div>","null","","fixation","","","","","","","","",""
"memory-trial","103","295241","0.0-15.0-1.30","1633","2","""event"",""trial"",""time""
""fullscreenenter"",""1"",""1502""
","
","
","""event"",""trial"",""time""
""fullscreenenter"",""1"",""1502""
","
","","","","","","1333.5999999046326","images/truck3.png","","","memory_trial","4","definitely_new","","","","","","",""
"html-keyboard-response","104","295754","0.0-15.0-0.31","1633","2","""event"",""trial"",""time""
""fullscreenenter"",""1"",""1502""
","
","
","""event"",""trial"",""time""
""fullscreenenter"",""1"",""1502""
","
","","","","","","null","<div style=""font-size:60px;"">+</div>","null","","fixation","","","","","","","","",""
"memory-trial","105","298972","0.0-15.0-1.31","1633","2","""event"",""trial"",""time""
""fullscreenenter"",""1"",""1502""
","
","
","""event"",""trial"",""time""
""fullscreenenter"",""1"",""1502""
","
","","","","","","2206.399999856949","images/orange3.png","","","memory_trial","2","maybe_old","","","","","","",""
"html-keyboard-response","106","299485","0.0-15.0-0.32","1633","2","""event"",""trial"",""time""
""fullscreenenter"",""1"",""1502""
","
","
","""event"",""trial"",""time""
""fullscreenenter"",""1"",""1502""
","
","","","","","","null","<div style=""font-size:60px;"">+</div>","null","","fixation","","","","","","","","",""
"memory-trial","107","302643","0.0-15.0-1.32","1633","2","""event"",""trial"",""time""
""fullscreenenter"",""1"",""1502""
","
","
","""event"",""trial"",""time""
""fullscreenenter"",""1"",""1502""
","
","","","","","","2144.7999999523163","images/rabbit3.png","","","memory_trial","1","definitely_old","","","","","","",""
"html-keyboard-response","108","303153","0.0-15.0-0.33","1633","2","""event"",""trial"",""time""
""fullscreenenter"",""1"",""1502""
","
","
","""event"",""trial"",""time""
""fullscreenenter"",""1"",""1502""
","
","","","","","","null","<div style=""font-size:60px;"">+</div>","null","","fixation","","","","","","","","",""
"memory-trial","109","307418","0.0-15.0-1.33","1633","2","""event"",""trial"",""time""
""fullscreenenter"",""1"",""1502""
","
","
","""event"",""trial"",""time""
""fullscreenenter"",""1"",""1502""
","
","","","","","","3257.0999999046326","images/rabbit4.png","","","memory_trial","3","maybe_new","","","","","","",""
"html-keyboard-response","110","307927","0.0-15.0-0.34","1633","2","""event"",""trial"",""time""
""fullscreenenter"",""1"",""1502""
","
","
","""event"",""trial"",""time""
""fullscreenenter"",""1"",""1502""
","
","","","","","","null","<div style=""font-size:60px;"">+</div>","null","","fixation","","","","","","","","",""
"memory-trial","111","311715","0.0-15.0-1.34","1633","2","""event"",""trial"",""time""
""fullscreenenter"",""1"",""1502""
","
","
","""event"",""trial"",""time""
""fullscreenenter"",""1"",""1502""
","
","","","","","","2775.2000000476837","images/sheep3.png","","","memory_trial","3","maybe_new","","","","","","",""
"html-keyboard-response","112","312222","0.0-15.0-0.35","1633","2","""event"",""trial"",""time""
""fullscreenenter"",""1"",""1502""
","
","
","""event"",""trial"",""time""
""fullscreenenter"",""1"",""1502""
","
","","","","","","null","<div style=""font-size:60px;"">+</div>","null","","fixation","","","","","","","","",""
"memory-trial","113","314538","0.0-15.0-1.35","1633","2","""event"",""trial"",""time""
""fullscreenenter"",""1"",""1502""
","
","
","""event"",""trial"",""time""
""fullscreenenter"",""1"",""1502""
","
","","","","","","1308.9000000953674","images/plane4.png","","","memory_trial","1","definitely_old","","","","","","",""
"html-keyboard-response","114","315042","0.0-15.0-0.36","1633","2","""event"",""trial"",""time""
""fullscreenenter"",""1"",""1502""
","
","
","""event"",""trial"",""time""
""fullscreenenter"",""1"",""1502""
","
","","","","","","null","<div style=""font-size:60px;"">+</div>","null","","fixation","","","","","","","","",""
"memory-trial","115","317263","0.0-15.0-1.36","1633","2","""event"",""trial"",""time""
""fullscreenenter"",""1"",""1502""
","
","
","""event"",""trial"",""time""
""fullscreenenter"",""1"",""1502""
","
","","","","","","1209.6000001430511","images/feline1.png","","","memory_trial","1","definitely_old","","","","","","",""
"html-keyboard-response","116","317766","0.0-15.0-0.37","1633","2","""event"",""trial"",""time""
""fullscreenenter"",""1"",""1502""
","
","
","""event"",""trial"",""time""
""fullscreenenter"",""1"",""1502""
","
","","","","","","null","<div style=""font-size:60px;"">+</div>","null","","fixation","","","","","","","","",""
"memory-trial","117","319698","0.0-15.0-1.37","1633","2","""event"",""trial"",""time""
""fullscreenenter"",""1"",""1502""
","
","
","""event"",""trial"",""time""
""fullscreenenter"",""1"",""1502""
","
","","","","","","926.5","images/goat1.png","","","memory_trial","1","definitely_old","","","","","","",""
"html-keyboard-response","118","320200","0.0-15.0-0.38","1633","2","""event"",""trial"",""time""
""fullscreenenter"",""1"",""1502""
","
","
","""event"",""trial"",""time""
""fullscreenenter"",""1"",""1502""
","
","","","","","","null","<div style=""font-size:60px;"">+</div>","null","","fixation","","","","","","","","",""
"memory-trial","119","322215","0.0-15.0-1.38","1633","2","""event"",""trial"",""time""
""fullscreenenter"",""1"",""1502""
","
","
","""event"",""trial"",""time""
""fullscreenenter"",""1"",""1502""
","
","","","","","","1002.5","images/cow4.png","","","memory_trial","1","definitely_old","","","","","","",""
"html-keyboard-response","120","322719","0.0-15.0-0.39","1633","2","""event"",""trial"",""time""
""fullscreenenter"",""1"",""1502""
","
","
","""event"",""trial"",""time""
""fullscreenenter"",""1"",""1502""
","
","","","","","","null","<div style=""font-size:60px;"">+</div>","null","","fixation","","","","","","","","",""
"memory-trial","121","325659","0.0-15.0-1.39","1633","2","""event"",""trial"",""time""
""fullscreenenter"",""1"",""1502""
","
","
","""event"",""trial"",""time""
""fullscreenenter"",""1"",""1502""
","
","","","","","","1933.2000000476837","images/sheep1.png","","","memory_trial","2","maybe_old","","","","","","",""
"html-keyboard-response","122","326171","0.0-15.0-0.40","1633","2","""event"",""trial"",""time""
""fullscreenenter"",""1"",""1502""
","
","
","""event"",""trial"",""time""
""fullscreenenter"",""1"",""1502""
","
","","","","","","null","<div style=""font-size:60px;"">+</div>","null","","fixation","","","","","","","","",""
"memory-trial","123","328488","0.0-15.0-1.40","1633","2","""event"",""trial"",""time""
""fullscreenenter"",""1"",""1502""
","
","
","""event"",""trial"",""time""
""fullscreenenter"",""1"",""1502""
","
","","","","","","1301.0999999046326","images/rodent2.png","","","memory_trial","4","definitely_new","","","","","","",""
"html-keyboard-response","124","328994","0.0-15.0-0.41","1633","2","""event"",""trial"",""time""
""fullscreenenter"",""1"",""1502""
","
","
","""event"",""trial"",""time""
""fullscreenenter"",""1"",""1502""
","
","","","","","","null","<div style=""font-size:60px;"">+</div>","null","","fixation","","","","","","","","",""
"memory-trial","125","331123","0.0-15.0-1.41","1633","2","""event"",""trial"",""time""
""fullscreenenter"",""1"",""1502""
","
","
","""event"",""trial"",""time""
""fullscreenenter"",""1"",""1502""
","
","","","","","","1117.1999998092651","images/flower3.png","","","memory_trial","1","definitely_old","","","","","","",""
"html-keyboard-response","126","331626","0.0-15.0-0.42","1633","2","""event"",""trial"",""time""
""fullscreenenter"",""1"",""1502""
","
","
","""event"",""trial"",""time""
""fullscreenenter"",""1"",""1502""
","
","","","","","","null","<div style=""font-size:60px;"">+</div>","null","","fixation","","","","","","","","",""
"memory-trial","127","334629","0.0-15.0-1.42","1633","2","""event"",""trial"",""time""
""fullscreenenter"",""1"",""1502""
","
","
","""event"",""trial"",""time""
""fullscreenenter"",""1"",""1502""
","
","","","","","","1996.7999999523163","images/sheep4.png","","","memory_trial","3","maybe_new","","","","","","",""
"html-keyboard-response","128","335142","0.0-15.0-0.43","1633","2","""event"",""trial"",""time""
""fullscreenenter"",""1"",""1502""
","
","
","""event"",""trial"",""time""
""fullscreenenter"",""1"",""1502""
","
","","","","","","null","<div style=""font-size:60px;"">+</div>","null","","fixation","","","","","","","","",""
"memory-trial","129","337262","0.0-15.0-1.43","1633","2","""event"",""trial"",""time""
""fullscreenenter"",""1"",""1502""
","
","
","""event"",""trial"",""time""
""fullscreenenter"",""1"",""1502""
","
","","","","","","1108.1000001430511","images/tree5.png","","","memory_trial","1","definitely_old","","","","","","",""
"html-keyboard-response","130","337768","0.0-15.0-0.44","1633","2","""event"",""trial"",""time""
""fullscreenenter"",""1"",""1502""
","
","
","""event"",""trial"",""time""
""fullscreenenter"",""1"",""1502""
","
","","","","","","null","<div style=""font-size:60px;"">+</div>","null","","fixation","","","","","","","","",""
"memory-trial","131","341122","0.0-15.0-1.44","1633","2","""event"",""trial"",""time""
""fullscreenenter"",""1"",""1502""
","
","
","""event"",""trial"",""time""
""fullscreenenter"",""1"",""1502""
","
","","","","","","2345.5999999046326","images/goat3.png","","","memory_trial","3","maybe_new","","","","","","",""
"html-keyboard-response","132","341632","0.0-15.0-0.45","1633","2","""event"",""trial"",""time""
""fullscreenenter"",""1"",""1502""
","
","
","""event"",""trial"",""time""
""fullscreenenter"",""1"",""1502""
","
","","","","","","null","<div style=""font-size:60px;"">+</div>","null","","fixation","","","","","","","","",""
"memory-trial","133","343616","0.0-15.0-1.45","1633","2","""event"",""trial"",""time""
""fullscreenenter"",""1"",""1502""
","
","
","""event"",""trial"",""time""
""fullscreenenter"",""1"",""1502""
","
","","","","","","969.1000001430511","images/flower1.png","","","memory_trial","1","definitely_old","","","","","","",""
"html-keyboard-response","134","344125","0.0-15.0-0.46","1633","2","""event"",""trial"",""time""
""fullscreenenter"",""1"",""1502""
","
","
","""event"",""trial"",""time""
""fullscreenenter"",""1"",""1502""
","
","","","","","","null","<div style=""font-size:60px;"">+</div>","null","","fixation","","","","","","","","",""
"memory-trial","135","347042","0.0-15.0-1.46","1633","2","""event"",""trial"",""time""
""fullscreenenter"",""1"",""1502""
","
","
","""event"",""trial"",""time""
""fullscreenenter"",""1"",""1502""
","
","","","","","","1908.2000000476837","images/plane1.png","","","memory_trial","4","definitely_new","","","","","","",""
"html-button-response","136","349764","0.0-15.0-2.46-0.46","1633","2","""event"",""trial"",""time""
""fullscreenenter"",""1"",""1502""
","
","
","""event"",""trial"",""time""
""fullscreenenter"",""1"",""1502""
","
","","","","","","2719.699999809265","<p> Take a break! </p><p> Click the button to continue. </p>","0","","break","","","","","","","","",""
"html-keyboard-response","137","350265","0.0-15.0-0.47","1633","2","""event"",""trial"",""time""
""fullscreenenter"",""1"",""1502""
","
","
","""event"",""trial"",""time""
""fullscreenenter"",""1"",""1502""
","
","","","","","","null","<div style=""font-size:60px;"">+</div>","null","","fixation","","","","","","","","",""
"memory-trial","138","353298","0.0-15.0-1.47","1633","2","""event"",""trial"",""time""
""fullscreenenter"",""1"",""1502""
","
","
","""event"",""trial"",""time""
""fullscreenenter"",""1"",""1502""
","
","","","","","","2027.8999998569489","images/table1.png","","","memory_trial","1","definitely_old","","","","","","",""
"html-keyboard-response","139","353802","0.0-15.0-0.48","1633","2","""event"",""trial"",""time""
""fullscreenenter"",""1"",""1502""
","
","
","""event"",""trial"",""time""
""fullscreenenter"",""1"",""1502""
","
","","","","","","null","<div style=""font-size:60px;"">+</div>","null","","fixation","","","","","","","","",""
"memory-trial","140","356489","0.0-15.0-1.48","1633","2","""event"",""trial"",""time""
""fullscreenenter"",""1"",""1502""
","
","
","""event"",""trial"",""time""
""fullscreenenter"",""1"",""1502""
","
","","","","","","1671.2999999523163","images/rodent5.png","","","memory_trial","3","maybe_new","","","","","","",""
"html-keyboard-response","141","356992","0.0-15.0-0.49","1633","2","""event"",""trial"",""time""
""fullscreenenter"",""1"",""1502""
","
","
","""event"",""trial"",""time""
""fullscreenenter"",""1"",""1502""
","
","","","","","","null","<div style=""font-size:60px;"">+</div>","null","","fixation","","","","","","","","",""
"memory-trial","142","359473","0.0-15.0-1.49","1633","2","""event"",""trial"",""time""
""fullscreenenter"",""1"",""1502""
","
","
","""event"",""trial"",""time""
""fullscreenenter"",""1"",""1502""
","
","","","","","","1470","images/bush4.png","","","memory_trial","2","maybe_old","","","","","","",""
"html-keyboard-response","143","359978","0.0-15.0-0.50","1633","2","""event"",""trial"",""time""
""fullscreenenter"",""1"",""1502""
","
","
","""event"",""trial"",""time""
""fullscreenenter"",""1"",""1502""
","
","","","","","","null","<div style=""font-size:60px;"">+</div>","null","","fixation","","","","","","","","",""
"memory-trial","144","362185","0.0-15.0-1.50","1633","2","""event"",""trial"",""time""
""fullscreenenter"",""1"",""1502""
","
","
","""event"",""trial"",""time""
""fullscreenenter"",""1"",""1502""
","
","","","","","","1195.5","images/cow3.png","","","memory_trial","1","definitely_old","","","","","","",""
"html-keyboard-response","145","362689","0.0-15.0-0.51","1633","2","""event"",""trial"",""time""
""fullscreenenter"",""1"",""1502""
","
","
","""event"",""trial"",""time""
""fullscreenenter"",""1"",""1502""
","
","","","","","","null","<div style=""font-size:60px;"">+</div>","null","","fixation","","","","","","","","",""
"memory-trial","146","364610","0.0-15.0-1.51","1633","2","""event"",""trial"",""time""
""fullscreenenter"",""1"",""1502""
","
","
","""event"",""trial"",""time""
""fullscreenenter"",""1"",""1502""
","
","","","","","","904.2000000476837","images/cactus4.png","","","memory_trial","4","definitely_new","","","","","","",""
"html-keyboard-response","147","365118","0.0-15.0-0.52","1633","2","""event"",""trial"",""time""
""fullscreenenter"",""1"",""1502""
","
","
","""event"",""trial"",""time""
""fullscreenenter"",""1"",""1502""
","
","","","","","","null","<div style=""font-size:60px;"">+</div>","null","","fixation","","","","","","","","",""
"memory-trial","148","367349","0.0-15.0-1.52","1633","2","""event"",""trial"",""time""
""fullscreenenter"",""1"",""1502""
","
","
","""event"",""trial"",""time""
""fullscreenenter"",""1"",""1502""
","
","","","","","","1224.5","images/straw5.png","","","memory_trial","1","definitely_old","","","","","","",""
"html-keyboard-response","149","367863","0.0-15.0-0.53","1633","2","""event"",""trial"",""time""
""fullscreenenter"",""1"",""1502""
","
","
","""event"",""trial"",""time""
""fullscreenenter"",""1"",""1502""
","
","","","","","","null","<div style=""font-size:60px;"">+</div>","null","","fixation","","","","","","","","",""
"memory-trial","150","369880","0.0-15.0-1.53","1633","2","""event"",""trial"",""time""
""fullscreenenter"",""1"",""1502""
","
","
","""event"",""trial"",""time""
""fullscreenenter"",""1"",""1502""
","
","","","","","","1010.6000001430511","images/truck4.png","","","memory_trial","4","definitely_new","","","","","","",""
"html-keyboard-response","151","370396","0.0-15.0-0.54","1633","2","""event"",""trial"",""time""
""fullscreenenter"",""1"",""1502""
","
","
","""event"",""trial"",""time""
""fullscreenenter"",""1"",""1502""
","
","","","","","","null","<div style=""font-size:60px;"">+</div>","null","","fixation","","","","","","","","",""
"memory-trial","152","373143","0.0-15.0-1.54","1633","2","""event"",""trial"",""time""
""fullscreenenter"",""1"",""1502""
","
","
","""event"",""trial"",""time""
""fullscreenenter"",""1"",""1502""
","
","","","","","","1735.8999998569489","images/bush5.png","","","memory_trial","2","maybe_old","","","","","","",""
"html-keyboard-response","153","373651","0.0-15.0-0.55","1633","2","""event"",""trial"",""time""
""fullscreenenter"",""1"",""1502""
","
","
","""event"",""trial"",""time""
""fullscreenenter"",""1"",""1502""
","
","","","","","","null","<div style=""font-size:60px;"">+</div>","null","","fixation","","","","","","","","",""
"memory-trial","154","375573","0.0-15.0-1.55","1633","2","""event"",""trial"",""time""
""fullscreenenter"",""1"",""1502""
","
","
","""event"",""trial"",""time""
""fullscreenenter"",""1"",""1502""
","
","","","","","","911.8999998569489","images/horse3.png","","","memory_trial","1","definitely_old","","","","","","",""
"html-keyboard-response","155","376088","0.0-15.0-0.56","1633","2","""event"",""trial"",""time""
""fullscreenenter"",""1"",""1502""
","
","
","""event"",""trial"",""time""
""fullscreenenter"",""1"",""1502""
","
","","","","","","null","<div style=""font-size:60px;"">+</div>","null","","fixation","","","","","","","","",""
"memory-trial","156","378709","0.0-15.0-1.56","1633","2","""event"",""trial"",""time""
""fullscreenenter"",""1"",""1502""
","
","
","""event"",""trial"",""time""
""fullscreenenter"",""1"",""1502""
","
","","","","","","1615.7000000476837","images/sheep5.png","","","memory_trial","3","maybe_new","","","","","","",""
"html-keyboard-response","157","379214","0.0-15.0-0.57","1633","2","""event"",""trial"",""time""
""fullscreenenter"",""1"",""1502""
","
","
","""event"",""trial"",""time""
""fullscreenenter"",""1"",""1502""
","
","","","","","","null","<div style=""font-size:60px;"">+</div>","null","","fixation","","","","","","","","",""
"memory-trial","158","382018","0.0-15.0-1.57","1633","2","""event"",""trial"",""time""
""fullscreenenter"",""1"",""1502""
","
","
","""event"",""trial"",""time""
""fullscreenenter"",""1"",""1502""
","
","","","","","","1800.7999999523163","images/table2.png","","","memory_trial","4","definitely_new","","","","","","",""
"html-keyboard-response","159","382524","0.0-15.0-0.58","1633","2","""event"",""trial"",""time""
""fullscreenenter"",""1"",""1502""
","
","
","""event"",""trial"",""time""
""fullscreenenter"",""1"",""1502""
","
","","","","","","null","<div style=""font-size:60px;"">+</div>","null","","fixation","","","","","","","","",""
"memory-trial","160","385362","0.0-15.0-1.58","1633","2","""event"",""trial"",""time""
""fullscreenenter"",""1"",""1502""
","
","
","""event"",""trial"",""time""
""fullscreenenter"",""1"",""1502""
","
","","","","","","1830.1000001430511","images/rodent1.png","","","memory_trial","4","definitely_new","","","","","","",""
"html-keyboard-response","161","385866","0.0-15.0-0.59","1633","2","""event"",""trial"",""time""
""fullscreenenter"",""1"",""1502""
","
","
","""event"",""trial"",""time""
""fullscreenenter"",""1"",""1502""
","
","","","","","","null","<div style=""font-size:60px;"">+</div>","null","","fixation","","","","","","","","",""
"memory-trial","162","388850","0.0-15.0-1.59","1633","2","""event"",""trial"",""time""
""fullscreenenter"",""1"",""1502""
","
","
","""event"",""trial"",""time""
""fullscreenenter"",""1"",""1502""
","
","","","","","","1975.5","images/banana5.png","","","memory_trial","2","maybe_old","","","","","","",""
"html-keyboard-response","163","389360","0.0-15.0-0.60","1633","2","""event"",""trial"",""time""
""fullscreenenter"",""1"",""1502""
","
","
","""event"",""trial"",""time""
""fullscreenenter"",""1"",""1502""
","
","","","","","","null","<div style=""font-size:60px;"">+</div>","null","","fixation","","","","","","","","",""
"memory-trial","164","391330","0.0-15.0-1.60","1633","2","""event"",""trial"",""time""
""fullscreenenter"",""1"",""1502""
","
","
","""event"",""trial"",""time""
""fullscreenenter"",""1"",""1502""
","
","","","","","","962.5999999046326","images/bed4.png","","","memory_trial","1","definitely_old","","","","","","",""
"html-keyboard-response","165","391844","0.0-15.0-0.61","1633","2","""event"",""trial"",""time""
""fullscreenenter"",""1"",""1502""
","
","
","""event"",""trial"",""time""
""fullscreenenter"",""1"",""1502""
","
","","","","","","null","<div style=""font-size:60px;"">+</div>","null","","fixation","","","","","","","","",""
"memory-trial","166","393716","0.0-15.0-1.61","1633","2","""event"",""trial"",""time""
""fullscreenenter"",""1"",""1502""
","
","
","""event"",""trial"",""time""
""fullscreenenter"",""1"",""1502""
","
","","","","","","860.2999999523163","images/truck5.png","","","memory_trial","4","definitely_new","","","","","","",""
"html-keyboard-response","167","394219","0.0-15.0-0.62","1633","2","""event"",""trial"",""time""
""fullscreenenter"",""1"",""1502""
","
","
","""event"",""trial"",""time""
""fullscreenenter"",""1"",""1502""
","
","","","","","","null","<div style=""font-size:60px;"">+</div>","null","","fixation","","","","","","","","",""
"memory-trial","168","396399","0.0-15.0-1.62","1633","2","""event"",""trial"",""time""
""fullscreenenter"",""1"",""1502""
","
","
","""event"",""trial"",""time""
""fullscreenenter"",""1"",""1502""
","
","","","","","","1174","images/feline5.png","","","memory_trial","1","definitely_old","","","","","","",""
"html-keyboard-response","169","396910","0.0-15.0-0.63","1633","2","""event"",""trial"",""time""
""fullscreenenter"",""1"",""1502""
","
","
","""event"",""trial"",""time""
""fullscreenenter"",""1"",""1502""
","
","","","","","","null","<div style=""font-size:60px;"">+</div>","null","","fixation","","","","","","","","",""
"memory-trial","170","399664","0.0-15.0-1.63","1633","2","""event"",""trial"",""time""
""fullscreenenter"",""1"",""1502""
","
","
","""event"",""trial"",""time""
""fullscreenenter"",""1"",""1502""
","
","","","","","","1743.5","images/cow2.png","","","memory_trial","2","maybe_old","","","","","","",""
"html-keyboard-response","171","400174","0.0-15.0-0.64","1633","2","""event"",""trial"",""time""
""fullscreenenter"",""1"",""1502""
","
","
","""event"",""trial"",""time""
""fullscreenenter"",""1"",""1502""
","
","","","","","","null","<div style=""font-size:60px;"">+</div>","null","","fixation","","","","","","","","",""
"memory-trial","172","402223","0.0-15.0-1.64","1633","2","""event"",""trial"",""time""
""fullscreenenter"",""1"",""1502""
","
","
","""event"",""trial"",""time""
""fullscreenenter"",""1"",""1502""
","
","","","","","","1038.2000000476837","images/feline3.png","","","memory_trial","1","definitely_old","","","","","","",""
"html-keyboard-response","173","402729","0.0-15.0-0.65","1633","2","""event"",""trial"",""time""
""fullscreenenter"",""1"",""1502""
","
","
","""event"",""trial"",""time""
""fullscreenenter"",""1"",""1502""
","
","","","","","","null","<div style=""font-size:60px;"">+</div>","null","","fixation","","","","","","","","",""
"memory-trial","174","404754","0.0-15.0-1.65","1633","2","""event"",""trial"",""time""
""fullscreenenter"",""1"",""1502""
","
","
","""event"",""trial"",""time""
""fullscreenenter"",""1"",""1502""
","
","","","","","","1015.4000000953674","images/train2.png","","","memory_trial","1","definitely_old","","","","","","",""
"html-keyboard-response","175","405263","0.0-15.0-0.66","1633","2","""event"",""trial"",""time""
""fullscreenenter"",""1"",""1502""
","
","
","""event"",""trial"",""time""
""fullscreenenter"",""1"",""1502""
","
","","","","","","null","<div style=""font-size:60px;"">+</div>","null","","fixation","","","","","","","","",""
"memory-trial","176","408343","0.0-15.0-1.66","1633","2","""event"",""trial"",""time""
""fullscreenenter"",""1"",""1502""
","
","
","""event"",""trial"",""time""
""fullscreenenter"",""1"",""1502""
","
","","","","","","2069.2000000476837","images/banana1.png","","","memory_trial","2","maybe_old","","","","","","",""
"html-keyboard-response","177","408851","0.0-15.0-0.67","1633","2","""event"",""trial"",""time""
""fullscreenenter"",""1"",""1502""
","
","
","""event"",""trial"",""time""
""fullscreenenter"",""1"",""1502""
","
","","","","","","null","<div style=""font-size:60px;"">+</div>","null","","fixation","","","","","","","","",""
"memory-trial","178","410910","0.0-15.0-1.67","1633","2","""event"",""trial"",""time""
""fullscreenenter"",""1"",""1502""
","
","
","""event"",""trial"",""time""
""fullscreenenter"",""1"",""1502""
","
","","","","","","1055","images/sofa4.png","","","memory_trial","1","definitely_old","","","","","","",""
"html-keyboard-response","179","411418","0.0-15.0-0.68","1633","2","""event"",""trial"",""time""
""fullscreenenter"",""1"",""1502""
","
","
","""event"",""trial"",""time""
""fullscreenenter"",""1"",""1502""
","
","","","","","","null","<div style=""font-size:60px;"">+</div>","null","","fixation","","","","","","","","",""
"memory-trial","180","414365","0.0-15.0-1.68","1633","2","""event"",""trial"",""time""
""fullscreenenter"",""1"",""1502""
","
","
","""event"",""trial"",""time""
""fullscreenenter"",""1"",""1502""
","
","","","","","","1934","images/chair3.png","","","memory_trial","4","definitely_new","","","","","","",""
"html-keyboard-response","181","414884","0.0-15.0-0.69","1633","2","""event"",""trial"",""time""
""fullscreenenter"",""1"",""1502""
","
","
","""event"",""trial"",""time""
""fullscreenenter"",""1"",""1502""
","
","","","","","","null","<div style=""font-size:60px;"">+</div>","null","","fixation","","","","","","","","",""
"memory-trial","182","418016","0.0-15.0-1.69","1633","2","""event"",""trial"",""time""
""fullscreenenter"",""1"",""1502""
","
","
","""event"",""trial"",""time""
""fullscreenenter"",""1"",""1502""
","
","","","","","","2120.7000000476837","images/dog3.png","","","memory_trial","1","definitely_old","","","","","","",""
"html-keyboard-response","183","418518","0.0-15.0-0.70","1633","2","""event"",""trial"",""time""
""fullscreenenter"",""1"",""1502""
","
","
","""event"",""trial"",""time""
""fullscreenenter"",""1"",""1502""
","
","","","","","","null","<div style=""font-size:60px;"">+</div>","null","","fixation","","","","","","","","",""
"memory-trial","184","421200","0.0-15.0-1.70","1633","2","""event"",""trial"",""time""
""fullscreenenter"",""1"",""1502""
","
","
","""event"",""trial"",""time""
""fullscreenenter"",""1"",""1502""
","
","","","","","","1673.7000000476837","images/rodent3.png","","","memory_trial","4","definitely_new","","","","","","",""
"html-keyboard-response","185","421705","0.0-15.0-0.71","1633","2","""event"",""trial"",""time""
""fullscreenenter"",""1"",""1502""
","
","
","""event"",""trial"",""time""
""fullscreenenter"",""1"",""1502""
","
","","","","","","null","<div style=""font-size:60px;"">+</div>","null","","fixation","","","","","","","","",""
"memory-trial","186","424555","0.0-15.0-1.71","1633","2","""event"",""trial"",""time""
""fullscreenenter"",""1"",""1502""
","
","
","""event"",""trial"",""time""
""fullscreenenter"",""1"",""1502""
","
","","","","","","1838.2999999523163","images/sofa2.png","","","memory_trial","4","definitely_new","","","","","","",""
"html-keyboard-response","187","425062","0.0-15.0-0.72","1633","2","""event"",""trial"",""time""
""fullscreenenter"",""1"",""1502""
","
","
","""event"",""trial"",""time""
""fullscreenenter"",""1"",""1502""
","
","","","","","","null","<div style=""font-size:60px;"">+</div>","null","","fixation","","","","","","","","",""
"memory-trial","188","427130","0.0-15.0-1.72","1633","2","""event"",""trial"",""time""
""fullscreenenter"",""1"",""1502""
","
","
","""event"",""trial"",""time""
""fullscreenenter"",""1"",""1502""
","
","","","","","","1052.0999999046326","images/bed5.png","","","memory_trial","1","definitely_old","","","","","","",""
"html-keyboard-response","189","427635","0.0-15.0-0.73","1633","2","""event"",""trial"",""time""
""fullscreenenter"",""1"",""1502""
","
","
","""event"",""trial"",""time""
""fullscreenenter"",""1"",""1502""
","
","","","","","","null","<div style=""font-size:60px;"">+</div>","null","","fixation","","","","","","","","",""
"memory-trial","190","429850","0.0-15.0-1.73","1633","2","""event"",""trial"",""time""
""fullscreenenter"",""1"",""1502""
","
","
","""event"",""trial"",""time""
""fullscreenenter"",""1"",""1502""
","
","","","","","","1199.1000001430511","images/cow5.png","","","memory_trial","1","definitely_old","","","","","","",""
"html-keyboard-response","191","430357","0.0-15.0-0.74","1633","2","""event"",""trial"",""time""
""fullscreenenter"",""1"",""1502""
","
","
","""event"",""trial"",""time""
""fullscreenenter"",""1"",""1502""
","
","","","","","","null","<div style=""font-size:60px;"">+</div>","null","","fixation","","","","","","","","",""
"memory-trial","192","432126","0.0-15.0-1.74","1633","2","""event"",""trial"",""time""
""fullscreenenter"",""1"",""1502""
","
","
","""event"",""trial"",""time""
""fullscreenenter"",""1"",""1502""
","
","","","","","","764.7000000476837","images/horse1.png","","","memory_trial","1","definitely_old","","","","","","",""
"html-keyboard-response","193","432633","0.0-15.0-0.75","1633","2","""event"",""trial"",""time""
""fullscreenenter"",""1"",""1502""
","
","
","""event"",""trial"",""time""
""fullscreenenter"",""1"",""1502""
","
","","","","","","null","<div style=""font-size:60px;"">+</div>","null","","fixation","","","","","","","","",""
"memory-trial","194","436251","0.0-15.0-1.75","1633","2","""event"",""trial"",""time""
""fullscreenenter"",""1"",""1502""
","
","
","""event"",""trial"",""time""
""fullscreenenter"",""1"",""1502""
","
","","","","","","2608","images/cow1.png","","","memory_trial","4","definitely_new","","","","","","",""
"html-keyboard-response","195","436754","0.0-15.0-0.76","1633","2","""event"",""trial"",""time""
""fullscreenenter"",""1"",""1502""
","
","
","""event"",""trial"",""time""
""fullscreenenter"",""1"",""1502""
","
","","","","","","null","<div style=""font-size:60px;"">+</div>","null","","fixation","","","","","","","","",""
"memory-trial","196","438953","0.0-15.0-1.76","1633","2","""event"",""trial"",""time""
""fullscreenenter"",""1"",""1502""
","
","
","""event"",""trial"",""time""
""fullscreenenter"",""1"",""1502""
","
","","","","","","1185.0999999046326","images/dog4.png","","","memory_trial","1","definitely_old","","","","","","",""
"html-keyboard-response","197","439460","0.0-15.0-0.77","1633","2","""event"",""trial"",""time""
""fullscreenenter"",""1"",""1502""
","
","
","""event"",""trial"",""time""
""fullscreenenter"",""1"",""1502""
","
","","","","","","null","<div style=""font-size:60px;"">+</div>","null","","fixation","","","","","","","","",""
"memory-trial","198","441527","0.0-15.0-1.77","1633","2","""event"",""trial"",""time""
""fullscreenenter"",""1"",""1502""
","
","
","""event"",""trial"",""time""
""fullscreenenter"",""1"",""1502""
","
","","","","","","1060.5999999046326","images/flower2.png","","","memory_trial","1","definitely_old","","","","","","",""
"html-keyboard-response","199","442039","0.0-15.0-0.78","1633","2","""event"",""trial"",""time""
""fullscreenenter"",""1"",""1502""
","
","
","""event"",""trial"",""time""
""fullscreenenter"",""1"",""1502""
","
","","","","","","null","<div style=""font-size:60px;"">+</div>","null","","fixation","","","","","","","","",""
"memory-trial","200","444233","0.0-15.0-1.78","1633","2","""event"",""trial"",""time""
""fullscreenenter"",""1"",""1502""
","
","
","""event"",""trial"",""time""
""fullscreenenter"",""1"",""1502""
","
","","","","","","1181.2999999523163","images/train1.png","","","memory_trial","4","definitely_new","","","","","","",""
"html-keyboard-response","201","444744","0.0-15.0-0.79","1633","2","""event"",""trial"",""time""
""fullscreenenter"",""1"",""1502""
","
","
","""event"",""trial"",""time""
""fullscreenenter"",""1"",""1502""
","
","","","","","","null","<div style=""font-size:60px;"">+</div>","null","","fixation","","","","","","","","",""
"memory-trial","202","446652","0.0-15.0-1.79","1633","2","""event"",""trial"",""time""
""fullscreenenter"",""1"",""1502""
","
","
","""event"",""trial"",""time""
""fullscreenenter"",""1"",""1502""
","
","","","","","","897.1000001430511","images/straw2.png","","","memory_trial","1","definitely_old","","","","","","",""
"html-keyboard-response","203","447158","0.0-15.0-0.80","1633","2","""event"",""trial"",""time""
""fullscreenenter"",""1"",""1502""
","
","
","""event"",""trial"",""time""
""fullscreenenter"",""1"",""1502""
","
","","","","","","null","<div style=""font-size:60px;"">+</div>","null","","fixation","","","","","","","","",""
"memory-trial","204","449401","0.0-15.0-1.80","1633","2","""event"",""trial"",""time""
""fullscreenenter"",""1"",""1502""
","
","
","""event"",""trial"",""time""
""fullscreenenter"",""1"",""1502""
","
","","","","","","1233.3000001907349","images/apple1.png","","","memory_trial","1","definitely_old","","","","","","",""
"html-keyboard-response","205","449906","0.0-15.0-0.81","1633","2","""event"",""trial"",""time""
""fullscreenenter"",""1"",""1502""
","
","
","""event"",""trial"",""time""
""fullscreenenter"",""1"",""1502""
","
","","","","","","null","<div style=""font-size:60px;"">+</div>","null","","fixation","","","","","","","","",""
"memory-trial","206","451737","0.0-15.0-1.81","1633","2","""event"",""trial"",""time""
""fullscreenenter"",""1"",""1502""
","
","
","""event"",""trial"",""time""
""fullscreenenter"",""1"",""1502""
","
","","","","","","824.2999999523163","images/cactus2.png","","","memory_trial","4","definitely_new","","","","","","",""
"html-keyboard-response","207","452242","0.0-15.0-0.82","1633","2","""event"",""trial"",""time""
""fullscreenenter"",""1"",""1502""
","
","
","""event"",""trial"",""time""
""fullscreenenter"",""1"",""1502""
","
","","","","","","null","<div style=""font-size:60px;"">+</div>","null","","fixation","","","","","","","","",""
"memory-trial","208","454155","0.0-15.0-1.82","1633","2","""event"",""trial"",""time""
""fullscreenenter"",""1"",""1502""
","
","
","""event"",""trial"",""time""
""fullscreenenter"",""1"",""1502""
","
","","","","","","908.6000001430511","images/goat2.png","","","memory_trial","1","definitely_old","","","","","","",""
"html-keyboard-response","209","454665","0.0-15.0-0.83","1633","2","""event"",""trial"",""time""
""fullscreenenter"",""1"",""1502""
","
","
","""event"",""trial"",""time""
""fullscreenenter"",""1"",""1502""
","
","","","","","","null","<div style=""font-size:60px;"">+</div>","null","","fixation","","","","","","","","",""
"memory-trial","210","456580","0.0-15.0-1.83","1633","2","""event"",""trial"",""time""
""fullscreenenter"",""1"",""1502""
","
","
","""event"",""trial"",""time""
""fullscreenenter"",""1"",""1502""
","
","","","","","","905.1000001430511","images/table4.png","","","memory_trial","2","maybe_old","","","","","","",""
"html-keyboard-response","211","457091","0.0-15.0-0.84","1633","2","""event"",""trial"",""time""
""fullscreenenter"",""1"",""1502""
","
","
","""event"",""trial"",""time""
""fullscreenenter"",""1"",""1502""
","
","","","","","","null","<div style=""font-size:60px;"">+</div>","null","","fixation","","","","","","","","",""
"memory-trial","212","459502","0.0-15.0-1.84","1633","2","""event"",""trial"",""time""
""fullscreenenter"",""1"",""1502""
","
","
","""event"",""trial"",""time""
""fullscreenenter"",""1"",""1502""
","
","","","","","","1399.5999999046326","images/tree4.png","","","memory_trial","4","definitely_new","","","","","","",""
"html-keyboard-response","213","460006","0.0-15.0-0.85","1633","2","""event"",""trial"",""time""
""fullscreenenter"",""1"",""1502""
","
","
","""event"",""trial"",""time""
""fullscreenenter"",""1"",""1502""
","
","","","","","","null","<div style=""font-size:60px;"">+</div>","null","","fixation","","","","","","","","",""
"memory-trial","214","462346","0.0-15.0-1.85","1633","2","""event"",""trial"",""time""
""fullscreenenter"",""1"",""1502""
","
","
","""event"",""trial"",""time""
""fullscreenenter"",""1"",""1502""
","
","","","","","","1334.1000001430511","images/boat5.png","","","memory_trial","1","definitely_old","","","","","","",""
"html-keyboard-response","215","462853","0.0-15.0-0.86","1633","2","""event"",""trial"",""time""
""fullscreenenter"",""1"",""1502""
","
","
","""event"",""trial"",""time""
""fullscreenenter"",""1"",""1502""
","
","","","","","","null","<div style=""font-size:60px;"">+</div>","null","","fixation","","","","","","","","",""
"memory-trial","216","466016","0.0-15.0-1.86","1633","2","""event"",""trial"",""time""
""fullscreenenter"",""1"",""1502""
","
","
","""event"",""trial"",""time""
""fullscreenenter"",""1"",""1502""
","
","","","","","","2158","images/dog2.png","","","memory_trial","2","maybe_old","","","","","","",""
"html-keyboard-response","217","466534","0.0-15.0-0.87","1633","2","""event"",""trial"",""time""
""fullscreenenter"",""1"",""1502""
","
","
","""event"",""trial"",""time""
""fullscreenenter"",""1"",""1502""
","
","","","","","","null","<div style=""font-size:60px;"">+</div>","null","","fixation","","","","","","","","",""
"memory-trial","218","468932","0.0-15.0-1.87","1633","2","""event"",""trial"",""time""
""fullscreenenter"",""1"",""1502""
","
","
","""event"",""trial"",""time""
""fullscreenenter"",""1"",""1502""
","
","","","","","","1384.5","images/train5.png","","","memory_trial","4","definitely_new","","","","","","",""
"html-keyboard-response","219","469435","0.0-15.0-0.88","1633","2","""event"",""trial"",""time""
""fullscreenenter"",""1"",""1502""
","
","
","""event"",""trial"",""time""
""fullscreenenter"",""1"",""1502""
","
","","","","","","null","<div style=""font-size:60px;"">+</div>","null","","fixation","","","","","","","","",""
"memory-trial","220","471661","0.0-15.0-1.88","1633","2","""event"",""trial"",""time""
""fullscreenenter"",""1"",""1502""
","
","
","""event"",""trial"",""time""
""fullscreenenter"",""1"",""1502""
","
","","","","","","1213.2000000476837","images/truck2.png","","","memory_trial","4","definitely_new","","","","","","",""
"html-keyboard-response","221","472167","0.0-15.0-0.89","1633","2","""event"",""trial"",""time""
""fullscreenenter"",""1"",""1502""
","
","
","""event"",""trial"",""time""
""fullscreenenter"",""1"",""1502""
","
","","","","","","null","<div style=""font-size:60px;"">+</div>","null","","fixation","","","","","","","","",""
"memory-trial","222","474517","0.0-15.0-1.89","1633","2","""event"",""trial"",""time""
""fullscreenenter"",""1"",""1502""
","
","
","""event"",""trial"",""time""
""fullscreenenter"",""1"",""1502""
","
","","","","","","1333.9000000953674","images/plane3.png","","","memory_trial","1","definitely_old","","","","","","",""
"html-keyboard-response","223","475020","0.0-15.0-0.90","1633","2","""event"",""trial"",""time""
""fullscreenenter"",""1"",""1502""
","
","
","""event"",""trial"",""time""
""fullscreenenter"",""1"",""1502""
","
","","","","","","null","<div style=""font-size:60px;"">+</div>","null","","fixation","","","","","","","","",""
"memory-trial","224","477162","0.0-15.0-1.90","1633","2","""event"",""trial"",""time""
""fullscreenenter"",""1"",""1502""
","
","
","""event"",""trial"",""time""
""fullscreenenter"",""1"",""1502""
","
","","","","","","1129.9000000953674","images/plane5.png","","","memory_trial","1","definitely_old","","","","","","",""
"html-keyboard-response","225","477666","0.0-15.0-0.91","1633","2","""event"",""trial"",""time""
""fullscreenenter"",""1"",""1502""
","
","
","""event"",""trial"",""time""
""fullscreenenter"",""1"",""1502""
","
","","","","","","null","<div style=""font-size:60px;"">+</div>","null","","fixation","","","","","","","","",""
"memory-trial","226","480320","0.0-15.0-1.91","1633","2","""event"",""trial"",""time""
""fullscreenenter"",""1"",""1502""
","
","
","""event"",""trial"",""time""
""fullscreenenter"",""1"",""1502""
","
","","","","","","1642","images/dog1.png","","","memory_trial","4","definitely_new","","","","","","",""
"html-keyboard-response","227","480830","0.0-15.0-0.92","1633","2","""event"",""trial"",""time""
""fullscreenenter"",""1"",""1502""
","
","
","""event"",""trial"",""time""
""fullscreenenter"",""1"",""1502""
","
","","","","","","null","<div style=""font-size:60px;"">+</div>","null","","fixation","","","","","","","","",""
"memory-trial","228","483097","0.0-15.0-1.92","1633","2","""event"",""trial"",""time""
""fullscreenenter"",""1"",""1502""
","
","
","""event"",""trial"",""time""
""fullscreenenter"",""1"",""1502""
","
","","","","","","1260.5","images/horse4.png","","","memory_trial","1","definitely_old","","","","","","",""
"html-keyboard-response","229","483604","0.0-15.0-0.93","1633","2","""event"",""trial"",""time""
""fullscreenenter"",""1"",""1502""
","
","
","""event"",""trial"",""time""
""fullscreenenter"",""1"",""1502""
","
","","","","","","null","<div style=""font-size:60px;"">+</div>","null","","fixation","","","","","","","","",""
"memory-trial","230","485653","0.0-15.0-1.93","1633","2","""event"",""trial"",""time""
""fullscreenenter"",""1"",""1502""
","
","
","""event"",""trial"",""time""
""fullscreenenter"",""1"",""1502""
","
","","","","","","1035.5","images/apple3.png","","","memory_trial","1","definitely_old","","","","","","",""
"html-keyboard-response","231","486160","0.0-15.0-0.94","1633","2","""event"",""trial"",""time""
""fullscreenenter"",""1"",""1502""
","
","
","""event"",""trial"",""time""
""fullscreenenter"",""1"",""1502""
","
","","","","","","null","<div style=""font-size:60px;"">+</div>","null","","fixation","","","","","","","","",""
"memory-trial","232","489055","0.0-15.0-1.94","1633","2","""event"",""trial"",""time""
""fullscreenenter"",""1"",""1502""
","
","
","""event"",""trial"",""time""
""fullscreenenter"",""1"",""1502""
","
","","","","","","1880.4000000953674","images/bed3.png","","","memory_trial","1","definitely_old","","","","","","",""
"html-keyboard-response","233","489564","0.0-15.0-0.95","1633","2","""event"",""trial"",""time""
""fullscreenenter"",""1"",""1502""
","
","
","""event"",""trial"",""time""
""fullscreenenter"",""1"",""1502""
","
","","","","","","null","<div style=""font-size:60px;"">+</div>","null","","fixation","","","","","","","","",""
"memory-trial","234","492435","0.0-15.0-1.95","1633","2","""event"",""trial"",""time""
""fullscreenenter"",""1"",""1502""
","
","
","""event"",""trial"",""time""
""fullscreenenter"",""1"",""1502""
","
","","","","","","1849.5999999046326","images/goat4.png","","","memory_trial","4","definitely_new","","","","","","",""
"html-keyboard-response","235","492941","0.0-15.0-0.96","1633","2","""event"",""trial"",""time""
""fullscreenenter"",""1"",""1502""
","
","
","""event"",""trial"",""time""
""fullscreenenter"",""1"",""1502""
","
","","","","","","null","<div style=""font-size:60px;"">+</div>","null","","fixation","","","","","","","","",""
"memory-trial","236","495224","0.0-15.0-1.96","1633","2","""event"",""trial"",""time""
""fullscreenenter"",""1"",""1502""
","
","
","""event"",""trial"",""time""
""fullscreenenter"",""1"",""1502""
","
","","","","","","1274.5999999046326","images/boat1.png","","","memory_trial","1","definitely_old","","","","","","",""
"html-keyboard-response","237","495740","0.0-15.0-0.97","1633","2","""event"",""trial"",""time""
""fullscreenenter"",""1"",""1502""
","
","
","""event"",""trial"",""time""
""fullscreenenter"",""1"",""1502""
","
","","","","","","null","<div style=""font-size:60px;"">+</div>","null","","fixation","","","","","","","","",""
"memory-trial","238","497745","0.0-15.0-1.97","1633","2","""event"",""trial"",""time""
""fullscreenenter"",""1"",""1502""
","
","
","""event"",""trial"",""time""
""fullscreenenter"",""1"",""1502""
","
","","","","","","992.7000000476837","images/rabbit1.png","","","memory_trial","1","definitely_old","","","","","","",""
"html-keyboard-response","239","498256","0.0-15.0-0.98","1633","2","""event"",""trial"",""time""
""fullscreenenter"",""1"",""1502""
","
","
","""event"",""trial"",""time""
""fullscreenenter"",""1"",""1502""
","
","","","","","","null","<div style=""font-size:60px;"">+</div>","null","","fixation","","","","","","","","",""
"memory-trial","240","500130","0.0-15.0-1.98","1633","2","""event"",""trial"",""time""
""fullscreenenter"",""1"",""1502""
","
","
","""event"",""trial"",""time""
""fullscreenenter"",""1"",""1502""
","
","","","","","","868.7000000476837","images/sofa3.png","","","memory_trial","1","definitely_old","","","","","","",""
"html-keyboard-response","241","500645","0.0-15.0-0.99","1633","2","""event"",""trial"",""time""
""fullscreenenter"",""1"",""1502""
","
","
","""event"",""trial"",""time""
""fullscreenenter"",""1"",""1502""
","
","","","","","","null","<div style=""font-size:60px;"">+</div>","null","","fixation","","","","","","","","",""
"memory-trial","242","503263","0.0-15.0-1.99","1633","2","""event"",""trial"",""time""
""fullscreenenter"",""1"",""1502""
","
","
","""event"",""trial"",""time""
""fullscreenenter"",""1"",""1502""
","
","","","","","","1610.1999998092651","images/sofa1.png","","","memory_trial","4","definitely_new","","","","","","",""
"html-keyboard-response","243","503779","0.0-15.0-0.100","1633","2","""event"",""trial"",""time""
""fullscreenenter"",""1"",""1502""
","
","
","""event"",""trial"",""time""
""fullscreenenter"",""1"",""1502""
","
","","","","","","null","<div style=""font-size:60px;"">+</div>","null","","fixation","","","","","","","","",""
"memory-trial","244","506108","0.0-15.0-1.100","1633","2","""event"",""trial"",""time""
""fullscreenenter"",""1"",""1502""
","
","
","""event"",""trial"",""time""
""fullscreenenter"",""1"",""1502""
","
","","","","","","1315.8999998569489","images/chair5.png","","","memory_trial","4","definitely_new","","","","","","",""
"html-keyboard-response","245","506616","0.0-15.0-0.101","1633","2","""event"",""trial"",""time""
""fullscreenenter"",""1"",""1502""
","
","
","""event"",""trial"",""time""
""fullscreenenter"",""1"",""1502""
","
","","","","","","null","<div style=""font-size:60px;"">+</div>","null","","fixation","","","","","","","","",""
"memory-trial","246","508800","0.0-15.0-1.101","1633","2","""event"",""trial"",""time""
""fullscreenenter"",""1"",""1502""
","
","
","""event"",""trial"",""time""
""fullscreenenter"",""1"",""1502""
","
","","","","","","1169.4000000953674","images/plane2.png","","","memory_trial","4","definitely_new","","","","","","",""
"html-button-response","247","522653","0.0-15.0-2.101-0.101","1633","2","""event"",""trial"",""time""
""fullscreenenter"",""1"",""1502""
","
","
","""event"",""trial"",""time""
""fullscreenenter"",""1"",""1502""
","
","","","","","","13851.100000143051","<p> Take a break! </p><p> Click the button to continue. </p>","0","","break","","","","","","","","",""
"html-keyboard-response","248","523154","0.0-15.0-0.102","1633","2","""event"",""trial"",""time""
""fullscreenenter"",""1"",""1502""
","
","
","""event"",""trial"",""time""
""fullscreenenter"",""1"",""1502""
","
","","","","","","null","<div style=""font-size:60px;"">+</div>","null","","fixation","","","","","","","","",""
"memory-trial","249","525985","0.0-15.0-1.102","1633","2","""event"",""trial"",""time""
""fullscreenenter"",""1"",""1502""
","
","
","""event"",""trial"",""time""
""fullscreenenter"",""1"",""1502""
","
","","","","","","1819.2999999523163","images/boat2.png","","","memory_trial","4","definitely_new","","","","","","",""
"html-keyboard-response","250","526499","0.0-15.0-0.103","1633","2","""event"",""trial"",""time""
""fullscreenenter"",""1"",""1502""
","
","
","""event"",""trial"",""time""
""fullscreenenter"",""1"",""1502""
","
","","","","","","null","<div style=""font-size:60px;"">+</div>","null","","fixation","","","","","","","","",""
"memory-trial","251","528351","0.0-15.0-1.103","1633","2","""event"",""trial"",""time""
""fullscreenenter"",""1"",""1502""
","
","
","""event"",""trial"",""time""
""fullscreenenter"",""1"",""1502""
","
","","","","","","846.8999998569489","images/truck1.png","","","memory_trial","4","definitely_new","","","","","","",""
"html-keyboard-response","252","528869","0.0-15.0-0.104","1633","2","""event"",""trial"",""time""
""fullscreenenter"",""1"",""1502""
","
","
","""event"",""trial"",""time""
""fullscreenenter"",""1"",""1502""
","
","","","","","","null","<div style=""font-size:60px;"">+</div>","null","","fixation","","","","","","","","",""
"memory-trial","253","531234","0.0-15.0-1.104","1633","2","""event"",""trial"",""time""
""fullscreenenter"",""1"",""1502""
","
","
","""event"",""trial"",""time""
""fullscreenenter"",""1"",""1502""
","
","","","","","","1357.0999999046326","images/bush1.png","","","memory_trial","2","maybe_old","","","","","","",""
"html-keyboard-response","254","531740","0.0-15.0-0.105","1633","2","""event"",""trial"",""time""
""fullscreenenter"",""1"",""1502""
","
","
","""event"",""trial"",""time""
""fullscreenenter"",""1"",""1502""
","
","","","","","","null","<div style=""font-size:60px;"">+</div>","null","","fixation","","","","","","","","",""
"memory-trial","255","533777","0.0-15.0-1.105","1633","2","""event"",""trial"",""time""
""fullscreenenter"",""1"",""1502""
","
","
","""event"",""trial"",""time""
""fullscreenenter"",""1"",""1502""
","
","","","","","","1024.4000000953674","images/train3.png","","","memory_trial","1","definitely_old","","","","","","",""
"html-keyboard-response","256","534286","0.0-15.0-0.106","1633","2","""event"",""trial"",""time""
""fullscreenenter"",""1"",""1502""
","
","
","""event"",""trial"",""time""
""fullscreenenter"",""1"",""1502""
","
","","","","","","null","<div style=""font-size:60px;"">+</div>","null","","fixation","","","","","","","","",""
"memory-trial","257","536548","0.0-15.0-1.106","1633","2","""event"",""trial"",""time""
""fullscreenenter"",""1"",""1502""
","
","
","""event"",""trial"",""time""
""fullscreenenter"",""1"",""1502""
","
","","","","","","1249.2000000476837","images/straw4.png","","","memory_trial","2","maybe_old","","","","","","",""
"html-keyboard-response","258","537058","0.0-15.0-0.107","1633","2","""event"",""trial"",""time""
""fullscreenenter"",""1"",""1502""
","
","
","""event"",""trial"",""time""
""fullscreenenter"",""1"",""1502""
","
","","","","","","null","<div style=""font-size:60px;"">+</div>","null","","fixation","","","","","","","","",""
"memory-trial","259","539209","0.0-15.0-1.107","1633","2","""event"",""trial"",""time""
""fullscreenenter"",""1"",""1502""
","
","
","""event"",""trial"",""time""
""fullscreenenter"",""1"",""1502""
","
","","","","","","1146.2999999523163","images/boat3.png","","","memory_trial","1","definitely_old","","","","","","",""
"html-keyboard-response","260","539718","0.0-15.0-0.108","1633","2","""event"",""trial"",""time""
""fullscreenenter"",""1"",""1502""
","
","
","""event"",""trial"",""time""
""fullscreenenter"",""1"",""1502""
","
","","","","","","null","<div style=""font-size:60px;"">+</div>","null","","fixation","","","","","","","","",""
"memory-trial","261","541679","0.0-15.0-1.108","1633","2","""event"",""trial"",""time""
""fullscreenenter"",""1"",""1502""
","
","
","""event"",""trial"",""time""
""fullscreenenter"",""1"",""1502""
","
","","","","","","955","images/tree2.png","","","memory_trial","1","definitely_old","","","","","","",""
"html-keyboard-response","262","542187","0.0-15.0-0.109","1633","2","""event"",""trial"",""time""
""fullscreenenter"",""1"",""1502""
","
","
","""event"",""trial"",""time""
""fullscreenenter"",""1"",""1502""
","
","","","","","","null","<div style=""font-size:60px;"">+</div>","null","","fixation","","","","","","","","",""
"memory-trial","263","545325","0.0-15.0-1.109","1633","2","""event"",""trial"",""time""
""fullscreenenter"",""1"",""1502""
","
","
","""event"",""trial"",""time""
""fullscreenenter"",""1"",""1502""
","
","","","","","","2129","images/tree3.png","","","memory_trial","3","maybe_new","","","","","","",""
"html-keyboard-response","264","545834","0.0-15.0-0.110","1633","2","""event"",""trial"",""time""
""fullscreenenter"",""1"",""1502""
","
","
","""event"",""trial"",""time""
""fullscreenenter"",""1"",""1502""
","
","","","","","","null","<div style=""font-size:60px;"">+</div>","null","","fixation","","","","","","","","",""
"memory-trial","265","548625","0.0-15.0-1.110","1633","2","""event"",""trial"",""time""
""fullscreenenter"",""1"",""1502""
","
","
","""event"",""trial"",""time""
""fullscreenenter"",""1"",""1502""
","
","","","","","","1779.5999999046326","images/banana4.png","","","memory_trial","2","maybe_old","","","","","","",""
"html-keyboard-response","266","549128","0.0-15.0-0.111","1633","2","""event"",""trial"",""time""
""fullscreenenter"",""1"",""1502""
","
","
","""event"",""trial"",""time""
""fullscreenenter"",""1"",""1502""
","
","","","","","","null","<div style=""font-size:60px;"">+</div>","null","","fixation","","","","","","","","",""
"memory-trial","267","552377","0.0-15.0-1.111","1633","2","""event"",""trial"",""time""
""fullscreenenter"",""1"",""1502""
","
","
","""event"",""trial"",""time""
""fullscreenenter"",""1"",""1502""
","
","","","","","","2238.100000143051","images/banana3.png","","","memory_trial","3","maybe_new","","","","","","",""
"html-keyboard-response","268","552885","0.0-15.0-0.112","1633","2","""event"",""trial"",""time""
""fullscreenenter"",""1"",""1502""
","
","
","""event"",""trial"",""time""
""fullscreenenter"",""1"",""1502""
","
","","","","","","null","<div style=""font-size:60px;"">+</div>","null","","fixation","","","","","","","","",""
"memory-trial","269","555161","0.0-15.0-1.112","1633","2","""event"",""trial"",""time""
""fullscreenenter"",""1"",""1502""
","
","
","""event"",""trial"",""time""
""fullscreenenter"",""1"",""1502""
","
","","","","","","1259.5","images/train4.png","","","memory_trial","1","definitely_old","","","","","","",""
"html-keyboard-response","270","555679","0.0-15.0-0.113","1633","2","""event"",""trial"",""time""
""fullscreenenter"",""1"",""1502""
","
","
","""event"",""trial"",""time""
""fullscreenenter"",""1"",""1502""
","
","","","","","","null","<div style=""font-size:60px;"">+</div>","null","","fixation","","","","","","","","",""
"memory-trial","271","558682","0.0-15.0-1.113","1633","2","""event"",""trial"",""time""
""fullscreenenter"",""1"",""1502""
","
","
","""event"",""trial"",""time""
""fullscreenenter"",""1"",""1502""
","
","","","","","","1992.5999999046326","images/apple5.png","","","memory_trial","4","definitely_new","","","","","","",""
"html-keyboard-response","272","559198","0.0-15.0-0.114","1633","2","""event"",""trial"",""time""
""fullscreenenter"",""1"",""1502""
","
","
","""event"",""trial"",""time""
""fullscreenenter"",""1"",""1502""
","
","","","","","","null","<div style=""font-size:60px;"">+</div>","null","","fixation","","","","","","","","",""
"memory-trial","273","561566","0.0-15.0-1.114","1633","2","""event"",""trial"",""time""
""fullscreenenter"",""1"",""1502""
","
","
","""event"",""trial"",""time""
""fullscreenenter"",""1"",""1502""
","
","","","","","","1357.4000000953674","images/sheep2.png","","","memory_trial","4","definitely_new","","","","","","",""
"html-keyboard-response","274","562084","0.0-15.0-0.115","1633","2","""event"",""trial"",""time""
""fullscreenenter"",""1"",""1502""
","
","
","""event"",""trial"",""time""
""fullscreenenter"",""1"",""1502""
","
","","","","","","null","<div style=""font-size:60px;"">+</div>","null","","fixation","","","","","","","","",""
"memory-trial","275","564663","0.0-15.0-1.115","1633","2","""event"",""trial"",""time""
""fullscreenenter"",""1"",""1502""
","
","
","""event"",""trial"",""time""
""fullscreenenter"",""1"",""1502""
","
","","","","","","1570.3999998569489","images/boat4.png","","","memory_trial","4","definitely_new","","","","","","",""
"html-keyboard-response","276","565167","0.0-15.0-0.116","1633","2","""event"",""trial"",""time""
""fullscreenenter"",""1"",""1502""
","
","
","""event"",""trial"",""time""
""fullscreenenter"",""1"",""1502""
","
","","","","","","null","<div style=""font-size:60px;"">+</div>","null","","fixation","","","","","","","","",""
"memory-trial","277","567520","0.0-15.0-1.116","1633","2","""event"",""trial"",""time""
""fullscreenenter"",""1"",""1502""
","
","
","""event"",""trial"",""time""
""fullscreenenter"",""1"",""1502""
","
","","","","","","1338.7000000476837","images/feline4.png","","","memory_trial","4","definitely_new","","","","","","",""
"html-keyboard-response","278","568038","0.0-15.0-0.117","1633","2","""event"",""trial"",""time""
""fullscreenenter"",""1"",""1502""
","
","
","""event"",""trial"",""time""
""fullscreenenter"",""1"",""1502""
","
","","","","","","null","<div style=""font-size:60px;"">+</div>","null","","fixation","","","","","","","","",""
"memory-trial","279","569915","0.0-15.0-1.117","1633","2","""event"",""trial"",""time""
""fullscreenenter"",""1"",""1502""
","
","
","""event"",""trial"",""time""
""fullscreenenter"",""1"",""1502""
","
","","","","","","866.4000000953674","images/banana2.png","","","memory_trial","4","definitely_new","","","","","","",""
"html-keyboard-response","280","570420","0.0-15.0-0.118","1633","2","""event"",""trial"",""time""
""fullscreenenter"",""1"",""1502""
","
","
","""event"",""trial"",""time""
""fullscreenenter"",""1"",""1502""
","
","","","","","","null","<div style=""font-size:60px;"">+</div>","null","","fixation","","","","","","","","",""
"memory-trial","281","573590","0.0-15.0-1.118","1633","2","""event"",""trial"",""time""
""fullscreenenter"",""1"",""1502""
","
","
","""event"",""trial"",""time""
""fullscreenenter"",""1"",""1502""
","
","","","","","","2165.2999999523163","images/horse2.png","","","memory_trial","1","definitely_old","","","","","","",""
"html-keyboard-response","282","574092","0.0-15.0-0.119","1633","2","""event"",""trial"",""time""
""fullscreenenter"",""1"",""1502""
","
","
","""event"",""trial"",""time""
""fullscreenenter"",""1"",""1502""
","
","","","","","","null","<div style=""font-size:60px;"">+</div>","null","","fixation","","","","","","","","",""
"memory-trial","283","576642","0.0-15.0-1.119","1633","2","""event"",""trial"",""time""
""fullscreenenter"",""1"",""1502""
","
","
","""event"",""trial"",""time""
""fullscreenenter"",""1"",""1502""
","
","","","","","","1531.9000000953674","images/horse5.png","","","memory_trial","4","definitely_new","","","","","","",""
"preload","284","578970","0.0-16.0","1633","2","""event"",""trial"",""time""
""fullscreenenter"",""1"",""1502""
","
","
","""event"",""trial"",""time""
""fullscreenenter"",""1"",""1502""
","
","true","false","[]","[]","[]","","","","","","","","","","","","","",""
"learning-instructions","285","587262","0.0-17.0-0.0-0.0-0.0","1633","2","""event"",""trial"",""time""
""fullscreenenter"",""1"",""1502""
","
","
","""event"",""trial"",""time""
""fullscreenenter"",""1"",""1502""
","
","","","","","","5348.900000095367","<p> We're now going to ask you to buy fruit again. </p>","","0","instructions","","","","","","","","",""
"learning-instructions","286","592961","0.0-17.0-0.0-0.0-0.1","1633","2","""event"",""trial"",""time""
""fullscreenenter"",""1"",""1502""
","
","
","""event"",""trial"",""time""
""fullscreenenter"",""1"",""1502""
","
","","","","","","827.2000000476837","<p> On each trial, you will see a fruit. Select the store where you think you can buy the fruit. </p>","","0","instructions","","","","","","","","",""
"learning-instructions","287","603137","0.0-17.0-0.0-0.0-0.2","1633","2","""event"",""trial"",""time""
""fullscreenenter"",""1"",""1502""
","
","
","""event"",""trial"",""time""
""fullscreenenter"",""1"",""1502""
","
","","","","","","3103.899999856949","<p> To make your selection, think about what you learned last week. You will NOT receive any feedback about your choice. </p>","","0","instructions","","","","","","","","",""
"learning-instructions","288","613075","0.0-17.0-0.0-0.0-0.3","1633","2","""event"",""trial"",""time""
""fullscreenenter"",""1"",""1502""
","
","
","""event"",""trial"",""time""
""fullscreenenter"",""1"",""1502""
","
","","","","","","2344.2999999523163","<p> You should use the 1 key to select the store on the left, the 2 key to select the store in the middle, and the 3 key to select the store on the right. </p><br><div class=""choice-mem-instructions-grid""> <div class=""choice-mem-option""><img src=""images/fruit_choice1.png"" class=""choice-mem-option-img"" stage=""instructions"" position=""0"" ><div class=""choice-mem-option-text""> Press ""1."" </div></div><div class=""choice-mem-option""><img src=""images/fruit_choice2.png"" class=""choice-mem-option-img"" stage=""instructions"" position=""1"" ><div class=""choice-mem-option-text""> Press ""2."" </div></div><div class=""choice-mem-option""><img src=""images/fruit_choice3.png"" class=""choice-mem-option-img"" stage=""instructions"" position=""2"" ><div class=""choice-mem-option-text""> Press ""3."" </div></div></div>","","0","instructions","","","","","","","","",""
"learning-instructions","289","620983","0.0-17.0-0.0-0.0-0.4","1633","2","""event"",""trial"",""time""
""fullscreenenter"",""1"",""1502""
","
","
","""event"",""trial"",""time""
""fullscreenenter"",""1"",""1502""
","
","","","","","","1623.9000000953674","<p> You will have 10 seconds to make each selection. Try to respond before time runs out! </p>","","0","instructions","","","","","","","","",""
"learning-instructions","290","623565","0.0-17.0-0.0-1.0","1633","2","""event"",""trial"",""time""
""fullscreenenter"",""1"",""1502""
","
","
","""event"",""trial"",""time""
""fullscreenenter"",""1"",""1502""
","
","","","","","","525.1999998092651","<p> You are now ready to begin the game. </p>","","0","instructions","","","","","","","","",""
"html-keyboard-response","291","624188","0.0-17.0-0.0-2.0-0.0","1633","2","""event"",""trial"",""time""
""fullscreenenter"",""1"",""1502""
","
","
","""event"",""trial"",""time""
""fullscreenenter"",""1"",""1502""
","
","","","","","","null","<div style=""font-size:60px;"">+</div>","null","","fixation","","","","","","","","",""
"choice-memory-trial","292","627511","0.0-17.0-0.0-2.0-1.0","1633","2","""event"",""trial"",""time""
""fullscreenenter"",""1"",""1502""
","
","
","""event"",""trial"",""time""
