"trial_type","trial_index","time_elapsed","internal_node_id","subject_id","task_version","interactions","blur_events","focus_events","fullscreenenter_events","fullscreenexit_events","success","timeout","failed_images","failed_audio","failed_video","rt","stimulus","response","button_pressed","task_part","key_press","answer","correct","left_choice","middle_choice","right_choice","choice_positions","option_selected","block"
"pavlovia","0","2","0.0-0.0","1901","2","""event"",""trial"",""time""
""fullscreenenter"",""1"",""1752""
","
","
","""event"",""trial"",""time""
""fullscreenenter"",""1"",""1752""
","
","","","","","","","","","","","","","","","","","","",""
"fullscreen","1","2719","0.0-1.0","1901","2","""event"",""trial"",""time""
""fullscreenenter"",""1"",""1752""
","
","
","""event"",""trial"",""time""
""fullscreenenter"",""1"",""1752""
","
","true","","","","","","","","","","","","","","","","","",""
"preload","2","2750","0.0-2.0","1901","2","""event"",""trial"",""time""
""fullscreenenter"",""1"",""1752""
","
","
","""event"",""trial"",""time""
""fullscreenenter"",""1"",""1752""
","
","true","false","[]","[]","[]","","","","","","","","","","","","","",""
"audio-keyboard-response","3","7159","0.0-3.0","1901","2","""event"",""trial"",""time""
""fullscreenenter"",""1"",""1752""
","
","
","""event"",""trial"",""time""
""fullscreenenter"",""1"",""1752""
","
","","","","","","4307.3015873015875","audio/beep_loop.wav"," ","","","","","","","","","","",""
"audio-button-response","4","9390","0.0-4.0","1901","2","""event"",""trial"",""time""
""fullscreenenter"",""1"",""1752""
","
","
","""event"",""trial"",""time""
""fullscreenenter"",""1"",""1752""
","
","","","","","","2229","audio/turtle.wav","3","","","","","","","","","","",""
"audio-button-response","5","12248","0.0-5.0","1901","2","""event"",""trial"",""time""
""fullscreenenter"",""1"",""1752""
","
","
","""event"",""trial"",""time""
""fullscreenenter"",""1"",""1752""
","
","","","","","","1852","audio/shark.wav","2","","","","","","","","","","",""
"preload","6","13439","0.0-6.0","1901","2","""event"",""trial"",""time""
""fullscreenenter"",""1"",""1752""
","
","
","""event"",""trial"",""time""
""fullscreenenter"",""1"",""1752""
","
","true","false","[]","[]","[]","","","","","","","","","","","","","",""
"learning-instructions","7","22615","0.0-7.0-0.0","1901","2","""event"",""trial"",""time""
""fullscreenenter"",""1"",""1752""
","
","
","""event"",""trial"",""time""
""fullscreenenter"",""1"",""1752""
","
","","","","","","4367.5","<p> Welcome back! </p><p> Last week, you had to make choices about lots of different items.  </p>","","0","instructions","","","","","","","","",""
"learning-instructions","8","28326","0.0-7.0-0.1","1901","2","""event"",""trial"",""time""
""fullscreenenter"",""1"",""1752""
","
","
","""event"",""trial"",""time""
""fullscreenenter"",""1"",""1752""
","
","","","","","","1411.699999988079","<p> Today, we are going to ask you to try to remember all the items. </p>","","0","instructions","","","","","","","","",""
"learning-instructions","9","39254","0.0-7.0-0.2","1901","2","""event"",""trial"",""time""
""fullscreenenter"",""1"",""1752""
","
","
","""event"",""trial"",""time""
""fullscreenenter"",""1"",""1752""
","
","","","","","","792.6999999880791","<p> On every trial, you will see an image. </p><p> The image may be an OLD image you saw during the games last week or it may be a NEW image that was not presented. </p>","","0","instructions","","","","","","","","",""
"learning-instructions","10","51507","0.0-7.0-0.3","1901","2","""event"",""trial"",""time""
""fullscreenenter"",""1"",""1752""
""blur"",""11"",""59802""
","""event"",""trial"",""time""
""blur"",""11"",""59802""
","
","""event"",""trial"",""time""
""fullscreenenter"",""1"",""1752""
","
","","","","","","3751","<p> You need to select whether the image is:  </p><p>  'Definitely old', 'Maybe old', 'Maybe new', or 'Definitely new.'  </p><div class=""mem-choice-instructions-grid""><div class=""choice-option"" id=""choice-option-1"" ><img src=""images/definitely_old_1.png"" id=""choice-option-img-1"" class=""choice-option-img"" stage=""1""></div><div class=""choice-option"" id=""choice-option-2"" ><img src=""images/maybe_old_1.png"" id=""choice-option-img-2"" class=""choice-option-img"" stage=""1""></div><div class=""choice-option"" id=""choice-option-3"" ><img src=""images/maybe_new_1.png"" id=""choice-option-img-3"" class=""choice-option-img"" stage=""1""></div><div class=""choice-option"" id=""choice-option-4"" > <img src=""images/definitely_new_1.png"" id=""choice-option-img-4"" class=""choice-option-img"" stage=""1""></div></div>","","0","instructions","","","","","","","","",""
"learning-instructions","11","59834","0.0-7.0-0.4","1901","2","""event"",""trial"",""time""
""fullscreenenter"",""1"",""1752""
""blur"",""11"",""59802""
""focus"",""12"",""61218""
","""event"",""trial"",""time""
""blur"",""11"",""59802""
","""event"",""trial"",""time""
""focus"",""12"",""61218""
","""event"",""trial"",""time""
""fullscreenenter"",""1"",""1752""
","
","","","","","","1635.0999999940395","<p> You should use the 1, 2, 3, and 4 keys to make your responses.  </p><div class=""mem-choice-instructions-grid""><div class=""choice-option"" id=""choice-option-1"" ><img src=""images/definitely_old.png"" id=""choice-option-img-1"" class=""choice-option-img"" stage=""1""></div><div class=""choice-option"" id=""choice-option-2"" ><img src=""images/maybe_old.png"" id=""choice-option-img-2"" class=""choice-option-img"" stage=""1""></div><div class=""choice-option"" id=""choice-option-3"" ><img src=""images/maybe_new.png"" id=""choice-option-img-3"" class=""choice-option-img"" stage=""1""></div><div class=""choice-option"" id=""choice-option-4"" > <img src=""images/definitely_new.png"" id=""choice-option-img-4"" class=""choice-option-img"" stage=""1""></div></div>","","0","instructions","","","","","","","","",""
"learning-instructions","12","68099","0.0-7.0-0.5","1901","2","""event"",""trial"",""time""
""fullscreenenter"",""1"",""1752""
""blur"",""11"",""59802""
""focus"",""12"",""61218""
""blur"",""13"",""76915""
","""event"",""trial"",""time""
""blur"",""11"",""59802""
""blur"",""13"",""76915""
","""event"",""trial"",""time""
""focus"",""12"",""61218""
","""event"",""trial"",""time""
""fullscreenenter"",""1"",""1752""
","
","","","","","","1500.2000000178814","<p> You will have 10 seconds to make each response.  </p><p>  Make sure to respond before time runs out! </p>","","0","instructions","","","","","","","","",""
"learning-instructions","13","76919","0.0-7.0-0.6","1901","2","""event"",""trial"",""time""
""fullscreenenter"",""1"",""1752""
""blur"",""11"",""59802""
""focus"",""12"",""61218""
""blur"",""13"",""76915""
""focus"",""14"",""78704""
","""event"",""trial"",""time""
""blur"",""11"",""59802""
""blur"",""13"",""76915""
","""event"",""trial"",""time""
""focus"",""12"",""61218""
""focus"",""14"",""78704""
","""event"",""trial"",""time""
""fullscreenenter"",""1"",""1752""
","
","","","","","","1241.9000000059605","<p> Today, you will see each image ONCE only.  </p><p>  That means none of the images will repeat. </p>","","0","instructions","","","","","","","","",""
"learning-instructions","14","90349","0.0-7.0-0.7","1901","2","""event"",""trial"",""time""
""fullscreenenter"",""1"",""1752""
""blur"",""11"",""59802""
""focus"",""12"",""61218""
""blur"",""13"",""76915""
""focus"",""14"",""78704""
","""event"",""trial"",""time""
""blur"",""11"",""59802""
""blur"",""13"",""76915""
","""event"",""trial"",""time""
""focus"",""12"",""61218""
""focus"",""14"",""78704""
","""event"",""trial"",""time""
""fullscreenenter"",""1"",""1752""
","
","","","","","","763","<p> Before you play the real game, it is time to practice. </p><p>  Just like in the real game, some of the images in the practice will be ones you have seen before. </p><p>  Others will be entirely new. </p>","","0","instructions","","","","","","","","",""
"html-button-response","15","93424","0.0-8.0","1901","2","""event"",""trial"",""time""
""fullscreenenter"",""1"",""1752""
""blur"",""11"",""59802""
""focus"",""12"",""61218""
""blur"",""13"",""76915""
""focus"",""14"",""78704""
","""event"",""trial"",""time""
""blur"",""11"",""59802""
""blur"",""13"",""76915""
","""event"",""trial"",""time""
""focus"",""12"",""61218""
""focus"",""14"",""78704""
","""event"",""trial"",""time""
""fullscreenenter"",""1"",""1752""
","
","","","","","","2971.600000023842","<p> Ready to practice? </p><p> Remember, use the 1, 2, 3, and 4 keys to make your responses. </p>","0","","instructions","","","","","","","","",""
"html-keyboard-response","16","94032","0.0-9.0-0.0","1901","2","""event"",""trial"",""time""
""fullscreenenter"",""1"",""1752""
""blur"",""11"",""59802""
""focus"",""12"",""61218""
""blur"",""13"",""76915""
""focus"",""14"",""78704""
","""event"",""trial"",""time""
""blur"",""11"",""59802""
""blur"",""13"",""76915""
","""event"",""trial"",""time""
""focus"",""12"",""61218""
""focus"",""14"",""78704""
","""event"",""trial"",""time""
""fullscreenenter"",""1"",""1752""
","
","","","","","","null","<div style=""font-size:60px;"">+</div>","null","","fixation","","","","","","","","",""
"memory-trial","17","98329","0.0-9.0-1.0","1901","2","""event"",""trial"",""time""
""fullscreenenter"",""1"",""1752""
""blur"",""11"",""59802""
""focus"",""12"",""61218""
""blur"",""13"",""76915""
""focus"",""14"",""78704""
","""event"",""trial"",""time""
""blur"",""11"",""59802""
""blur"",""13"",""76915""
","""event"",""trial"",""time""
""focus"",""12"",""61218""
""focus"",""14"",""78704""
","""event"",""trial"",""time""
""fullscreenenter"",""1"",""1752""
","
","","","","","","3290.600000023842","images/racket4.png","","","practice","1","definitely_old","","","","","","",""
"html-keyboard-response","18","98833","0.0-9.0-0.1","1901","2","""event"",""trial"",""time""
""fullscreenenter"",""1"",""1752""
""blur"",""11"",""59802""
""focus"",""12"",""61218""
""blur"",""13"",""76915""
""focus"",""14"",""78704""
","""event"",""trial"",""time""
""blur"",""11"",""59802""
""blur"",""13"",""76915""
","""event"",""trial"",""time""
""focus"",""12"",""61218""
""focus"",""14"",""78704""
","""event"",""trial"",""time""
""fullscreenenter"",""1"",""1752""
","
","","","","","","null","<div style=""font-size:60px;"">+</div>","null","","fixation","","","","","","","","",""
"memory-trial","19","102729","0.0-9.0-1.1","1901","2","""event"",""trial"",""time""
""fullscreenenter"",""1"",""1752""
""blur"",""11"",""59802""
""focus"",""12"",""61218""
""blur"",""13"",""76915""
""focus"",""14"",""78704""
","""event"",""trial"",""time""
""blur"",""11"",""59802""
""blur"",""13"",""76915""
","""event"",""trial"",""time""
""focus"",""12"",""61218""
""focus"",""14"",""78704""
","""event"",""trial"",""time""
""fullscreenenter"",""1"",""1752""
","
","","","","","","2892.300000011921","images/racket1.png","","","practice","3","maybe_new","","","","","","",""
"html-keyboard-response","20","103234","0.0-9.0-0.2","1901","2","""event"",""trial"",""time""
""fullscreenenter"",""1"",""1752""
""blur"",""11"",""59802""
""focus"",""12"",""61218""
""blur"",""13"",""76915""
""focus"",""14"",""78704""
","""event"",""trial"",""time""
""blur"",""11"",""59802""
""blur"",""13"",""76915""
","""event"",""trial"",""time""
""focus"",""12"",""61218""
""focus"",""14"",""78704""
","""event"",""trial"",""time""
""fullscreenenter"",""1"",""1752""
","
","","","","","","null","<div style=""font-size:60px;"">+</div>","null","","fixation","","","","","","","","",""
"memory-trial","21","107767","0.0-9.0-1.2","1901","2","""event"",""trial"",""time""
""fullscreenenter"",""1"",""1752""
""blur"",""11"",""59802""
""focus"",""12"",""61218""
""blur"",""13"",""76915""
""focus"",""14"",""78704""
","""event"",""trial"",""time""
""blur"",""11"",""59802""
""blur"",""13"",""76915""
","""event"",""trial"",""time""
""focus"",""12"",""61218""
""focus"",""14"",""78704""
","""event"",""trial"",""time""
""fullscreenenter"",""1"",""1752""
","
","","","","","","3526.199999988079","images/ball4.png","","","practice","4","definitely_new","","","","","","",""
"html-keyboard-response","22","108272","0.0-9.0-0.3","1901","2","""event"",""trial"",""time""
""fullscreenenter"",""1"",""1752""
""blur"",""11"",""59802""
""focus"",""12"",""61218""
""blur"",""13"",""76915""
""focus"",""14"",""78704""
","""event"",""trial"",""time""
""blur"",""11"",""59802""
""blur"",""13"",""76915""
","""event"",""trial"",""time""
""focus"",""12"",""61218""
""focus"",""14"",""78704""
","""event"",""trial"",""time""
""fullscreenenter"",""1"",""1752""
","
","","","","","","null","<div style=""font-size:60px;"">+</div>","null","","fixation","","","","","","","","",""
"memory-trial","23","111419","0.0-9.0-1.3","1901","2","""event"",""trial"",""time""
""fullscreenenter"",""1"",""1752""
""blur"",""11"",""59802""
""focus"",""12"",""61218""
""blur"",""13"",""76915""
""focus"",""14"",""78704""
","""event"",""trial"",""time""
""blur"",""11"",""59802""
""blur"",""13"",""76915""
","""event"",""trial"",""time""
""focus"",""12"",""61218""
""focus"",""14"",""78704""
","""event"",""trial"",""time""
""fullscreenenter"",""1"",""1752""
","
","","","","","","2142.600000023842","images/ball3.png","","","practice","2","maybe_old","","","","","","",""
"html-keyboard-response","24","111924","0.0-9.0-0.4","1901","2","""event"",""trial"",""time""
""fullscreenenter"",""1"",""1752""
""blur"",""11"",""59802""
""focus"",""12"",""61218""
""blur"",""13"",""76915""
""focus"",""14"",""78704""
","""event"",""trial"",""time""
""blur"",""11"",""59802""
""blur"",""13"",""76915""
","""event"",""trial"",""time""
""focus"",""12"",""61218""
""focus"",""14"",""78704""
","""event"",""trial"",""time""
""fullscreenenter"",""1"",""1752""
","
","","","","","","null","<div style=""font-size:60px;"">+</div>","null","","fixation","","","","","","","","",""
"memory-trial","25","115181","0.0-9.0-1.4","1901","2","""event"",""trial"",""time""
""fullscreenenter"",""1"",""1752""
""blur"",""11"",""59802""
""focus"",""12"",""61218""
""blur"",""13"",""76915""
""focus"",""14"",""78704""
","""event"",""trial"",""time""
""blur"",""11"",""59802""
""blur"",""13"",""76915""
","""event"",""trial"",""time""
""focus"",""12"",""61218""
""focus"",""14"",""78704""
","""event"",""trial"",""time""
""fullscreenenter"",""1"",""1752""
","
","","","","","","2254.2000000178814","images/ball1.png","","","practice","1","definitely_old","","","","","","",""
"html-keyboard-response","26","115685","0.0-9.0-0.5","1901","2","""event"",""trial"",""time""
""fullscreenenter"",""1"",""1752""
""blur"",""11"",""59802""
""focus"",""12"",""61218""
""blur"",""13"",""76915""
""focus"",""14"",""78704""
","""event"",""trial"",""time""
""blur"",""11"",""59802""
""blur"",""13"",""76915""
","""event"",""trial"",""time""
""focus"",""12"",""61218""
""focus"",""14"",""78704""
","""event"",""trial"",""time""
""fullscreenenter"",""1"",""1752""
","
","","","","","","null","<div style=""font-size:60px;"">+</div>","null","","fixation","","","","","","","","",""
"memory-trial","27","118710","0.0-9.0-1.5","1901","2","""event"",""trial"",""time""
""fullscreenenter"",""1"",""1752""
""blur"",""11"",""59802""
""focus"",""12"",""61218""
""blur"",""13"",""76915""
""focus"",""14"",""78704""
","""event"",""trial"",""time""
""blur"",""11"",""59802""
""blur"",""13"",""76915""
","""event"",""trial"",""time""
""focus"",""12"",""61218""
""focus"",""14"",""78704""
","""event"",""trial"",""time""
""fullscreenenter"",""1"",""1752""
","
","","","","","","2018.0999999940395","images/racket3.png","","","practice","1","definitely_old","","","","","","",""
"html-keyboard-response","28","119214","0.0-9.0-0.6","1901","2","""event"",""trial"",""time""
""fullscreenenter"",""1"",""1752""
""blur"",""11"",""59802""
""focus"",""12"",""61218""
""blur"",""13"",""76915""
""focus"",""14"",""78704""
","""event"",""trial"",""time""
""blur"",""11"",""59802""
""blur"",""13"",""76915""
","""event"",""trial"",""time""
""focus"",""12"",""61218""
""focus"",""14"",""78704""
","""event"",""trial"",""time""
""fullscreenenter"",""1"",""1752""
","
","","","","","","null","<div style=""font-size:60px;"">+</div>","null","","fixation","","","","","","","","",""
"memory-trial","29","122159","0.0-9.0-1.6","1901","2","""event"",""trial"",""time""
""fullscreenenter"",""1"",""1752""
""blur"",""11"",""59802""
""focus"",""12"",""61218""
""blur"",""13"",""76915""
""focus"",""14"",""78704""
","""event"",""trial"",""time""
""blur"",""11"",""59802""
""blur"",""13"",""76915""
","""event"",""trial"",""time""
""focus"",""12"",""61218""
""focus"",""14"",""78704""
","""event"",""trial"",""time""
""fullscreenenter"",""1"",""1752""
","
","","","","","","1937.5","images/ball2.png","","","practice","1","definitely_old","","","","","","",""
"html-keyboard-response","30","122664","0.0-9.0-0.7","1901","2","""event"",""trial"",""time""
""fullscreenenter"",""1"",""1752""
""blur"",""11"",""59802""
""focus"",""12"",""61218""
""blur"",""13"",""76915""
""focus"",""14"",""78704""
","""event"",""trial"",""time""
""blur"",""11"",""59802""
""blur"",""13"",""76915""
","""event"",""trial"",""time""
""focus"",""12"",""61218""
""focus"",""14"",""78704""
","""event"",""trial"",""time""
""fullscreenenter"",""1"",""1752""
","
","","","","","","null","<div style=""font-size:60px;"">+</div>","null","","fixation","","","","","","","","",""
"memory-trial","31","125840","0.0-9.0-1.7","1901","2","""event"",""trial"",""time""
""fullscreenenter"",""1"",""1752""
""blur"",""11"",""59802""
""focus"",""12"",""61218""
""blur"",""13"",""76915""
""focus"",""14"",""78704""
","""event"",""trial"",""time""
""blur"",""11"",""59802""
""blur"",""13"",""76915""
","""event"",""trial"",""time""
""focus"",""12"",""61218""
""focus"",""14"",""78704""
","""event"",""trial"",""time""
""fullscreenenter"",""1"",""1752""
","
","","","","","","2167.2999999821186","images/racket2.png","","","practice","4","definitely_new","","","","","","",""
"learning-instructions","32","136177","0.0-10.0-0.0","1901","2","""event"",""trial"",""time""
""fullscreenenter"",""1"",""1752""
""blur"",""11"",""59802""
""focus"",""12"",""61218""
""blur"",""13"",""76915""
""focus"",""14"",""78704""
","""event"",""trial"",""time""
""blur"",""11"",""59802""
""blur"",""13"",""76915""
","""event"",""trial"",""time""
""focus"",""12"",""61218""
""focus"",""14"",""78704""
","""event"",""trial"",""time""
""fullscreenenter"",""1"",""1752""
","
","","","","","","2234.0999999940395","<p> Great! You have completed the practice. </p><p> Before you start, we're going to ask you a few questions about how the game works.  </p>","","0","instructions","","","","","","","","",""
"preload","33","136402","0.0-11.0","1901","2","""event"",""trial"",""time""
""fullscreenenter"",""1"",""1752""
""blur"",""11"",""59802""
""focus"",""12"",""61218""
""blur"",""13"",""76915""
""focus"",""14"",""78704""
","""event"",""trial"",""time""
""blur"",""11"",""59802""
""blur"",""13"",""76915""
","""event"",""trial"",""time""
""focus"",""12"",""61218""
""focus"",""14"",""78704""
","""event"",""trial"",""time""
""fullscreenenter"",""1"",""1752""
","
","true","false","[]","[]","[]","","","","","","","","","","","","","",""
"comp-q","34","145233","0.0-12.0-0.0","1901","2","""event"",""trial"",""time""
""fullscreenenter"",""1"",""1752""
""blur"",""11"",""59802""
""focus"",""12"",""61218""
""blur"",""13"",""76915""
""focus"",""14"",""78704""
","""event"",""trial"",""time""
""blur"",""11"",""59802""
""blur"",""13"",""76915""
","""event"",""trial"",""time""
""focus"",""12"",""61218""
""focus"",""14"",""78704""
","""event"",""trial"",""time""
""fullscreenenter"",""1"",""1752""
","
","","","","","","3000.699999988079","<p> <b> True or False? </b> </p><p> In this game, you will only see each image once. </p>","","0","comp_question","","","true","","","","","",""
"comp-q","35","152928","0.0-12.0-1.0","1901","2","""event"",""trial"",""time""
""fullscreenenter"",""1"",""1752""
""blur"",""11"",""59802""
""focus"",""12"",""61218""
""blur"",""13"",""76915""
""focus"",""14"",""78704""
","""event"",""trial"",""time""
""blur"",""11"",""59802""
""blur"",""13"",""76915""
","""event"",""trial"",""time""
""focus"",""12"",""61218""
""focus"",""14"",""78704""
","""event"",""trial"",""time""
""fullscreenenter"",""1"",""1752""
","
","","","","","","1355.6000000238419","<p> <b> That's right! </b> You will see many different images <i> one time each </i> in this game. </p>","","0","comp_answer","","","","","","","","",""
"comp-q","36","159774","0.0-12.0-0.1","1901","2","""event"",""trial"",""time""
""fullscreenenter"",""1"",""1752""
""blur"",""11"",""59802""
""focus"",""12"",""61218""
""blur"",""13"",""76915""
""focus"",""14"",""78704""
","""event"",""trial"",""time""
""blur"",""11"",""59802""
""blur"",""13"",""76915""
","""event"",""trial"",""time""
""focus"",""12"",""61218""
""focus"",""14"",""78704""
","""event"",""trial"",""time""
""fullscreenenter"",""1"",""1752""
","
","","","","","","1049.6000000238419","<p> <b> True or False? </b> </p><p> You should use the mouse and click to make your response. </p>","","1","comp_question","","","true","","","","","",""
"comp-q","37","168716","0.0-12.0-1.1","1901","2","""event"",""trial"",""time""
""fullscreenenter"",""1"",""1752""
""blur"",""11"",""59802""
""focus"",""12"",""61218""
""blur"",""13"",""76915""
""focus"",""14"",""78704""
","""event"",""trial"",""time""
""blur"",""11"",""59802""
""blur"",""13"",""76915""
","""event"",""trial"",""time""
""focus"",""12"",""61218""
""focus"",""14"",""78704""
","""event"",""trial"",""time""
""fullscreenenter"",""1"",""1752""
","
","","","","","","1597.7000000178814","<p><b> That's right! </b> You should use the '1', '2', '3', and '4' keys to make your response. </p>","","0","comp_answer","","","","","","","","",""
"comp-q","38","176675","0.0-12.0-0.2","1901","2","""event"",""trial"",""time""
""fullscreenenter"",""1"",""1752""
""blur"",""11"",""59802""
""focus"",""12"",""61218""
""blur"",""13"",""76915""
""focus"",""14"",""78704""
","""event"",""trial"",""time""
""blur"",""11"",""59802""
""blur"",""13"",""76915""
","""event"",""trial"",""time""
""focus"",""12"",""61218""
""focus"",""14"",""78704""
","""event"",""trial"",""time""
""fullscreenenter"",""1"",""1752""
","
","","","","","","1963.4000000059605","<p> <b> True or False? </b> </p><p> You will have as much time as you want to make each choice. </p>","","1","comp_question","","","true","","","","","",""
"comp-q","39","186272","0.0-12.0-1.2","1901","2","""event"",""trial"",""time""
""fullscreenenter"",""1"",""1752""
""blur"",""11"",""59802""
""focus"",""12"",""61218""
""blur"",""13"",""76915""
""focus"",""14"",""78704""
","""event"",""trial"",""time""
""blur"",""11"",""59802""
""blur"",""13"",""76915""
","""event"",""trial"",""time""
""focus"",""12"",""61218""
""focus"",""14"",""78704""
","""event"",""trial"",""time""
""fullscreenenter"",""1"",""1752""
","
","","","","","","4205.899999976158","<p> <b> That's right! </b> You will only have 10 seconds to make each choice. </p>","","0","comp_answer","","","","","","","","",""
"learning-instructions","40","203238","0.0-13.0","1901","2","""event"",""trial"",""time""
""fullscreenenter"",""1"",""1752""
""blur"",""11"",""59802""
""focus"",""12"",""61218""
""blur"",""13"",""76915""
""focus"",""14"",""78704""
","""event"",""trial"",""time""
""blur"",""11"",""59802""
""blur"",""13"",""76915""
","""event"",""trial"",""time""
""focus"",""12"",""61218""
""focus"",""14"",""78704""
","""event"",""trial"",""time""
""fullscreenenter"",""1"",""1752""
","
","","","","","","8295.5","<p> Great! You are now ready to begin the game. </p><p> Remember, use the 1, 2, 3, and 4 keys to make your responses. </p>","","0","instructions","","","","","","","","",""
"preload","41","214154","0.0-14.0","1901","2","""event"",""trial"",""time""
""fullscreenenter"",""1"",""1752""
""blur"",""11"",""59802""
""focus"",""12"",""61218""
""blur"",""13"",""76915""
""focus"",""14"",""78704""
","""event"",""trial"",""time""
""blur"",""11"",""59802""
""blur"",""13"",""76915""
","""event"",""trial"",""time""
""focus"",""12"",""61218""
""focus"",""14"",""78704""
","""event"",""trial"",""time""
""fullscreenenter"",""1"",""1752""
","
","true","false","[]","[]","[]","","","","","","","","","","","","","",""
"html-keyboard-response","42","214658","0.0-15.0-0.0","1901","2","""event"",""trial"",""time""
""fullscreenenter"",""1"",""1752""
""blur"",""11"",""59802""
""focus"",""12"",""61218""
""blur"",""13"",""76915""
""focus"",""14"",""78704""
","""event"",""trial"",""time""
""blur"",""11"",""59802""
""blur"",""13"",""76915""
","""event"",""trial"",""time""
""focus"",""12"",""61218""
""focus"",""14"",""78704""
","""event"",""trial"",""time""
""fullscreenenter"",""1"",""1752""
","
","","","","","","null","<div style=""font-size:60px;"">+</div>","null","","fixation","","","","","","","","",""
"memory-trial","43","217365","0.0-15.0-1.0","1901","2","""event"",""trial"",""time""
""fullscreenenter"",""1"",""1752""
""blur"",""11"",""59802""
""focus"",""12"",""61218""
""blur"",""13"",""76915""
""focus"",""14"",""78704""
","""event"",""trial"",""time""
""blur"",""11"",""59802""
""blur"",""13"",""76915""
","""event"",""trial"",""time""
""focus"",""12"",""61218""
""focus"",""14"",""78704""
","""event"",""trial"",""time""
""fullscreenenter"",""1"",""1752""
","
","","","","","","1700.0999999940395","images/rodent4.png","","","memory_trial","2","maybe_old","","","","","","",""
"html-keyboard-response","44","217868","0.0-15.0-0.1","1901","2","""event"",""trial"",""time""
""fullscreenenter"",""1"",""1752""
""blur"",""11"",""59802""
""focus"",""12"",""61218""
""blur"",""13"",""76915""
""focus"",""14"",""78704""
","""event"",""trial"",""time""
""blur"",""11"",""59802""
""blur"",""13"",""76915""
","""event"",""trial"",""time""
""focus"",""12"",""61218""
""focus"",""14"",""78704""
","""event"",""trial"",""time""
""fullscreenenter"",""1"",""1752""
","
","","","","","","null","<div style=""font-size:60px;"">+</div>","null","","fixation","","","","","","","","",""
"memory-trial","45","221267","0.0-15.0-1.1","1901","2","""event"",""trial"",""time""
""fullscreenenter"",""1"",""1752""
""blur"",""11"",""59802""
""focus"",""12"",""61218""
""blur"",""13"",""76915""
""focus"",""14"",""78704""
","""event"",""trial"",""time""
""blur"",""11"",""59802""
""blur"",""13"",""76915""
","""event"",""trial"",""time""
""focus"",""12"",""61218""
""focus"",""14"",""78704""
","""event"",""trial"",""time""
""fullscreenenter"",""1"",""1752""
","
","","","","","","2395.4000000059605","images/boat2.png","","","memory_trial","2","maybe_old","","","","","","",""
"html-keyboard-response","46","221771","0.0-15.0-0.2","1901","2","""event"",""trial"",""time""
""fullscreenenter"",""1"",""1752""
""blur"",""11"",""59802""
""focus"",""12"",""61218""
""blur"",""13"",""76915""
""focus"",""14"",""78704""
","""event"",""trial"",""time""
""blur"",""11"",""59802""
""blur"",""13"",""76915""
","""event"",""trial"",""time""
""focus"",""12"",""61218""
""focus"",""14"",""78704""
","""event"",""trial"",""time""
""fullscreenenter"",""1"",""1752""
","
","","","","","","null","<div style=""font-size:60px;"">+</div>","null","","fixation","","","","","","","","",""
"memory-trial","47","225309","0.0-15.0-1.2","1901","2","""event"",""trial"",""time""
""fullscreenenter"",""1"",""1752""
""blur"",""11"",""59802""
""focus"",""12"",""61218""
""blur"",""13"",""76915""
""focus"",""14"",""78704""
","""event"",""trial"",""time""
""blur"",""11"",""59802""
""blur"",""13"",""76915""
","""event"",""trial"",""time""
""focus"",""12"",""61218""
""focus"",""14"",""78704""
","""event"",""trial"",""time""
""fullscreenenter"",""1"",""1752""
","
","","","","","","2532.300000011921","images/sheep3.png","","","memory_trial","1","definitely_old","","","","","","",""
"html-keyboard-response","48","225814","0.0-15.0-0.3","1901","2","""event"",""trial"",""time""
""fullscreenenter"",""1"",""1752""
""blur"",""11"",""59802""
""focus"",""12"",""61218""
""blur"",""13"",""76915""
""focus"",""14"",""78704""
","""event"",""trial"",""time""
""blur"",""11"",""59802""
""blur"",""13"",""76915""
","""event"",""trial"",""time""
""focus"",""12"",""61218""
""focus"",""14"",""78704""
","""event"",""trial"",""time""
""fullscreenenter"",""1"",""1752""
","
","","","","","","null","<div style=""font-size:60px;"">+</div>","null","","fixation","","","","","","","","",""
"memory-trial","49","228577","0.0-15.0-1.3","1901","2","""event"",""trial"",""time""
""fullscreenenter"",""1"",""1752""
""blur"",""11"",""59802""
""focus"",""12"",""61218""
""blur"",""13"",""76915""
""focus"",""14"",""78704""
","""event"",""trial"",""time""
""blur"",""11"",""59802""
""blur"",""13"",""76915""
","""event"",""trial"",""time""
""focus"",""12"",""61218""
""focus"",""14"",""78704""
","""event"",""trial"",""time""
""fullscreenenter"",""1"",""1752""
","
","","","","","","1758.300000011921","images/goat1.png","","","memory_trial","1","definitely_old","","","","","","",""
"html-keyboard-response","50","229082","0.0-15.0-0.4","1901","2","""event"",""trial"",""time""
""fullscreenenter"",""1"",""1752""
""blur"",""11"",""59802""
""focus"",""12"",""61218""
""blur"",""13"",""76915""
""focus"",""14"",""78704""
","""event"",""trial"",""time""
""blur"",""11"",""59802""
""blur"",""13"",""76915""
","""event"",""trial"",""time""
""focus"",""12"",""61218""
""focus"",""14"",""78704""
","""event"",""trial"",""time""
""fullscreenenter"",""1"",""1752""
","
","","","","","","null","<div style=""font-size:60px;"">+</div>","null","","fixation","","","","","","","","",""
"memory-trial","51","232676","0.0-15.0-1.4","1901","2","""event"",""trial"",""time""
""fullscreenenter"",""1"",""1752""
""blur"",""11"",""59802""
""focus"",""12"",""61218""
""blur"",""13"",""76915""
""focus"",""14"",""78704""
","""event"",""trial"",""time""
""blur"",""11"",""59802""
""blur"",""13"",""76915""
","""event"",""trial"",""time""
""focus"",""12"",""61218""
""focus"",""14"",""78704""
","""event"",""trial"",""time""
""fullscreenenter"",""1"",""1752""
","
","","","","","","2589.800000011921","images/plane3.png","","","memory_trial","4","definitely_new","","","","","","",""
"html-keyboard-response","52","233181","0.0-15.0-0.5","1901","2","""event"",""trial"",""time""
""fullscreenenter"",""1"",""1752""
""blur"",""11"",""59802""
""focus"",""12"",""61218""
""blur"",""13"",""76915""
""focus"",""14"",""78704""
","""event"",""trial"",""time""
""blur"",""11"",""59802""
""blur"",""13"",""76915""
","""event"",""trial"",""time""
""focus"",""12"",""61218""
""focus"",""14"",""78704""
","""event"",""trial"",""time""
""fullscreenenter"",""1"",""1752""
","
","","","","","","null","<div style=""font-size:60px;"">+</div>","null","","fixation","","","","","","","","",""
"memory-trial","53","236815","0.0-15.0-1.5","1901","2","""event"",""trial"",""time""
""fullscreenenter"",""1"",""1752""
""blur"",""11"",""59802""
""focus"",""12"",""61218""
""blur"",""13"",""76915""
""focus"",""14"",""78704""
","""event"",""trial"",""time""
""blur"",""11"",""59802""
""blur"",""13"",""76915""
","""event"",""trial"",""time""
""focus"",""12"",""61218""
""focus"",""14"",""78704""
","""event"",""trial"",""time""
""fullscreenenter"",""1"",""1752""
","
","","","","","","2629.4000000059605","images/straw3.png","","","memory_trial","2","maybe_old","","","","","","",""
"html-keyboard-response","54","237320","0.0-15.0-0.6","1901","2","""event"",""trial"",""time""
""fullscreenenter"",""1"",""1752""
""blur"",""11"",""59802""
""focus"",""12"",""61218""
""blur"",""13"",""76915""
""focus"",""14"",""78704""
","""event"",""trial"",""time""
""blur"",""11"",""59802""
""blur"",""13"",""76915""
","""event"",""trial"",""time""
""focus"",""12"",""61218""
""focus"",""14"",""78704""
","""event"",""trial"",""time""
""fullscreenenter"",""1"",""1752""
","
","","","","","","null","<div style=""font-size:60px;"">+</div>","null","","fixation","","","","","","","","",""
"memory-trial","55","241070","0.0-15.0-1.6","1901","2","""event"",""trial"",""time""
""fullscreenenter"",""1"",""1752""
""blur"",""11"",""59802""
""focus"",""12"",""61218""
""blur"",""13"",""76915""
""focus"",""14"",""78704""
","""event"",""trial"",""time""
""blur"",""11"",""59802""
""blur"",""13"",""76915""
","""event"",""trial"",""time""
""focus"",""12"",""61218""
""focus"",""14"",""78704""
","""event"",""trial"",""time""
""fullscreenenter"",""1"",""1752""
","
","","","","","","2745.800000011921","images/train4.png","","","memory_trial","1","definitely_old","","","","","","",""
"html-keyboard-response","56","241575","0.0-15.0-0.7","1901","2","""event"",""trial"",""time""
""fullscreenenter"",""1"",""1752""
""blur"",""11"",""59802""
""focus"",""12"",""61218""
""blur"",""13"",""76915""
""focus"",""14"",""78704""
","""event"",""trial"",""time""
""blur"",""11"",""59802""
""blur"",""13"",""76915""
","""event"",""trial"",""time""
""focus"",""12"",""61218""
""focus"",""14"",""78704""
","""event"",""trial"",""time""
""fullscreenenter"",""1"",""1752""
","
","","","","","","null","<div style=""font-size:60px;"">+</div>","null","","fixation","","","","","","","","",""
"memory-trial","57","244313","0.0-15.0-1.7","1901","2","""event"",""trial"",""time""
""fullscreenenter"",""1"",""1752""
""blur"",""11"",""59802""
""focus"",""12"",""61218""
""blur"",""13"",""76915""
""focus"",""14"",""78704""
","""event"",""trial"",""time""
""blur"",""11"",""59802""
""blur"",""13"",""76915""
","""event"",""trial"",""time""
""focus"",""12"",""61218""
""focus"",""14"",""78704""
","""event"",""trial"",""time""
""fullscreenenter"",""1"",""1752""
","
","","","","","","1730.9000000059605","images/horse4.png","","","memory_trial","1","definitely_old","","","","","","",""
"html-keyboard-response","58","244817","0.0-15.0-0.8","1901","2","""event"",""trial"",""time""
""fullscreenenter"",""1"",""1752""
""blur"",""11"",""59802""
""focus"",""12"",""61218""
""blur"",""13"",""76915""
""focus"",""14"",""78704""
","""event"",""trial"",""time""
""blur"",""11"",""59802""
""blur"",""13"",""76915""
","""event"",""trial"",""time""
""focus"",""12"",""61218""
""focus"",""14"",""78704""
","""event"",""trial"",""time""
""fullscreenenter"",""1"",""1752""
","
","","","","","","null","<div style=""font-size:60px;"">+</div>","null","","fixation","","","","","","","","",""
"memory-trial","59","246823","0.0-15.0-1.8","1901","2","""event"",""trial"",""time""
""fullscreenenter"",""1"",""1752""
""blur"",""11"",""59802""
""focus"",""12"",""61218""
""blur"",""13"",""76915""
""focus"",""14"",""78704""
","""event"",""trial"",""time""
""blur"",""11"",""59802""
""blur"",""13"",""76915""
","""event"",""trial"",""time""
""focus"",""12"",""61218""
""focus"",""14"",""78704""
","""event"",""trial"",""time""
""fullscreenenter"",""1"",""1752""
","
","","","","","","1000.1999999880791","images/goat5.png","","","memory_trial","1","definitely_old","","","","","","",""
"html-keyboard-response","60","247328","0.0-15.0-0.9","1901","2","""event"",""trial"",""time""
""fullscreenenter"",""1"",""1752""
""blur"",""11"",""59802""
""focus"",""12"",""61218""
""blur"",""13"",""76915""
""focus"",""14"",""78704""
","""event"",""trial"",""time""
""blur"",""11"",""59802""
""blur"",""13"",""76915""
","""event"",""trial"",""time""
""focus"",""12"",""61218""
""focus"",""14"",""78704""
","""event"",""trial"",""time""
""fullscreenenter"",""1"",""1752""
","
","","","","","","null","<div style=""font-size:60px;"">+</div>","null","","fixation","","","","","","","","",""
"memory-trial","61","250637","0.0-15.0-1.9","1901","2","""event"",""trial"",""time""
""fullscreenenter"",""1"",""1752""
""blur"",""11"",""59802""
""focus"",""12"",""61218""
""blur"",""13"",""76915""
""focus"",""14"",""78704""
","""event"",""trial"",""time""
""blur"",""11"",""59802""
""blur"",""13"",""76915""
","""event"",""trial"",""time""
""focus"",""12"",""61218""
""focus"",""14"",""78704""
","""event"",""trial"",""time""
""fullscreenenter"",""1"",""1752""
","
","","","","","","2303.5","images/table2.png","","","memory_trial","1","definitely_old","","","","","","",""
"html-keyboard-response","62","251142","0.0-15.0-0.10","1901","2","""event"",""trial"",""time""
""fullscreenenter"",""1"",""1752""
""blur"",""11"",""59802""
""focus"",""12"",""61218""
""blur"",""13"",""76915""
""focus"",""14"",""78704""
","""event"",""trial"",""time""
""blur"",""11"",""59802""
""blur"",""13"",""76915""
","""event"",""trial"",""time""
""focus"",""12"",""61218""
""focus"",""14"",""78704""
","""event"",""trial"",""time""
""fullscreenenter"",""1"",""1752""
","
","","","","","","null","<div style=""font-size:60px;"">+</div>","null","","fixation","","","","","","","","",""
"memory-trial","63","254498","0.0-15.0-1.10","1901","2","""event"",""trial"",""time""
""fullscreenenter"",""1"",""1752""
""blur"",""11"",""59802""
""focus"",""12"",""61218""
""blur"",""13"",""76915""
""focus"",""14"",""78704""
","""event"",""trial"",""time""
""blur"",""11"",""59802""
""blur"",""13"",""76915""
","""event"",""trial"",""time""
""focus"",""12"",""61218""
""focus"",""14"",""78704""
","""event"",""trial"",""time""
""fullscreenenter"",""1"",""1752""
","
","","","","","","2352.600000023842","images/feline4.png","","","memory_trial","4","definitely_new","","","","","","",""
"html-keyboard-response","64","255002","0.0-15.0-0.11","1901","2","""event"",""trial"",""time""
""fullscreenenter"",""1"",""1752""
""blur"",""11"",""59802""
""focus"",""12"",""61218""
""blur"",""13"",""76915""
""focus"",""14"",""78704""
","""event"",""trial"",""time""
""blur"",""11"",""59802""
""blur"",""13"",""76915""
","""event"",""trial"",""time""
""focus"",""12"",""61218""
""focus"",""14"",""78704""
","""event"",""trial"",""time""
""fullscreenenter"",""1"",""1752""
","
","","","","","","null","<div style=""font-size:60px;"">+</div>","null","","fixation","","","","","","","","",""
"memory-trial","65","258108","0.0-15.0-1.11","1901","2","""event"",""trial"",""time""
""fullscreenenter"",""1"",""1752""
""blur"",""11"",""59802""
""focus"",""12"",""61218""
""blur"",""13"",""76915""
""focus"",""14"",""78704""
","""event"",""trial"",""time""
""blur"",""11"",""59802""
""blur"",""13"",""76915""
","""event"",""trial"",""time""
""focus"",""12"",""61218""
""focus"",""14"",""78704""
","""event"",""trial"",""time""
""fullscreenenter"",""1"",""1752""
","
","","","","","","2099.5999999940395","images/flower2.png","","","memory_trial","1","definitely_old","","","","","","",""
"html-keyboard-response","66","258613","0.0-15.0-0.12","1901","2","""event"",""trial"",""time""
""fullscreenenter"",""1"",""1752""
""blur"",""11"",""59802""
""focus"",""12"",""61218""
""blur"",""13"",""76915""
""focus"",""14"",""78704""
","""event"",""trial"",""time""
""blur"",""11"",""59802""
""blur"",""13"",""76915""
","""event"",""trial"",""time""
""focus"",""12"",""61218""
""focus"",""14"",""78704""
","""event"",""trial"",""time""
""fullscreenenter"",""1"",""1752""
","
","","","","","","null","<div style=""font-size:60px;"">+</div>","null","","fixation","","","","","","","","",""
"memory-trial","67","261585","0.0-15.0-1.12","1901","2","""event"",""trial"",""time""
""fullscreenenter"",""1"",""1752""
""blur"",""11"",""59802""
""focus"",""12"",""61218""
""blur"",""13"",""76915""
""focus"",""14"",""78704""
","""event"",""trial"",""time""
""blur"",""11"",""59802""
""blur"",""13"",""76915""
","""event"",""trial"",""time""
""focus"",""12"",""61218""
""focus"",""14"",""78704""
","""event"",""trial"",""time""
""fullscreenenter"",""1"",""1752""
","
","","","","","","1966.9000000059605","images/orange4.png","","","memory_trial","4","definitely_new","","","","","","",""
"html-keyboard-response","68","262090","0.0-15.0-0.13","1901","2","""event"",""trial"",""time""
""fullscreenenter"",""1"",""1752""
""blur"",""11"",""59802""
""focus"",""12"",""61218""
""blur"",""13"",""76915""
""focus"",""14"",""78704""
","""event"",""trial"",""time""
""blur"",""11"",""59802""
""blur"",""13"",""76915""
","""event"",""trial"",""time""
""focus"",""12"",""61218""
""focus"",""14"",""78704""
","""event"",""trial"",""time""
""fullscreenenter"",""1"",""1752""
","
","","","","","","null","<div style=""font-size:60px;"">+</div>","null","","fixation","","","","","","","","",""
"memory-trial","69","267459","0.0-15.0-1.13","1901","2","""event"",""trial"",""time""
""fullscreenenter"",""1"",""1752""
""blur"",""11"",""59802""
""focus"",""12"",""61218""
""blur"",""13"",""76915""
""focus"",""14"",""78704""
","""event"",""trial"",""time""
""blur"",""11"",""59802""
""blur"",""13"",""76915""
","""event"",""trial"",""time""
""focus"",""12"",""61218""
""focus"",""14"",""78704""
","""event"",""trial"",""time""
""fullscreenenter"",""1"",""1752""
","
","","","","","","4361.4000000059605","images/cow3.png","","","memory_trial","4","definitely_new","","","","","","",""
"html-keyboard-response","70","267965","0.0-15.0-0.14","1901","2","""event"",""trial"",""time""
""fullscreenenter"",""1"",""1752""
""blur"",""11"",""59802""
""focus"",""12"",""61218""
""blur"",""13"",""76915""
""focus"",""14"",""78704""
","""event"",""trial"",""time""
""blur"",""11"",""59802""
""blur"",""13"",""76915""
","""event"",""trial"",""time""
""focus"",""12"",""61218""
""focus"",""14"",""78704""
","""event"",""trial"",""time""
""fullscreenenter"",""1"",""1752""
","
","","","","","","null","<div style=""font-size:60px;"">+</div>","null","","fixation","","","","","","","","",""
"memory-trial","71","271155","0.0-15.0-1.14","1901","2","""event"",""trial"",""time""
""fullscreenenter"",""1"",""1752""
""blur"",""11"",""59802""
""focus"",""12"",""61218""
""blur"",""13"",""76915""
""focus"",""14"",""78704""
","""event"",""trial"",""time""
""blur"",""11"",""59802""
""blur"",""13"",""76915""
","""event"",""trial"",""time""
""focus"",""12"",""61218""
""focus"",""14"",""78704""
","""event"",""trial"",""time""
""fullscreenenter"",""1"",""1752""
","
","","","","","","2184","images/banana2.png","","","memory_trial","1","definitely_old","","","","","","",""
"html-keyboard-response","72","271657","0.0-15.0-0.15","1901","2","""event"",""trial"",""time""
""fullscreenenter"",""1"",""1752""
""blur"",""11"",""59802""
""focus"",""12"",""61218""
""blur"",""13"",""76915""
""focus"",""14"",""78704""
","""event"",""trial"",""time""
""blur"",""11"",""59802""
""blur"",""13"",""76915""
","""event"",""trial"",""time""
""focus"",""12"",""61218""
""focus"",""14"",""78704""
","""event"",""trial"",""time""
""fullscreenenter"",""1"",""1752""
","
","","","","","","null","<div style=""font-size:60px;"">+</div>","null","","fixation","","","","","","","","",""
"memory-trial","73","276208","0.0-15.0-1.15","1901","2","""event"",""trial"",""time""
""fullscreenenter"",""1"",""1752""
""blur"",""11"",""59802""
""focus"",""12"",""61218""
""blur"",""13"",""76915""
""focus"",""14"",""78704""
","""event"",""trial"",""time""
""blur"",""11"",""59802""
""blur"",""13"",""76915""
","""event"",""trial"",""time""
""focus"",""12"",""61218""
""focus"",""14"",""78704""
","""event"",""trial"",""time""
""fullscreenenter"",""1"",""1752""
","
","","","","","","3547.699999988079","images/sheep2.png","","","memory_trial","3","maybe_new","","","","","","",""
"html-keyboard-response","74","276713","0.0-15.0-0.16","1901","2","""event"",""trial"",""time""
""fullscreenenter"",""1"",""1752""
""blur"",""11"",""59802""
""focus"",""12"",""61218""
""blur"",""13"",""76915""
""focus"",""14"",""78704""
","""event"",""trial"",""time""
""blur"",""11"",""59802""
""blur"",""13"",""76915""
","""event"",""trial"",""time""
""focus"",""12"",""61218""
""focus"",""14"",""78704""
","""event"",""trial"",""time""
""fullscreenenter"",""1"",""1752""
","
","","","","","","null","<div style=""font-size:60px;"">+</div>","null","","fixation","","","","","","","","",""
"memory-trial","75","279319","0.0-15.0-1.16","1901","2","""event"",""trial"",""time""
""fullscreenenter"",""1"",""1752""
""blur"",""11"",""59802""
""focus"",""12"",""61218""
""blur"",""13"",""76915""
""focus"",""14"",""78704""
","""event"",""trial"",""time""
""blur"",""11"",""59802""
""blur"",""13"",""76915""
","""event"",""trial"",""time""
""focus"",""12"",""61218""
""focus"",""14"",""78704""
","""event"",""trial"",""time""
""fullscreenenter"",""1"",""1752""
","
","","","","","","1602.300000011921","images/sheep1.png","","","memory_trial","3","maybe_new","","","","","","",""
"html-keyboard-response","76","279824","0.0-15.0-0.17","1901","2","""event"",""trial"",""time""
""fullscreenenter"",""1"",""1752""
""blur"",""11"",""59802""
""focus"",""12"",""61218""
""blur"",""13"",""76915""
""focus"",""14"",""78704""
","""event"",""trial"",""time""
""blur"",""11"",""59802""
""blur"",""13"",""76915""
","""event"",""trial"",""time""
""focus"",""12"",""61218""
""focus"",""14"",""78704""
","""event"",""trial"",""time""
""fullscreenenter"",""1"",""1752""
","
","","","","","","null","<div style=""font-size:60px;"">+</div>","null","","fixation","","","","","","","","",""
"memory-trial","77","284747","0.0-15.0-1.17","1901","2","""event"",""trial"",""time""
""fullscreenenter"",""1"",""1752""
""blur"",""11"",""59802""
""focus"",""12"",""61218""
""blur"",""13"",""76915""
""focus"",""14"",""78704""
","""event"",""trial"",""time""
""blur"",""11"",""59802""
""blur"",""13"",""76915""
","""event"",""trial"",""time""
""focus"",""12"",""61218""
""focus"",""14"",""78704""
","""event"",""trial"",""time""
""fullscreenenter"",""1"",""1752""
","
","","","","","","3919","images/apple4.png","","","memory_trial","1","definitely_old","","","","","","",""
"html-keyboard-response","78","285252","0.0-15.0-0.18","1901","2","""event"",""trial"",""time""
""fullscreenenter"",""1"",""1752""
""blur"",""11"",""59802""
""focus"",""12"",""61218""
""blur"",""13"",""76915""
""focus"",""14"",""78704""
","""event"",""trial"",""time""
""blur"",""11"",""59802""
""blur"",""13"",""76915""
","""event"",""trial"",""time""
""focus"",""12"",""61218""
""focus"",""14"",""78704""
","""event"",""trial"",""time""
""fullscreenenter"",""1"",""1752""
","
","","","","","","null","<div style=""font-size:60px;"">+</div>","null","","fixation","","","","","","","","",""
"memory-trial","79","288753","0.0-15.0-1.18","1901","2","""event"",""trial"",""time""
""fullscreenenter"",""1"",""1752""
""blur"",""11"",""59802""
""focus"",""12"",""61218""
""blur"",""13"",""76915""
""focus"",""14"",""78704""
","""event"",""trial"",""time""
""blur"",""11"",""59802""
""blur"",""13"",""76915""
","""event"",""trial"",""time""
""focus"",""12"",""61218""
""focus"",""14"",""78704""
","""event"",""trial"",""time""
""fullscreenenter"",""1"",""1752""
","
","","","","","","2497","images/tree4.png","","","memory_trial","4","definitely_new","","","","","","",""
"html-keyboard-response","80","289258","0.0-15.0-0.19","1901","2","""event"",""trial"",""time""
""fullscreenenter"",""1"",""1752""
""blur"",""11"",""59802""
""focus"",""12"",""61218""
""blur"",""13"",""76915""
""focus"",""14"",""78704""
","""event"",""trial"",""time""
""blur"",""11"",""59802""
""blur"",""13"",""76915""
","""event"",""trial"",""time""
""focus"",""12"",""61218""
""focus"",""14"",""78704""
","""event"",""trial"",""time""
""fullscreenenter"",""1"",""1752""
","
","","","","","","null","<div style=""font-size:60px;"">+</div>","null","","fixation","","","","","","","","",""
"memory-trial","81","292863","0.0-15.0-1.19","1901","2","""event"",""trial"",""time""
""fullscreenenter"",""1"",""1752""
""blur"",""11"",""59802""
""focus"",""12"",""61218""
""blur"",""13"",""76915""
""focus"",""14"",""78704""
","""event"",""trial"",""time""
""blur"",""11"",""59802""
""blur"",""13"",""76915""
","""event"",""trial"",""time""
""focus"",""12"",""61218""
""focus"",""14"",""78704""
","""event"",""trial"",""time""
""fullscreenenter"",""1"",""1752""
","
","","","","","","2600.699999988079","images/apple2.png","","","memory_trial","2","maybe_old","","","","","","",""
"html-keyboard-response","82","293367","0.0-15.0-0.20","1901","2","""event"",""trial"",""time""
""fullscreenenter"",""1"",""1752""
""blur"",""11"",""59802""
""focus"",""12"",""61218""
""blur"",""13"",""76915""
""focus"",""14"",""78704""
","""event"",""trial"",""time""
""blur"",""11"",""59802""
""blur"",""13"",""76915""
","""event"",""trial"",""time""
""focus"",""12"",""61218""
""focus"",""14"",""78704""
","""event"",""trial"",""time""
""fullscreenenter"",""1"",""1752""
","
","","","","","","null","<div style=""font-size:60px;"">+</div>","null","","fixation","","","","","","","","",""
"memory-trial","83","297390","0.0-15.0-1.20","1901","2","""event"",""trial"",""time""
""fullscreenenter"",""1"",""1752""
""blur"",""11"",""59802""
""focus"",""12"",""61218""
""blur"",""13"",""76915""
""focus"",""14"",""78704""
","""event"",""trial"",""time""
""blur"",""11"",""59802""
""blur"",""13"",""76915""
","""event"",""trial"",""time""
""focus"",""12"",""61218""
""focus"",""14"",""78704""
","""event"",""trial"",""time""
""fullscreenenter"",""1"",""1752""
","
","","","","","","3017.300000011921","images/cow2.png","","","memory_trial","4","definitely_new","","","","","","",""
"html-keyboard-response","84","297896","0.0-15.0-0.21","1901","2","""event"",""trial"",""time""
""fullscreenenter"",""1"",""1752""
""blur"",""11"",""59802""
""focus"",""12"",""61218""
""blur"",""13"",""76915""
""focus"",""14"",""78704""
","""event"",""trial"",""time""
""blur"",""11"",""59802""
""blur"",""13"",""76915""
","""event"",""trial"",""time""
""focus"",""12"",""61218""
""focus"",""14"",""78704""
","""event"",""trial"",""time""
""fullscreenenter"",""1"",""1752""
","
","","","","","","null","<div style=""font-size:60px;"">+</div>","null","","fixation","","","","","","","","",""
"memory-trial","85","301356","0.0-15.0-1.21","1901","2","""event"",""trial"",""time""
""fullscreenenter"",""1"",""1752""
""blur"",""11"",""59802""
""focus"",""12"",""61218""
""blur"",""13"",""76915""
""focus"",""14"",""78704""
","""event"",""trial"",""time""
""blur"",""11"",""59802""
""blur"",""13"",""76915""
","""event"",""trial"",""time""
""focus"",""12"",""61218""
""focus"",""14"",""78704""
","""event"",""trial"",""time""
""fullscreenenter"",""1"",""1752""
","
","","","","","","2455.5","images/cactus5.png","","","memory_trial","1","definitely_old","","","","","","",""
"html-keyboard-response","86","301860","0.0-15.0-0.22","1901","2","""event"",""trial"",""time""
""fullscreenenter"",""1"",""1752""
""blur"",""11"",""59802""
""focus"",""12"",""61218""
""blur"",""13"",""76915""
""focus"",""14"",""78704""
","""event"",""trial"",""time""
""blur"",""11"",""59802""
""blur"",""13"",""76915""
","""event"",""trial"",""time""
""focus"",""12"",""61218""
""focus"",""14"",""78704""
","""event"",""trial"",""time""
""fullscreenenter"",""1"",""1752""
","
","","","","","","null","<div style=""font-size:60px;"">+</div>","null","","fixation","","","","","","","","",""
"memory-trial","87","307259","0.0-15.0-1.22","1901","2","""event"",""trial"",""time""
""fullscreenenter"",""1"",""1752""
""blur"",""11"",""59802""
""focus"",""12"",""61218""
""blur"",""13"",""76915""
""focus"",""14"",""78704""
","""event"",""trial"",""time""
""blur"",""11"",""59802""
""blur"",""13"",""76915""
","""event"",""trial"",""time""
""focus"",""12"",""61218""
""focus"",""14"",""78704""
","""event"",""trial"",""time""
""fullscreenenter"",""1"",""1752""
","
","","","","","","4391.4000000059605","images/orange1.png","","","memory_trial","4","definitely_new","","","","","","",""
"html-keyboard-response","88","307764","0.0-15.0-0.23","1901","2","""event"",""trial"",""time""
""fullscreenenter"",""1"",""1752""
""blur"",""11"",""59802""
""focus"",""12"",""61218""
""blur"",""13"",""76915""
""focus"",""14"",""78704""
","""event"",""trial"",""time""
""blur"",""11"",""59802""
""blur"",""13"",""76915""
","""event"",""trial"",""time""
""focus"",""12"",""61218""
""focus"",""14"",""78704""
","""event"",""trial"",""time""
""fullscreenenter"",""1"",""1752""
","
","","","","","","null","<div style=""font-size:60px;"">+</div>","null","","fixation","","","","","","","","",""
"memory-trial","89","312886","0.0-15.0-1.23","1901","2","""event"",""trial"",""time""
""fullscreenenter"",""1"",""1752""
""blur"",""11"",""59802""
""focus"",""12"",""61218""
""blur"",""13"",""76915""
""focus"",""14"",""78704""
","""event"",""trial"",""time""
""blur"",""11"",""59802""
""blur"",""13"",""76915""
","""event"",""trial"",""time""
""focus"",""12"",""61218""
""focus"",""14"",""78704""
","""event"",""trial"",""time""
""fullscreenenter"",""1"",""1752""
","
","","","","","","4117.5999999940395","images/bush1.png","","","memory_trial","2","maybe_old","","","","","","",""
"html-keyboard-response","90","313389","0.0-15.0-0.24","1901","2","""event"",""trial"",""time""
""fullscreenenter"",""1"",""1752""
""blur"",""11"",""59802""
""focus"",""12"",""61218""
""blur"",""13"",""76915""
""focus"",""14"",""78704""
","""event"",""trial"",""time""
""blur"",""11"",""59802""
""blur"",""13"",""76915""
","""event"",""trial"",""time""
""focus"",""12"",""61218""
""focus"",""14"",""78704""
","""event"",""trial"",""time""
""fullscreenenter"",""1"",""1752""
","
","","","","","","null","<div style=""font-size:60px;"">+</div>","null","","fixation","","","","","","","","",""
"memory-trial","91","317024","0.0-15.0-1.24","1901","2","""event"",""trial"",""time""
""fullscreenenter"",""1"",""1752""
""blur"",""11"",""59802""
""focus"",""12"",""61218""
""blur"",""13"",""76915""
""focus"",""14"",""78704""
","""event"",""trial"",""time""
""blur"",""11"",""59802""
""blur"",""13"",""76915""
","""event"",""trial"",""time""
""focus"",""12"",""61218""
""focus"",""14"",""78704""
","""event"",""trial"",""time""
""fullscreenenter"",""1"",""1752""
","
","","","","","","2630.800000011921","images/apple3.png","","","memory_trial","2","maybe_old","","","","","","",""
"html-keyboard-response","92","317529","0.0-15.0-0.25","1901","2","""event"",""trial"",""time""
""fullscreenenter"",""1"",""1752""
""blur"",""11"",""59802""
""focus"",""12"",""61218""
""blur"",""13"",""76915""
""focus"",""14"",""78704""
","""event"",""trial"",""time""
""blur"",""11"",""59802""
""blur"",""13"",""76915""
","""event"",""trial"",""time""
""focus"",""12"",""61218""
""focus"",""14"",""78704""
","""event"",""trial"",""time""
""fullscreenenter"",""1"",""1752""
","
","","","","","","null","<div style=""font-size:60px;"">+</div>","null","","fixation","","","","","","","","",""
"memory-trial","93","319949","0.0-15.0-1.25","1901","2","""event"",""trial"",""time""
""fullscreenenter"",""1"",""1752""
""blur"",""11"",""59802""
""focus"",""12"",""61218""
""blur"",""13"",""76915""
""focus"",""14"",""78704""
","""event"",""trial"",""time""
""blur"",""11"",""59802""
""blur"",""13"",""76915""
","""event"",""trial"",""time""
""focus"",""12"",""61218""
""focus"",""14"",""78704""
","""event"",""trial"",""time""
""fullscreenenter"",""1"",""1752""
","
","","","","","","1415.300000011921","images/apple5.png","","","memory_trial","2","maybe_old","","","","","","",""
"html-keyboard-response","94","320454","0.0-15.0-0.26","1901","2","""event"",""trial"",""time""
""fullscreenenter"",""1"",""1752""
""blur"",""11"",""59802""
""focus"",""12"",""61218""
""blur"",""13"",""76915""
""focus"",""14"",""78704""
","""event"",""trial"",""time""
""blur"",""11"",""59802""
""blur"",""13"",""76915""
","""event"",""trial"",""time""
""focus"",""12"",""61218""
""focus"",""14"",""78704""
","""event"",""trial"",""time""
""fullscreenenter"",""1"",""1752""
","
","","","","","","null","<div style=""font-size:60px;"">+</div>","null","","fixation","","","","","","","","",""
"memory-trial","95","323229","0.0-15.0-1.26","1901","2","""event"",""trial"",""time""
""fullscreenenter"",""1"",""1752""
""blur"",""11"",""59802""
""focus"",""12"",""61218""
""blur"",""13"",""76915""
""focus"",""14"",""78704""
","""event"",""trial"",""time""
""blur"",""11"",""59802""
""blur"",""13"",""76915""
","""event"",""trial"",""time""
""focus"",""12"",""61218""
""focus"",""14"",""78704""
","""event"",""trial"",""time""
""fullscreenenter"",""1"",""1752""
","
","","","","","","1768.0999999940395","images/goat2.png","","","memory_trial","4","definitely_new","","","","","","",""
"html-keyboard-response","96","323734","0.0-15.0-0.27","1901","2","""event"",""trial"",""time""
""fullscreenenter"",""1"",""1752""
""blur"",""11"",""59802""
""focus"",""12"",""61218""
""blur"",""13"",""76915""
""focus"",""14"",""78704""
","""event"",""trial"",""time""
""blur"",""11"",""59802""
""blur"",""13"",""76915""
","""event"",""trial"",""time""
""focus"",""12"",""61218""
""focus"",""14"",""78704""
","""event"",""trial"",""time""
""fullscreenenter"",""1"",""1752""
","
","","","","","","null","<div style=""font-size:60px;"">+</div>","null","","fixation","","","","","","","","",""
"memory-trial","97","327618","0.0-15.0-1.27","1901","2","""event"",""trial"",""time""
""fullscreenenter"",""1"",""1752""
""blur"",""11"",""59802""
""focus"",""12"",""61218""
""blur"",""13"",""76915""
""focus"",""14"",""78704""
","""event"",""trial"",""time""
""blur"",""11"",""59802""
""blur"",""13"",""76915""
","""event"",""trial"",""time""
""focus"",""12"",""61218""
""focus"",""14"",""78704""
","""event"",""trial"",""time""
""fullscreenenter"",""1"",""1752""
","
","","","","","","2875.9000000059605","images/train2.png","","","memory_trial","1","definitely_old","","","","","","",""
"html-keyboard-response","98","328123","0.0-15.0-0.28","1901","2","""event"",""trial"",""time""
""fullscreenenter"",""1"",""1752""
""blur"",""11"",""59802""
""focus"",""12"",""61218""
""blur"",""13"",""76915""
""focus"",""14"",""78704""
","""event"",""trial"",""time""
""blur"",""11"",""59802""
""blur"",""13"",""76915""
","""event"",""trial"",""time""
""focus"",""12"",""61218""
""focus"",""14"",""78704""
","""event"",""trial"",""time""
""fullscreenenter"",""1"",""1752""
","
","","","","","","null","<div style=""font-size:60px;"">+</div>","null","","fixation","","","","","","","","",""
"memory-trial","99","331798","0.0-15.0-1.28","1901","2","""event"",""trial"",""time""
""fullscreenenter"",""1"",""1752""
""blur"",""11"",""59802""
""focus"",""12"",""61218""
""blur"",""13"",""76915""
""focus"",""14"",""78704""
","""event"",""trial"",""time""
""blur"",""11"",""59802""
""blur"",""13"",""76915""
","""event"",""trial"",""time""
""focus"",""12"",""61218""
""focus"",""14"",""78704""
","""event"",""trial"",""time""
""fullscreenenter"",""1"",""1752""
","
","","","","","","2667.2000000178814","images/dog1.png","","","memory_trial","4","definitely_new","","","","","","",""
"html-keyboard-response","100","332303","0.0-15.0-0.29","1901","2","""event"",""trial"",""time""
""fullscreenenter"",""1"",""1752""
""blur"",""11"",""59802""
""focus"",""12"",""61218""
""blur"",""13"",""76915""
""focus"",""14"",""78704""
","""event"",""trial"",""time""
""blur"",""11"",""59802""
""blur"",""13"",""76915""
","""event"",""trial"",""time""
""focus"",""12"",""61218""
""focus"",""14"",""78704""
","""event"",""trial"",""time""
""fullscreenenter"",""1"",""1752""
","
","","","","","","null","<div style=""font-size:60px;"">+</div>","null","","fixation","","","","","","","","",""
"memory-trial","101","336168","0.0-15.0-1.29","1901","2","""event"",""trial"",""time""
""fullscreenenter"",""1"",""1752""
""blur"",""11"",""59802""
""focus"",""12"",""61218""
""blur"",""13"",""76915""
""focus"",""14"",""78704""
","""event"",""trial"",""time""
""blur"",""11"",""59802""
""blur"",""13"",""76915""
","""event"",""trial"",""time""
""focus"",""12"",""61218""
""focus"",""14"",""78704""
","""event"",""trial"",""time""
""fullscreenenter"",""1"",""1752""
","
","","","","","","2858.399999976158","images/truck4.png","","","memory_trial","4","definitely_new","","","","","","",""
"html-keyboard-response","102","336674","0.0-15.0-0.30","1901","2","""event"",""trial"",""time""
""fullscreenenter"",""1"",""1752""
""blur"",""11"",""59802""
""focus"",""12"",""61218""
""blur"",""13"",""76915""
""focus"",""14"",""78704""
","""event"",""trial"",""time""
""blur"",""11"",""59802""
""blur"",""13"",""76915""
","""event"",""trial"",""time""
""focus"",""12"",""61218""
""focus"",""14"",""78704""
","""event"",""trial"",""time""
""fullscreenenter"",""1"",""1752""
","
","","","","","","null","<div style=""font-size:60px;"">+</div>","null","","fixation","","","","","","","","",""
"memory-trial","103","339797","0.0-15.0-1.30","1901","2","""event"",""trial"",""time""
""fullscreenenter"",""1"",""1752""
""blur"",""11"",""59802""
""focus"",""12"",""61218""
""blur"",""13"",""76915""
""focus"",""14"",""78704""
","""event"",""trial"",""time""
""blur"",""11"",""59802""
""blur"",""13"",""76915""
","""event"",""trial"",""time""
""focus"",""12"",""61218""
""focus"",""14"",""78704""
","""event"",""trial"",""time""
""fullscreenenter"",""1"",""1752""
","
","","","","","","2119.9000000059605","images/tree2.png","","","memory_trial","4","definitely_new","","","","","","",""
"html-keyboard-response","104","340302","0.0-15.0-0.31","1901","2","""event"",""trial"",""time""
""fullscreenenter"",""1"",""1752""
""blur"",""11"",""59802""
""focus"",""12"",""61218""
""blur"",""13"",""76915""
""focus"",""14"",""78704""
","""event"",""trial"",""time""
""blur"",""11"",""59802""
""blur"",""13"",""76915""
","""event"",""trial"",""time""
""focus"",""12"",""61218""
""focus"",""14"",""78704""
","""event"",""trial"",""time""
""fullscreenenter"",""1"",""1752""
","
","","","","","","null","<div style=""font-size:60px;"">+</div>","null","","fixation","","","","","","","","",""
"memory-trial","105","343472","0.0-15.0-1.31","1901","2","""event"",""trial"",""time""
""fullscreenenter"",""1"",""1752""
""blur"",""11"",""59802""
""focus"",""12"",""61218""
""blur"",""13"",""76915""
""focus"",""14"",""78704""
","""event"",""trial"",""time""
""blur"",""11"",""59802""
""blur"",""13"",""76915""
","""event"",""trial"",""time""
""focus"",""12"",""61218""
""focus"",""14"",""78704""
","""event"",""trial"",""time""
""fullscreenenter"",""1"",""1752""
","
","","","","","","2163","images/train3.png","","","memory_trial","1","definitely_old","","","","","","",""
"html-keyboard-response","106","343977","0.0-15.0-0.32","1901","2","""event"",""trial"",""time""
""fullscreenenter"",""1"",""1752""
""blur"",""11"",""59802""
""focus"",""12"",""61218""
""blur"",""13"",""76915""
""focus"",""14"",""78704""
","""event"",""trial"",""time""
""blur"",""11"",""59802""
""blur"",""13"",""76915""
","""event"",""trial"",""time""
""focus"",""12"",""61218""
""focus"",""14"",""78704""
","""event"",""trial"",""time""
""fullscreenenter"",""1"",""1752""
","
","","","","","","null","<div style=""font-size:60px;"">+</div>","null","","fixation","","","","","","","","",""
"memory-trial","107","347976","0.0-15.0-1.32","1901","2","""event"",""trial"",""time""
""fullscreenenter"",""1"",""1752""
""blur"",""11"",""59802""
""focus"",""12"",""61218""
""blur"",""13"",""76915""
""focus"",""14"",""78704""
","""event"",""trial"",""time""
""blur"",""11"",""59802""
""blur"",""13"",""76915""
","""event"",""trial"",""time""
""focus"",""12"",""61218""
""focus"",""14"",""78704""
","""event"",""trial"",""time""
""fullscreenenter"",""1"",""1752""
","
","","","","","","2994.5999999940395","images/bed2.png","","","memory_trial","1","definitely_old","","","","","","",""
"html-keyboard-response","108","348481","0.0-15.0-0.33","1901","2","""event"",""trial"",""time""
""fullscreenenter"",""1"",""1752""
""blur"",""11"",""59802""
""focus"",""12"",""61218""
""blur"",""13"",""76915""
""focus"",""14"",""78704""
","""event"",""trial"",""time""
""blur"",""11"",""59802""
""blur"",""13"",""76915""
","""event"",""trial"",""time""
""focus"",""12"",""61218""
""focus"",""14"",""78704""
","""event"",""trial"",""time""
""fullscreenenter"",""1"",""1752""
","
","","","","","","null","<div style=""font-size:60px;"">+</div>","null","","fixation","","","","","","","","",""
"memory-trial","109","351866","0.0-15.0-1.33","1901","2","""event"",""trial"",""time""
""fullscreenenter"",""1"",""1752""
""blur"",""11"",""59802""
""focus"",""12"",""61218""
""blur"",""13"",""76915""
""focus"",""14"",""78704""
","""event"",""trial"",""time""
""blur"",""11"",""59802""
""blur"",""13"",""76915""
","""event"",""trial"",""time""
""focus"",""12"",""61218""
""focus"",""14"",""78704""
","""event"",""trial"",""time""
""fullscreenenter"",""1"",""1752""
","
","","","","","","2376.199999988079","images/chair3.png","","","memory_trial","1","definitely_old","","","","","","",""
"html-keyboard-response","110","352371","0.0-15.0-0.34","1901","2","""event"",""trial"",""time""
""fullscreenenter"",""1"",""1752""
""blur"",""11"",""59802""
""focus"",""12"",""61218""
""blur"",""13"",""76915""
""focus"",""14"",""78704""
","""event"",""trial"",""time""
""blur"",""11"",""59802""
""blur"",""13"",""76915""
","""event"",""trial"",""time""
""focus"",""12"",""61218""
""focus"",""14"",""78704""
","""event"",""trial"",""time""
""fullscreenenter"",""1"",""1752""
","
","","","","","","null","<div style=""font-size:60px;"">+</div>","null","","fixation","","","","","","","","",""
"memory-trial","111","356696","0.0-15.0-1.34","1901","2","""event"",""trial"",""time""
""fullscreenenter"",""1"",""1752""
""blur"",""11"",""59802""
""focus"",""12"",""61218""
""blur"",""13"",""76915""
""focus"",""14"",""78704""
","""event"",""trial"",""time""
""blur"",""11"",""59802""
""blur"",""13"",""76915""
","""event"",""trial"",""time""
""focus"",""12"",""61218""
""focus"",""14"",""78704""
","""event"",""trial"",""time""
""fullscreenenter"",""1"",""1752""
","
","","","","","","3321.7000000178814","images/rabbit3.png","","","memory_trial","4","definitely_new","","","","","","",""
"html-keyboard-response","112","357201","0.0-15.0-0.35","1901","2","""event"",""trial"",""time""
""fullscreenenter"",""1"",""1752""
""blur"",""11"",""59802""
""focus"",""12"",""61218""
""blur"",""13"",""76915""
""focus"",""14"",""78704""
","""event"",""trial"",""time""
""blur"",""11"",""59802""
""blur"",""13"",""76915""
","""event"",""trial"",""time""
""focus"",""12"",""61218""
""focus"",""14"",""78704""
","""event"",""trial"",""time""
""fullscreenenter"",""1"",""1752""
","
","","","","","","null","<div style=""font-size:60px;"">+</div>","null","","fixation","","","","","","","","",""
"memory-trial","113","360846","0.0-15.0-1.35","1901","2","""event"",""trial"",""time""
""fullscreenenter"",""1"",""1752""
""blur"",""11"",""59802""
""focus"",""12"",""61218""
""blur"",""13"",""76915""
""focus"",""14"",""78704""
","""event"",""trial"",""time""
""blur"",""11"",""59802""
""blur"",""13"",""76915""
","""event"",""trial"",""time""
""focus"",""12"",""61218""
""focus"",""14"",""78704""
","""event"",""trial"",""time""
""fullscreenenter"",""1"",""1752""
","
","","","","","","2642.300000011921","images/orange5.png","","","memory_trial","3","maybe_new","","","","","","",""
"html-keyboard-response","114","361351","0.0-15.0-0.36","1901","2","""event"",""trial"",""time""
""fullscreenenter"",""1"",""1752""
""blur"",""11"",""59802""
""focus"",""12"",""61218""
""blur"",""13"",""76915""
""focus"",""14"",""78704""
","""event"",""trial"",""time""
""blur"",""11"",""59802""
""blur"",""13"",""76915""
","""event"",""trial"",""time""
""focus"",""12"",""61218""
""focus"",""14"",""78704""
","""event"",""trial"",""time""
""fullscreenenter"",""1"",""1752""
","
","","","","","","null","<div style=""font-size:60px;"">+</div>","null","","fixation","","","","","","","","",""
"memory-trial","115","365113","0.0-15.0-1.36","1901","2","""event"",""trial"",""time""
""fullscreenenter"",""1"",""1752""
""blur"",""11"",""59802""
""focus"",""12"",""61218""
""blur"",""13"",""76915""
""focus"",""14"",""78704""
","""event"",""trial"",""time""
""blur"",""11"",""59802""
""blur"",""13"",""76915""
","""event"",""trial"",""time""
""focus"",""12"",""61218""
""focus"",""14"",""78704""
","""event"",""trial"",""time""
""fullscreenenter"",""1"",""1752""
","
","","","","","","2754.300000011921","images/table3.png","","","memory_trial","3","maybe_new","","","","","","",""
"html-keyboard-response","116","365618","0.0-15.0-0.37","1901","2","""event"",""trial"",""time""
""fullscreenenter"",""1"",""1752""
""blur"",""11"",""59802""
""focus"",""12"",""61218""
""blur"",""13"",""76915""
""focus"",""14"",""78704""
","""event"",""trial"",""time""
""blur"",""11"",""59802""
""blur"",""13"",""76915""
","""event"",""trial"",""time""
""focus"",""12"",""61218""
""focus"",""14"",""78704""
","""event"",""trial"",""time""
""fullscreenenter"",""1"",""1752""
","
","","","","","","null","<div style=""font-size:60px;"">+</div>","null","","fixation","","","","","","","","",""
"memory-trial","117","369786","0.0-15.0-1.37","1901","2","""event"",""trial"",""time""
""fullscreenenter"",""1"",""1752""
""blur"",""11"",""59802""
""focus"",""12"",""61218""
""blur"",""13"",""76915""
""focus"",""14"",""78704""
","""event"",""trial"",""time""
""blur"",""11"",""59802""
""blur"",""13"",""76915""
","""event"",""trial"",""time""
""focus"",""12"",""61218""
""focus"",""14"",""78704""
","""event"",""trial"",""time""
""fullscreenenter"",""1"",""1752""
","
","","","","","","3162.5999999940395","images/dog4.png","","","memory_trial","4","definitely_new","","","","","","",""
"html-keyboard-response","118","370291","0.0-15.0-0.38","1901","2","""event"",""trial"",""time""
""fullscreenenter"",""1"",""1752""
""blur"",""11"",""59802""
""focus"",""12"",""61218""
""blur"",""13"",""76915""
""focus"",""14"",""78704""
","""event"",""trial"",""time""
""blur"",""11"",""59802""
""blur"",""13"",""76915""
","""event"",""trial"",""time""
""focus"",""12"",""61218""
""focus"",""14"",""78704""
","""event"",""trial"",""time""
""fullscreenenter"",""1"",""1752""
","
","","","","","","null","<div style=""font-size:60px;"">+</div>","null","","fixation","","","","","","","","",""
"memory-trial","119","373618","0.0-15.0-1.38","1901","2","""event"",""trial"",""time""
""fullscreenenter"",""1"",""1752""
""blur"",""11"",""59802""
""focus"",""12"",""61218""
""blur"",""13"",""76915""
""focus"",""14"",""78704""
","""event"",""trial"",""time""
""blur"",""11"",""59802""
""blur"",""13"",""76915""
","""event"",""trial"",""time""
""focus"",""12"",""61218""
""focus"",""14"",""78704""
","""event"",""trial"",""time""
""fullscreenenter"",""1"",""1752""
","
","","","","","","2319.5","images/rabbit1.png","","","memory_trial","4","definitely_new","","","","","","",""
"html-keyboard-response","120","374123","0.0-15.0-0.39","1901","2","""event"",""trial"",""time""
""fullscreenenter"",""1"",""1752""
""blur"",""11"",""59802""
""focus"",""12"",""61218""
""blur"",""13"",""76915""
""focus"",""14"",""78704""
","""event"",""trial"",""time""
""blur"",""11"",""59802""
""blur"",""13"",""76915""
","""event"",""trial"",""time""
""focus"",""12"",""61218""
""focus"",""14"",""78704""
","""event"",""trial"",""time""
""fullscreenenter"",""1"",""1752""
","
","","","","","","null","<div style=""font-size:60px;"">+</div>","null","","fixation","","","","","","","","",""
"memory-trial","121","378057","0.0-15.0-1.39","1901","2","""event"",""trial"",""time""
""fullscreenenter"",""1"",""1752""
""blur"",""11"",""59802""
""focus"",""12"",""61218""
""blur"",""13"",""76915""
""focus"",""14"",""78704""
","""event"",""trial"",""time""
""blur"",""11"",""59802""
""blur"",""13"",""76915""
","""event"",""trial"",""time""
""focus"",""12"",""61218""
""focus"",""14"",""78704""
","""event"",""trial"",""time""
""fullscreenenter"",""1"",""1752""
","
","","","","","","2931","images/boat5.png","","","memory_trial","1","definitely_old","","","","","","",""
"html-keyboard-response","122","378563","0.0-15.0-0.40","1901","2","""event"",""trial"",""time""
""fullscreenenter"",""1"",""1752""
""blur"",""11"",""59802""
""focus"",""12"",""61218""
""blur"",""13"",""76915""
""focus"",""14"",""78704""
","""event"",""trial"",""time""
""blur"",""11"",""59802""
""blur"",""13"",""76915""
","""event"",""trial"",""time""
""focus"",""12"",""61218""
""focus"",""14"",""78704""
","""event"",""trial"",""time""
""fullscreenenter"",""1"",""1752""
","
","","","","","","null","<div style=""font-size:60px;"">+</div>","null","","fixation","","","","","","","","",""
"memory-trial","123","381012","0.0-15.0-1.40","1901","2","""event"",""trial"",""time""
""fullscreenenter"",""1"",""1752""
""blur"",""11"",""59802""
""focus"",""12"",""61218""
""blur"",""13"",""76915""
""focus"",""14"",""78704""
","""event"",""trial"",""time""
""blur"",""11"",""59802""
""blur"",""13"",""76915""
","""event"",""trial"",""time""
""focus"",""12"",""61218""
""focus"",""14"",""78704""
","""event"",""trial"",""time""
""fullscreenenter"",""1"",""1752""
","
","","","","","","1441.300000011921","images/horse1.png","","","memory_trial","1","definitely_old","","","","","","",""
"html-keyboard-response","124","381518","0.0-15.0-0.41","1901","2","""event"",""trial"",""time""
""fullscreenenter"",""1"",""1752""
""blur"",""11"",""59802""
""focus"",""12"",""61218""
""blur"",""13"",""76915""
""focus"",""14"",""78704""
","""event"",""trial"",""time""
""blur"",""11"",""59802""
""blur"",""13"",""76915""
","""event"",""trial"",""time""
""focus"",""12"",""61218""
""focus"",""14"",""78704""
","""event"",""trial"",""time""
""fullscreenenter"",""1"",""1752""
","
","","","","","","null","<div style=""font-size:60px;"">+</div>","null","","fixation","","","","","","","","",""
"memory-trial","125","384694","0.0-15.0-1.41","1901","2","""event"",""trial"",""time""
""fullscreenenter"",""1"",""1752""
""blur"",""11"",""59802""
""focus"",""12"",""61218""
""blur"",""13"",""76915""
""focus"",""14"",""78704""
","""event"",""trial"",""time""
""blur"",""11"",""59802""
""blur"",""13"",""76915""
","""event"",""trial"",""time""
""focus"",""12"",""61218""
""focus"",""14"",""78704""
","""event"",""trial"",""time""
""fullscreenenter"",""1"",""1752""
","
","","","","","","2170.300000011921","images/truck3.png","","","memory_trial","4","definitely_new","","","","","","",""
"html-keyboard-response","126","385199","0.0-15.0-0.42","1901","2","""event"",""trial"",""time""
""fullscreenenter"",""1"",""1752""
""blur"",""11"",""59802""
""focus"",""12"",""61218""
""blur"",""13"",""76915""
""focus"",""14"",""78704""
","""event"",""trial"",""time""
""blur"",""11"",""59802""
""blur"",""13"",""76915""
","""event"",""trial"",""time""
""focus"",""12"",""61218""
""focus"",""14"",""78704""
","""event"",""trial"",""time""
""fullscreenenter"",""1"",""1752""
","
","","","","","","null","<div style=""font-size:60px;"">+</div>","null","","fixation","","","","","","","","",""
"memory-trial","127","389831","0.0-15.0-1.42","1901","2","""event"",""trial"",""time""
""fullscreenenter"",""1"",""1752""
""blur"",""11"",""59802""
""focus"",""12"",""61218""
""blur"",""13"",""76915""
""focus"",""14"",""78704""
","""event"",""trial"",""time""
""blur"",""11"",""59802""
""blur"",""13"",""76915""
","""event"",""trial"",""time""
""focus"",""12"",""61218""
""focus"",""14"",""78704""
","""event"",""trial"",""time""
""fullscreenenter"",""1"",""1752""
","
","","","","","","3625.7999999821186","images/orange3.png","","","memory_trial","2","maybe_old","","","","","","",""
"html-keyboard-response","128","390336","0.0-15.0-0.43","1901","2","""event"",""trial"",""time""
""fullscreenenter"",""1"",""1752""
""blur"",""11"",""59802""
""focus"",""12"",""61218""
""blur"",""13"",""76915""
""focus"",""14"",""78704""
","""event"",""trial"",""time""
""blur"",""11"",""59802""
""blur"",""13"",""76915""
","""event"",""trial"",""time""
""focus"",""12"",""61218""
""focus"",""14"",""78704""
","""event"",""trial"",""time""
""fullscreenenter"",""1"",""1752""
","
","","","","","","null","<div style=""font-size:60px;"">+</div>","null","","fixation","","","","","","","","",""
"memory-trial","129","393477","0.0-15.0-1.43","1901","2","""event"",""trial"",""time""
""fullscreenenter"",""1"",""1752""
""blur"",""11"",""59802""
""focus"",""12"",""61218""
""blur"",""13"",""76915""
""focus"",""14"",""78704""
","""event"",""trial"",""time""
""blur"",""11"",""59802""
""blur"",""13"",""76915""
","""event"",""trial"",""time""
""focus"",""12"",""61218""
""focus"",""14"",""78704""
","""event"",""trial"",""time""
""fullscreenenter"",""1"",""1752""
","
","","","","","","2133.7999999821186","images/sofa2.png","","","memory_trial","4","definitely_new","","","","","","",""
"html-keyboard-response","130","393982","0.0-15.0-0.44","1901","2","""event"",""trial"",""time""
""fullscreenenter"",""1"",""1752""
""blur"",""11"",""59802""
""focus"",""12"",""61218""
""blur"",""13"",""76915""
""focus"",""14"",""78704""
","""event"",""trial"",""time""
""blur"",""11"",""59802""
""blur"",""13"",""76915""
","""event"",""trial"",""time""
""focus"",""12"",""61218""
""focus"",""14"",""78704""
","""event"",""trial"",""time""
""fullscreenenter"",""1"",""1752""
","
","","","","","","null","<div style=""font-size:60px;"">+</div>","null","","fixation","","","","","","","","",""
"memory-trial","131","396498","0.0-15.0-1.44","1901","2","""event"",""trial"",""time""
""fullscreenenter"",""1"",""1752""
""blur"",""11"",""59802""
""focus"",""12"",""61218""
""blur"",""13"",""76915""
""focus"",""14"",""78704""
","""event"",""trial"",""time""
""blur"",""11"",""59802""
""blur"",""13"",""76915""
","""event"",""trial"",""time""
""focus"",""12"",""61218""
""focus"",""14"",""78704""
","""event"",""trial"",""time""
""fullscreenenter"",""1"",""1752""
","
","","","","","","1508","images/horse3.png","","","memory_trial","1","definitely_old","","","","","","",""
"html-keyboard-response","132","397001","0.0-15.0-0.45","1901","2","""event"",""trial"",""time""
""fullscreenenter"",""1"",""1752""
""blur"",""11"",""59802""
""focus"",""12"",""61218""
""blur"",""13"",""76915""
""focus"",""14"",""78704""
","""event"",""trial"",""time""
""blur"",""11"",""59802""
""blur"",""13"",""76915""
","""event"",""trial"",""time""
""focus"",""12"",""61218""
""focus"",""14"",""78704""
","""event"",""trial"",""time""
""fullscreenenter"",""1"",""1752""
","
","","","","","","null","<div style=""font-size:60px;"">+</div>","null","","fixation","","","","","","","","",""
"memory-trial","133","401401","0.0-15.0-1.45","1901","2","""event"",""trial"",""time""
""fullscreenenter"",""1"",""1752""
""blur"",""11"",""59802""
""focus"",""12"",""61218""
""blur"",""13"",""76915""
""focus"",""14"",""78704""
","""event"",""trial"",""time""
""blur"",""11"",""59802""
""blur"",""13"",""76915""
","""event"",""trial"",""time""
""focus"",""12"",""61218""
""focus"",""14"",""78704""
","""event"",""trial"",""time""
""fullscreenenter"",""1"",""1752""
","
","","","","","","3396.0999999940395","images/rabbit5.png","","","memory_trial","2","maybe_old","","","","","","",""
"html-keyboard-response","134","401906","0.0-15.0-0.46","1901","2","""event"",""trial"",""time""
""fullscreenenter"",""1"",""1752""
""blur"",""11"",""59802""
""focus"",""12"",""61218""
""blur"",""13"",""76915""
""focus"",""14"",""78704""
","""event"",""trial"",""time""
""blur"",""11"",""59802""
""blur"",""13"",""76915""
","""event"",""trial"",""time""
""focus"",""12"",""61218""
""focus"",""14"",""78704""
","""event"",""trial"",""time""
""fullscreenenter"",""1"",""1752""
","
","","","","","","null","<div style=""font-size:60px;"">+</div>","null","","fixation","","","","","","","","",""
"memory-trial","135","405246","0.0-15.0-1.46","1901","2","""event"",""trial"",""time""
""fullscreenenter"",""1"",""1752""
""blur"",""11"",""59802""
""focus"",""12"",""61218""
""blur"",""13"",""76915""
""focus"",""14"",""78704""
","""event"",""trial"",""time""
""blur"",""11"",""59802""
""blur"",""13"",""76915""
","""event"",""trial"",""time""
""focus"",""12"",""61218""
""focus"",""14"",""78704""
","""event"",""trial"",""time""
""fullscreenenter"",""1"",""1752""
","
","","","","","","2335.4000000059605","images/bush4.png","","","memory_trial","1","definitely_old","","","","","","",""
"html-button-response","136","414832","0.0-15.0-2.46-0.46","1901","2","""event"",""trial"",""time""
""fullscreenenter"",""1"",""1752""
""blur"",""11"",""59802""
""focus"",""12"",""61218""
""blur"",""13"",""76915""
""focus"",""14"",""78704""
","""event"",""trial"",""time""
""blur"",""11"",""59802""
""blur"",""13"",""76915""
","""event"",""trial"",""time""
""focus"",""12"",""61218""
""focus"",""14"",""78704""
","""event"",""trial"",""time""
""fullscreenenter"",""1"",""1752""
","
","","","","","","9583.59999999404","<p> Take a break! </p><p> Click the button to continue. </p>","0","","break","","","","","","","","",""
"html-keyboard-response","137","415333","0.0-15.0-0.47","1901","2","""event"",""trial"",""time""
""fullscreenenter"",""1"",""1752""
""blur"",""11"",""59802""
""focus"",""12"",""61218""
""blur"",""13"",""76915""
""focus"",""14"",""78704""
","""event"",""trial"",""time""
""blur"",""11"",""59802""
""blur"",""13"",""76915""
","""event"",""trial"",""time""
""focus"",""12"",""61218""
""focus"",""14"",""78704""
","""event"",""trial"",""time""
""fullscreenenter"",""1"",""1752""
","
","","","","","","null","<div style=""font-size:60px;"">+</div>","null","","fixation","","","","","","","","",""
"memory-trial","138","418416","0.0-15.0-1.47","1901","2","""event"",""trial"",""time""
""fullscreenenter"",""1"",""1752""
""blur"",""11"",""59802""
""focus"",""12"",""61218""
""blur"",""13"",""76915""
""focus"",""14"",""78704""
","""event"",""trial"",""time""
""blur"",""11"",""59802""
""blur"",""13"",""76915""
","""event"",""trial"",""time""
""focus"",""12"",""61218""
""focus"",""14"",""78704""
","""event"",""trial"",""time""
""fullscreenenter"",""1"",""1752""
","
","","","","","","2075.9000000059605","images/bush5.png","","","memory_trial","1","definitely_old","","","","","","",""
"html-keyboard-response","139","418921","0.0-15.0-0.48","1901","2","""event"",""trial"",""time""
""fullscreenenter"",""1"",""1752""
""blur"",""11"",""59802""
""focus"",""12"",""61218""
""blur"",""13"",""76915""
""focus"",""14"",""78704""
","""event"",""trial"",""time""
""blur"",""11"",""59802""
""blur"",""13"",""76915""
","""event"",""trial"",""time""
""focus"",""12"",""61218""
""focus"",""14"",""78704""
","""event"",""trial"",""time""
""fullscreenenter"",""1"",""1752""
","
","","","","","","null","<div style=""font-size:60px;"">+</div>","null","","fixation","","","","","","","","",""
"memory-trial","140","422609","0.0-15.0-1.48","1901","2","""event"",""trial"",""time""
""fullscreenenter"",""1"",""1752""
""blur"",""11"",""59802""
""focus"",""12"",""61218""
""blur"",""13"",""76915""
""focus"",""14"",""78704""
","""event"",""trial"",""time""
""blur"",""11"",""59802""
""blur"",""13"",""76915""
","""event"",""trial"",""time""
""focus"",""12"",""61218""
""focus"",""14"",""78704""
","""event"",""trial"",""time""
""fullscreenenter"",""1"",""1752""
","
","","","","","","2684.699999988079","images/rodent2.png","","","memory_trial","3","maybe_new","","","","","","",""
"html-keyboard-response","141","423111","0.0-15.0-0.49","1901","2","""event"",""trial"",""time""
""fullscreenenter"",""1"",""1752""
""blur"",""11"",""59802""
""focus"",""12"",""61218""
""blur"",""13"",""76915""
""focus"",""14"",""78704""
","""event"",""trial"",""time""
""blur"",""11"",""59802""
""blur"",""13"",""76915""
","""event"",""trial"",""time""
""focus"",""12"",""61218""
""focus"",""14"",""78704""
","""event"",""trial"",""time""
""fullscreenenter"",""1"",""1752""
","
","","","","","","null","<div style=""font-size:60px;"">+</div>","null","","fixation","","","","","","","","",""
"memory-trial","142","427118","0.0-15.0-1.49","1901","2","""event"",""trial"",""time""
""fullscreenenter"",""1"",""1752""
""blur"",""11"",""59802""
""focus"",""12"",""61218""
""blur"",""13"",""76915""
""focus"",""14"",""78704""
","""event"",""trial"",""time""
""blur"",""11"",""59802""
""blur"",""13"",""76915""
","""event"",""trial"",""time""
""focus"",""12"",""61218""
""focus"",""14"",""78704""
","""event"",""trial"",""time""
""fullscreenenter"",""1"",""1752""
","
","","","","","","2999.699999988079","images/dog5.png","","","memory_trial","4","definitely_new","","","","","","",""
"html-keyboard-response","143","427619","0.0-15.0-0.50","1901","2","""event"",""trial"",""time""
""fullscreenenter"",""1"",""1752""
""blur"",""11"",""59802""
""focus"",""12"",""61218""
""blur"",""13"",""76915""
""focus"",""14"",""78704""
","""event"",""trial"",""time""
""blur"",""11"",""59802""
""blur"",""13"",""76915""
","""event"",""trial"",""time""
""focus"",""12"",""61218""
""focus"",""14"",""78704""
","""event"",""trial"",""time""
""fullscreenenter"",""1"",""1752""
","
","","","","","","null","<div style=""font-size:60px;"">+</div>","null","","fixation","","","","","","","","",""
"memory-trial","144","431059","0.0-15.0-1.50","1901","2","""event"",""trial"",""time""
""fullscreenenter"",""1"",""1752""
""blur"",""11"",""59802""
""focus"",""12"",""61218""
""blur"",""13"",""76915""
""focus"",""14"",""78704""
","""event"",""trial"",""time""
""blur"",""11"",""59802""
""blur"",""13"",""76915""
","""event"",""trial"",""time""
""focus"",""12"",""61218""
""focus"",""14"",""78704""
","""event"",""trial"",""time""
""fullscreenenter"",""1"",""1752""
","
","","","","","","2434.5999999940395","images/plane4.png","","","memory_trial","1","definitely_old","","","","","","",""
"html-keyboard-response","145","431564","0.0-15.0-0.51","1901","2","""event"",""trial"",""time""
""fullscreenenter"",""1"",""1752""
""blur"",""11"",""59802""
""focus"",""12"",""61218""
""blur"",""13"",""76915""
""focus"",""14"",""78704""
","""event"",""trial"",""time""
""blur"",""11"",""59802""
""blur"",""13"",""76915""
","""event"",""trial"",""time""
""focus"",""12"",""61218""
""focus"",""14"",""78704""
","""event"",""trial"",""time""
""fullscreenenter"",""1"",""1752""
","
","","","","","","null","<div style=""font-size:60px;"">+</div>","null","","fixation","","","","","","","","",""
"memory-trial","146","434229","0.0-15.0-1.51","1901","2","""event"",""trial"",""time""
""fullscreenenter"",""1"",""1752""
""blur"",""11"",""59802""
""focus"",""12"",""61218""
""blur"",""13"",""76915""
""focus"",""14"",""78704""
","""event"",""trial"",""time""
""blur"",""11"",""59802""
""blur"",""13"",""76915""
","""event"",""trial"",""time""
""focus"",""12"",""61218""
""focus"",""14"",""78704""
","""event"",""trial"",""time""
""fullscreenenter"",""1"",""1752""
","
","","","","","","1661.3999999761581","images/bush2.png","","","memory_trial","1","definitely_old","","","","","","",""
"html-keyboard-response","147","434734","0.0-15.0-0.52","1901","2","""event"",""trial"",""time""
""fullscreenenter"",""1"",""1752""
""blur"",""11"",""59802""
""focus"",""12"",""61218""
""blur"",""13"",""76915""
""focus"",""14"",""78704""
","""event"",""trial"",""time""
""blur"",""11"",""59802""
""blur"",""13"",""76915""
","""event"",""trial"",""time""
""focus"",""12"",""61218""
""focus"",""14"",""78704""
","""event"",""trial"",""time""
""fullscreenenter"",""1"",""1752""
","
","","","","","","null","<div style=""font-size:60px;"">+</div>","null","","fixation","","","","","","","","",""
"memory-trial","148","437091","0.0-15.0-1.52","1901","2","""event"",""trial"",""time""
""fullscreenenter"",""1"",""1752""
""blur"",""11"",""59802""
""focus"",""12"",""61218""
""blur"",""13"",""76915""
""focus"",""14"",""78704""
","""event"",""trial"",""time""
""blur"",""11"",""59802""
""blur"",""13"",""76915""
","""event"",""trial"",""time""
""focus"",""12"",""61218""
""focus"",""14"",""78704""
","""event"",""trial"",""time""
""fullscreenenter"",""1"",""1752""
","
","","","","","","1352.699999988079","images/flower1.png","","","memory_trial","1","definitely_old","","","","","","",""
"html-keyboard-response","149","437596","0.0-15.0-0.53","1901","2","""event"",""trial"",""time""
""fullscreenenter"",""1"",""1752""
""blur"",""11"",""59802""
""focus"",""12"",""61218""
""blur"",""13"",""76915""
""focus"",""14"",""78704""
","""event"",""trial"",""time""
""blur"",""11"",""59802""
""blur"",""13"",""76915""
","""event"",""trial"",""time""
""focus"",""12"",""61218""
""focus"",""14"",""78704""
","""event"",""trial"",""time""
""fullscreenenter"",""1"",""1752""
","
","","","","","","null","<div style=""font-size:60px;"">+</div>","null","","fixation","","","","","","","","",""
"memory-trial","150","441067","0.0-15.0-1.53","1901","2","""event"",""trial"",""time""
""fullscreenenter"",""1"",""1752""
""blur"",""11"",""59802""
""focus"",""12"",""61218""
""blur"",""13"",""76915""
""focus"",""14"",""78704""
","""event"",""trial"",""time""
""blur"",""11"",""59802""
""blur"",""13"",""76915""
","""event"",""trial"",""time""
""focus"",""12"",""61218""
""focus"",""14"",""78704""
","""event"",""trial"",""time""
""fullscreenenter"",""1"",""1752""
","
","","","","","","2468.0999999940395","images/bed1.png","","","memory_trial","1","definitely_old","","","","","","",""
"html-keyboard-response","151","441572","0.0-15.0-0.54","1901","2","""event"",""trial"",""time""
""fullscreenenter"",""1"",""1752""
""blur"",""11"",""59802""
""focus"",""12"",""61218""
""blur"",""13"",""76915""
""focus"",""14"",""78704""
","""event"",""trial"",""time""
""blur"",""11"",""59802""
""blur"",""13"",""76915""
","""event"",""trial"",""time""
""focus"",""12"",""61218""
""focus"",""14"",""78704""
","""event"",""trial"",""time""
""fullscreenenter"",""1"",""1752""
","
","","","","","","null","<div style=""font-size:60px;"">+</div>","null","","fixation","","","","","","","","",""
"memory-trial","152","444579","0.0-15.0-1.54","1901","2","""event"",""trial"",""time""
""fullscreenenter"",""1"",""1752""
""blur"",""11"",""59802""
""focus"",""12"",""61218""
""blur"",""13"",""76915""
""focus"",""14"",""78704""
","""event"",""trial"",""time""
""blur"",""11"",""59802""
""blur"",""13"",""76915""
","""event"",""trial"",""time""
""focus"",""12"",""61218""
""focus"",""14"",""78704""
","""event"",""trial"",""time""
""fullscreenenter"",""1"",""1752""
","
","","","","","","1999.300000011921","images/sofa4.png","","","memory_trial","4","definitely_new","","","","","","",""
"html-keyboard-response","153","445084","0.0-15.0-0.55","1901","2","""event"",""trial"",""time""
""fullscreenenter"",""1"",""1752""
""blur"",""11"",""59802""
""focus"",""12"",""61218""
""blur"",""13"",""76915""
""focus"",""14"",""78704""
","""event"",""trial"",""time""
""blur"",""11"",""59802""
""blur"",""13"",""76915""
","""event"",""trial"",""time""
""focus"",""12"",""61218""
""focus"",""14"",""78704""
","""event"",""trial"",""time""
""fullscreenenter"",""1"",""1752""
","
","","","","","","null","<div style=""font-size:60px;"">+</div>","null","","fixation","","","","","","","","",""
"memory-trial","154","448509","0.0-15.0-1.55","1901","2","""event"",""trial"",""time""
""fullscreenenter"",""1"",""1752""
""blur"",""11"",""59802""
""focus"",""12"",""61218""
""blur"",""13"",""76915""
""focus"",""14"",""78704""
","""event"",""trial"",""time""
""blur"",""11"",""59802""
""blur"",""13"",""76915""
","""event"",""trial"",""time""
""focus"",""12"",""61218""
""focus"",""14"",""78704""
","""event"",""trial"",""time""
""fullscreenenter"",""1"",""1752""
","
","","","","","","2420.9000000059605","images/boat3.png","","","memory_trial","2","maybe_old","","","","","","",""
"html-keyboard-response","155","449014","0.0-15.0-0.56","1901","2","""event"",""trial"",""time""
""fullscreenenter"",""1"",""1752""
""blur"",""11"",""59802""
""focus"",""12"",""61218""
""blur"",""13"",""76915""
""focus"",""14"",""78704""
","""event"",""trial"",""time""
""blur"",""11"",""59802""
""blur"",""13"",""76915""
","""event"",""trial"",""time""
""focus"",""12"",""61218""
""focus"",""14"",""78704""
","""event"",""trial"",""time""
""fullscreenenter"",""1"",""1752""
","
","","","","","","null","<div style=""font-size:60px;"">+</div>","null","","fixation","","","","","","","","",""
"memory-trial","156","452553","0.0-15.0-1.56","1901","2","""event"",""trial"",""time""
""fullscreenenter"",""1"",""1752""
""blur"",""11"",""59802""
""focus"",""12"",""61218""
""blur"",""13"",""76915""
""focus"",""14"",""78704""
","""event"",""trial"",""time""
""blur"",""11"",""59802""
""blur"",""13"",""76915""
","""event"",""trial"",""time""
""focus"",""12"",""61218""
""focus"",""14"",""78704""
","""event"",""trial"",""time""
""fullscreenenter"",""1"",""1752""
","
","","","","","","2531.5999999940395","images/feline1.png","","","memory_trial","4","definitely_new","","","","","","",""
"html-keyboard-response","157","453056","0.0-15.0-0.57","1901","2","""event"",""trial"",""time""
""fullscreenenter"",""1"",""1752""
""blur"",""11"",""59802""
""focus"",""12"",""61218""
""blur"",""13"",""76915""
""focus"",""14"",""78704""
","""event"",""trial"",""time""
""blur"",""11"",""59802""
""blur"",""13"",""76915""
","""event"",""trial"",""time""
""focus"",""12"",""61218""
""focus"",""14"",""78704""
","""event"",""trial"",""time""
""fullscreenenter"",""1"",""1752""
","
","","","","","","null","<div style=""font-size:60px;"">+</div>","null","","fixation","","","","","","","","",""
"memory-trial","158","457670","0.0-15.0-1.57","1901","2","""event"",""trial"",""time""
""fullscreenenter"",""1"",""1752""
""blur"",""11"",""59802""
""focus"",""12"",""61218""
""blur"",""13"",""76915""
""focus"",""14"",""78704""
","""event"",""trial"",""time""
""blur"",""11"",""59802""
""blur"",""13"",""76915""
","""event"",""trial"",""time""
""focus"",""12"",""61218""
""focus"",""14"",""78704""
","""event"",""trial"",""time""
""fullscreenenter"",""1"",""1752""
","
","","","","","","3607.9000000059605","images/table5.png","","","memory_trial","1","definitely_old","","","","","","",""
"html-keyboard-response","159","458175","0.0-15.0-0.58","1901","2","""event"",""trial"",""time""
""fullscreenenter"",""1"",""1752""
""blur"",""11"",""59802""
""focus"",""12"",""61218""
""blur"",""13"",""76915""
""focus"",""14"",""78704""
","""event"",""trial"",""time""
""blur"",""11"",""59802""
""blur"",""13"",""76915""
","""event"",""trial"",""time""
""focus"",""12"",""61218""
""focus"",""14"",""78704""
","""event"",""trial"",""time""
""fullscreenenter"",""1"",""1752""
","
","","","","","","null","<div style=""font-size:60px;"">+</div>","null","","fixation","","","","","","","","",""
"memory-trial","160","460857","0.0-15.0-1.58","1901","2","""event"",""trial"",""time""
""fullscreenenter"",""1"",""1752""
""blur"",""11"",""59802""
""focus"",""12"",""61218""
""blur"",""13"",""76915""
""focus"",""14"",""78704""
","""event"",""trial"",""time""
""blur"",""11"",""59802""
""blur"",""13"",""76915""
","""event"",""trial"",""time""
""focus"",""12"",""61218""
""focus"",""14"",""78704""
","""event"",""trial"",""time""
""fullscreenenter"",""1"",""1752""
","
","","","","","","1675.7000000178814","images/straw4.png","","","memory_trial","1","definitely_old","","","","","","",""
"html-keyboard-response","161","461362","0.0-15.0-0.59","1901","2","""event"",""trial"",""time""
""fullscreenenter"",""1"",""1752""
""blur"",""11"",""59802""
""focus"",""12"",""61218""
""blur"",""13"",""76915""
""focus"",""14"",""78704""
","""event"",""trial"",""time""
""blur"",""11"",""59802""
""blur"",""13"",""76915""
","""event"",""trial"",""time""
""focus"",""12"",""61218""
""focus"",""14"",""78704""
","""event"",""trial"",""time""
""fullscreenenter"",""1"",""1752""
","
","","","","","","null","<div style=""font-size:60px;"">+</div>","null","","fixation","","","","","","","","",""
"memory-trial","162","465913","0.0-15.0-1.59","1901","2","""event"",""trial"",""time""
""fullscreenenter"",""1"",""1752""
""blur"",""11"",""59802""
""focus"",""12"",""61218""
""blur"",""13"",""76915""
""focus"",""14"",""78704""
","""event"",""trial"",""time""
""blur"",""11"",""59802""
""blur"",""13"",""76915""
","""event"",""trial"",""time""
""focus"",""12"",""61218""
""focus"",""14"",""78704""
","""event"",""trial"",""time""
""fullscreenenter"",""1"",""1752""
","
","","","","","","3543.5","images/boat4.png","","","memory_trial","2","maybe_old","","","","","","",""
"html-keyboard-response","163","466418","0.0-15.0-0.60","1901","2","""event"",""trial"",""time""
""fullscreenenter"",""1"",""1752""
""blur"",""11"",""59802""
""focus"",""12"",""61218""
""blur"",""13"",""76915""
""focus"",""14"",""78704""
","""event"",""trial"",""time""
""blur"",""11"",""59802""
""blur"",""13"",""76915""
","""event"",""trial"",""time""
""focus"",""12"",""61218""
""focus"",""14"",""78704""
","""event"",""trial"",""time""
""fullscreenenter"",""1"",""1752""
","
","","","","","","null","<div style=""font-size:60px;"">+</div>","null","","fixation","","","","","","","","",""
"memory-trial","164","470313","0.0-15.0-1.60","1901","2","""event"",""trial"",""time""
""fullscreenenter"",""1"",""1752""
""blur"",""11"",""59802""
""focus"",""12"",""61218""
""blur"",""13"",""76915""
""focus"",""14"",""78704""
","""event"",""trial"",""time""
""blur"",""11"",""59802""
""blur"",""13"",""76915""
","""event"",""trial"",""time""
""focus"",""12"",""61218""
""focus"",""14"",""78704""
","""event"",""trial"",""time""
""fullscreenenter"",""1"",""1752""
","
","","","","","","2887.0999999940395","images/straw5.png","","","memory_trial","2","maybe_old","","","","","","",""
"html-keyboard-response","165","470818","0.0-15.0-0.61","1901","2","""event"",""trial"",""time""
""fullscreenenter"",""1"",""1752""
""blur"",""11"",""59802""
""focus"",""12"",""61218""
""blur"",""13"",""76915""
""focus"",""14"",""78704""
","""event"",""trial"",""time""
""blur"",""11"",""59802""
""blur"",""13"",""76915""
","""event"",""trial"",""time""
""focus"",""12"",""61218""
""focus"",""14"",""78704""
","""event"",""trial"",""time""
""fullscreenenter"",""1"",""1752""
","
","","","","","","null","<div style=""font-size:60px;"">+</div>","null","","fixation","","","","","","","","",""
"memory-trial","166","475120","0.0-15.0-1.61","1901","2","""event"",""trial"",""time""
""fullscreenenter"",""1"",""1752""
