"trial_type","trial_index","time_elapsed","internal_node_id","subject_id","task_version","interactions","blur_events","focus_events","fullscreenenter_events","fullscreenexit_events","success","timeout","failed_images","failed_audio","failed_video","rt","stimulus","response","button_pressed","task_part","key_press","answer","correct","left_choice","middle_choice","right_choice","choice_positions","option_selected","block"
"pavlovia","0","14","0.0-0.0","1956","2","""event"",""trial"",""time""
""focus"",""0"",""2""
""fullscreenenter"",""1"",""3915""
","
","""event"",""trial"",""time""
""focus"",""0"",""2""
","""event"",""trial"",""time""
""fullscreenenter"",""1"",""3915""
","
","","","","","","","","","","","","","","","","","","",""
"fullscreen","1","4662","0.0-1.0","1956","2","""event"",""trial"",""time""
""focus"",""0"",""2""
""fullscreenenter"",""1"",""3915""
","
","""event"",""trial"",""time""
""focus"",""0"",""2""
","""event"",""trial"",""time""
""fullscreenenter"",""1"",""3915""
","
","true","","","","","","","","","","","","","","","","","",""
"preload","2","6280","0.0-2.0","1956","2","""event"",""trial"",""time""
""focus"",""0"",""2""
""fullscreenenter"",""1"",""3915""
","
","""event"",""trial"",""time""
""focus"",""0"",""2""
","""event"",""trial"",""time""
""fullscreenenter"",""1"",""3915""
","
","true","false","[]","[]","[]","","","","","","","","","","","","","",""
"audio-keyboard-response","3","8948","0.0-3.0","1956","2","""event"",""trial"",""time""
""focus"",""0"",""2""
""fullscreenenter"",""1"",""3915""
","
","""event"",""trial"",""time""
""focus"",""0"",""2""
","""event"",""trial"",""time""
""fullscreenenter"",""1"",""3915""
","
","","","","","","2669.3333333333344","audio/beep_loop.wav"," ","","","","","","","","","","",""
"audio-button-response","4","10586","0.0-4.0","1956","2","""event"",""trial"",""time""
""focus"",""0"",""2""
""fullscreenenter"",""1"",""3915""
","
","""event"",""trial"",""time""
""focus"",""0"",""2""
","""event"",""trial"",""time""
""fullscreenenter"",""1"",""3915""
","
","","","","","","1629","audio/turtle.wav","3","","","","","","","","","","",""
"audio-button-response","5","12705","0.0-5.0","1956","2","""event"",""trial"",""time""
""focus"",""0"",""2""
""fullscreenenter"",""1"",""3915""
","
","""event"",""trial"",""time""
""focus"",""0"",""2""
","""event"",""trial"",""time""
""fullscreenenter"",""1"",""3915""
","
","","","","","","1099","audio/shark.wav","2","","","","","","","","","","",""
"preload","6","27543","0.0-6.0","1956","2","""event"",""trial"",""time""
""focus"",""0"",""2""
""fullscreenenter"",""1"",""3915""
","
","""event"",""trial"",""time""
""focus"",""0"",""2""
","""event"",""trial"",""time""
""fullscreenenter"",""1"",""3915""
","
","true","false","[]","[]","[]","","","","","","","","","","","","","",""
"learning-instructions","7","44126","0.0-7.0-0.0","1956","2","""event"",""trial"",""time""
""focus"",""0"",""2""
""fullscreenenter"",""1"",""3915""
","
","""event"",""trial"",""time""
""focus"",""0"",""2""
","""event"",""trial"",""time""
""fullscreenenter"",""1"",""3915""
","
","","","","","","11761","<p> Welcome back! </p><p> Last week, you had to make choices about lots of different items.  </p>","","0","instructions","","","","","","","","",""
"learning-instructions","8","315724","0.0-7.0-0.1","1956","2","""event"",""trial"",""time""
""focus"",""0"",""2""
""fullscreenenter"",""1"",""3915""
","
","""event"",""trial"",""time""
""focus"",""0"",""2""
","""event"",""trial"",""time""
""fullscreenenter"",""1"",""3915""
","
","","","","","","267268","<p> Today, we are going to ask you to try to remember all the items. </p>","","0","instructions","","","","","","","","",""
"learning-instructions","9","326363","0.0-7.0-0.2","1956","2","""event"",""trial"",""time""
""focus"",""0"",""2""
""fullscreenenter"",""1"",""3915""
","
","""event"",""trial"",""time""
""focus"",""0"",""2""
","""event"",""trial"",""time""
""fullscreenenter"",""1"",""3915""
","
","","","","","","486","<p> On every trial, you will see an image. </p><p> The image may be an OLD image you saw during the games last week or it may be a NEW image that was not presented. </p>","","0","instructions","","","","","","","","",""
"learning-instructions","10","335353","0.0-7.0-0.3","1956","2","""event"",""trial"",""time""
""focus"",""0"",""2""
""fullscreenenter"",""1"",""3915""
","
","""event"",""trial"",""time""
""focus"",""0"",""2""
","""event"",""trial"",""time""
""fullscreenenter"",""1"",""3915""
","
","","","","","","466","<p> You need to select whether the image is:  </p><p>  'Definitely old', 'Maybe old', 'Maybe new', or 'Definitely new.'  </p><div class=""mem-choice-instructions-grid""><div class=""choice-option"" id=""choice-option-1"" ><img src=""images/definitely_old_1.png"" id=""choice-option-img-1"" class=""choice-option-img"" stage=""1""></div><div class=""choice-option"" id=""choice-option-2"" ><img src=""images/maybe_old_1.png"" id=""choice-option-img-2"" class=""choice-option-img"" stage=""1""></div><div class=""choice-option"" id=""choice-option-3"" ><img src=""images/maybe_new_1.png"" id=""choice-option-img-3"" class=""choice-option-img"" stage=""1""></div><div class=""choice-option"" id=""choice-option-4"" > <img src=""images/definitely_new_1.png"" id=""choice-option-img-4"" class=""choice-option-img"" stage=""1""></div></div>","","0","instructions","","","","","","","","",""
"learning-instructions","11","342536","0.0-7.0-0.4","1956","2","""event"",""trial"",""time""
""focus"",""0"",""2""
""fullscreenenter"",""1"",""3915""
","
","""event"",""trial"",""time""
""focus"",""0"",""2""
","""event"",""trial"",""time""
""fullscreenenter"",""1"",""3915""
","
","","","","","","469","<p> You should use the 1, 2, 3, and 4 keys to make your responses.  </p><div class=""mem-choice-instructions-grid""><div class=""choice-option"" id=""choice-option-1"" ><img src=""images/definitely_old.png"" id=""choice-option-img-1"" class=""choice-option-img"" stage=""1""></div><div class=""choice-option"" id=""choice-option-2"" ><img src=""images/maybe_old.png"" id=""choice-option-img-2"" class=""choice-option-img"" stage=""1""></div><div class=""choice-option"" id=""choice-option-3"" ><img src=""images/maybe_new.png"" id=""choice-option-img-3"" class=""choice-option-img"" stage=""1""></div><div class=""choice-option"" id=""choice-option-4"" > <img src=""images/definitely_new.png"" id=""choice-option-img-4"" class=""choice-option-img"" stage=""1""></div></div>","","0","instructions","","","","","","","","",""
"learning-instructions","12","350575","0.0-7.0-0.5","1956","2","""event"",""trial"",""time""
""focus"",""0"",""2""
""fullscreenenter"",""1"",""3915""
","
","""event"",""trial"",""time""
""focus"",""0"",""2""
","""event"",""trial"",""time""
""fullscreenenter"",""1"",""3915""
","
","","","","","","1250","<p> You will have 10 seconds to make each response.  </p><p>  Make sure to respond before time runs out! </p>","","0","instructions","","","","","","","","",""
"learning-instructions","13","358621","0.0-7.0-0.6","1956","2","""event"",""trial"",""time""
""focus"",""0"",""2""
""fullscreenenter"",""1"",""3915""
","
","""event"",""trial"",""time""
""focus"",""0"",""2""
","""event"",""trial"",""time""
""fullscreenenter"",""1"",""3915""
","
","","","","","","436","<p> Today, you will see each image ONCE only.  </p><p>  That means none of the images will repeat. </p>","","0","instructions","","","","","","","","",""
"learning-instructions","14","371745","0.0-7.0-0.7","1956","2","""event"",""trial"",""time""
""focus"",""0"",""2""
""fullscreenenter"",""1"",""3915""
","
","""event"",""trial"",""time""
""focus"",""0"",""2""
","""event"",""trial"",""time""
""fullscreenenter"",""1"",""3915""
","
","","","","","","431","<p> Before you play the real game, it is time to practice. </p><p>  Just like in the real game, some of the images in the practice will be ones you have seen before. </p><p>  Others will be entirely new. </p>","","0","instructions","","","","","","","","",""
"html-button-response","15","374313","0.0-8.0","1956","2","""event"",""trial"",""time""
""focus"",""0"",""2""
""fullscreenenter"",""1"",""3915""
","
","""event"",""trial"",""time""
""focus"",""0"",""2""
","""event"",""trial"",""time""
""fullscreenenter"",""1"",""3915""
","
","","","","","","2449","<p> Ready to practice? </p><p> Remember, use the 1, 2, 3, and 4 keys to make your responses. </p>","0","","instructions","","","","","","","","",""
"html-keyboard-response","16","374952","0.0-9.0-0.0","1956","2","""event"",""trial"",""time""
""focus"",""0"",""2""
""fullscreenenter"",""1"",""3915""
","
","""event"",""trial"",""time""
""focus"",""0"",""2""
","""event"",""trial"",""time""
""fullscreenenter"",""1"",""3915""
","
","","","","","","null","<div style=""font-size:60px;"">+</div>","null","","fixation","","","","","","","","",""
"memory-trial","17","377552","0.0-9.0-1.0","1956","2","""event"",""trial"",""time""
""focus"",""0"",""2""
""fullscreenenter"",""1"",""3915""
","
","""event"",""trial"",""time""
""focus"",""0"",""2""
","""event"",""trial"",""time""
""fullscreenenter"",""1"",""3915""
","
","","","","","","1580","images/ball4.png","","","practice","2","maybe_old","","","","","","",""
"html-keyboard-response","18","378071","0.0-9.0-0.1","1956","2","""event"",""trial"",""time""
""focus"",""0"",""2""
""fullscreenenter"",""1"",""3915""
","
","""event"",""trial"",""time""
""focus"",""0"",""2""
","""event"",""trial"",""time""
""fullscreenenter"",""1"",""3915""
","
","","","","","","null","<div style=""font-size:60px;"">+</div>","null","","fixation","","","","","","","","",""
"memory-trial","19","380842","0.0-9.0-1.1","1956","2","""event"",""trial"",""time""
""focus"",""0"",""2""
""fullscreenenter"",""1"",""3915""
","
","""event"",""trial"",""time""
""focus"",""0"",""2""
","""event"",""trial"",""time""
""fullscreenenter"",""1"",""3915""
","
","","","","","","1750","images/racket1.png","","","practice","4","definitely_new","","","","","","",""
"html-keyboard-response","20","381361","0.0-9.0-0.2","1956","2","""event"",""trial"",""time""
""focus"",""0"",""2""
""fullscreenenter"",""1"",""3915""
","
","""event"",""trial"",""time""
""focus"",""0"",""2""
","""event"",""trial"",""time""
""fullscreenenter"",""1"",""3915""
","
","","","","","","null","<div style=""font-size:60px;"">+</div>","null","","fixation","","","","","","","","",""
"memory-trial","21","383592","0.0-9.0-1.2","1956","2","""event"",""trial"",""time""
""focus"",""0"",""2""
""fullscreenenter"",""1"",""3915""
","
","""event"",""trial"",""time""
""focus"",""0"",""2""
","""event"",""trial"",""time""
""fullscreenenter"",""1"",""3915""
","
","","","","","","1214","images/ball1.png","","","practice","4","definitely_new","","","","","","",""
"html-keyboard-response","22","384112","0.0-9.0-0.3","1956","2","""event"",""trial"",""time""
""focus"",""0"",""2""
""fullscreenenter"",""1"",""3915""
","
","""event"",""trial"",""time""
""focus"",""0"",""2""
","""event"",""trial"",""time""
""fullscreenenter"",""1"",""3915""
","
","","","","","","null","<div style=""font-size:60px;"">+</div>","null","","fixation","","","","","","","","",""
"memory-trial","23","386512","0.0-9.0-1.3","1956","2","""event"",""trial"",""time""
""focus"",""0"",""2""
""fullscreenenter"",""1"",""3915""
","
","""event"",""trial"",""time""
""focus"",""0"",""2""
","""event"",""trial"",""time""
""fullscreenenter"",""1"",""3915""
","
","","","","","","1384","images/racket4.png","","","practice","1","definitely_old","","","","","","",""
"html-keyboard-response","24","387031","0.0-9.0-0.4","1956","2","""event"",""trial"",""time""
""focus"",""0"",""2""
""fullscreenenter"",""1"",""3915""
","
","""event"",""trial"",""time""
""focus"",""0"",""2""
","""event"",""trial"",""time""
""fullscreenenter"",""1"",""3915""
","
","","","","","","null","<div style=""font-size:60px;"">+</div>","null","","fixation","","","","","","","","",""
"memory-trial","25","389311","0.0-9.0-1.4","1956","2","""event"",""trial"",""time""
""focus"",""0"",""2""
""fullscreenenter"",""1"",""3915""
","
","""event"",""trial"",""time""
""focus"",""0"",""2""
","""event"",""trial"",""time""
""fullscreenenter"",""1"",""3915""
","
","","","","","","1259","images/racket3.png","","","practice","3","maybe_new","","","","","","",""
"html-keyboard-response","26","389831","0.0-9.0-0.5","1956","2","""event"",""trial"",""time""
""focus"",""0"",""2""
""fullscreenenter"",""1"",""3915""
","
","""event"",""trial"",""time""
""focus"",""0"",""2""
","""event"",""trial"",""time""
""fullscreenenter"",""1"",""3915""
","
","","","","","","null","<div style=""font-size:60px;"">+</div>","null","","fixation","","","","","","","","",""
"memory-trial","27","392901","0.0-9.0-1.5","1956","2","""event"",""trial"",""time""
""focus"",""0"",""2""
""fullscreenenter"",""1"",""3915""
","
","""event"",""trial"",""time""
""focus"",""0"",""2""
","""event"",""trial"",""time""
""fullscreenenter"",""1"",""3915""
","
","","","","","","2049","images/ball3.png","","","practice","3","maybe_new","","","","","","",""
"html-keyboard-response","28","393421","0.0-9.0-0.6","1956","2","""event"",""trial"",""time""
""focus"",""0"",""2""
""fullscreenenter"",""1"",""3915""
","
","""event"",""trial"",""time""
""focus"",""0"",""2""
","""event"",""trial"",""time""
""fullscreenenter"",""1"",""3915""
","
","","","","","","null","<div style=""font-size:60px;"">+</div>","null","","fixation","","","","","","","","",""
"memory-trial","29","395902","0.0-9.0-1.6","1956","2","""event"",""trial"",""time""
""focus"",""0"",""2""
""fullscreenenter"",""1"",""3915""
","
","""event"",""trial"",""time""
""focus"",""0"",""2""
","""event"",""trial"",""time""
""fullscreenenter"",""1"",""3915""
","
","","","","","","1466","images/racket2.png","","","practice","4","definitely_new","","","","","","",""
"html-keyboard-response","30","396421","0.0-9.0-0.7","1956","2","""event"",""trial"",""time""
""focus"",""0"",""2""
""fullscreenenter"",""1"",""3915""
","
","""event"",""trial"",""time""
""focus"",""0"",""2""
","""event"",""trial"",""time""
""fullscreenenter"",""1"",""3915""
","
","","","","","","null","<div style=""font-size:60px;"">+</div>","null","","fixation","","","","","","","","",""
"memory-trial","31","398711","0.0-9.0-1.7","1956","2","""event"",""trial"",""time""
""focus"",""0"",""2""
""fullscreenenter"",""1"",""3915""
","
","""event"",""trial"",""time""
""focus"",""0"",""2""
","""event"",""trial"",""time""
""fullscreenenter"",""1"",""3915""
","
","","","","","","1268","images/ball2.png","","","practice","1","definitely_old","","","","","","",""
"learning-instructions","32","407800","0.0-10.0-0.0","1956","2","""event"",""trial"",""time""
""focus"",""0"",""2""
""fullscreenenter"",""1"",""3915""
","
","""event"",""trial"",""time""
""focus"",""0"",""2""
","""event"",""trial"",""time""
""fullscreenenter"",""1"",""3915""
","
","","","","","","1136","<p> Great! You have completed the practice. </p><p> Before you start, we're going to ask you a few questions about how the game works.  </p>","","0","instructions","","","","","","","","",""
"preload","33","419881","0.0-11.0","1956","2","""event"",""trial"",""time""
""focus"",""0"",""2""
""fullscreenenter"",""1"",""3915""
","
","""event"",""trial"",""time""
""focus"",""0"",""2""
","""event"",""trial"",""time""
""fullscreenenter"",""1"",""3915""
","
","true","false","[]","[]","[]","","","","","","","","","","","","","",""
"comp-q","34","426954","0.0-12.0-0.0","1956","2","""event"",""trial"",""time""
""focus"",""0"",""2""
""fullscreenenter"",""1"",""3915""
","
","""event"",""trial"",""time""
""focus"",""0"",""2""
","""event"",""trial"",""time""
""fullscreenenter"",""1"",""3915""
","
","","","","","","1228","<p> <b> True or False? </b> </p><p> In this game, you will only see each image once. </p>","","0","comp_question","","","true","","","","","",""
"comp-q","35","434935","0.0-12.0-1.0","1956","2","""event"",""trial"",""time""
""focus"",""0"",""2""
""fullscreenenter"",""1"",""3915""
","
","""event"",""trial"",""time""
""focus"",""0"",""2""
","""event"",""trial"",""time""
""fullscreenenter"",""1"",""3915""
","
","","","","","","1610","<p> <b> That's right! </b> You will see many different images <i> one time each </i> in this game. </p>","","0","comp_answer","","","","","","","","",""
"comp-q","36","441784","0.0-12.0-0.1","1956","2","""event"",""trial"",""time""
""focus"",""0"",""2""
""fullscreenenter"",""1"",""3915""
","
","""event"",""trial"",""time""
""focus"",""0"",""2""
","""event"",""trial"",""time""
""fullscreenenter"",""1"",""3915""
","
","","","","","","1030","<p> <b> True or False? </b> </p><p> You should use the mouse and click to make your response. </p>","","1","comp_question","","","true","","","","","",""
"comp-q","37","450635","0.0-12.0-1.1","1956","2","""event"",""trial"",""time""
""focus"",""0"",""2""
""fullscreenenter"",""1"",""3915""
","
","""event"",""trial"",""time""
""focus"",""0"",""2""
","""event"",""trial"",""time""
""fullscreenenter"",""1"",""3915""
","
","","","","","","1471","<p><b> That's right! </b> You should use the '1', '2', '3', and '4' keys to make your response. </p>","","0","comp_answer","","","","","","","","",""
"comp-q","38","458244","0.0-12.0-0.2","1956","2","""event"",""trial"",""time""
""focus"",""0"",""2""
""fullscreenenter"",""1"",""3915""
","
","""event"",""trial"",""time""
""focus"",""0"",""2""
","""event"",""trial"",""time""
""fullscreenenter"",""1"",""3915""
","
","","","","","","1600","<p> <b> True or False? </b> </p><p> You will have as much time as you want to make each choice. </p>","","1","comp_question","","","true","","","","","",""
"comp-q","39","464894","0.0-12.0-1.2","1956","2","""event"",""trial"",""time""
""focus"",""0"",""2""
""fullscreenenter"",""1"",""3915""
","
","""event"",""trial"",""time""
""focus"",""0"",""2""
","""event"",""trial"",""time""
""fullscreenenter"",""1"",""3915""
","
","","","","","","1230","<p> <b> That's right! </b> You will only have 10 seconds to make each choice. </p>","","0","comp_answer","","","","","","","","",""
"learning-instructions","40","475415","0.0-13.0","1956","2","""event"",""trial"",""time""
""focus"",""0"",""2""
""fullscreenenter"",""1"",""3915""
","
","""event"",""trial"",""time""
""focus"",""0"",""2""
","""event"",""trial"",""time""
""fullscreenenter"",""1"",""3915""
","
","","","","","","1820","<p> Great! You are now ready to begin the game. </p><p> Remember, use the 1, 2, 3, and 4 keys to make your responses. </p>","","0","instructions","","","","","","","","",""
"preload","41","492400","0.0-14.0","1956","2","""event"",""trial"",""time""
""focus"",""0"",""2""
""fullscreenenter"",""1"",""3915""
","
","""event"",""trial"",""time""
""focus"",""0"",""2""
","""event"",""trial"",""time""
""fullscreenenter"",""1"",""3915""
","
","true","false","[]","[]","[]","","","","","","","","","","","","","",""
"html-keyboard-response","42","492912","0.0-15.0-0.0","1956","2","""event"",""trial"",""time""
""focus"",""0"",""2""
""fullscreenenter"",""1"",""3915""
","
","""event"",""trial"",""time""
""focus"",""0"",""2""
","""event"",""trial"",""time""
""fullscreenenter"",""1"",""3915""
","
","","","","","","null","<div style=""font-size:60px;"">+</div>","null","","fixation","","","","","","","","",""
"memory-trial","43","495862","0.0-15.0-1.0","1956","2","""event"",""trial"",""time""
""focus"",""0"",""2""
""fullscreenenter"",""1"",""3915""
","
","""event"",""trial"",""time""
""focus"",""0"",""2""
","""event"",""trial"",""time""
""fullscreenenter"",""1"",""3915""
","
","","","","","","1936","images/boat3.png","","","memory_trial","2","maybe_old","","","","","","",""
"html-keyboard-response","44","496381","0.0-15.0-0.1","1956","2","""event"",""trial"",""time""
""focus"",""0"",""2""
""fullscreenenter"",""1"",""3915""
","
","""event"",""trial"",""time""
""focus"",""0"",""2""
","""event"",""trial"",""time""
""fullscreenenter"",""1"",""3915""
","
","","","","","","null","<div style=""font-size:60px;"">+</div>","null","","fixation","","","","","","","","",""
"memory-trial","45","499271","0.0-15.0-1.1","1956","2","""event"",""trial"",""time""
""focus"",""0"",""2""
""fullscreenenter"",""1"",""3915""
","
","""event"",""trial"",""time""
""focus"",""0"",""2""
","""event"",""trial"",""time""
""fullscreenenter"",""1"",""3915""
","
","","","","","","1882","images/horse1.png","","","memory_trial","1","definitely_old","","","","","","",""
"html-keyboard-response","46","499790","0.0-15.0-0.2","1956","2","""event"",""trial"",""time""
""focus"",""0"",""2""
""fullscreenenter"",""1"",""3915""
","
","""event"",""trial"",""time""
""focus"",""0"",""2""
","""event"",""trial"",""time""
""fullscreenenter"",""1"",""3915""
","
","","","","","","null","<div style=""font-size:60px;"">+</div>","null","","fixation","","","","","","","","",""
"memory-trial","47","502592","0.0-15.0-1.2","1956","2","""event"",""trial"",""time""
""focus"",""0"",""2""
""fullscreenenter"",""1"",""3915""
","
","""event"",""trial"",""time""
""focus"",""0"",""2""
","""event"",""trial"",""time""
""fullscreenenter"",""1"",""3915""
","
","","","","","","1784","images/boat2.png","","","memory_trial","3","maybe_new","","","","","","",""
"html-keyboard-response","48","503095","0.0-15.0-0.3","1956","2","""event"",""trial"",""time""
""focus"",""0"",""2""
""fullscreenenter"",""1"",""3915""
","
","""event"",""trial"",""time""
""focus"",""0"",""2""
","""event"",""trial"",""time""
""fullscreenenter"",""1"",""3915""
","
","","","","","","null","<div style=""font-size:60px;"">+</div>","null","","fixation","","","","","","","","",""
"memory-trial","49","506021","0.0-15.0-1.3","1956","2","""event"",""trial"",""time""
""focus"",""0"",""2""
""fullscreenenter"",""1"",""3915""
","
","""event"",""trial"",""time""
""focus"",""0"",""2""
","""event"",""trial"",""time""
""fullscreenenter"",""1"",""3915""
","
","","","","","","1907","images/sheep3.png","","","memory_trial","2","maybe_old","","","","","","",""
"html-keyboard-response","50","506541","0.0-15.0-0.4","1956","2","""event"",""trial"",""time""
""focus"",""0"",""2""
""fullscreenenter"",""1"",""3915""
","
","""event"",""trial"",""time""
""focus"",""0"",""2""
","""event"",""trial"",""time""
""fullscreenenter"",""1"",""3915""
","
","","","","","","null","<div style=""font-size:60px;"">+</div>","null","","fixation","","","","","","","","",""
"memory-trial","51","508901","0.0-15.0-1.4","1956","2","""event"",""trial"",""time""
""focus"",""0"",""2""
""fullscreenenter"",""1"",""3915""
","
","""event"",""trial"",""time""
""focus"",""0"",""2""
","""event"",""trial"",""time""
""fullscreenenter"",""1"",""3915""
","
","","","","","","1345","images/rabbit2.png","","","memory_trial","1","definitely_old","","","","","","",""
"html-keyboard-response","52","509413","0.0-15.0-0.5","1956","2","""event"",""trial"",""time""
""focus"",""0"",""2""
""fullscreenenter"",""1"",""3915""
","
","""event"",""trial"",""time""
""focus"",""0"",""2""
","""event"",""trial"",""time""
""fullscreenenter"",""1"",""3915""
","
","","","","","","null","<div style=""font-size:60px;"">+</div>","null","","fixation","","","","","","","","",""
"memory-trial","53","511371","0.0-15.0-1.5","1956","2","""event"",""trial"",""time""
""focus"",""0"",""2""
""fullscreenenter"",""1"",""3915""
","
","""event"",""trial"",""time""
""focus"",""0"",""2""
","""event"",""trial"",""time""
""fullscreenenter"",""1"",""3915""
","
","","","","","","949","images/feline4.png","","","memory_trial","1","definitely_old","","","","","","",""
"html-keyboard-response","54","511892","0.0-15.0-0.6","1956","2","""event"",""trial"",""time""
""focus"",""0"",""2""
""fullscreenenter"",""1"",""3915""
","
","""event"",""trial"",""time""
""focus"",""0"",""2""
","""event"",""trial"",""time""
""fullscreenenter"",""1"",""3915""
","
","","","","","","null","<div style=""font-size:60px;"">+</div>","null","","fixation","","","","","","","","",""
"memory-trial","55","513851","0.0-15.0-1.6","1956","2","""event"",""trial"",""time""
""focus"",""0"",""2""
""fullscreenenter"",""1"",""3915""
","
","""event"",""trial"",""time""
""focus"",""0"",""2""
","""event"",""trial"",""time""
""fullscreenenter"",""1"",""3915""
","
","","","","","","957","images/rabbit3.png","","","memory_trial","1","definitely_old","","","","","","",""
"html-keyboard-response","56","514371","0.0-15.0-0.7","1956","2","""event"",""trial"",""time""
""focus"",""0"",""2""
""fullscreenenter"",""1"",""3915""
","
","""event"",""trial"",""time""
""focus"",""0"",""2""
","""event"",""trial"",""time""
""fullscreenenter"",""1"",""3915""
","
","","","","","","null","<div style=""font-size:60px;"">+</div>","null","","fixation","","","","","","","","",""
"memory-trial","57","516922","0.0-15.0-1.7","1956","2","""event"",""trial"",""time""
""focus"",""0"",""2""
""fullscreenenter"",""1"",""3915""
","
","""event"",""trial"",""time""
""focus"",""0"",""2""
","""event"",""trial"",""time""
""fullscreenenter"",""1"",""3915""
","
","","","","","","1532","images/train1.png","","","memory_trial","2","maybe_old","","","","","","",""
"html-keyboard-response","58","517441","0.0-15.0-0.8","1956","2","""event"",""trial"",""time""
""focus"",""0"",""2""
""fullscreenenter"",""1"",""3915""
","
","""event"",""trial"",""time""
""focus"",""0"",""2""
","""event"",""trial"",""time""
""fullscreenenter"",""1"",""3915""
","
","","","","","","null","<div style=""font-size:60px;"">+</div>","null","","fixation","","","","","","","","",""
"memory-trial","59","520061","0.0-15.0-1.8","1956","2","""event"",""trial"",""time""
""focus"",""0"",""2""
""fullscreenenter"",""1"",""3915""
","
","""event"",""trial"",""time""
""focus"",""0"",""2""
","""event"",""trial"",""time""
""fullscreenenter"",""1"",""3915""
","
","","","","","","1599","images/cactus1.png","","","memory_trial","4","definitely_new","","","","","","",""
"html-keyboard-response","60","520581","0.0-15.0-0.9","1956","2","""event"",""trial"",""time""
""focus"",""0"",""2""
""fullscreenenter"",""1"",""3915""
","
","""event"",""trial"",""time""
""focus"",""0"",""2""
","""event"",""trial"",""time""
""fullscreenenter"",""1"",""3915""
","
","","","","","","null","<div style=""font-size:60px;"">+</div>","null","","fixation","","","","","","","","",""
"memory-trial","61","522831","0.0-15.0-1.9","1956","2","""event"",""trial"",""time""
""focus"",""0"",""2""
""fullscreenenter"",""1"",""3915""
","
","""event"",""trial"",""time""
""focus"",""0"",""2""
","""event"",""trial"",""time""
""fullscreenenter"",""1"",""3915""
","
","","","","","","1231","images/chair5.png","","","memory_trial","1","definitely_old","","","","","","",""
"html-keyboard-response","62","523352","0.0-15.0-0.10","1956","2","""event"",""trial"",""time""
""focus"",""0"",""2""
""fullscreenenter"",""1"",""3915""
","
","""event"",""trial"",""time""
""focus"",""0"",""2""
","""event"",""trial"",""time""
""fullscreenenter"",""1"",""3915""
","
","","","","","","null","<div style=""font-size:60px;"">+</div>","null","","fixation","","","","","","","","",""
"memory-trial","63","525611","0.0-15.0-1.10","1956","2","""event"",""trial"",""time""
""focus"",""0"",""2""
""fullscreenenter"",""1"",""3915""
","
","""event"",""trial"",""time""
""focus"",""0"",""2""
","""event"",""trial"",""time""
""fullscreenenter"",""1"",""3915""
","
","","","","","","1246","images/straw2.png","","","memory_trial","4","definitely_new","","","","","","",""
"html-keyboard-response","64","526131","0.0-15.0-0.11","1956","2","""event"",""trial"",""time""
""focus"",""0"",""2""
""fullscreenenter"",""1"",""3915""
","
","""event"",""trial"",""time""
""focus"",""0"",""2""
","""event"",""trial"",""time""
""fullscreenenter"",""1"",""3915""
","
","","","","","","null","<div style=""font-size:60px;"">+</div>","null","","fixation","","","","","","","","",""
"memory-trial","65","529111","0.0-15.0-1.11","1956","2","""event"",""trial"",""time""
""focus"",""0"",""2""
""fullscreenenter"",""1"",""3915""
","
","""event"",""trial"",""time""
""focus"",""0"",""2""
","""event"",""trial"",""time""
""fullscreenenter"",""1"",""3915""
","
","","","","","","1977","images/bed4.png","","","memory_trial","3","maybe_new","","","","","","",""
"html-keyboard-response","66","529621","0.0-15.0-0.12","1956","2","""event"",""trial"",""time""
""focus"",""0"",""2""
""fullscreenenter"",""1"",""3915""
","
","""event"",""trial"",""time""
""focus"",""0"",""2""
","""event"",""trial"",""time""
""fullscreenenter"",""1"",""3915""
","
","","","","","","null","<div style=""font-size:60px;"">+</div>","null","","fixation","","","","","","","","",""
"memory-trial","67","532941","0.0-15.0-1.12","1956","2","""event"",""trial"",""time""
""focus"",""0"",""2""
""fullscreenenter"",""1"",""3915""
","
","""event"",""trial"",""time""
""focus"",""0"",""2""
","""event"",""trial"",""time""
""fullscreenenter"",""1"",""3915""
","
","","","","","","2299","images/chair3.png","","","memory_trial","4","definitely_new","","","","","","",""
"html-keyboard-response","68","533461","0.0-15.0-0.13","1956","2","""event"",""trial"",""time""
""focus"",""0"",""2""
""fullscreenenter"",""1"",""3915""
","
","""event"",""trial"",""time""
""focus"",""0"",""2""
","""event"",""trial"",""time""
""fullscreenenter"",""1"",""3915""
","
","","","","","","null","<div style=""font-size:60px;"">+</div>","null","","fixation","","","","","","","","",""
"memory-trial","69","535951","0.0-15.0-1.13","1956","2","""event"",""trial"",""time""
""focus"",""0"",""2""
""fullscreenenter"",""1"",""3915""
","
","""event"",""trial"",""time""
""focus"",""0"",""2""
","""event"",""trial"",""time""
""fullscreenenter"",""1"",""3915""
","
","","","","","","1469","images/train2.png","","","memory_trial","2","maybe_old","","","","","","",""
"html-keyboard-response","70","536471","0.0-15.0-0.14","1956","2","""event"",""trial"",""time""
""focus"",""0"",""2""
""fullscreenenter"",""1"",""3915""
","
","""event"",""trial"",""time""
""focus"",""0"",""2""
","""event"",""trial"",""time""
""fullscreenenter"",""1"",""3915""
","
","","","","","","null","<div style=""font-size:60px;"">+</div>","null","","fixation","","","","","","","","",""
"memory-trial","71","538511","0.0-15.0-1.14","1956","2","""event"",""trial"",""time""
""focus"",""0"",""2""
""fullscreenenter"",""1"",""3915""
","
","""event"",""trial"",""time""
""focus"",""0"",""2""
","""event"",""trial"",""time""
""fullscreenenter"",""1"",""3915""
","
","","","","","","1029","images/feline2.png","","","memory_trial","1","definitely_old","","","","","","",""
"html-keyboard-response","72","539031","0.0-15.0-0.15","1956","2","""event"",""trial"",""time""
""focus"",""0"",""2""
""fullscreenenter"",""1"",""3915""
","
","""event"",""trial"",""time""
""focus"",""0"",""2""
","""event"",""trial"",""time""
""fullscreenenter"",""1"",""3915""
","
","","","","","","null","<div style=""font-size:60px;"">+</div>","null","","fixation","","","","","","","","",""
"memory-trial","73","541641","0.0-15.0-1.15","1956","2","""event"",""trial"",""time""
""focus"",""0"",""2""
""fullscreenenter"",""1"",""3915""
","
","""event"",""trial"",""time""
""focus"",""0"",""2""
","""event"",""trial"",""time""
""fullscreenenter"",""1"",""3915""
","
","","","","","","1598","images/rabbit1.png","","","memory_trial","2","maybe_old","","","","","","",""
"html-keyboard-response","74","542161","0.0-15.0-0.16","1956","2","""event"",""trial"",""time""
""focus"",""0"",""2""
""fullscreenenter"",""1"",""3915""
","
","""event"",""trial"",""time""
""focus"",""0"",""2""
","""event"",""trial"",""time""
""fullscreenenter"",""1"",""3915""
","
","","","","","","null","<div style=""font-size:60px;"">+</div>","null","","fixation","","","","","","","","",""
"memory-trial","75","544421","0.0-15.0-1.16","1956","2","""event"",""trial"",""time""
""focus"",""0"",""2""
""fullscreenenter"",""1"",""3915""
","
","""event"",""trial"",""time""
""focus"",""0"",""2""
","""event"",""trial"",""time""
""fullscreenenter"",""1"",""3915""
","
","","","","","","1245","images/goat2.png","","","memory_trial","1","definitely_old","","","","","","",""
"html-keyboard-response","76","544941","0.0-15.0-0.17","1956","2","""event"",""trial"",""time""
""focus"",""0"",""2""
""fullscreenenter"",""1"",""3915""
","
","""event"",""trial"",""time""
""focus"",""0"",""2""
","""event"",""trial"",""time""
""fullscreenenter"",""1"",""3915""
","
","","","","","","null","<div style=""font-size:60px;"">+</div>","null","","fixation","","","","","","","","",""
"memory-trial","77","547832","0.0-15.0-1.17","1956","2","""event"",""trial"",""time""
""focus"",""0"",""2""
""fullscreenenter"",""1"",""3915""
","
","""event"",""trial"",""time""
""focus"",""0"",""2""
","""event"",""trial"",""time""
""fullscreenenter"",""1"",""3915""
","
","","","","","","1875","images/plane3.png","","","memory_trial","4","definitely_new","","","","","","",""
"html-keyboard-response","78","548351","0.0-15.0-0.18","1956","2","""event"",""trial"",""time""
""focus"",""0"",""2""
""fullscreenenter"",""1"",""3915""
","
","""event"",""trial"",""time""
""focus"",""0"",""2""
","""event"",""trial"",""time""
""fullscreenenter"",""1"",""3915""
","
","","","","","","null","<div style=""font-size:60px;"">+</div>","null","","fixation","","","","","","","","",""
"memory-trial","79","550852","0.0-15.0-1.18","1956","2","""event"",""trial"",""time""
""focus"",""0"",""2""
""fullscreenenter"",""1"",""3915""
","
","""event"",""trial"",""time""
""focus"",""0"",""2""
","""event"",""trial"",""time""
""fullscreenenter"",""1"",""3915""
","
","","","","","","1489","images/rodent3.png","","","memory_trial","4","definitely_new","","","","","","",""
"html-keyboard-response","80","551371","0.0-15.0-0.19","1956","2","""event"",""trial"",""time""
""focus"",""0"",""2""
""fullscreenenter"",""1"",""3915""
","
","""event"",""trial"",""time""
""focus"",""0"",""2""
","""event"",""trial"",""time""
""fullscreenenter"",""1"",""3915""
","
","","","","","","null","<div style=""font-size:60px;"">+</div>","null","","fixation","","","","","","","","",""
"memory-trial","81","553801","0.0-15.0-1.19","1956","2","""event"",""trial"",""time""
""focus"",""0"",""2""
""fullscreenenter"",""1"",""3915""
","
","""event"",""trial"",""time""
""focus"",""0"",""2""
","""event"",""trial"",""time""
""fullscreenenter"",""1"",""3915""
","
","","","","","","1417","images/sofa2.png","","","memory_trial","2","maybe_old","","","","","","",""
"html-keyboard-response","82","554321","0.0-15.0-0.20","1956","2","""event"",""trial"",""time""
""focus"",""0"",""2""
""fullscreenenter"",""1"",""3915""
","
","""event"",""trial"",""time""
""focus"",""0"",""2""
","""event"",""trial"",""time""
""fullscreenenter"",""1"",""3915""
","
","","","","","","null","<div style=""font-size:60px;"">+</div>","null","","fixation","","","","","","","","",""
"memory-trial","83","556721","0.0-15.0-1.20","1956","2","""event"",""trial"",""time""
""focus"",""0"",""2""
""fullscreenenter"",""1"",""3915""
","
","""event"",""trial"",""time""
""focus"",""0"",""2""
","""event"",""trial"",""time""
""fullscreenenter"",""1"",""3915""
","
","","","","","","1383","images/rabbit4.png","","","memory_trial","3","maybe_new","","","","","","",""
"html-keyboard-response","84","557241","0.0-15.0-0.21","1956","2","""event"",""trial"",""time""
""focus"",""0"",""2""
""fullscreenenter"",""1"",""3915""
","
","""event"",""trial"",""time""
""focus"",""0"",""2""
","""event"",""trial"",""time""
""fullscreenenter"",""1"",""3915""
","
","","","","","","null","<div style=""font-size:60px;"">+</div>","null","","fixation","","","","","","","","",""
"memory-trial","85","559481","0.0-15.0-1.21","1956","2","""event"",""trial"",""time""
""focus"",""0"",""2""
""fullscreenenter"",""1"",""3915""
","
","""event"",""trial"",""time""
""focus"",""0"",""2""
","""event"",""trial"",""time""
""fullscreenenter"",""1"",""3915""
","
","","","","","","1229","images/plane5.png","","","memory_trial","4","definitely_new","","","","","","",""
"html-keyboard-response","86","560001","0.0-15.0-0.22","1956","2","""event"",""trial"",""time""
""focus"",""0"",""2""
""fullscreenenter"",""1"",""3915""
","
","""event"",""trial"",""time""
""focus"",""0"",""2""
","""event"",""trial"",""time""
""fullscreenenter"",""1"",""3915""
","
","","","","","","null","<div style=""font-size:60px;"">+</div>","null","","fixation","","","","","","","","",""
"memory-trial","87","562411","0.0-15.0-1.22","1956","2","""event"",""trial"",""time""
""focus"",""0"",""2""
""fullscreenenter"",""1"",""3915""
","
","""event"",""trial"",""time""
""focus"",""0"",""2""
","""event"",""trial"",""time""
""fullscreenenter"",""1"",""3915""
","
","","","","","","1403","images/bed2.png","","","memory_trial","3","maybe_new","","","","","","",""
"html-keyboard-response","88","562930","0.0-15.0-0.23","1956","2","""event"",""trial"",""time""
""focus"",""0"",""2""
""fullscreenenter"",""1"",""3915""
","
","""event"",""trial"",""time""
""focus"",""0"",""2""
","""event"",""trial"",""time""
""fullscreenenter"",""1"",""3915""
","
","","","","","","null","<div style=""font-size:60px;"">+</div>","null","","fixation","","","","","","","","",""
"memory-trial","89","565461","0.0-15.0-1.23","1956","2","""event"",""trial"",""time""
""focus"",""0"",""2""
""fullscreenenter"",""1"",""3915""
","
","""event"",""trial"",""time""
""focus"",""0"",""2""
","""event"",""trial"",""time""
""fullscreenenter"",""1"",""3915""
","
","","","","","","1514","images/bush1.png","","","memory_trial","4","definitely_new","","","","","","",""
"html-keyboard-response","90","565981","0.0-15.0-0.24","1956","2","""event"",""trial"",""time""
""focus"",""0"",""2""
""fullscreenenter"",""1"",""3915""
","
","""event"",""trial"",""time""
""focus"",""0"",""2""
","""event"",""trial"",""time""
""fullscreenenter"",""1"",""3915""
","
","","","","","","null","<div style=""font-size:60px;"">+</div>","null","","fixation","","","","","","","","",""
"memory-trial","91","568340","0.0-15.0-1.24","1956","2","""event"",""trial"",""time""
""focus"",""0"",""2""
""fullscreenenter"",""1"",""3915""
","
","""event"",""trial"",""time""
""focus"",""0"",""2""
","""event"",""trial"",""time""
""fullscreenenter"",""1"",""3915""
","
","","","","","","1346","images/sheep2.png","","","memory_trial","2","maybe_old","","","","","","",""
"html-keyboard-response","92","568861","0.0-15.0-0.25","1956","2","""event"",""trial"",""time""
""focus"",""0"",""2""
""fullscreenenter"",""1"",""3915""
","
","""event"",""trial"",""time""
""focus"",""0"",""2""
","""event"",""trial"",""time""
""fullscreenenter"",""1"",""3915""
","
","","","","","","null","<div style=""font-size:60px;"">+</div>","null","","fixation","","","","","","","","",""
"memory-trial","93","571221","0.0-15.0-1.25","1956","2","""event"",""trial"",""time""
""focus"",""0"",""2""
""fullscreenenter"",""1"",""3915""
","
","""event"",""trial"",""time""
""focus"",""0"",""2""
","""event"",""trial"",""time""
""fullscreenenter"",""1"",""3915""
","
","","","","","","1344","images/train5.png","","","memory_trial","1","definitely_old","","","","","","",""
"html-keyboard-response","94","571741","0.0-15.0-0.26","1956","2","""event"",""trial"",""time""
""focus"",""0"",""2""
""fullscreenenter"",""1"",""3915""
","
","""event"",""trial"",""time""
""focus"",""0"",""2""
","""event"",""trial"",""time""
""fullscreenenter"",""1"",""3915""
","
","","","","","","null","<div style=""font-size:60px;"">+</div>","null","","fixation","","","","","","","","",""
"memory-trial","95","574131","0.0-15.0-1.26","1956","2","""event"",""trial"",""time""
""focus"",""0"",""2""
""fullscreenenter"",""1"",""3915""
","
","""event"",""trial"",""time""
""focus"",""0"",""2""
","""event"",""trial"",""time""
""fullscreenenter"",""1"",""3915""
","
","","","","","","1386","images/bed3.png","","","memory_trial","3","maybe_new","","","","","","",""
"html-keyboard-response","96","574651","0.0-15.0-0.27","1956","2","""event"",""trial"",""time""
""focus"",""0"",""2""
""fullscreenenter"",""1"",""3915""
","
","""event"",""trial"",""time""
""focus"",""0"",""2""
","""event"",""trial"",""time""
""fullscreenenter"",""1"",""3915""
","
","","","","","","null","<div style=""font-size:60px;"">+</div>","null","","fixation","","","","","","","","",""
"memory-trial","97","576941","0.0-15.0-1.27","1956","2","""event"",""trial"",""time""
""focus"",""0"",""2""
""fullscreenenter"",""1"",""3915""
","
","""event"",""trial"",""time""
""focus"",""0"",""2""
","""event"",""trial"",""time""
""fullscreenenter"",""1"",""3915""
","
","","","","","","1280","images/banana1.png","","","memory_trial","4","definitely_new","","","","","","",""
"html-keyboard-response","98","577461","0.0-15.0-0.28","1956","2","""event"",""trial"",""time""
""focus"",""0"",""2""
""fullscreenenter"",""1"",""3915""
","
","""event"",""trial"",""time""
""focus"",""0"",""2""
","""event"",""trial"",""time""
""fullscreenenter"",""1"",""3915""
","
","","","","","","null","<div style=""font-size:60px;"">+</div>","null","","fixation","","","","","","","","",""
"memory-trial","99","579912","0.0-15.0-1.28","1956","2","""event"",""trial"",""time""
""focus"",""0"",""2""
""fullscreenenter"",""1"",""3915""
","
","""event"",""trial"",""time""
""focus"",""0"",""2""
","""event"",""trial"",""time""
""fullscreenenter"",""1"",""3915""
","
","","","","","","1431","images/feline3.png","","","memory_trial","2","maybe_old","","","","","","",""
"html-keyboard-response","100","580431","0.0-15.0-0.29","1956","2","""event"",""trial"",""time""
""focus"",""0"",""2""
""fullscreenenter"",""1"",""3915""
","
","""event"",""trial"",""time""
""focus"",""0"",""2""
","""event"",""trial"",""time""
""fullscreenenter"",""1"",""3915""
","
","","","","","","null","<div style=""font-size:60px;"">+</div>","null","","fixation","","","","","","","","",""
"memory-trial","101","582711","0.0-15.0-1.29","1956","2","""event"",""trial"",""time""
""focus"",""0"",""2""
""fullscreenenter"",""1"",""3915""
","
","""event"",""trial"",""time""
""focus"",""0"",""2""
","""event"",""trial"",""time""
""fullscreenenter"",""1"",""3915""
","
","","","","","","1270","images/cow1.png","","","memory_trial","4","definitely_new","","","","","","",""
"html-keyboard-response","102","583231","0.0-15.0-0.30","1956","2","""event"",""trial"",""time""
""focus"",""0"",""2""
""fullscreenenter"",""1"",""3915""
","
","""event"",""trial"",""time""
""focus"",""0"",""2""
","""event"",""trial"",""time""
""fullscreenenter"",""1"",""3915""
","
","","","","","","null","<div style=""font-size:60px;"">+</div>","null","","fixation","","","","","","","","",""
"memory-trial","103","585071","0.0-15.0-1.30","1956","2","""event"",""trial"",""time""
""focus"",""0"",""2""
""fullscreenenter"",""1"",""3915""
","
","""event"",""trial"",""time""
""focus"",""0"",""2""
","""event"",""trial"",""time""
""fullscreenenter"",""1"",""3915""
","
","","","","","","818","images/straw4.png","","","memory_trial","4","definitely_new","","","","","","",""
"html-keyboard-response","104","585591","0.0-15.0-0.31","1956","2","""event"",""trial"",""time""
""focus"",""0"",""2""
""fullscreenenter"",""1"",""3915""
","
","""event"",""trial"",""time""
""focus"",""0"",""2""
","""event"",""trial"",""time""
""fullscreenenter"",""1"",""3915""
","
","","","","","","null","<div style=""font-size:60px;"">+</div>","null","","fixation","","","","","","","","",""
"memory-trial","105","588802","0.0-15.0-1.31","1956","2","""event"",""trial"",""time""
""focus"",""0"",""2""
""fullscreenenter"",""1"",""3915""
","
","""event"",""trial"",""time""
""focus"",""0"",""2""
","""event"",""trial"",""time""
""fullscreenenter"",""1"",""3915""
","
","","","","","","2191","images/boat4.png","","","memory_trial","2","maybe_old","","","","","","",""
"html-keyboard-response","106","589321","0.0-15.0-0.32","1956","2","""event"",""trial"",""time""
""focus"",""0"",""2""
""fullscreenenter"",""1"",""3915""
","
","""event"",""trial"",""time""
""focus"",""0"",""2""
","""event"",""trial"",""time""
""fullscreenenter"",""1"",""3915""
","
","","","","","","null","<div style=""font-size:60px;"">+</div>","null","","fixation","","","","","","","","",""
"memory-trial","107","591891","0.0-15.0-1.32","1956","2","""event"",""trial"",""time""
""focus"",""0"",""2""
""fullscreenenter"",""1"",""3915""
","
","""event"",""trial"",""time""
""focus"",""0"",""2""
","""event"",""trial"",""time""
""fullscreenenter"",""1"",""3915""
","
","","","","","","1551","images/cow3.png","","","memory_trial","3","maybe_new","","","","","","",""
"html-keyboard-response","108","592410","0.0-15.0-0.33","1956","2","""event"",""trial"",""time""
""focus"",""0"",""2""
""fullscreenenter"",""1"",""3915""
","
","""event"",""trial"",""time""
""focus"",""0"",""2""
","""event"",""trial"",""time""
""fullscreenenter"",""1"",""3915""
","
","","","","","","null","<div style=""font-size:60px;"">+</div>","null","","fixation","","","","","","","","",""
"memory-trial","109","594611","0.0-15.0-1.33","1956","2","""event"",""trial"",""time""
""focus"",""0"",""2""
""fullscreenenter"",""1"",""3915""
","
","""event"",""trial"",""time""
""focus"",""0"",""2""
","""event"",""trial"",""time""
""fullscreenenter"",""1"",""3915""
","
","","","","","","1190","images/horse4.png","","","memory_trial","1","definitely_old","","","","","","",""
"html-keyboard-response","110","595131","0.0-15.0-0.34","1956","2","""event"",""trial"",""time""
""focus"",""0"",""2""
""fullscreenenter"",""1"",""3915""
","
","""event"",""trial"",""time""
""focus"",""0"",""2""
","""event"",""trial"",""time""
""fullscreenenter"",""1"",""3915""
","
","","","","","","null","<div style=""font-size:60px;"">+</div>","null","","fixation","","","","","","","","",""
"memory-trial","111","598011","0.0-15.0-1.34","1956","2","""event"",""trial"",""time""
""focus"",""0"",""2""
""fullscreenenter"",""1"",""3915""
","
","""event"",""trial"",""time""
""focus"",""0"",""2""
","""event"",""trial"",""time""
""fullscreenenter"",""1"",""3915""
","
","","","","","","1871","images/plane4.png","","","memory_trial","3","maybe_new","","","","","","",""
"html-keyboard-response","112","598521","0.0-15.0-0.35","1956","2","""event"",""trial"",""time""
""focus"",""0"",""2""
""fullscreenenter"",""1"",""3915""
","
","""event"",""trial"",""time""
""focus"",""0"",""2""
","""event"",""trial"",""time""
""fullscreenenter"",""1"",""3915""
","
","","","","","","null","<div style=""font-size:60px;"">+</div>","null","","fixation","","","","","","","","",""
"memory-trial","113","600881","0.0-15.0-1.35","1956","2","""event"",""trial"",""time""
""focus"",""0"",""2""
""fullscreenenter"",""1"",""3915""
","
","""event"",""trial"",""time""
""focus"",""0"",""2""
","""event"",""trial"",""time""
""fullscreenenter"",""1"",""3915""
","
","","","","","","1356","images/bed1.png","","","memory_trial","2","maybe_old","","","","","","",""
"html-keyboard-response","114","601401","0.0-15.0-0.36","1956","2","""event"",""trial"",""time""
""focus"",""0"",""2""
""fullscreenenter"",""1"",""3915""
","
","""event"",""trial"",""time""
""focus"",""0"",""2""
","""event"",""trial"",""time""
""fullscreenenter"",""1"",""3915""
","
","","","","","","null","<div style=""font-size:60px;"">+</div>","null","","fixation","","","","","","","","",""
"memory-trial","115","603592","0.0-15.0-1.36","1956","2","""event"",""trial"",""time""
""focus"",""0"",""2""
""fullscreenenter"",""1"",""3915""
","
","""event"",""trial"",""time""
""focus"",""0"",""2""
","""event"",""trial"",""time""
""fullscreenenter"",""1"",""3915""
","
","","","","","","1187","images/table1.png","","","memory_trial","1","definitely_old","","","","","","",""
"html-keyboard-response","116","604111","0.0-15.0-0.37","1956","2","""event"",""trial"",""time""
""focus"",""0"",""2""
""fullscreenenter"",""1"",""3915""
","
","""event"",""trial"",""time""
""focus"",""0"",""2""
","""event"",""trial"",""time""
""fullscreenenter"",""1"",""3915""
","
","","","","","","null","<div style=""font-size:60px;"">+</div>","null","","fixation","","","","","","","","",""
"memory-trial","117","606691","0.0-15.0-1.37","1956","2","""event"",""trial"",""time""
""focus"",""0"",""2""
""fullscreenenter"",""1"",""3915""
","
","""event"",""trial"",""time""
""focus"",""0"",""2""
","""event"",""trial"",""time""
""fullscreenenter"",""1"",""3915""
","
","","","","","","1564","images/apple1.png","","","memory_trial","4","definitely_new","","","","","","",""
"html-keyboard-response","118","607211","0.0-15.0-0.38","1956","2","""event"",""trial"",""time""
""focus"",""0"",""2""
""fullscreenenter"",""1"",""3915""
","
","""event"",""trial"",""time""
""focus"",""0"",""2""
","""event"",""trial"",""time""
""fullscreenenter"",""1"",""3915""
","
","","","","","","null","<div style=""font-size:60px;"">+</div>","null","","fixation","","","","","","","","",""
"memory-trial","119","609071","0.0-15.0-1.38","1956","2","""event"",""trial"",""time""
""focus"",""0"",""2""
""fullscreenenter"",""1"",""3915""
","
","""event"",""trial"",""time""
""focus"",""0"",""2""
","""event"",""trial"",""time""
""fullscreenenter"",""1"",""3915""
","
","","","","","","851","images/apple5.png","","","memory_trial","4","definitely_new","","","","","","",""
"html-keyboard-response","120","609581","0.0-15.0-0.39","1956","2","""event"",""trial"",""time""
""focus"",""0"",""2""
""fullscreenenter"",""1"",""3915""
","
","""event"",""trial"",""time""
""focus"",""0"",""2""
","""event"",""trial"",""time""
""fullscreenenter"",""1"",""3915""
","
","","","","","","null","<div style=""font-size:60px;"">+</div>","null","","fixation","","","","","","","","",""
"memory-trial","121","612082","0.0-15.0-1.39","1956","2","""event"",""trial"",""time""
""focus"",""0"",""2""
""fullscreenenter"",""1"",""3915""
","
","""event"",""trial"",""time""
""focus"",""0"",""2""
","""event"",""trial"",""time""
""fullscreenenter"",""1"",""3915""
","
","","","","","","1489","images/sofa1.png","","","memory_trial","2","maybe_old","","","","","","",""
"html-keyboard-response","122","612601","0.0-15.0-0.40","1956","2","""event"",""trial"",""time""
""focus"",""0"",""2""
""fullscreenenter"",""1"",""3915""
","
","""event"",""trial"",""time""
""focus"",""0"",""2""
","""event"",""trial"",""time""
""fullscreenenter"",""1"",""3915""
","
","","","","","","null","<div style=""font-size:60px;"">+</div>","null","","fixation","","","","","","","","",""
"memory-trial","123","614692","0.0-15.0-1.40","1956","2","""event"",""trial"",""time""
""focus"",""0"",""2""
""fullscreenenter"",""1"",""3915""
","
","""event"",""trial"",""time""
""focus"",""0"",""2""
","""event"",""trial"",""time""
""fullscreenenter"",""1"",""3915""
","
","","","","","","1084","images/train4.png","","","memory_trial","1","definitely_old","","","","","","",""
"html-keyboard-response","124","615210","0.0-15.0-0.41","1956","2","""event"",""trial"",""time""
""focus"",""0"",""2""
""fullscreenenter"",""1"",""3915""
","
","""event"",""trial"",""time""
""focus"",""0"",""2""
","""event"",""trial"",""time""
""fullscreenenter"",""1"",""3915""
","
","","","","","","null","<div style=""font-size:60px;"">+</div>","null","","fixation","","","","","","","","",""
"memory-trial","125","617071","0.0-15.0-1.41","1956","2","""event"",""trial"",""time""
""focus"",""0"",""2""
""fullscreenenter"",""1"",""3915""
","
","""event"",""trial"",""time""
""focus"",""0"",""2""
","""event"",""trial"",""time""
""fullscreenenter"",""1"",""3915""
","
","","","","","","840","images/horse2.png","","","memory_trial","1","definitely_old","","","","","","",""
"html-keyboard-response","126","617591","0.0-15.0-0.42","1956","2","""event"",""trial"",""time""
""focus"",""0"",""2""
""fullscreenenter"",""1"",""3915""
","
","""event"",""trial"",""time""
""focus"",""0"",""2""
","""event"",""trial"",""time""
""fullscreenenter"",""1"",""3915""
","
","","","","","","null","<div style=""font-size:60px;"">+</div>","null","","fixation","","","","","","","","",""
"memory-trial","127","619781","0.0-15.0-1.42","1956","2","""event"",""trial"",""time""
""focus"",""0"",""2""
""fullscreenenter"",""1"",""3915""
","
","""event"",""trial"",""time""
""focus"",""0"",""2""
","""event"",""trial"",""time""
""fullscreenenter"",""1"",""3915""
","
","","","","","","1175","images/orange4.png","","","memory_trial","3","maybe_new","","","","","","",""
"html-keyboard-response","128","620300","0.0-15.0-0.43","1956","2","""event"",""trial"",""time""
""focus"",""0"",""2""
""fullscreenenter"",""1"",""3915""
","
","""event"",""trial"",""time""
""focus"",""0"",""2""
","""event"",""trial"",""time""
""fullscreenenter"",""1"",""3915""
","
","","","","","","null","<div style=""font-size:60px;"">+</div>","null","","fixation","","","","","","","","",""
"memory-trial","129","623561","0.0-15.0-1.43","1956","2","""event"",""trial"",""time""
""focus"",""0"",""2""
""fullscreenenter"",""1"",""3915""
","
","""event"",""trial"",""time""
""focus"",""0"",""2""
","""event"",""trial"",""time""
""fullscreenenter"",""1"",""3915""
","
","","","","","","2249","images/cow5.png","","","memory_trial","3","maybe_new","","","","","","",""
"html-keyboard-response","130","624071","0.0-15.0-0.44","1956","2","""event"",""trial"",""time""
""focus"",""0"",""2""
""fullscreenenter"",""1"",""3915""
","
","""event"",""trial"",""time""
""focus"",""0"",""2""
","""event"",""trial"",""time""
""fullscreenenter"",""1"",""3915""
","
","","","","","","null","<div style=""font-size:60px;"">+</div>","null","","fixation","","","","","","","","",""
"memory-trial","131","626431","0.0-15.0-1.44","1956","2","""event"",""trial"",""time""
""focus"",""0"",""2""
""fullscreenenter"",""1"",""3915""
","
","""event"",""trial"",""time""
""focus"",""0"",""2""
","""event"",""trial"",""time""
""fullscreenenter"",""1"",""3915""
","
","","","","","","1339","images/flower4.png","","","memory_trial","2","maybe_old","","","","","","",""
"html-keyboard-response","132","626951","0.0-15.0-0.45","1956","2","""event"",""trial"",""time""
""focus"",""0"",""2""
""fullscreenenter"",""1"",""3915""
","
","""event"",""trial"",""time""
""focus"",""0"",""2""
","""event"",""trial"",""time""
""fullscreenenter"",""1"",""3915""
","
","","","","","","null","<div style=""font-size:60px;"">+</div>","null","","fixation","","","","","","","","",""
"memory-trial","133","629081","0.0-15.0-1.45","1956","2","""event"",""trial"",""time""
""focus"",""0"",""2""
""fullscreenenter"",""1"",""3915""
","
","""event"",""trial"",""time""
""focus"",""0"",""2""
","""event"",""trial"",""time""
""fullscreenenter"",""1"",""3915""
","
","","","","","","1126","images/tree2.png","","","memory_trial","1","definitely_old","","","","","","",""
"html-keyboard-response","134","629601","0.0-15.0-0.46","1956","2","""event"",""trial"",""time""
""focus"",""0"",""2""
""fullscreenenter"",""1"",""3915""
","
","""event"",""trial"",""time""
""focus"",""0"",""2""
","""event"",""trial"",""time""
""fullscreenenter"",""1"",""3915""
","
","","","","","","null","<div style=""font-size:60px;"">+</div>","null","","fixation","","","","","","","","",""
"memory-trial","135","631701","0.0-15.0-1.46","1956","2","""event"",""trial"",""time""
""focus"",""0"",""2""
""fullscreenenter"",""1"",""3915""
","
","""event"",""trial"",""time""
""focus"",""0"",""2""
","""event"",""trial"",""time""
""fullscreenenter"",""1"",""3915""
","
","","","","","","1092","images/table2.png","","","memory_trial","1","definitely_old","","","","","","",""
"html-button-response","136","875060","0.0-15.0-2.46-0.46","1956","2","""event"",""trial"",""time""
""focus"",""0"",""2""
""fullscreenenter"",""1"",""3915""
","
","""event"",""trial"",""time""
""focus"",""0"",""2""
","""event"",""trial"",""time""
""fullscreenenter"",""1"",""3915""
","
","","","","","","243356","<p> Take a break! </p><p> Click the button to continue. </p>","0","","break","","","","","","","","",""
"html-keyboard-response","137","875581","0.0-15.0-0.47","1956","2","""event"",""trial"",""time""
""focus"",""0"",""2""
""fullscreenenter"",""1"",""3915""
","
","""event"",""trial"",""time""
""focus"",""0"",""2""
","""event"",""trial"",""time""
""fullscreenenter"",""1"",""3915""
","
","","","","","","null","<div style=""font-size:60px;"">+</div>","null","","fixation","","","","","","","","",""
"memory-trial","138","878101","0.0-15.0-1.47","1956","2","""event"",""trial"",""time""
""focus"",""0"",""2""
""fullscreenenter"",""1"",""3915""
","
","""event"",""trial"",""time""
""focus"",""0"",""2""
","""event"",""trial"",""time""
""fullscreenenter"",""1"",""3915""
","
","","","","","","1501","images/cow2.png","","","memory_trial","2","maybe_old","","","","","","",""
"html-keyboard-response","139","878621","0.0-15.0-0.48","1956","2","""event"",""trial"",""time""
""focus"",""0"",""2""
""fullscreenenter"",""1"",""3915""
","
","""event"",""trial"",""time""
""focus"",""0"",""2""
","""event"",""trial"",""time""
""fullscreenenter"",""1"",""3915""
","
","","","","","","null","<div style=""font-size:60px;"">+</div>","null","","fixation","","","","","","","","",""
"memory-trial","140","880721","0.0-15.0-1.48","1956","2","""event"",""trial"",""time""
""focus"",""0"",""2""
""fullscreenenter"",""1"",""3915""
","
","""event"",""trial"",""time""
""focus"",""0"",""2""
","""event"",""trial"",""time""
""fullscreenenter"",""1"",""3915""
","
","","","","","","1079","images/dog4.png","","","memory_trial","1","definitely_old","","","","","","",""
"html-keyboard-response","141","881241","0.0-15.0-0.49","1956","2","""event"",""trial"",""time""
""focus"",""0"",""2""
""fullscreenenter"",""1"",""3915""
","
","""event"",""trial"",""time""
""focus"",""0"",""2""
","""event"",""trial"",""time""
""fullscreenenter"",""1"",""3915""
","
","","","","","","null","<div style=""font-size:60px;"">+</div>","null","","fixation","","","","","","","","",""
"memory-trial","142","884550","0.0-15.0-1.49","1956","2","""event"",""trial"",""time""
""focus"",""0"",""2""
""fullscreenenter"",""1"",""3915""
","
","""event"",""trial"",""time""
""focus"",""0"",""2""
","""event"",""trial"",""time""
""fullscreenenter"",""1"",""3915""
","
","","","","","","2299","images/apple4.png","","","memory_trial","2","maybe_old","","","","","","",""
"html-keyboard-response","143","885070","0.0-15.0-0.50","1956","2","""event"",""trial"",""time""
""focus"",""0"",""2""
""fullscreenenter"",""1"",""3915""
","
","""event"",""trial"",""time""
""focus"",""0"",""2""
","""event"",""trial"",""time""
""fullscreenenter"",""1"",""3915""
","
","","","","","","null","<div style=""font-size:60px;"">+</div>","null","","fixation","","","","","","","","",""
"memory-trial","144","887161","0.0-15.0-1.50","1956","2","""event"",""trial"",""time""
""focus"",""0"",""2""
""fullscreenenter"",""1"",""3915""
","
","""event"",""trial"",""time""
""focus"",""0"",""2""
","""event"",""trial"",""time""
""fullscreenenter"",""1"",""3915""
","
","","","","","","1082","images/table3.png","","","memory_trial","1","definitely_old","","","","","","",""
"html-keyboard-response","145","887681","0.0-15.0-0.51","1956","2","""event"",""trial"",""time""
""focus"",""0"",""2""
""fullscreenenter"",""1"",""3915""
","
","""event"",""trial"",""time""
""focus"",""0"",""2""
","""event"",""trial"",""time""
""fullscreenenter"",""1"",""3915""
","
","","","","","","null","<div style=""font-size:60px;"">+</div>","null","","fixation","","","","","","","","",""
"memory-trial","146","890021","0.0-15.0-1.51","1956","2","""event"",""trial"",""time""
""focus"",""0"",""2""
""fullscreenenter"",""1"",""3915""
","
","""event"",""trial"",""time""
""focus"",""0"",""2""
","""event"",""trial"",""time""
""fullscreenenter"",""1"",""3915""
","
","","","","","","1326","images/orange3.png","","","memory_trial","1","definitely_old","","","","","","",""
"html-keyboard-response","147","890540","0.0-15.0-0.52","1956","2","""event"",""trial"",""time""
""focus"",""0"",""2""
""fullscreenenter"",""1"",""3915""
","
","""event"",""trial"",""time""
""focus"",""0"",""2""
","""event"",""trial"",""time""
""fullscreenenter"",""1"",""3915""
","
","","","","","","null","<div style=""font-size:60px;"">+</div>","null","","fixation","","","","","","","","",""
"memory-trial","148","892841","0.0-15.0-1.52","1956","2","""event"",""trial"",""time""
""focus"",""0"",""2""
""fullscreenenter"",""1"",""3915""
","
","""event"",""trial"",""time""
""focus"",""0"",""2""
","""event"",""trial"",""time""
""fullscreenenter"",""1"",""3915""
","
","","","","","","1281","images/orange2.png","","","memory_trial","2","maybe_old","","","","","","",""
"html-keyboard-response","149","893361","0.0-15.0-0.53","1956","2","""event"",""trial"",""time""
""focus"",""0"",""2""
""fullscreenenter"",""1"",""3915""
","
","""event"",""trial"",""time""
""focus"",""0"",""2""
","""event"",""trial"",""time""
""fullscreenenter"",""1"",""3915""
","
","","","","","","null","<div style=""font-size:60px;"">+</div>","null","","fixation","","","","","","","","",""
"memory-trial","150","895371","0.0-15.0-1.53","1956","2","""event"",""trial"",""time""
""focus"",""0"",""2""
""fullscreenenter"",""1"",""3915""
","
","""event"",""trial"",""time""
""focus"",""0"",""2""
","""event"",""trial"",""time""
""fullscreenenter"",""1"",""3915""
","
","","","","","","995","images/chair4.png","","","memory_trial","1","definitely_old","","","","","","",""
"html-keyboard-response","151","895890","0.0-15.0-0.54","1956","2","""event"",""trial"",""time""
""focus"",""0"",""2""
""fullscreenenter"",""1"",""3915""
","
","""event"",""trial"",""time""
""focus"",""0"",""2""
","""event"",""trial"",""time""
""fullscreenenter"",""1"",""3915""
","
","","","","","","null","<div style=""font-size:60px;"">+</div>","null","","fixation","","","","","","","","",""
"memory-trial","152","898880","0.0-15.0-1.54","1956","2","""event"",""trial"",""time""
""focus"",""0"",""2""
""fullscreenenter"",""1"",""3915""
","
","""event"",""trial"",""time""
""focus"",""0"",""2""
","""event"",""trial"",""time""
""fullscreenenter"",""1"",""3915""
","
","","","","","","1972","images/banana2.png","","","memory_trial","3","maybe_new","","","","","","",""
"html-keyboard-response","153","899401","0.0-15.0-0.55","1956","2","""event"",""trial"",""time""
""focus"",""0"",""2""
""fullscreenenter"",""1"",""3915""
","
","""event"",""trial"",""time""
""focus"",""0"",""2""
","""event"",""trial"",""time""
""fullscreenenter"",""1"",""3915""
","
","","","","","","null","<div style=""font-size:60px;"">+</div>","null","","fixation","","","","","","","","",""
"memory-trial","154","901751","0.0-15.0-1.55","1956","2","""event"",""trial"",""time""
""focus"",""0"",""2""
""fullscreenenter"",""1"",""3915""
","
","""event"",""trial"",""time""
""focus"",""0"",""2""
","""event"",""trial"",""time""
""fullscreenenter"",""1"",""3915""
","
","","","","","","1333","images/plane1.png","","","memory_trial","4","definitely_new","","","","","","",""
"html-keyboard-response","155","902271","0.0-15.0-0.56","1956","2","""event"",""trial"",""time""
""focus"",""0"",""2""
""fullscreenenter"",""1"",""3915""
","
","""event"",""trial"",""time""
""focus"",""0"",""2""
","""event"",""trial"",""time""
""fullscreenenter"",""1"",""3915""
","
","","","","","","null","<div style=""font-size:60px;"">+</div>","null","","fixation","","","","","","","","",""
"memory-trial","156","904350","0.0-15.0-1.56","1956","2","""event"",""trial"",""time""
""focus"",""0"",""2""
""fullscreenenter"",""1"",""3915""
","
","""event"",""trial"",""time""
""focus"",""0"",""2""
","""event"",""trial"",""time""
""fullscreenenter"",""1"",""3915""
","
","","","","","","1058","images/dog1.png","","","memory_trial","1","definitely_old","","","","","","",""
"html-keyboard-response","157","904871","0.0-15.0-0.57","1956","2","""event"",""trial"",""time""
""focus"",""0"",""2""
""fullscreenenter"",""1"",""3915""
","
","""event"",""trial"",""time""
""focus"",""0"",""2""
","""event"",""trial"",""time""
""fullscreenenter"",""1"",""3915""
","
","","","","","","null","<div style=""font-size:60px;"">+</div>","null","","fixation","","","","","","","","",""
"memory-trial","158","906820","0.0-15.0-1.57","1956","2","""event"",""trial"",""time""
""focus"",""0"",""2""
""fullscreenenter"",""1"",""3915""
","
","""event"",""trial"",""time""
""focus"",""0"",""2""
","""event"",""trial"",""time""
""fullscreenenter"",""1"",""3915""
","
","","","","","","930","images/goat3.png","","","memory_trial","1","definitely_old","","","","","","",""
"html-keyboard-response","159","907340","0.0-15.0-0.58","1956","2","""event"",""trial"",""time""
""focus"",""0"",""2""
""fullscreenenter"",""1"",""3915""
","
","""event"",""trial"",""time""
""focus"",""0"",""2""
","""event"",""trial"",""time""
""fullscreenenter"",""1"",""3915""
","
","","","","","","null","<div style=""font-size:60px;"">+</div>","null","","fixation","","","","","","","","",""
"memory-trial","160","909501","0.0-15.0-1.58","1956","2","""event"",""trial"",""time""
""focus"",""0"",""2""
""fullscreenenter"",""1"",""3915""
","
","""event"",""trial"",""time""
""focus"",""0"",""2""
","""event"",""trial"",""time""
""fullscreenenter"",""1"",""3915""
","
","","","","","","1142","images/cactus2.png","","","memory_trial","1","definitely_old","","","","","","",""
"html-keyboard-response","161","910020","0.0-15.0-0.59","1956","2","""event"",""trial"",""time""
""focus"",""0"",""2""
""fullscreenenter"",""1"",""3915""
","
","""event"",""trial"",""time""
""focus"",""0"",""2""
","""event"",""trial"",""time""
""fullscreenenter"",""1"",""3915""
","
","","","","","","null","<div style=""font-size:60px;"">+</div>","null","","fixation","","","","","","","","",""
"memory-trial","162","912791","0.0-15.0-1.59","1956","2","""event"",""trial"",""time""
""focus"",""0"",""2""
""fullscreenenter"",""1"",""3915""
","
","""event"",""trial"",""time""
""focus"",""0"",""2""
","""event"",""trial"",""time""
""fullscreenenter"",""1"",""3915""
","
","","","","","","1755","images/bush4.png","","","memory_trial","4","definitely_new","","","","","","",""
"html-keyboard-response","163","913311","0.0-15.0-0.60","1956","2","""event"",""trial"",""time""
""focus"",""0"",""2""
""fullscreenenter"",""1"",""3915""
","
","""event"",""trial"",""time""
""focus"",""0"",""2""
","""event"",""trial"",""time""
""fullscreenenter"",""1"",""3915""
","
","","","","","","null","<div style=""font-size:60px;"">+</div>","null","","fixation","","","","","","","","",""
"memory-trial","164","916231","0.0-15.0-1.60","1956","2","""event"",""trial"",""time""
""focus"",""0"",""2""
""fullscreenenter"",""1"",""3915""
","
","""event"",""trial"",""time""
""focus"",""0"",""2""
","""event"",""trial"",""time""
""fullscreenenter"",""1"",""3915""
","
","","","","","","1904","images/truck1.png","","","memory_trial","4","definitely_new","","","","","","",""
"html-keyboard-response","165","916751","0.0-15.0-0.61","1956","2","""event"",""trial"",""time""
""focus"",""0"",""2""
""fullscreenenter"",""1"",""3915""
","
","""event"",""trial"",""time""
""focus"",""0"",""2""
","""event"",""trial"",""time""
""fullscreenenter"",""1"",""3915""
","
","","","","","","null","<div style=""font-size:60px;"">+</div>","null","","fixation","","","","","","","","",""
"memory-trial","166","918801","0.0-15.0-1.61","1956","2","""event"",""trial"",""time""
""focus"",""0"",""2""
""fullscreenenter"",""1"",""3915""
","
","""event"",""trial"",""time""
""focus"",""0"",""2""
","""event"",""trial"",""time""
""fullscreenenter"",""1"",""3915""
","
","","","","","","1032","images/orange5.png","","","memory_trial","2","maybe_old","","","","","","",""
"html-keyboard-response","167","919320","0.0-15.0-0.62","1956","2","""event"",""trial"",""time""
""focus"",""0"",""2""
""fullscreenenter"",""1"",""3915""
","
","""event"",""trial"",""time""
""focus"",""0"",""2""
","""event"",""trial"",""time""
""fullscreenenter"",""1"",""3915""
","
","","","","","","null","<div style=""font-size:60px;"">+</div>","null","","fixation","","","","","","","","",""
"memory-trial","168","921980","0.0-15.0-1.62","1956","2","""event"",""trial"",""time""
""focus"",""0"",""2""
""fullscreenenter"",""1"",""3915""
","
","""event"",""trial"",""time""
""focus"",""0"",""2""
","""event"",""trial"",""time""
""fullscreenenter"",""1"",""3915""
","
","","","","","","1642","images/horse3.png","","","memory_trial","2","maybe_old","","","","","","",""
"html-keyboard-response","169","922502","0.0-15.0-0.63","1956","2","""event"",""trial"",""time""
""focus"",""0"",""2""
""fullscreenenter"",""1"",""3915""
","
","""event"",""trial"",""time""
""focus"",""0"",""2""
","""event"",""trial"",""time""
""fullscreenenter"",""1"",""3915""
","
","","","","","","null","<div style=""font-size:60px;"">+</div>","null","","fixation","","","","","","","","",""
"memory-trial","170","925111","0.0-15.0-1.63","1956","2","""event"",""trial"",""time""
""focus"",""0"",""2""
""fullscreenenter"",""1"",""3915""
","
","""event"",""trial"",""time""
""focus"",""0"",""2""
","""event"",""trial"",""time""
""fullscreenenter"",""1"",""3915""
","
","","","","","","1594","images/rodent1.png","","","memory_trial","4","definitely_new","","","","","","",""
"html-keyboard-response","171","925630","0.0-15.0-0.64","1956","2","""event"",""trial"",""time""
""focus"",""0"",""2""
""fullscreenenter"",""1"",""3915""
","
","""event"",""trial"",""time""
""focus"",""0"",""2""
","""event"",""trial"",""time""
""fullscreenenter"",""1"",""3915""
","
","","","","","","null","<div style=""font-size:60px;"">+</div>","null","","fixation","","","","","","","","",""
"memory-trial","172","927891","0.0-15.0-1.64","1956","2","""event"",""trial"",""time""
""focus"",""0"",""2""
""fullscreenenter"",""1"",""3915""
","
","""event"",""trial"",""time""
""focus"",""0"",""2""
","""event"",""trial"",""time""
""fullscreenenter"",""1"",""3915""
","
","","","","","","1256","images/chair1.png","","","memory_trial","1","definitely_old","","","","","","",""
"html-keyboard-response","173","928410","0.0-15.0-0.65","1956","2","""event"",""trial"",""time""
""focus"",""0"",""2""
""fullscreenenter"",""1"",""3915""
","
","""event"",""trial"",""time""
""focus"",""0"",""2""
","""event"",""trial"",""time""
""fullscreenenter"",""1"",""3915""
","
","","","","","","null","<div style=""font-size:60px;"">+</div>","null","","fixation","","","","","","","","",""
"memory-trial","174","930641","0.0-15.0-1.65","1956","2","""event"",""trial"",""time""
""focus"",""0"",""2""
""fullscreenenter"",""1"",""3915""
","
","""event"",""trial"",""time""
""focus"",""0"",""2""
","""event"",""trial"",""time""
""fullscreenenter"",""1"",""3915""
","
","","","","","","1211","images/flower1.png","","","memory_trial","2","maybe_old","","","","","","",""
"html-keyboard-response","175","931162","0.0-15.0-0.66","1956","2","""event"",""trial"",""time""
""focus"",""0"",""2""
""fullscreenenter"",""1"",""3915""
","
","""event"",""trial"",""time""
""focus"",""0"",""2""
","""event"",""trial"",""time""
""fullscreenenter"",""1"",""3915""
","
","","","","","","null","<div style=""font-size:60px;"">+</div>","null","","fixation","","","","","","","","",""
"memory-trial","176","933400","0.0-15.0-1.66","1956","2","""event"",""trial"",""time""
""focus"",""0"",""2""
""fullscreenenter"",""1"",""3915""
","
","""event"",""trial"",""time""
""focus"",""0"",""2""
","""event"",""trial"",""time""
""fullscreenenter"",""1"",""3915""
","
","","","","","","1225","images/table4.png","","","memory_trial","2","maybe_old","","","","","","",""
"html-keyboard-response","177","933920","0.0-15.0-0.67","1956","2","""event"",""trial"",""time""
""focus"",""0"",""2""
""fullscreenenter"",""1"",""3915""
","
","""event"",""trial"",""time""
""focus"",""0"",""2""
","""event"",""trial"",""time""
""fullscreenenter"",""1"",""3915""
","
","","","","","","null","<div style=""font-size:60px;"">+</div>","null","","fixation","","","","","","","","",""
"memory-trial","178","936410","0.0-15.0-1.67","1956","2","""event"",""trial"",""time""
""focus"",""0"",""2""
""fullscreenenter"",""1"",""3915""
","
","""event"",""trial"",""time""
""focus"",""0"",""2""
","""event"",""trial"",""time""
""fullscreenenter"",""1"",""3915""
","
","","","","","","1486","images/tree1.png","","","memory_trial","2","maybe_old","","","","","","",""
"html-keyboard-response","179","936931","0.0-15.0-0.68","1956","2","""event"",""trial"",""time""
""focus"",""0"",""2""
""fullscreenenter"",""1"",""3915""
","
","""event"",""trial"",""time""
""focus"",""0"",""2""
","""event"",""trial"",""time""
""fullscreenenter"",""1"",""3915""
","
","","","","","","null","<div style=""font-size:60px;"">+</div>","null","","fixation","","","","","","","","",""
"memory-trial","180","939591","0.0-15.0-1.68","1956","2","""event"",""trial"",""time""
""focus"",""0"",""2""
""fullscreenenter"",""1"",""3915""
","
","""event"",""trial"",""time""
""focus"",""0"",""2""
","""event"",""trial"",""time""
""fullscreenenter"",""1"",""3915""
","
","","","","","","1650","images/rodent5.png","","","memory_trial","3","maybe_new","","","","","","",""
"html-keyboard-response","181","940110","0.0-15.0-0.69","1956","2","""event"",""trial"",""time""
""focus"",""0"",""2""
""fullscreenenter"",""1"",""3915""
","
","""event"",""trial"",""time""
""focus"",""0"",""2""
","""event"",""trial"",""time""
""fullscreenenter"",""1"",""3915""
","
","","","","","","null","<div style=""font-size:60px;"">+</div>","null","","fixation","","","","","","","","",""
"memory-trial","182","942441","0.0-15.0-1.69","1956","2","""event"",""trial"",""time""
""focus"",""0"",""2""
""fullscreenenter"",""1"",""3915""
","
","""event"",""trial"",""time""
""focus"",""0"",""2""
","""event"",""trial"",""time""
""fullscreenenter"",""1"",""3915""
","
","","","","","","1313","images/train3.png","","","memory_trial","2","maybe_old","","","","","","",""
"html-keyboard-response","183","942960","0.0-15.0-0.70","1956","2","""event"",""trial"",""time""
""focus"",""0"",""2""
""fullscreenenter"",""1"",""3915""
","
","""event"",""trial"",""time""
""focus"",""0"",""2""
","""event"",""trial"",""time""
""fullscreenenter"",""1"",""3915""
","
","","","","","","null","<div style=""font-size:60px;"">+</div>","null","","fixation","","","","","","","","",""
"memory-trial","184","945700","0.0-15.0-1.70","1956","2","""event"",""trial"",""time""
""focus"",""0"",""2""
""fullscreenenter"",""1"",""3915""
","
","""event"",""trial"",""time""
""focus"",""0"",""2""
","""event"",""trial"",""time""
""fullscreenenter"",""1"",""3915""
","
","","","","","","1737","images/flower3.png","","","memory_trial","3","maybe_new","","","","","","",""
"html-keyboard-response","185","946220","0.0-15.0-0.71","1956","2","""event"",""trial"",""time""
""focus"",""0"",""2""
""fullscreenenter"",""1"",""3915""
","
","""event"",""trial"",""time""
""focus"",""0"",""2""
","""event"",""trial"",""time""
""fullscreenenter"",""1"",""3915""
","
","","","","","","null","<div style=""font-size:60px;"">+</div>","null","","fixation","","","","","","","","",""
"memory-trial","186","948990","0.0-15.0-1.71","1956","2","""event"",""trial"",""time""
""focus"",""0"",""2""
""fullscreenenter"",""1"",""3915""
","
","""event"",""trial"",""time""
""focus"",""0"",""2""
","""event"",""trial"",""time""
""fullscreenenter"",""1"",""3915""
","
","","","","","","1765","images/banana5.png","","","memory_trial","3","maybe_new","","","","","","",""
"html-keyboard-response","187","949511","0.0-15.0-0.72","1956","2","""event"",""trial"",""time""
""focus"",""0"",""2""
""fullscreenenter"",""1"",""3915""
","
","""event"",""trial"",""time""
""focus"",""0"",""2""
","""event"",""trial"",""time""
""fullscreenenter"",""1"",""3915""
","
","","","","","","null","<div style=""font-size:60px;"">+</div>","null","","fixation","","","","","","","","",""
"memory-trial","188","951921","0.0-15.0-1.72","1956","2","""event"",""trial"",""time""
""focus"",""0"",""2""
""fullscreenenter"",""1"",""3915""
","
","""event"",""trial"",""time""
""focus"",""0"",""2""
","""event"",""trial"",""time""
""fullscreenenter"",""1"",""3915""
","
","","","","","","1390","images/tree5.png","","","memory_trial","1","definitely_old","","","","","","",""
"html-keyboard-response","189","952441","0.0-15.0-0.73","1956","2","""event"",""trial"",""time""
""focus"",""0"",""2""
""fullscreenenter"",""1"",""3915""
","
","""event"",""trial"",""time""
""focus"",""0"",""2""
","""event"",""trial"",""time""
""fullscreenenter"",""1"",""3915""
","
","","","","","","null","<div style=""font-size:60px;"">+</div>","null","","fixation","","","","","","","","",""
"memory-trial","190","954624","0.0-15.0-1.73","1956","2","""event"",""trial"",""time""
""focus"",""0"",""2""
""fullscreenenter"",""1"",""3915""
","
","""event"",""trial"",""time""
""focus"",""0"",""2""
","""event"",""trial"",""time""
""fullscreenenter"",""1"",""3915""
","
","","","","","","1176","images/rodent4.png","","","memory_trial","4","definitely_new","","","","","","",""
"html-keyboard-response","191","955140","0.0-15.0-0.74","1956","2","""event"",""trial"",""time""
""focus"",""0"",""2""
""fullscreenenter"",""1"",""3915""
","
","""event"",""trial"",""time""
""focus"",""0"",""2""
","""event"",""trial"",""time""
""fullscreenenter"",""1"",""3915""
","
","","","","","","null","<div style=""font-size:60px;"">+</div>","null","","fixation","","","","","","","","",""
"memory-trial","192","957651","0.0-15.0-1.74","1956","2","""event"",""trial"",""time""
""focus"",""0"",""2""
""fullscreenenter"",""1"",""3915""
","
","""event"",""trial"",""time""
""focus"",""0"",""2""
","""event"",""trial"",""time""
""fullscreenenter"",""1"",""3915""
","
","","","","","","1504","images/bed5.png","","","memory_trial","3","maybe_new","","","","","","",""
"html-keyboard-response","193","958170","0.0-15.0-0.75","1956","2","""event"",""trial"",""time""
""focus"",""0"",""2""
""fullscreenenter"",""1"",""3915""
","
","""event"",""trial"",""time""
""focus"",""0"",""2""
","""event"",""trial"",""time""
""fullscreenenter"",""1"",""3915""
","
","","","","","","null","<div style=""font-size:60px;"">+</div>","null","","fixation","","","","","","","","",""
"memory-trial","194","960771","0.0-15.0-1.75","1956","2","""event"",""trial"",""time""
""focus"",""0"",""2""
""fullscreenenter"",""1"",""3915""
","
","""event"",""trial"",""time""
""focus"",""0"",""2""
","""event"",""trial"",""time""
""fullscreenenter"",""1"",""3915""
","
","","","","","","1587","images/feline1.png","","","memory_trial","3","maybe_new","","","","","","",""
"html-keyboard-response","195","961281","0.0-15.0-0.76","1956","2","""event"",""trial"",""time""
""focus"",""0"",""2""
""fullscreenenter"",""1"",""3915""
","
","""event"",""trial"",""time""
""focus"",""0"",""2""
","""event"",""trial"",""time""
""fullscreenenter"",""1"",""3915""
","
","","","","","","null","<div style=""font-size:60px;"">+</div>","null","","fixation","","","","","","","","",""
"memory-trial","196","963541","0.0-15.0-1.76","1956","2","""event"",""trial"",""time""
""focus"",""0"",""2""
""fullscreenenter"",""1"",""3915""
","
","""event"",""trial"",""time""
""focus"",""0"",""2""
","""event"",""trial"",""time""
""fullscreenenter"",""1"",""3915""
","
","","","","","","1240","images/dog3.png","","","memory_trial","1","definitely_old","","","","","","",""
"html-keyboard-response","197","964060","0.0-15.0-0.77","1956","2","""event"",""trial"",""time""
""focus"",""0"",""2""
""fullscreenenter"",""1"",""3915""
","
","""event"",""trial"",""time""
""focus"",""0"",""2""
","""event"",""trial"",""time""
""fullscreenenter"",""1"",""3915""
","
","","","","","","null","<div style=""font-size:60px;"">+</div>","null","","fixation","","","","","","","","",""
"memory-trial","198","966340","0.0-15.0-1.77","1956","2","""event"",""trial"",""time""
""focus"",""0"",""2""
""fullscreenenter"",""1"",""3915""
","
","""event"",""trial"",""time""
""focus"",""0"",""2""
","""event"",""trial"",""time""
""fullscreenenter"",""1"",""3915""
","
","","","","","","1270","images/bush5.png","","","memory_trial","4","definitely_new","","","","","","",""
"html-keyboard-response","199","966860","0.0-15.0-0.78","1956","2","""event"",""trial"",""time""
""focus"",""0"",""2""
""fullscreenenter"",""1"",""3915""
","
","""event"",""trial"",""time""
""focus"",""0"",""2""
","""event"",""trial"",""time""
""fullscreenenter"",""1"",""3915""
","
","","","","","","null","<div style=""font-size:60px;"">+</div>","null","","fixation","","","","","","","","",""
"memory-trial","200","968841","0.0-15.0-1.78","1956","2","""event"",""trial"",""time""
""focus"",""0"",""2""
""fullscreenenter"",""1"",""3915""
","
","""event"",""trial"",""time""
""focus"",""0"",""2""
","""event"",""trial"",""time""
""fullscreenenter"",""1"",""3915""
","
","","","","","","974","images/apple3.png","","","memory_trial","3","maybe_new","","","","","","",""
"html-keyboard-response","201","969360","0.0-15.0-0.79","1956","2","""event"",""trial"",""time""
""focus"",""0"",""2""
""fullscreenenter"",""1"",""3915""
","
","""event"",""trial"",""time""
""focus"",""0"",""2""
","""event"",""trial"",""time""
""fullscreenenter"",""1"",""3915""
","
","","","","","","null","<div style=""font-size:60px;"">+</div>","null","","fixation","","","","","","","","",""
"memory-trial","202","971646","0.0-15.0-1.79","1956","2","""event"",""trial"",""time""
""focus"",""0"",""2""
""fullscreenenter"",""1"",""3915""
","
","""event"",""trial"",""time""
""focus"",""0"",""2""
","""event"",""trial"",""time""
""fullscreenenter"",""1"",""3915""
","
","","","","","","1284","images/plane2.png","","","memory_trial","3","maybe_new","","","","","","",""
"html-keyboard-response","203","972150","0.0-15.0-0.80","1956","2","""event"",""trial"",""time""
""focus"",""0"",""2""
""fullscreenenter"",""1"",""3915""
","
","""event"",""trial"",""time""
""focus"",""0"",""2""
","""event"",""trial"",""time""
""fullscreenenter"",""1"",""3915""
","
","","","","","","null","<div style=""font-size:60px;"">+</div>","null","","fixation","","","","","","","","",""
"memory-trial","204","974410","0.0-15.0-1.80","1956","2","""event"",""trial"",""time""
""focus"",""0"",""2""
""fullscreenenter"",""1"",""3915""
","
","""event"",""trial"",""time""
""focus"",""0"",""2""
","""event"",""trial"",""time""
""fullscreenenter"",""1"",""3915""
","
","","","","","","1244","images/dog5.png","","","memory_trial","1","definitely_old","","","","","","",""
"html-keyboard-response","205","974930","0.0-15.0-0.81","1956","2","""event"",""trial"",""time""
""focus"",""0"",""2""
""fullscreenenter"",""1"",""3915""
","
","""event"",""trial"",""time""
""focus"",""0"",""2""
","""event"",""trial"",""time""
""fullscreenenter"",""1"",""3915""
","
","","","","","","null","<div style=""font-size:60px;"">+</div>","null","","fixation","","","","","","","","",""
"memory-trial","206","977021","0.0-15.0-1.81","1956","2","""event"",""trial"",""time""
""focus"",""0"",""2""
""fullscreenenter"",""1"",""3915""
","
","""event"",""trial"",""time""
""focus"",""0"",""2""
","""event"",""trial"",""time""
""fullscreenenter"",""1"",""3915""
","
","","","","","","1072","images/bush2.png","","","memory_trial","4","definitely_new","","","","","","",""
"html-keyboard-response","207","977540","0.0-15.0-0.82","1956","2","""event"",""trial"",""time""
""focus"",""0"",""2""
""fullscreenenter"",""1"",""3915""
","
","""event"",""trial"",""time""
""focus"",""0"",""2""
","""event"",""trial"",""time""
""fullscreenenter"",""1"",""3915""
","
","","","","","","null","<div style=""font-size:60px;"">+</div>","null","","fixation","","","","","","","","",""
"memory-trial","208","980241","0.0-15.0-1.82","1956","2","""event"",""trial"",""time""
""focus"",""0"",""2""
""fullscreenenter"",""1"",""3915""
","
","""event"",""trial"",""time""
""focus"",""0"",""2""
","""event"",""trial"",""time""
""fullscreenenter"",""1"",""3915""
","
","","","","","","1693","images/cactus5.png","","","memory_trial","3","maybe_new","","","","","","",""
"html-keyboard-response","209","980750","0.0-15.0-0.83","1956","2","""event"",""trial"",""time""
""focus"",""0"",""2""
""fullscreenenter"",""1"",""3915""
","
","""event"",""trial"",""time""
""focus"",""0"",""2""
","""event"",""trial"",""time""
""fullscreenenter"",""1"",""3915""
","
","","","","","","null","<div style=""font-size:60px;"">+</div>","null","","fixation","","","","","","","","",""
"memory-trial","210","982911","0.0-15.0-1.83","1956","2","""event"",""trial"",""time""
""focus"",""0"",""2""
""fullscreenenter"",""1"",""3915""
","
","""event"",""trial"",""time""
""focus"",""0"",""2""
","""event"",""trial"",""time""
""fullscreenenter"",""1"",""3915""
","
","","","","","","1157","images/dog2.png","","","memory_trial","1","definitely_old","","","","","","",""
"html-keyboard-response","211","983430","0.0-15.0-0.84","1956","2","""event"",""trial"",""time""
""focus"",""0"",""2""
""fullscreenenter"",""1"",""3915""
","
","""event"",""trial"",""time""
""focus"",""0"",""2""
","""event"",""trial"",""time""
""fullscreenenter"",""1"",""3915""
","
","","","","","","null","<div style=""font-size:60px;"">+</div>","null","","fixation","","","","","","","","",""
"memory-trial","212","987010","0.0-15.0-1.84","1956","2","""event"",""trial"",""time""
""focus"",""0"",""2""
""fullscreenenter"",""1"",""3915""
","
","""event"",""trial"",""time""
""focus"",""0"",""2""
","""event"",""trial"",""time""
""fullscreenenter"",""1"",""3915""
","
","","","","","","2569","images/straw5.png","","","memory_trial","3","maybe_new","","","","","","",""
"html-keyboard-response","213","987514","0.0-15.0-0.85","1956","2","""event"",""trial"",""time""
""focus"",""0"",""2""
""fullscreenenter"",""1"",""3915""
","
","""event"",""trial"",""time""
""focus"",""0"",""2""
","""event"",""trial"",""time""
""fullscreenenter"",""1"",""3915""
","
","","","","","","null","<div style=""font-size:60px;"">+</div>","null","","fixation","","","","","","","","",""
"memory-trial","214","989440","0.0-15.0-1.85","1956","2","""event"",""trial"",""time""
""focus"",""0"",""2""
""fullscreenenter"",""1"",""3915""
","
","""event"",""trial"",""time""
""focus"",""0"",""2""
","""event"",""trial"",""time""
""fullscreenenter"",""1"",""3915""
","
","","","","","","917","images/goat1.png","","","memory_trial","2","maybe_old","","","","","","",""
"html-keyboard-response","215","989961","0.0-15.0-0.86","1956","2","""event"",""trial"",""time""
""focus"",""0"",""2""
""fullscreenenter"",""1"",""3915""
","
","""event"",""trial"",""time""
""focus"",""0"",""2""
","""event"",""trial"",""time""
""fullscreenenter"",""1"",""3915""
","
","","","","","","null","<div style=""font-size:60px;"">+</div>","null","","fixation","","","","","","","","",""
"memory-trial","216","992301","0.0-15.0-1.86","1956","2","""event"",""trial"",""time""
""focus"",""0"",""2""
""fullscreenenter"",""1"",""3915""
","
","""event"",""trial"",""time""
""focus"",""0"",""2""
","""event"",""trial"",""time""
""fullscreenenter"",""1"",""3915""
","
","","","","","","1337","images/boat5.png","","","memory_trial","2","maybe_old","","","","","","",""
"html-keyboard-response","217","992821","0.0-15.0-0.87","1956","2","""event"",""trial"",""time""
""focus"",""0"",""2""
""fullscreenenter"",""1"",""3915""
","
","""event"",""trial"",""time""
""focus"",""0"",""2""
","""event"",""trial"",""time""
""fullscreenenter"",""1"",""3915""
","
","","","","","","null","<div style=""font-size:60px;"">+</div>","null","","fixation","","","","","","","","",""
"memory-trial","218","994931","0.0-15.0-1.87","1956","2","""event"",""trial"",""time""
""focus"",""0"",""2""
""fullscreenenter"",""1"",""3915""
","
","""event"",""trial"",""time""
""focus"",""0"",""2""
","""event"",""trial"",""time""
""fullscreenenter"",""1"",""3915""
","
","","","","","","1106","images/truck2.png","","","memory_trial","2","maybe_old","","","","","","",""
"html-keyboard-response","219","995451","0.0-15.0-0.88","1956","2","""event"",""trial"",""time""
""focus"",""0"",""2""
""fullscreenenter"",""1"",""3915""
","
","""event"",""trial"",""time""
""focus"",""0"",""2""
","""event"",""trial"",""time""
""fullscreenenter"",""1"",""3915""
","
","","","","","","null","<div style=""font-size:60px;"">+</div>","null","","fixation","","","","","","","","",""
"memory-trial","220","997270","0.0-15.0-1.88","1956","2","""event"",""trial"",""time""
""focus"",""0"",""2""
""fullscreenenter"",""1"",""3915""
","
","""event"",""trial"",""time""
""focus"",""0"",""2""
","""event"",""trial"",""time""
""fullscreenenter"",""1"",""3915""
","
","","","","","","801","images/straw3.png","","","memory_trial","3","maybe_new","","","","","","",""
"html-keyboard-response","221","997790","0.0-15.0-0.89","1956","2","""event"",""trial"",""time""
""focus"",""0"",""2""
""fullscreenenter"",""1"",""3915""
","
","""event"",""trial"",""time""
""focus"",""0"",""2""
","""event"",""trial"",""time""
""fullscreenenter"",""1"",""3915""
","
","","","","","","null","<div style=""font-size:60px;"">+</div>","null","","fixation","","","","","","","","",""
"memory-trial","222","999720","0.0-15.0-1.89","1956","2","""event"",""trial"",""time""
""focus"",""0"",""2""
""fullscreenenter"",""1"",""3915""
","
","""event"",""trial"",""time""
""focus"",""0"",""2""
","""event"",""trial"",""time""
""fullscreenenter"",""1"",""3915""
","
","","","","","","910","images/sheep1.png","","","memory_trial","1","definitely_old","","","","","","",""
"html-keyboard-response","223","1000240","0.0-15.0-0.90","1956","2","""event"",""trial"",""time""
""focus"",""0"",""2""
""fullscreenenter"",""1"",""3915""
","
","""event"",""trial"",""time""
""focus"",""0"",""2""
","""event"",""trial"",""time""
""fullscreenenter"",""1"",""3915""
","
","","","","","","null","<div style=""font-size:60px;"">+</div>","null","","fixation","","","","","","","","",""
"memory-trial","224","1002361","0.0-15.0-1.90","1956","2","""event"",""trial"",""time""
""focus"",""0"",""2""
""fullscreenenter"",""1"",""3915""
","
","""event"",""trial"",""time""
""focus"",""0"",""2""
","""event"",""trial"",""time""
""fullscreenenter"",""1"",""3915""
","
","","","","","","1097","images/sofa3.png","","","memory_trial","1","definitely_old","","","","","","",""
"html-keyboard-response","225","1002881","0.0-15.0-0.91","1956","2","""event"",""trial"",""time""
""focus"",""0"",""2""
""fullscreenenter"",""1"",""3915""
","
","""event"",""trial"",""time""
""focus"",""0"",""2""
","""event"",""trial"",""time""
""fullscreenenter"",""1"",""3915""
","
","","","","","","null","<div style=""font-size:60px;"">+</div>","null","","fixation","","","","","","","","",""
"memory-trial","226","1004820","0.0-15.0-1.91","1956","2","""event"",""trial"",""time""
""focus"",""0"",""2""
""fullscreenenter"",""1"",""3915""
","
","""event"",""trial"",""time""
""focus"",""0"",""2""
","""event"",""trial"",""time""
""fullscreenenter"",""1"",""3915""
","
","","","","","","923","images/cow4.png","","","memory_trial","2","maybe_old","","","","","","",""
"html-keyboard-response","227","1005340","0.0-15.0-0.92","1956","2","""event"",""trial"",""time""
""focus"",""0"",""2""
""fullscreenenter"",""1"",""3915""
","
","""event"",""trial"",""time""
""focus"",""0"",""2""
","""event"",""trial"",""time""
""fullscreenenter"",""1"",""3915""
","
","","","","","","null","<div style=""font-size:60px;"">+</div>","null","","fixation","","","","","","","","",""
"memory-trial","228","1007851","0.0-15.0-1.92","1956","2","""event"",""trial"",""time""
""focus"",""0"",""2""
""fullscreenenter"",""1"",""3915""
","
","""event"",""trial"",""time""
""focus"",""0"",""2""
","""event"",""trial"",""time""
""fullscreenenter"",""1"",""3915""
","
","","","","","","1491","images/flower2.png","","","memory_trial","2","maybe_old","","","","","","",""
"html-keyboard-response","229","1008371","0.0-15.0-0.93","1956","2","""event"",""trial"",""time""
""focus"",""0"",""2""
""fullscreenenter"",""1"",""3915""
","
","""event"",""trial"",""time""
""focus"",""0"",""2""
","""event"",""trial"",""time""
""fullscreenenter"",""1"",""3915""
","
","","","","","","null","<div style=""font-size:60px;"">+</div>","null","","fixation","","","","","","","","",""
"memory-trial","230","1010690","0.0-15.0-1.93","1956","2","""event"",""trial"",""time""
""focus"",""0"",""2""
""fullscreenenter"",""1"",""3915""
","
","""event"",""trial"",""time""
""focus"",""0"",""2""
","""event"",""trial"",""time""
""fullscreenenter"",""1"",""3915""
","
","","","","","","1304","images/goat5.png","","","memory_trial","3","maybe_new","","","","","","",""
"html-keyboard-response","231","1011200","0.0-15.0-0.94","1956","2","""event"",""trial"",""time""
""focus"",""0"",""2""
""fullscreenenter"",""1"",""3915""
","
","""event"",""trial"",""time""
""focus"",""0"",""2""
","""event"",""trial"",""time""
""fullscreenenter"",""1"",""3915""
","
","","","","","","null","<div style=""font-size:60px;"">+</div>","null","","fixation","","","","","","","","",""
"memory-trial","232","1013780","0.0-15.0-1.94","1956","2","""event"",""trial"",""time""
""focus"",""0"",""2""
""fullscreenenter"",""1"",""3915""
","
","""event"",""trial"",""time""
""focus"",""0"",""2""
","""event"",""trial"",""time""
""fullscreenenter"",""1"",""3915""
","
","","","","","","1566","images/apple2.png","","","memory_trial","3","maybe_new","","","","","","",""
"html-keyboard-response","233","1014300","0.0-15.0-0.95","1956","2","""event"",""trial"",""time""
""focus"",""0"",""2""
""fullscreenenter"",""1"",""3915""
","
","""event"",""trial"",""time""
""focus"",""0"",""2""
","""event"",""trial"",""time""
""fullscreenenter"",""1"",""3915""
","
","","","","","","null","<div style=""font-size:60px;"">+</div>","null","","fixation","","","","","","","","",""
"memory-trial","234","1016490","0.0-15.0-1.95","1956","2","""event"",""trial"",""time""
""focus"",""0"",""2""
""fullscreenenter"",""1"",""3915""
","
","""event"",""trial"",""time""
""focus"",""0"",""2""
","""event"",""trial"",""time""
""fullscreenenter"",""1"",""3915""
","
","","","","","","1177","images/truck5.png","","","memory_trial","3","maybe_new","","","","","","",""
"html-keyboard-response","235","1017000","0.0-15.0-0.96","1956","2","""event"",""trial"",""time""
""focus"",""0"",""2""
""fullscreenenter"",""1"",""3915""
","
","""event"",""trial"",""time""
""focus"",""0"",""2""
","""event"",""trial"",""time""
""fullscreenenter"",""1"",""3915""
","
","","","","","","null","<div style=""font-size:60px;"">+</div>","null","","fixation","","","","","","","","",""
"memory-trial","236","1018839","0.0-15.0-1.96","1956","2","""event"",""trial"",""time""
""focus"",""0"",""2""
""fullscreenenter"",""1"",""3915""
","
","""event"",""trial"",""time""
""focus"",""0"",""2""
","""event"",""trial"",""time""
""fullscreenenter"",""1"",""3915""
","
","","","","","","829","images/feline5.png","","","memory_trial","1","definitely_old","","","","","","",""
"html-keyboard-response","237","1019346","0.0-15.0-0.97","1956","2","""event"",""trial"",""time""
""focus"",""0"",""2""
""fullscreenenter"",""1"",""3915""
","
","""event"",""trial"",""time""
""focus"",""0"",""2""
","""event"",""trial"",""time""
""fullscreenenter"",""1"",""3915""
","
","","","","","","null","<div style=""font-size:60px;"">+</div>","null","","fixation","","","","","","","","",""
"memory-trial","238","1021820","0.0-15.0-1.97","1956","2","""event"",""trial"",""time""
""focus"",""0"",""2""
""fullscreenenter"",""1"",""3915""
","
","""event"",""trial"",""time""
""focus"",""0"",""2""
","""event"",""trial"",""time""
""fullscreenenter"",""1"",""3915""
","
","","","","","","1469","images/horse5.png","","","memory_trial","1","definitely_old","","","","","","",""
"html-keyboard-response","239","1022328","0.0-15.0-0.98","1956","2","""event"",""trial"",""time""
""focus"",""0"",""2""
""fullscreenenter"",""1"",""3915""
","
","""event"",""trial"",""time""
""focus"",""0"",""2""
","""event"",""trial"",""time""
""fullscreenenter"",""1"",""3915""
","
","","","","","","null","<div style=""font-size:60px;"">+</div>","null","","fixation","","","","","","","","",""
"memory-trial","240","1024291","0.0-15.0-1.98","1956","2","""event"",""trial"",""time""
""focus"",""0"",""2""
""fullscreenenter"",""1"",""3915""
","
","""event"",""trial"",""time""
""focus"",""0"",""2""
","""event"",""trial"",""time""
""fullscreenenter"",""1"",""3915""
","
","","","","","","947","images/tree3.png","","","memory_trial","1","definitely_old","","","","","","",""
"html-keyboard-response","241","1024798","0.0-15.0-0.99","1956","2","""event"",""trial"",""time""
""focus"",""0"",""2""
""fullscreenenter"",""1"",""3915""
","
","""event"",""trial"",""time""
""focus"",""0"",""2""
","""event"",""trial"",""time""
""fullscreenenter"",""1"",""3915""
","
","","","","","","null","<div style=""font-size:60px;"">+</div>","null","","fixation","","","","","","","","",""
"memory-trial","242","1026867","0.0-15.0-1.99","1956","2","""event"",""trial"",""time""
""focus"",""0"",""2""
""fullscreenenter"",""1"",""3915""
","
","""event"",""trial"",""time""
""focus"",""0"",""2""
","""event"",""trial"",""time""
""fullscreenenter"",""1"",""3915""
","
","","","","","","1057","images/chair2.png","","","memory_trial","1","definitely_old","","","","","","",""
"html-keyboard-response","243","1027380","0.0-15.0-0.100","1956","2","""event"",""trial"",""time""
""focus"",""0"",""2""
""fullscreenenter"",""1"",""3915""
","
","""event"",""trial"",""time""
""focus"",""0"",""2""
","""event"",""trial"",""time""
""fullscreenenter"",""1"",""3915""
","
","","","","","","null","<div style=""font-size:60px;"">+</div>","null","","fixation","","","","","","","","",""
"memory-trial","244","1029621","0.0-15.0-1.100","1956","2","""event"",""trial"",""time""
""focus"",""0"",""2""
""fullscreenenter"",""1"",""3915""
","
","""event"",""trial"",""time""
""focus"",""0"",""2""
","""event"",""trial"",""time""
""fullscreenenter"",""1"",""3915""
","
","","","","","","1232","images/boat1.png","","","memory_trial","1","definitely_old","","","","","","",""
"html-keyboard-response","245","1030140","0.0-15.0-0.101","1956","2","""event"",""trial"",""time""
""focus"",""0"",""2""
""fullscreenenter"",""1"",""3915""
","
","""event"",""trial"",""time""
""focus"",""0"",""2""
","""event"",""trial"",""time""
