"trial_type","trial_index","time_elapsed","internal_node_id","subject_id","task_version","interactions","blur_events","focus_events","fullscreenenter_events","fullscreenexit_events","success","timeout","failed_images","failed_audio","failed_video","rt","stimulus","response","button_pressed","task_part"
"pavlovia","0","2","0.0-0.0","1865","2","""event"",""trial"",""time""
""fullscreenenter"",""1"",""959""
","
","
","""event"",""trial"",""time""
""fullscreenenter"",""1"",""959""
","
","","","","","","","","","",""
"fullscreen","1","1951","0.0-1.0","1865","2","""event"",""trial"",""time""
""fullscreenenter"",""1"",""959""
","
","
","""event"",""trial"",""time""
""fullscreenenter"",""1"",""959""
","
","true","","","","","","","","",""
"preload","2","2682","0.0-2.0","1865","2","""event"",""trial"",""time""
""fullscreenenter"",""1"",""959""
","
","
","""event"",""trial"",""time""
""fullscreenenter"",""1"",""959""
","
","true","false","[]","[]","[]","","","","",""
"audio-keyboard-response","3","4607","0.0-3.0","1865","2","""event"",""trial"",""time""
""fullscreenenter"",""1"",""959""
","
","
","""event"",""trial"",""time""
""fullscreenenter"",""1"",""959""
","
","","","","","","1920","audio/beep_loop.wav"," ","",""
"audio-button-response","4","5771","0.0-4.0","1865","2","""event"",""trial"",""time""
""fullscreenenter"",""1"",""959""
","
","
","""event"",""trial"",""time""
""fullscreenenter"",""1"",""959""
","
","","","","","","1171","audio/turtle.wav","3","",""
"audio-button-response","5","7590","0.0-5.0","1865","2","""event"",""trial"",""time""
""fullscreenenter"",""1"",""959""
","
","
","""event"",""trial"",""time""
""fullscreenenter"",""1"",""959""
","
","","","","","","808","audio/shark.wav","2","",""
"preload","6","11931","0.0-6.0","1865","2","""event"",""trial"",""time""
""fullscreenenter"",""1"",""959""
","
","
","""event"",""trial"",""time""
""fullscreenenter"",""1"",""959""
","
","true","false","[]","[]","[]","","","","",""
"learning-instructions","7","17741","0.0-7.0-0.0","1865","2","""event"",""trial"",""time""
""fullscreenenter"",""1"",""959""
""fullscreenexit"",""8"",""19487""
""blur"",""8"",""20613""
","""event"",""trial"",""time""
""blur"",""8"",""20613""
","
","""event"",""trial"",""time""
""fullscreenenter"",""1"",""959""
","""event"",""trial"",""time""
""fullscreenexit"",""8"",""19487""
","","","","","","1000.5999999642372","<p> Welcome back! </p><p> Last week, you had to make choices about lots of different items.  </p>","","0","instructions"
