"trial_type","trial_index","time_elapsed","internal_node_id","subject_id","task_version","interactions","blur_events","focus_events","fullscreenenter_events","fullscreenexit_events","success","timeout","failed_images","failed_audio","failed_video","rt","stimulus","response","button_pressed","task_part","key_press","answer","correct","left_choice","middle_choice","right_choice","choice_positions","option_selected","block"
"pavlovia","0","14","0.0-0.0","1510","2","""event"",""trial"",""time""
""fullscreenenter"",""1"",""16866""
","
","
","""event"",""trial"",""time""
""fullscreenenter"",""1"",""16866""
","
","","","","","","","","","","","","","","","","","","",""
"fullscreen","1","17782","0.0-1.0","1510","2","""event"",""trial"",""time""
""fullscreenenter"",""1"",""16866""
","
","
","""event"",""trial"",""time""
""fullscreenenter"",""1"",""16866""
","
","true","","","","","","","","","","","","","","","","","",""
"preload","2","18842","0.0-2.0","1510","2","""event"",""trial"",""time""
""fullscreenenter"",""1"",""16866""
","
","
","""event"",""trial"",""time""
""fullscreenenter"",""1"",""16866""
","
","true","false","[]","[]","[]","","","","","","","","","","","","","",""
"audio-keyboard-response","3","22309","0.0-3.0","1510","2","""event"",""trial"",""time""
""fullscreenenter"",""1"",""16866""
","
","
","""event"",""trial"",""time""
""fullscreenenter"",""1"",""16866""
","
","","","","","","3466.6666666666665","audio/beep_loop.wav"," ","","","","","","","","","","",""
"audio-button-response","4","24372","0.0-4.0","1510","2","""event"",""trial"",""time""
""fullscreenenter"",""1"",""16866""
","
","
","""event"",""trial"",""time""
""fullscreenenter"",""1"",""16866""
","
","","","","","","2059","audio/turtle.wav","3","","","","","","","","","","",""
"audio-button-response","5","26754","0.0-5.0","1510","2","""event"",""trial"",""time""
""fullscreenenter"",""1"",""16866""
""fullscreenexit"",""6"",""29888""
","
","
","""event"",""trial"",""time""
""fullscreenenter"",""1"",""16866""
","""event"",""trial"",""time""
""fullscreenexit"",""6"",""29888""
","","","","","","1376","audio/shark.wav","2","","","","","","","","","","",""
"preload","6","32942","0.0-6.0","1510","2","""event"",""trial"",""time""
""fullscreenenter"",""1"",""16866""
""fullscreenexit"",""6"",""29888""
","
","
","""event"",""trial"",""time""
""fullscreenenter"",""1"",""16866""
","""event"",""trial"",""time""
""fullscreenexit"",""6"",""29888""
","true","false","[]","[]","[]","","","","","","","","","","","","","",""
"learning-instructions","7","42087","0.0-7.0-0.0","1510","2","""event"",""trial"",""time""
""fullscreenenter"",""1"",""16866""
""fullscreenexit"",""6"",""29888""
","
","
","""event"",""trial"",""time""
""fullscreenenter"",""1"",""16866""
","""event"",""trial"",""time""
""fullscreenexit"",""6"",""29888""
","","","","","","4331.800000011921","<p> Welcome back! </p><p> Last week, you had to make choices about lots of different items.  </p>","","0","instructions","","","","","","","","",""
"learning-instructions","8","47899","0.0-7.0-0.1","1510","2","""event"",""trial"",""time""
""fullscreenenter"",""1"",""16866""
""fullscreenexit"",""6"",""29888""
","
","
","""event"",""trial"",""time""
""fullscreenenter"",""1"",""16866""
","""event"",""trial"",""time""
""fullscreenexit"",""6"",""29888""
","","","","","","1504","<p> Today, we are going to ask you to try to remember all the items. </p>","","0","instructions","","","","","","","","",""
"learning-instructions","9","68571","0.0-7.0-0.2","1510","2","""event"",""trial"",""time""
""fullscreenenter"",""1"",""16866""
""fullscreenexit"",""6"",""29888""
","
","
","""event"",""trial"",""time""
""fullscreenenter"",""1"",""16866""
","""event"",""trial"",""time""
""fullscreenexit"",""6"",""29888""
","","","","","","10528.400000035763","<p> On every trial, you will see an image. </p><p> The image may be an OLD image you saw during the games last week or it may be a NEW image that was not presented. </p>","","0","instructions","","","","","","","","",""
"learning-instructions","10","80227","0.0-7.0-0.3","1510","2","""event"",""trial"",""time""
""fullscreenenter"",""1"",""16866""
""fullscreenexit"",""6"",""29888""
","
","
","""event"",""trial"",""time""
""fullscreenenter"",""1"",""16866""
","""event"",""trial"",""time""
""fullscreenexit"",""6"",""29888""
","","","","","","3151.800000011921","<p> You need to select whether the image is:  </p><p>  'Definitely old', 'Maybe old', 'Maybe new', or 'Definitely new.'  </p><div class=""mem-choice-instructions-grid""><div class=""choice-option"" id=""choice-option-1"" ><img src=""images/definitely_old_1.png"" id=""choice-option-img-1"" class=""choice-option-img"" stage=""1""></div><div class=""choice-option"" id=""choice-option-2"" ><img src=""images/maybe_old_1.png"" id=""choice-option-img-2"" class=""choice-option-img"" stage=""1""></div><div class=""choice-option"" id=""choice-option-3"" ><img src=""images/maybe_new_1.png"" id=""choice-option-img-3"" class=""choice-option-img"" stage=""1""></div><div class=""choice-option"" id=""choice-option-4"" > <img src=""images/definitely_new_1.png"" id=""choice-option-img-4"" class=""choice-option-img"" stage=""1""></div></div>","","0","instructions","","","","","","","","",""
"learning-instructions","11","87539","0.0-7.0-0.4","1510","2","""event"",""trial"",""time""
""fullscreenenter"",""1"",""16866""
""fullscreenexit"",""6"",""29888""
","
","
","""event"",""trial"",""time""
""fullscreenenter"",""1"",""16866""
","""event"",""trial"",""time""
""fullscreenexit"",""6"",""29888""
","","","","","","609.8000000119209","<p> You should use the 1, 2, 3, and 4 keys to make your responses.  </p><div class=""mem-choice-instructions-grid""><div class=""choice-option"" id=""choice-option-1"" ><img src=""images/definitely_old.png"" id=""choice-option-img-1"" class=""choice-option-img"" stage=""1""></div><div class=""choice-option"" id=""choice-option-2"" ><img src=""images/maybe_old.png"" id=""choice-option-img-2"" class=""choice-option-img"" stage=""1""></div><div class=""choice-option"" id=""choice-option-3"" ><img src=""images/maybe_new.png"" id=""choice-option-img-3"" class=""choice-option-img"" stage=""1""></div><div class=""choice-option"" id=""choice-option-4"" > <img src=""images/definitely_new.png"" id=""choice-option-img-4"" class=""choice-option-img"" stage=""1""></div></div>","","0","instructions","","","","","","","","",""
"learning-instructions","12","95856","0.0-7.0-0.5","1510","2","""event"",""trial"",""time""
""fullscreenenter"",""1"",""16866""
""fullscreenexit"",""6"",""29888""
","
","
","""event"",""trial"",""time""
""fullscreenenter"",""1"",""16866""
","""event"",""trial"",""time""
""fullscreenexit"",""6"",""29888""
","","","","","","1557.300000011921","<p> You will have 10 seconds to make each response.  </p><p>  Make sure to respond before time runs out! </p>","","0","instructions","","","","","","","","",""
"learning-instructions","13","104326","0.0-7.0-0.6","1510","2","""event"",""trial"",""time""
""fullscreenenter"",""1"",""16866""
""fullscreenexit"",""6"",""29888""
","
","
","""event"",""trial"",""time""
""fullscreenenter"",""1"",""16866""
","""event"",""trial"",""time""
""fullscreenexit"",""6"",""29888""
","","","","","","887.8000000119209","<p> Today, you will see each image ONCE only.  </p><p>  That means none of the images will repeat. </p>","","0","instructions","","","","","","","","",""
"learning-instructions","14","125311","0.0-7.0-0.7","1510","2","""event"",""trial"",""time""
""fullscreenenter"",""1"",""16866""
""fullscreenexit"",""6"",""29888""
","
","
","""event"",""trial"",""time""
""fullscreenenter"",""1"",""16866""
","""event"",""trial"",""time""
""fullscreenexit"",""6"",""29888""
","","","","","","8313.400000035763","<p> Before you play the real game, it is time to practice. </p><p>  Just like in the real game, some of the images in the practice will be ones you have seen before. </p><p>  Others will be entirely new. </p>","","0","instructions","","","","","","","","",""
"html-button-response","15","127664","0.0-8.0","1510","2","""event"",""trial"",""time""
""fullscreenenter"",""1"",""16866""
""fullscreenexit"",""6"",""29888""
","
","
","""event"",""trial"",""time""
""fullscreenenter"",""1"",""16866""
","""event"",""trial"",""time""
""fullscreenexit"",""6"",""29888""
","","","","","","2248","<p> Ready to practice? </p><p> Remember, use the 1, 2, 3, and 4 keys to make your responses. </p>","0","","instructions","","","","","","","","",""
"html-keyboard-response","16","128271","0.0-9.0-0.0","1510","2","""event"",""trial"",""time""
""fullscreenenter"",""1"",""16866""
""fullscreenexit"",""6"",""29888""
","
","
","""event"",""trial"",""time""
""fullscreenenter"",""1"",""16866""
","""event"",""trial"",""time""
""fullscreenexit"",""6"",""29888""
","","","","","","null","<div style=""font-size:60px;"">+</div>","null","","fixation","","","","","","","","",""
"memory-trial","17","132712","0.0-9.0-1.0","1510","2","""event"",""trial"",""time""
""fullscreenenter"",""1"",""16866""
""fullscreenexit"",""6"",""29888""
","
","
","""event"",""trial"",""time""
""fullscreenenter"",""1"",""16866""
","""event"",""trial"",""time""
""fullscreenexit"",""6"",""29888""
","","","","","","3429.400000035763","images/ball3.png","","","practice","4","definitely_new","","","","","","",""
"html-keyboard-response","18","133217","0.0-9.0-0.1","1510","2","""event"",""trial"",""time""
""fullscreenenter"",""1"",""16866""
""fullscreenexit"",""6"",""29888""
","
","
","""event"",""trial"",""time""
""fullscreenenter"",""1"",""16866""
","""event"",""trial"",""time""
""fullscreenexit"",""6"",""29888""
","","","","","","null","<div style=""font-size:60px;"">+</div>","null","","fixation","","","","","","","","",""
"memory-trial","19","136808","0.0-9.0-1.1","1510","2","""event"",""trial"",""time""
""fullscreenenter"",""1"",""16866""
""fullscreenexit"",""6"",""29888""
","
","
","""event"",""trial"",""time""
""fullscreenenter"",""1"",""16866""
","""event"",""trial"",""time""
""fullscreenexit"",""6"",""29888""
","","","","","","2581.7000000476837","images/racket2.png","","","practice","2","maybe_old","","","","","","",""
"html-keyboard-response","20","137312","0.0-9.0-0.2","1510","2","""event"",""trial"",""time""
""fullscreenenter"",""1"",""16866""
""fullscreenexit"",""6"",""29888""
","
","
","""event"",""trial"",""time""
""fullscreenenter"",""1"",""16866""
","""event"",""trial"",""time""
""fullscreenexit"",""6"",""29888""
","","","","","","null","<div style=""font-size:60px;"">+</div>","null","","fixation","","","","","","","","",""
"memory-trial","21","141748","0.0-9.0-1.2","1510","2","""event"",""trial"",""time""
""fullscreenenter"",""1"",""16866""
""fullscreenexit"",""6"",""29888""
","
","
","""event"",""trial"",""time""
""fullscreenenter"",""1"",""16866""
","""event"",""trial"",""time""
""fullscreenexit"",""6"",""29888""
","","","","","","3426.399999976158","images/racket4.png","","","practice","2","maybe_old","","","","","","",""
"html-keyboard-response","22","142251","0.0-9.0-0.3","1510","2","""event"",""trial"",""time""
""fullscreenenter"",""1"",""16866""
""fullscreenexit"",""6"",""29888""
","
","
","""event"",""trial"",""time""
""fullscreenenter"",""1"",""16866""
","""event"",""trial"",""time""
""fullscreenexit"",""6"",""29888""
","","","","","","null","<div style=""font-size:60px;"">+</div>","null","","fixation","","","","","","","","",""
"memory-trial","23","146503","0.0-9.0-1.3","1510","2","""event"",""trial"",""time""
""fullscreenenter"",""1"",""16866""
""fullscreenexit"",""6"",""29888""
","
","
","""event"",""trial"",""time""
""fullscreenenter"",""1"",""16866""
","""event"",""trial"",""time""
""fullscreenexit"",""6"",""29888""
","","","","","","3244.099999964237","images/ball1.png","","","practice","3","maybe_new","","","","","","",""
"html-keyboard-response","24","147007","0.0-9.0-0.4","1510","2","""event"",""trial"",""time""
""fullscreenenter"",""1"",""16866""
""fullscreenexit"",""6"",""29888""
","
","
","""event"",""trial"",""time""
""fullscreenenter"",""1"",""16866""
","""event"",""trial"",""time""
""fullscreenexit"",""6"",""29888""
","","","","","","null","<div style=""font-size:60px;"">+</div>","null","","fixation","","","","","","","","",""
"memory-trial","25","151413","0.0-9.0-1.4","1510","2","""event"",""trial"",""time""
""fullscreenenter"",""1"",""16866""
""fullscreenexit"",""6"",""29888""
","
","
","""event"",""trial"",""time""
""fullscreenenter"",""1"",""16866""
","""event"",""trial"",""time""
""fullscreenexit"",""6"",""29888""
","","","","","","3397","images/ball2.png","","","practice","4","definitely_new","","","","","","",""
"html-keyboard-response","26","151917","0.0-9.0-0.5","1510","2","""event"",""trial"",""time""
""fullscreenenter"",""1"",""16866""
""fullscreenexit"",""6"",""29888""
","
","
","""event"",""trial"",""time""
""fullscreenenter"",""1"",""16866""
","""event"",""trial"",""time""
""fullscreenexit"",""6"",""29888""
","","","","","","null","<div style=""font-size:60px;"">+</div>","null","","fixation","","","","","","","","",""
"memory-trial","27","154290","0.0-9.0-1.5","1510","2","""event"",""trial"",""time""
""fullscreenenter"",""1"",""16866""
""fullscreenexit"",""6"",""29888""
","
","
","""event"",""trial"",""time""
""fullscreenenter"",""1"",""16866""
","""event"",""trial"",""time""
""fullscreenexit"",""6"",""29888""
","","","","","","1362.0999999642372","images/racket1.png","","","practice","2","maybe_old","","","","","","",""
"html-keyboard-response","28","154794","0.0-9.0-0.6","1510","2","""event"",""trial"",""time""
""fullscreenenter"",""1"",""16866""
""fullscreenexit"",""6"",""29888""
","
","
","""event"",""trial"",""time""
""fullscreenenter"",""1"",""16866""
","""event"",""trial"",""time""
""fullscreenexit"",""6"",""29888""
","","","","","","null","<div style=""font-size:60px;"">+</div>","null","","fixation","","","","","","","","",""
"memory-trial","29","156637","0.0-9.0-1.6","1510","2","""event"",""trial"",""time""
""fullscreenenter"",""1"",""16866""
""fullscreenexit"",""6"",""29888""
","
","
","""event"",""trial"",""time""
""fullscreenenter"",""1"",""16866""
","""event"",""trial"",""time""
""fullscreenexit"",""6"",""29888""
","","","","","","835.6999999880791","images/racket3.png","","","practice","2","maybe_old","","","","","","",""
"html-keyboard-response","30","157140","0.0-9.0-0.7","1510","2","""event"",""trial"",""time""
""fullscreenenter"",""1"",""16866""
""fullscreenexit"",""6"",""29888""
","
","
","""event"",""trial"",""time""
""fullscreenenter"",""1"",""16866""
","""event"",""trial"",""time""
""fullscreenexit"",""6"",""29888""
","","","","","","null","<div style=""font-size:60px;"">+</div>","null","","fixation","","","","","","","","",""
"memory-trial","31","158718","0.0-9.0-1.7","1510","2","""event"",""trial"",""time""
""fullscreenenter"",""1"",""16866""
""fullscreenexit"",""6"",""29888""
","
","
","""event"",""trial"",""time""
""fullscreenenter"",""1"",""16866""
","""event"",""trial"",""time""
""fullscreenexit"",""6"",""29888""
","","","","","","571.9000000357628","images/ball4.png","","","practice","3","maybe_new","","","","","","",""
"learning-instructions","32","169113","0.0-10.0-0.0","1510","2","""event"",""trial"",""time""
""fullscreenenter"",""1"",""16866""
""fullscreenexit"",""6"",""29888""
","
","
","""event"",""trial"",""time""
""fullscreenenter"",""1"",""16866""
","""event"",""trial"",""time""
""fullscreenexit"",""6"",""29888""
","","","","","","2213.399999976158","<p> Great! You have completed the practice. </p><p> Before you start, we're going to ask you a few questions about how the game works.  </p>","","0","instructions","","","","","","","","",""
"preload","33","172333","0.0-11.0","1510","2","""event"",""trial"",""time""
""fullscreenenter"",""1"",""16866""
""fullscreenexit"",""6"",""29888""
","
","
","""event"",""trial"",""time""
""fullscreenenter"",""1"",""16866""
","""event"",""trial"",""time""
""fullscreenexit"",""6"",""29888""
","true","false","[]","[]","[]","","","","","","","","","","","","","",""
"comp-q","34","179540","0.0-12.0-0.0","1510","2","""event"",""trial"",""time""
""fullscreenenter"",""1"",""16866""
""fullscreenexit"",""6"",""29888""
","
","
","""event"",""trial"",""time""
""fullscreenenter"",""1"",""16866""
","""event"",""trial"",""time""
""fullscreenexit"",""6"",""29888""
","","","","","","1367.3999999761581","<p> <b> True or False? </b> </p><p> In this game, you will only see each image once. </p>","","0","comp_question","","","true","","","","","",""
"comp-q","35","187565","0.0-12.0-1.0","1510","2","""event"",""trial"",""time""
""fullscreenenter"",""1"",""16866""
""fullscreenexit"",""6"",""29888""
","
","
","""event"",""trial"",""time""
""fullscreenenter"",""1"",""16866""
","""event"",""trial"",""time""
""fullscreenexit"",""6"",""29888""
","","","","","","1679.1000000238419","<p> <b> That's right! </b> You will see many different images <i> one time each </i> in this game. </p>","","0","comp_answer","","","","","","","","",""
"comp-q","36","204374","0.0-12.0-0.1","1510","2","""event"",""trial"",""time""
""fullscreenenter"",""1"",""16866""
""fullscreenexit"",""6"",""29888""
","
","
","""event"",""trial"",""time""
""fullscreenenter"",""1"",""16866""
","""event"",""trial"",""time""
""fullscreenexit"",""6"",""29888""
","","","","","","11011.599999964237","<p> <b> True or False? </b> </p><p> You should use the mouse and click to make your response. </p>","","1","comp_question","","","true","","","","","",""
"comp-q","37","213812","0.0-12.0-1.1","1510","2","""event"",""trial"",""time""
""fullscreenenter"",""1"",""16866""
""fullscreenexit"",""6"",""29888""
","
","
","""event"",""trial"",""time""
""fullscreenenter"",""1"",""16866""
","""event"",""trial"",""time""
""fullscreenexit"",""6"",""29888""
","","","","","","2092.5","<p><b> That's right! </b> You should use the '1', '2', '3', and '4' keys to make your response. </p>","","0","comp_answer","","","","","","","","",""
"comp-q","38","221568","0.0-12.0-0.2","1510","2","""event"",""trial"",""time""
""fullscreenenter"",""1"",""16866""
""fullscreenexit"",""6"",""29888""
","
","
","""event"",""trial"",""time""
""fullscreenenter"",""1"",""16866""
","""event"",""trial"",""time""
""fullscreenexit"",""6"",""29888""
","","","","","","1752.5","<p> <b> True or False? </b> </p><p> You will have as much time as you want to make each choice. </p>","","1","comp_question","","","true","","","","","",""
"comp-q","39","228430","0.0-12.0-1.2","1510","2","""event"",""trial"",""time""
""fullscreenenter"",""1"",""16866""
""fullscreenexit"",""6"",""29888""
","
","
","""event"",""trial"",""time""
""fullscreenenter"",""1"",""16866""
","""event"",""trial"",""time""
""fullscreenexit"",""6"",""29888""
","","","","","","1467.5","<p> <b> That's right! </b> You will only have 10 seconds to make each choice. </p>","","0","comp_answer","","","","","","","","",""
"learning-instructions","40","238854","0.0-13.0","1510","2","""event"",""trial"",""time""
""fullscreenenter"",""1"",""16866""
""fullscreenexit"",""6"",""29888""
","
","
","""event"",""trial"",""time""
""fullscreenenter"",""1"",""16866""
","""event"",""trial"",""time""
""fullscreenexit"",""6"",""29888""
","","","","","","1756.0999999642372","<p> Great! You are now ready to begin the game. </p><p> Remember, use the 1, 2, 3, and 4 keys to make your responses. </p>","","0","instructions","","","","","","","","",""
"preload","41","245876","0.0-14.0","1510","2","""event"",""trial"",""time""
""fullscreenenter"",""1"",""16866""
""fullscreenexit"",""6"",""29888""
","
","
","""event"",""trial"",""time""
""fullscreenenter"",""1"",""16866""
","""event"",""trial"",""time""
""fullscreenexit"",""6"",""29888""
","true","false","[]","[]","[]","","","","","","","","","","","","","",""
"html-keyboard-response","42","246378","0.0-15.0-0.0","1510","2","""event"",""trial"",""time""
""fullscreenenter"",""1"",""16866""
""fullscreenexit"",""6"",""29888""
","
","
","""event"",""trial"",""time""
""fullscreenenter"",""1"",""16866""
","""event"",""trial"",""time""
""fullscreenexit"",""6"",""29888""
","","","","","","null","<div style=""font-size:60px;"">+</div>","null","","fixation","","","","","","","","",""
"memory-trial","43","249545","0.0-15.0-1.0","1510","2","""event"",""trial"",""time""
""fullscreenenter"",""1"",""16866""
""fullscreenexit"",""6"",""29888""
","
","
","""event"",""trial"",""time""
""fullscreenenter"",""1"",""16866""
","""event"",""trial"",""time""
""fullscreenexit"",""6"",""29888""
","","","","","","2157","images/bush3.png","","","memory_trial","4","definitely_new","","","","","","",""
"html-keyboard-response","44","250048","0.0-15.0-0.1","1510","2","""event"",""trial"",""time""
""fullscreenenter"",""1"",""16866""
""fullscreenexit"",""6"",""29888""
","
","
","""event"",""trial"",""time""
""fullscreenenter"",""1"",""16866""
","""event"",""trial"",""time""
""fullscreenexit"",""6"",""29888""
","","","","","","null","<div style=""font-size:60px;"">+</div>","null","","fixation","","","","","","","","",""
"memory-trial","45","252612","0.0-15.0-1.1","1510","2","""event"",""trial"",""time""
""fullscreenenter"",""1"",""16866""
""fullscreenexit"",""6"",""29888""
","
","
","""event"",""trial"",""time""
""fullscreenenter"",""1"",""16866""
","""event"",""trial"",""time""
""fullscreenexit"",""6"",""29888""
","","","","","","1558","images/tree2.png","","","memory_trial","4","definitely_new","","","","","","",""
"html-keyboard-response","46","253117","0.0-15.0-0.2","1510","2","""event"",""trial"",""time""
""fullscreenenter"",""1"",""16866""
""fullscreenexit"",""6"",""29888""
","
","
","""event"",""trial"",""time""
""fullscreenenter"",""1"",""16866""
","""event"",""trial"",""time""
""fullscreenexit"",""6"",""29888""
","","","","","","null","<div style=""font-size:60px;"">+</div>","null","","fixation","","","","","","","","",""
"memory-trial","47","255956","0.0-15.0-1.2","1510","2","""event"",""trial"",""time""
""fullscreenenter"",""1"",""16866""
""fullscreenexit"",""6"",""29888""
","
","
","""event"",""trial"",""time""
""fullscreenenter"",""1"",""16866""
","""event"",""trial"",""time""
""fullscreenexit"",""6"",""29888""
","","","","","","1831.9000000357628","images/sheep5.png","","","memory_trial","3","maybe_new","","","","","","",""
"html-keyboard-response","48","256459","0.0-15.0-0.3","1510","2","""event"",""trial"",""time""
""fullscreenenter"",""1"",""16866""
""fullscreenexit"",""6"",""29888""
","
","
","""event"",""trial"",""time""
""fullscreenenter"",""1"",""16866""
","""event"",""trial"",""time""
""fullscreenexit"",""6"",""29888""
","","","","","","null","<div style=""font-size:60px;"">+</div>","null","","fixation","","","","","","","","",""
"memory-trial","49","259174","0.0-15.0-1.3","1510","2","""event"",""trial"",""time""
""fullscreenenter"",""1"",""16866""
""fullscreenexit"",""6"",""29888""
","
","
","""event"",""trial"",""time""
""fullscreenenter"",""1"",""16866""
","""event"",""trial"",""time""
""fullscreenexit"",""6"",""29888""
","","","","","","1707","images/cow5.png","","","memory_trial","4","definitely_new","","","","","","",""
"html-keyboard-response","50","259678","0.0-15.0-0.4","1510","2","""event"",""trial"",""time""
""fullscreenenter"",""1"",""16866""
""fullscreenexit"",""6"",""29888""
","
","
","""event"",""trial"",""time""
""fullscreenenter"",""1"",""16866""
","""event"",""trial"",""time""
""fullscreenexit"",""6"",""29888""
","","","","","","null","<div style=""font-size:60px;"">+</div>","null","","fixation","","","","","","","","",""
"memory-trial","51","261784","0.0-15.0-1.4","1510","2","""event"",""trial"",""time""
""fullscreenenter"",""1"",""16866""
""fullscreenexit"",""6"",""29888""
","
","
","""event"",""trial"",""time""
""fullscreenenter"",""1"",""16866""
","""event"",""trial"",""time""
""fullscreenexit"",""6"",""29888""
","","","","","","1100.800000011921","images/table2.png","","","memory_trial","4","definitely_new","","","","","","",""
"html-keyboard-response","52","262287","0.0-15.0-0.5","1510","2","""event"",""trial"",""time""
""fullscreenenter"",""1"",""16866""
""fullscreenexit"",""6"",""29888""
","
","
","""event"",""trial"",""time""
""fullscreenenter"",""1"",""16866""
","""event"",""trial"",""time""
""fullscreenexit"",""6"",""29888""
","","","","","","null","<div style=""font-size:60px;"">+</div>","null","","fixation","","","","","","","","",""
"memory-trial","53","264516","0.0-15.0-1.5","1510","2","""event"",""trial"",""time""
""fullscreenenter"",""1"",""16866""
""fullscreenexit"",""6"",""29888""
","
","
","""event"",""trial"",""time""
""fullscreenenter"",""1"",""16866""
","""event"",""trial"",""time""
""fullscreenexit"",""6"",""29888""
","","","","","","1222.9000000357628","images/table5.png","","","memory_trial","3","maybe_new","","","","","","",""
"html-keyboard-response","54","265020","0.0-15.0-0.6","1510","2","""event"",""trial"",""time""
""fullscreenenter"",""1"",""16866""
""fullscreenexit"",""6"",""29888""
","
","
","""event"",""trial"",""time""
""fullscreenenter"",""1"",""16866""
","""event"",""trial"",""time""
""fullscreenexit"",""6"",""29888""
","","","","","","null","<div style=""font-size:60px;"">+</div>","null","","fixation","","","","","","","","",""
"memory-trial","55","267628","0.0-15.0-1.6","1510","2","""event"",""trial"",""time""
""fullscreenenter"",""1"",""16866""
""fullscreenexit"",""6"",""29888""
","
","
","""event"",""trial"",""time""
""fullscreenenter"",""1"",""16866""
","""event"",""trial"",""time""
""fullscreenexit"",""6"",""29888""
","","","","","","1600.800000011921","images/rabbit1.png","","","memory_trial","4","definitely_new","","","","","","",""
"html-keyboard-response","56","268131","0.0-15.0-0.7","1510","2","""event"",""trial"",""time""
""fullscreenenter"",""1"",""16866""
""fullscreenexit"",""6"",""29888""
","
","
","""event"",""trial"",""time""
""fullscreenenter"",""1"",""16866""
","""event"",""trial"",""time""
""fullscreenexit"",""6"",""29888""
","","","","","","null","<div style=""font-size:60px;"">+</div>","null","","fixation","","","","","","","","",""
"memory-trial","57","270542","0.0-15.0-1.7","1510","2","""event"",""trial"",""time""
""fullscreenenter"",""1"",""16866""
""fullscreenexit"",""6"",""29888""
","
","
","""event"",""trial"",""time""
""fullscreenenter"",""1"",""16866""
","""event"",""trial"",""time""
""fullscreenexit"",""6"",""29888""
","","","","","","1404","images/bed1.png","","","memory_trial","4","definitely_new","","","","","","",""
"html-keyboard-response","58","271045","0.0-15.0-0.8","1510","2","""event"",""trial"",""time""
""fullscreenenter"",""1"",""16866""
""fullscreenexit"",""6"",""29888""
","
","
","""event"",""trial"",""time""
""fullscreenenter"",""1"",""16866""
","""event"",""trial"",""time""
""fullscreenexit"",""6"",""29888""
","","","","","","null","<div style=""font-size:60px;"">+</div>","null","","fixation","","","","","","","","",""
"memory-trial","59","272881","0.0-15.0-1.8","1510","2","""event"",""trial"",""time""
""fullscreenenter"",""1"",""16866""
""fullscreenexit"",""6"",""29888""
","
","
","""event"",""trial"",""time""
""fullscreenenter"",""1"",""16866""
","""event"",""trial"",""time""
""fullscreenexit"",""6"",""29888""
","","","","","","827.3999999761581","images/table3.png","","","memory_trial","4","definitely_new","","","","","","",""
"html-keyboard-response","60","273388","0.0-15.0-0.9","1510","2","""event"",""trial"",""time""
""fullscreenenter"",""1"",""16866""
""fullscreenexit"",""6"",""29888""
","
","
","""event"",""trial"",""time""
""fullscreenenter"",""1"",""16866""
","""event"",""trial"",""time""
""fullscreenexit"",""6"",""29888""
","","","","","","null","<div style=""font-size:60px;"">+</div>","null","","fixation","","","","","","","","",""
"memory-trial","61","276080","0.0-15.0-1.9","1510","2","""event"",""trial"",""time""
""fullscreenenter"",""1"",""16866""
""fullscreenexit"",""6"",""29888""
","
","
","""event"",""trial"",""time""
""fullscreenenter"",""1"",""16866""
","""event"",""trial"",""time""
""fullscreenexit"",""6"",""29888""
","","","","","","1683.800000011921","images/truck3.png","","","memory_trial","4","definitely_new","","","","","","",""
"html-keyboard-response","62","276584","0.0-15.0-0.10","1510","2","""event"",""trial"",""time""
""fullscreenenter"",""1"",""16866""
""fullscreenexit"",""6"",""29888""
","
","
","""event"",""trial"",""time""
""fullscreenenter"",""1"",""16866""
","""event"",""trial"",""time""
""fullscreenexit"",""6"",""29888""
","","","","","","null","<div style=""font-size:60px;"">+</div>","null","","fixation","","","","","","","","",""
"memory-trial","63","279068","0.0-15.0-1.10","1510","2","""event"",""trial"",""time""
""fullscreenenter"",""1"",""16866""
""fullscreenexit"",""6"",""29888""
","
","
","""event"",""trial"",""time""
""fullscreenenter"",""1"",""16866""
","""event"",""trial"",""time""
""fullscreenexit"",""6"",""29888""
","","","","","","1476.5999999642372","images/chair2.png","","","memory_trial","4","definitely_new","","","","","","",""
"html-keyboard-response","64","279571","0.0-15.0-0.11","1510","2","""event"",""trial"",""time""
""fullscreenenter"",""1"",""16866""
""fullscreenexit"",""6"",""29888""
","
","
","""event"",""trial"",""time""
""fullscreenenter"",""1"",""16866""
","""event"",""trial"",""time""
""fullscreenexit"",""6"",""29888""
","","","","","","null","<div style=""font-size:60px;"">+</div>","null","","fixation","","","","","","","","",""
"memory-trial","65","282622","0.0-15.0-1.11","1510","2","""event"",""trial"",""time""
""fullscreenenter"",""1"",""16866""
""fullscreenexit"",""6"",""29888""
","
","
","""event"",""trial"",""time""
""fullscreenenter"",""1"",""16866""
","""event"",""trial"",""time""
""fullscreenexit"",""6"",""29888""
","","","","","","2045.5999999642372","images/boat2.png","","","memory_trial","2","maybe_old","","","","","","",""
"html-keyboard-response","66","283125","0.0-15.0-0.12","1510","2","""event"",""trial"",""time""
""fullscreenenter"",""1"",""16866""
""fullscreenexit"",""6"",""29888""
","
","
","""event"",""trial"",""time""
""fullscreenenter"",""1"",""16866""
","""event"",""trial"",""time""
""fullscreenexit"",""6"",""29888""
","","","","","","null","<div style=""font-size:60px;"">+</div>","null","","fixation","","","","","","","","",""
"memory-trial","67","285484","0.0-15.0-1.12","1510","2","""event"",""trial"",""time""
""fullscreenenter"",""1"",""16866""
""fullscreenexit"",""6"",""29888""
","
","
","""event"",""trial"",""time""
""fullscreenenter"",""1"",""16866""
","""event"",""trial"",""time""
""fullscreenexit"",""6"",""29888""
","","","","","","1349.6000000238419","images/train5.png","","","memory_trial","2","maybe_old","","","","","","",""
"html-keyboard-response","68","285987","0.0-15.0-0.13","1510","2","""event"",""trial"",""time""
""fullscreenenter"",""1"",""16866""
""fullscreenexit"",""6"",""29888""
","
","
","""event"",""trial"",""time""
""fullscreenenter"",""1"",""16866""
","""event"",""trial"",""time""
""fullscreenexit"",""6"",""29888""
","","","","","","null","<div style=""font-size:60px;"">+</div>","null","","fixation","","","","","","","","",""
"memory-trial","69","288599","0.0-15.0-1.13","1510","2","""event"",""trial"",""time""
""fullscreenenter"",""1"",""16866""
""fullscreenexit"",""6"",""29888""
","
","
","""event"",""trial"",""time""
""fullscreenenter"",""1"",""16866""
","""event"",""trial"",""time""
""fullscreenexit"",""6"",""29888""
","","","","","","1603.8999999761581","images/orange4.png","","","memory_trial","2","maybe_old","","","","","","",""
"html-keyboard-response","70","289101","0.0-15.0-0.14","1510","2","""event"",""trial"",""time""
""fullscreenenter"",""1"",""16866""
""fullscreenexit"",""6"",""29888""
","
","
","""event"",""trial"",""time""
""fullscreenenter"",""1"",""16866""
","""event"",""trial"",""time""
""fullscreenexit"",""6"",""29888""
","","","","","","null","<div style=""font-size:60px;"">+</div>","null","","fixation","","","","","","","","",""
"memory-trial","71","291739","0.0-15.0-1.14","1510","2","""event"",""trial"",""time""
""fullscreenenter"",""1"",""16866""
""fullscreenexit"",""6"",""29888""
","
","
","""event"",""trial"",""time""
""fullscreenenter"",""1"",""16866""
","""event"",""trial"",""time""
""fullscreenexit"",""6"",""29888""
","","","","","","1628.0999999642372","images/chair4.png","","","memory_trial","3","maybe_new","","","","","","",""
"html-keyboard-response","72","292242","0.0-15.0-0.15","1510","2","""event"",""trial"",""time""
""fullscreenenter"",""1"",""16866""
""fullscreenexit"",""6"",""29888""
","
","
","""event"",""trial"",""time""
""fullscreenenter"",""1"",""16866""
","""event"",""trial"",""time""
""fullscreenexit"",""6"",""29888""
","","","","","","null","<div style=""font-size:60px;"">+</div>","null","","fixation","","","","","","","","",""
"memory-trial","73","295022","0.0-15.0-1.15","1510","2","""event"",""trial"",""time""
""fullscreenenter"",""1"",""16866""
""fullscreenexit"",""6"",""29888""
","
","
","""event"",""trial"",""time""
""fullscreenenter"",""1"",""16866""
","""event"",""trial"",""time""
""fullscreenexit"",""6"",""29888""
","","","","","","1773.800000011921","images/sofa1.png","","","memory_trial","4","definitely_new","","","","","","",""
"html-keyboard-response","74","295526","0.0-15.0-0.16","1510","2","""event"",""trial"",""time""
""fullscreenenter"",""1"",""16866""
""fullscreenexit"",""6"",""29888""
","
","
","""event"",""trial"",""time""
""fullscreenenter"",""1"",""16866""
","""event"",""trial"",""time""
""fullscreenexit"",""6"",""29888""
","","","","","","null","<div style=""font-size:60px;"">+</div>","null","","fixation","","","","","","","","",""
"memory-trial","75","297386","0.0-15.0-1.16","1510","2","""event"",""trial"",""time""
""fullscreenenter"",""1"",""16866""
""fullscreenexit"",""6"",""29888""
","
","
","""event"",""trial"",""time""
""fullscreenenter"",""1"",""16866""
","""event"",""trial"",""time""
""fullscreenexit"",""6"",""29888""
","","","","","","852.5999999642372","images/rodent2.png","","","memory_trial","4","definitely_new","","","","","","",""
"html-keyboard-response","76","297888","0.0-15.0-0.17","1510","2","""event"",""trial"",""time""
""fullscreenenter"",""1"",""16866""
""fullscreenexit"",""6"",""29888""
","
","
","""event"",""trial"",""time""
""fullscreenenter"",""1"",""16866""
","""event"",""trial"",""time""
""fullscreenexit"",""6"",""29888""
","","","","","","null","<div style=""font-size:60px;"">+</div>","null","","fixation","","","","","","","","",""
"memory-trial","77","299774","0.0-15.0-1.17","1510","2","""event"",""trial"",""time""
""fullscreenenter"",""1"",""16866""
""fullscreenexit"",""6"",""29888""
","
","
","""event"",""trial"",""time""
""fullscreenenter"",""1"",""16866""
","""event"",""trial"",""time""
""fullscreenexit"",""6"",""29888""
","","","","","","880.5","images/plane2.png","","","memory_trial","4","definitely_new","","","","","","",""
"html-keyboard-response","78","300276","0.0-15.0-0.18","1510","2","""event"",""trial"",""time""
""fullscreenenter"",""1"",""16866""
""fullscreenexit"",""6"",""29888""
","
","
","""event"",""trial"",""time""
""fullscreenenter"",""1"",""16866""
","""event"",""trial"",""time""
""fullscreenexit"",""6"",""29888""
","","","","","","null","<div style=""font-size:60px;"">+</div>","null","","fixation","","","","","","","","",""
"memory-trial","79","302569","0.0-15.0-1.18","1510","2","""event"",""trial"",""time""
""fullscreenenter"",""1"",""16866""
""fullscreenexit"",""6"",""29888""
","
","
","""event"",""trial"",""time""
""fullscreenenter"",""1"",""16866""
","""event"",""trial"",""time""
""fullscreenexit"",""6"",""29888""
","","","","","","1287.800000011921","images/sheep4.png","","","memory_trial","3","maybe_new","","","","","","",""
"html-keyboard-response","80","303072","0.0-15.0-0.19","1510","2","""event"",""trial"",""time""
""fullscreenenter"",""1"",""16866""
""fullscreenexit"",""6"",""29888""
","
","
","""event"",""trial"",""time""
""fullscreenenter"",""1"",""16866""
","""event"",""trial"",""time""
""fullscreenexit"",""6"",""29888""
","","","","","","null","<div style=""font-size:60px;"">+</div>","null","","fixation","","","","","","","","",""
"memory-trial","81","305045","0.0-15.0-1.19","1510","2","""event"",""trial"",""time""
""fullscreenenter"",""1"",""16866""
""fullscreenexit"",""6"",""29888""
","
","
","""event"",""trial"",""time""
""fullscreenenter"",""1"",""16866""
","""event"",""trial"",""time""
""fullscreenexit"",""6"",""29888""
","","","","","","967.2000000476837","images/tree3.png","","","memory_trial","4","definitely_new","","","","","","",""
"html-keyboard-response","82","305549","0.0-15.0-0.20","1510","2","""event"",""trial"",""time""
""fullscreenenter"",""1"",""16866""
""fullscreenexit"",""6"",""29888""
","
","
","""event"",""trial"",""time""
""fullscreenenter"",""1"",""16866""
","""event"",""trial"",""time""
""fullscreenexit"",""6"",""29888""
","","","","","","null","<div style=""font-size:60px;"">+</div>","null","","fixation","","","","","","","","",""
"memory-trial","83","307893","0.0-15.0-1.20","1510","2","""event"",""trial"",""time""
""fullscreenenter"",""1"",""16866""
""fullscreenexit"",""6"",""29888""
","
","
","""event"",""trial"",""time""
""fullscreenenter"",""1"",""16866""
","""event"",""trial"",""time""
""fullscreenexit"",""6"",""29888""
","","","","","","1338.300000011921","images/apple1.png","","","memory_trial","4","definitely_new","","","","","","",""
"html-keyboard-response","84","308395","0.0-15.0-0.21","1510","2","""event"",""trial"",""time""
""fullscreenenter"",""1"",""16866""
""fullscreenexit"",""6"",""29888""
","
","
","""event"",""trial"",""time""
""fullscreenenter"",""1"",""16866""
","""event"",""trial"",""time""
""fullscreenexit"",""6"",""29888""
","","","","","","null","<div style=""font-size:60px;"">+</div>","null","","fixation","","","","","","","","",""
"memory-trial","85","310323","0.0-15.0-1.21","1510","2","""event"",""trial"",""time""
""fullscreenenter"",""1"",""16866""
""fullscreenexit"",""6"",""29888""
","
","
","""event"",""trial"",""time""
""fullscreenenter"",""1"",""16866""
","""event"",""trial"",""time""
""fullscreenexit"",""6"",""29888""
","","","","","","922.8999999761581","images/table4.png","","","memory_trial","3","maybe_new","","","","","","",""
"html-keyboard-response","86","310827","0.0-15.0-0.22","1510","2","""event"",""trial"",""time""
""fullscreenenter"",""1"",""16866""
""fullscreenexit"",""6"",""29888""
","
","
","""event"",""trial"",""time""
""fullscreenenter"",""1"",""16866""
","""event"",""trial"",""time""
""fullscreenexit"",""6"",""29888""
","","","","","","null","<div style=""font-size:60px;"">+</div>","null","","fixation","","","","","","","","",""
"memory-trial","87","313217","0.0-15.0-1.22","1510","2","""event"",""trial"",""time""
""fullscreenenter"",""1"",""16866""
""fullscreenexit"",""6"",""29888""
","
","
","""event"",""trial"",""time""
""fullscreenenter"",""1"",""16866""
","""event"",""trial"",""time""
""fullscreenexit"",""6"",""29888""
","","","","","","1385.3999999761581","images/rabbit5.png","","","memory_trial","2","maybe_old","","","","","","",""
"html-keyboard-response","88","313720","0.0-15.0-0.23","1510","2","""event"",""trial"",""time""
""fullscreenenter"",""1"",""16866""
""fullscreenexit"",""6"",""29888""
","
","
","""event"",""trial"",""time""
""fullscreenenter"",""1"",""16866""
","""event"",""trial"",""time""
""fullscreenexit"",""6"",""29888""
","","","","","","null","<div style=""font-size:60px;"">+</div>","null","","fixation","","","","","","","","",""
"memory-trial","89","315801","0.0-15.0-1.23","1510","2","""event"",""trial"",""time""
""fullscreenenter"",""1"",""16866""
""fullscreenexit"",""6"",""29888""
","
","
","""event"",""trial"",""time""
""fullscreenenter"",""1"",""16866""
","""event"",""trial"",""time""
""fullscreenexit"",""6"",""29888""
","","","","","","1076.1000000238419","images/train4.png","","","memory_trial","3","maybe_new","","","","","","",""
"html-keyboard-response","90","316303","0.0-15.0-0.24","1510","2","""event"",""trial"",""time""
""fullscreenenter"",""1"",""16866""
""fullscreenexit"",""6"",""29888""
","
","
","""event"",""trial"",""time""
""fullscreenenter"",""1"",""16866""
","""event"",""trial"",""time""
""fullscreenexit"",""6"",""29888""
","","","","","","null","<div style=""font-size:60px;"">+</div>","null","","fixation","","","","","","","","",""
"memory-trial","91","319321","0.0-15.0-1.24","1510","2","""event"",""trial"",""time""
""fullscreenenter"",""1"",""16866""
""fullscreenexit"",""6"",""29888""
","
","
","""event"",""trial"",""time""
""fullscreenenter"",""1"",""16866""
","""event"",""trial"",""time""
""fullscreenexit"",""6"",""29888""
","","","","","","2010.199999988079","images/goat4.png","","","memory_trial","4","definitely_new","","","","","","",""
"html-keyboard-response","92","319825","0.0-15.0-0.25","1510","2","""event"",""trial"",""time""
""fullscreenenter"",""1"",""16866""
""fullscreenexit"",""6"",""29888""
","
","
","""event"",""trial"",""time""
""fullscreenenter"",""1"",""16866""
","""event"",""trial"",""time""
""fullscreenexit"",""6"",""29888""
","","","","","","null","<div style=""font-size:60px;"">+</div>","null","","fixation","","","","","","","","",""
"memory-trial","93","322417","0.0-15.0-1.25","1510","2","""event"",""trial"",""time""
""fullscreenenter"",""1"",""16866""
""fullscreenexit"",""6"",""29888""
","
","
","""event"",""trial"",""time""
""fullscreenenter"",""1"",""16866""
","""event"",""trial"",""time""
""fullscreenexit"",""6"",""29888""
","","","","","","1587.800000011921","images/rodent1.png","","","memory_trial","3","maybe_new","","","","","","",""
"html-keyboard-response","94","322920","0.0-15.0-0.26","1510","2","""event"",""trial"",""time""
""fullscreenenter"",""1"",""16866""
""fullscreenexit"",""6"",""29888""
","
","
","""event"",""trial"",""time""
""fullscreenenter"",""1"",""16866""
","""event"",""trial"",""time""
""fullscreenexit"",""6"",""29888""
","","","","","","null","<div style=""font-size:60px;"">+</div>","null","","fixation","","","","","","","","",""
"memory-trial","95","324976","0.0-15.0-1.26","1510","2","""event"",""trial"",""time""
""fullscreenenter"",""1"",""16866""
""fullscreenexit"",""6"",""29888""
","
","
","""event"",""trial"",""time""
""fullscreenenter"",""1"",""16866""
","""event"",""trial"",""time""
""fullscreenexit"",""6"",""29888""
","","","","","","1045.6000000238419","images/cactus1.png","","","memory_trial","3","maybe_new","","","","","","",""
"html-keyboard-response","96","325479","0.0-15.0-0.27","1510","2","""event"",""trial"",""time""
""fullscreenenter"",""1"",""16866""
""fullscreenexit"",""6"",""29888""
","
","
","""event"",""trial"",""time""
""fullscreenenter"",""1"",""16866""
","""event"",""trial"",""time""
""fullscreenexit"",""6"",""29888""
","","","","","","null","<div style=""font-size:60px;"">+</div>","null","","fixation","","","","","","","","",""
"memory-trial","97","328623","0.0-15.0-1.27","1510","2","""event"",""trial"",""time""
""fullscreenenter"",""1"",""16866""
""fullscreenexit"",""6"",""29888""
","
","
","""event"",""trial"",""time""
""fullscreenenter"",""1"",""16866""
","""event"",""trial"",""time""
""fullscreenexit"",""6"",""29888""
","","","","","","2137.800000011921","images/tree1.png","","","memory_trial","4","definitely_new","","","","","","",""
"html-keyboard-response","98","329125","0.0-15.0-0.28","1510","2","""event"",""trial"",""time""
""fullscreenenter"",""1"",""16866""
""fullscreenexit"",""6"",""29888""
","
","
","""event"",""trial"",""time""
""fullscreenenter"",""1"",""16866""
","""event"",""trial"",""time""
""fullscreenexit"",""6"",""29888""
","","","","","","null","<div style=""font-size:60px;"">+</div>","null","","fixation","","","","","","","","",""
"memory-trial","99","331550","0.0-15.0-1.28","1510","2","""event"",""trial"",""time""
""fullscreenenter"",""1"",""16866""
""fullscreenexit"",""6"",""29888""
","
","
","""event"",""trial"",""time""
""fullscreenenter"",""1"",""16866""
","""event"",""trial"",""time""
""fullscreenexit"",""6"",""29888""
","","","","","","1416.4000000357628","images/apple4.png","","","memory_trial","4","definitely_new","","","","","","",""
"html-keyboard-response","100","332052","0.0-15.0-0.29","1510","2","""event"",""trial"",""time""
""fullscreenenter"",""1"",""16866""
""fullscreenexit"",""6"",""29888""
","
","
","""event"",""trial"",""time""
""fullscreenenter"",""1"",""16866""
","""event"",""trial"",""time""
""fullscreenexit"",""6"",""29888""
","","","","","","null","<div style=""font-size:60px;"">+</div>","null","","fixation","","","","","","","","",""
"memory-trial","101","335069","0.0-15.0-1.29","1510","2","""event"",""trial"",""time""
""fullscreenenter"",""1"",""16866""
""fullscreenexit"",""6"",""29888""
","
","
","""event"",""trial"",""time""
""fullscreenenter"",""1"",""16866""
","""event"",""trial"",""time""
""fullscreenexit"",""6"",""29888""
","","","","","","2009.5","images/feline5.png","","","memory_trial","3","maybe_new","","","","","","",""
"html-keyboard-response","102","335573","0.0-15.0-0.30","1510","2","""event"",""trial"",""time""
""fullscreenenter"",""1"",""16866""
""fullscreenexit"",""6"",""29888""
","
","
","""event"",""trial"",""time""
""fullscreenenter"",""1"",""16866""
","""event"",""trial"",""time""
""fullscreenexit"",""6"",""29888""
","","","","","","null","<div style=""font-size:60px;"">+</div>","null","","fixation","","","","","","","","",""
"memory-trial","103","338352","0.0-15.0-1.30","1510","2","""event"",""trial"",""time""
""fullscreenenter"",""1"",""16866""
""fullscreenexit"",""6"",""29888""
","
","
","""event"",""trial"",""time""
""fullscreenenter"",""1"",""16866""
","""event"",""trial"",""time""
""fullscreenexit"",""6"",""29888""
","","","","","","1772.3999999761581","images/horse3.png","","","memory_trial","4","definitely_new","","","","","","",""
"html-keyboard-response","104","338855","0.0-15.0-0.31","1510","2","""event"",""trial"",""time""
""fullscreenenter"",""1"",""16866""
""fullscreenexit"",""6"",""29888""
","
","
","""event"",""trial"",""time""
""fullscreenenter"",""1"",""16866""
","""event"",""trial"",""time""
""fullscreenexit"",""6"",""29888""
","","","","","","null","<div style=""font-size:60px;"">+</div>","null","","fixation","","","","","","","","",""
"memory-trial","105","342251","0.0-15.0-1.31","1510","2","""event"",""trial"",""time""
""fullscreenenter"",""1"",""16866""
""fullscreenexit"",""6"",""29888""
","
","
","""event"",""trial"",""time""
""fullscreenenter"",""1"",""16866""
","""event"",""trial"",""time""
""fullscreenexit"",""6"",""29888""
","","","","","","2392.100000023842","images/flower5.png","","","memory_trial","3","maybe_new","","","","","","",""
"html-keyboard-response","106","342753","0.0-15.0-0.32","1510","2","""event"",""trial"",""time""
""fullscreenenter"",""1"",""16866""
""fullscreenexit"",""6"",""29888""
","
","
","""event"",""trial"",""time""
""fullscreenenter"",""1"",""16866""
","""event"",""trial"",""time""
""fullscreenexit"",""6"",""29888""
","","","","","","null","<div style=""font-size:60px;"">+</div>","null","","fixation","","","","","","","","",""
"memory-trial","107","345784","0.0-15.0-1.32","1510","2","""event"",""trial"",""time""
""fullscreenenter"",""1"",""16866""
""fullscreenexit"",""6"",""29888""
","
","
","""event"",""trial"",""time""
""fullscreenenter"",""1"",""16866""
","""event"",""trial"",""time""
""fullscreenexit"",""6"",""29888""
","","","","","","2026.800000011921","images/feline1.png","","","memory_trial","3","maybe_new","","","","","","",""
"html-keyboard-response","108","346287","0.0-15.0-0.33","1510","2","""event"",""trial"",""time""
""fullscreenenter"",""1"",""16866""
""fullscreenexit"",""6"",""29888""
","
","
","""event"",""trial"",""time""
""fullscreenenter"",""1"",""16866""
","""event"",""trial"",""time""
""fullscreenexit"",""6"",""29888""
","","","","","","null","<div style=""font-size:60px;"">+</div>","null","","fixation","","","","","","","","",""
"memory-trial","109","349141","0.0-15.0-1.33","1510","2","""event"",""trial"",""time""
""fullscreenenter"",""1"",""16866""
""fullscreenexit"",""6"",""29888""
","
","
","""event"",""trial"",""time""
""fullscreenenter"",""1"",""16866""
","""event"",""trial"",""time""
""fullscreenexit"",""6"",""29888""
","","","","","","1848.5999999642372","images/cow3.png","","","memory_trial","4","definitely_new","","","","","","",""
"html-keyboard-response","110","349644","0.0-15.0-0.34","1510","2","""event"",""trial"",""time""
""fullscreenenter"",""1"",""16866""
""fullscreenexit"",""6"",""29888""
","
","
","""event"",""trial"",""time""
""fullscreenenter"",""1"",""16866""
","""event"",""trial"",""time""
""fullscreenexit"",""6"",""29888""
","","","","","","null","<div style=""font-size:60px;"">+</div>","null","","fixation","","","","","","","","",""
"memory-trial","111","352183","0.0-15.0-1.34","1510","2","""event"",""trial"",""time""
""fullscreenenter"",""1"",""16866""
""fullscreenexit"",""6"",""29888""
","
","
","""event"",""trial"",""time""
""fullscreenenter"",""1"",""16866""
","""event"",""trial"",""time""
""fullscreenexit"",""6"",""29888""
","","","","","","1530","images/cactus5.png","","","memory_trial","4","definitely_new","","","","","","",""
"html-keyboard-response","112","352686","0.0-15.0-0.35","1510","2","""event"",""trial"",""time""
""fullscreenenter"",""1"",""16866""
""fullscreenexit"",""6"",""29888""
","
","
","""event"",""trial"",""time""
""fullscreenenter"",""1"",""16866""
","""event"",""trial"",""time""
""fullscreenexit"",""6"",""29888""
","","","","","","null","<div style=""font-size:60px;"">+</div>","null","","fixation","","","","","","","","",""
"memory-trial","113","354466","0.0-15.0-1.35","1510","2","""event"",""trial"",""time""
""fullscreenenter"",""1"",""16866""
""fullscreenexit"",""6"",""29888""
","
","
","""event"",""trial"",""time""
""fullscreenenter"",""1"",""16866""
","""event"",""trial"",""time""
""fullscreenexit"",""6"",""29888""
","","","","","","771.1000000238419","images/flower1.png","","","memory_trial","3","maybe_new","","","","","","",""
"html-keyboard-response","114","354970","0.0-15.0-0.36","1510","2","""event"",""trial"",""time""
""fullscreenenter"",""1"",""16866""
""fullscreenexit"",""6"",""29888""
","
","
","""event"",""trial"",""time""
""fullscreenenter"",""1"",""16866""
","""event"",""trial"",""time""
""fullscreenexit"",""6"",""29888""
","","","","","","null","<div style=""font-size:60px;"">+</div>","null","","fixation","","","","","","","","",""
"memory-trial","115","357039","0.0-15.0-1.36","1510","2","""event"",""trial"",""time""
""fullscreenenter"",""1"",""16866""
""fullscreenexit"",""6"",""29888""
","
","
","""event"",""trial"",""time""
""fullscreenenter"",""1"",""16866""
","""event"",""trial"",""time""
""fullscreenexit"",""6"",""29888""
","","","","","","1063.1000000238419","images/rodent4.png","","","memory_trial","4","definitely_new","","","","","","",""
"html-keyboard-response","116","357541","0.0-15.0-0.37","1510","2","""event"",""trial"",""time""
""fullscreenenter"",""1"",""16866""
""fullscreenexit"",""6"",""29888""
","
","
","""event"",""trial"",""time""
""fullscreenenter"",""1"",""16866""
","""event"",""trial"",""time""
""fullscreenexit"",""6"",""29888""
","","","","","","null","<div style=""font-size:60px;"">+</div>","null","","fixation","","","","","","","","",""
"memory-trial","117","360063","0.0-15.0-1.37","1510","2","""event"",""trial"",""time""
""fullscreenenter"",""1"",""16866""
""fullscreenexit"",""6"",""29888""
","
","
","""event"",""trial"",""time""
""fullscreenenter"",""1"",""16866""
","""event"",""trial"",""time""
""fullscreenexit"",""6"",""29888""
","","","","","","1515.300000011921","images/flower3.png","","","memory_trial","4","definitely_new","","","","","","",""
"html-keyboard-response","118","360565","0.0-15.0-0.38","1510","2","""event"",""trial"",""time""
""fullscreenenter"",""1"",""16866""
""fullscreenexit"",""6"",""29888""
","
","
","""event"",""trial"",""time""
""fullscreenenter"",""1"",""16866""
","""event"",""trial"",""time""
""fullscreenexit"",""6"",""29888""
","","","","","","null","<div style=""font-size:60px;"">+</div>","null","","fixation","","","","","","","","",""
"memory-trial","119","363919","0.0-15.0-1.38","1510","2","""event"",""trial"",""time""
""fullscreenenter"",""1"",""16866""
""fullscreenexit"",""6"",""29888""
","
","
","""event"",""trial"",""time""
""fullscreenenter"",""1"",""16866""
","""event"",""trial"",""time""
""fullscreenexit"",""6"",""29888""
","","","","","","2346.699999988079","images/straw2.png","","","memory_trial","4","definitely_new","","","","","","",""
"html-keyboard-response","120","364421","0.0-15.0-0.39","1510","2","""event"",""trial"",""time""
""fullscreenenter"",""1"",""16866""
""fullscreenexit"",""6"",""29888""
","
","
","""event"",""trial"",""time""
""fullscreenenter"",""1"",""16866""
","""event"",""trial"",""time""
""fullscreenexit"",""6"",""29888""
","","","","","","null","<div style=""font-size:60px;"">+</div>","null","","fixation","","","","","","","","",""
"memory-trial","121","366516","0.0-15.0-1.39","1510","2","""event"",""trial"",""time""
""fullscreenenter"",""1"",""16866""
""fullscreenexit"",""6"",""29888""
","
","
","""event"",""trial"",""time""
""fullscreenenter"",""1"",""16866""
","""event"",""trial"",""time""
""fullscreenexit"",""6"",""29888""
","","","","","","1087.5","images/train1.png","","","memory_trial","3","maybe_new","","","","","","",""
"html-keyboard-response","122","367019","0.0-15.0-0.40","1510","2","""event"",""trial"",""time""
""fullscreenenter"",""1"",""16866""
""fullscreenexit"",""6"",""29888""
","
","
","""event"",""trial"",""time""
""fullscreenenter"",""1"",""16866""
","""event"",""trial"",""time""
""fullscreenexit"",""6"",""29888""
","","","","","","null","<div style=""font-size:60px;"">+</div>","null","","fixation","","","","","","","","",""
"memory-trial","123","369052","0.0-15.0-1.40","1510","2","""event"",""trial"",""time""
""fullscreenenter"",""1"",""16866""
""fullscreenexit"",""6"",""29888""
","
","
","""event"",""trial"",""time""
""fullscreenenter"",""1"",""16866""
","""event"",""trial"",""time""
""fullscreenexit"",""6"",""29888""
","","","","","","1026.5999999642372","images/train2.png","","","memory_trial","3","maybe_new","","","","","","",""
"html-keyboard-response","124","369555","0.0-15.0-0.41","1510","2","""event"",""trial"",""time""
""fullscreenenter"",""1"",""16866""
""fullscreenexit"",""6"",""29888""
","
","
","""event"",""trial"",""time""
""fullscreenenter"",""1"",""16866""
","""event"",""trial"",""time""
""fullscreenexit"",""6"",""29888""
","","","","","","null","<div style=""font-size:60px;"">+</div>","null","","fixation","","","","","","","","",""
"memory-trial","125","372427","0.0-15.0-1.41","1510","2","""event"",""trial"",""time""
""fullscreenenter"",""1"",""16866""
""fullscreenexit"",""6"",""29888""
","
","
","""event"",""trial"",""time""
""fullscreenenter"",""1"",""16866""
","""event"",""trial"",""time""
""fullscreenexit"",""6"",""29888""
","","","","","","1867.3999999761581","images/cow2.png","","","memory_trial","3","maybe_new","","","","","","",""
"html-keyboard-response","126","372932","0.0-15.0-0.42","1510","2","""event"",""trial"",""time""
""fullscreenenter"",""1"",""16866""
""fullscreenexit"",""6"",""29888""
","
","
","""event"",""trial"",""time""
""fullscreenenter"",""1"",""16866""
","""event"",""trial"",""time""
""fullscreenexit"",""6"",""29888""
","","","","","","null","<div style=""font-size:60px;"">+</div>","null","","fixation","","","","","","","","",""
"memory-trial","127","375176","0.0-15.0-1.42","1510","2","""event"",""trial"",""time""
""fullscreenenter"",""1"",""16866""
""fullscreenexit"",""6"",""29888""
","
","
","""event"",""trial"",""time""
""fullscreenenter"",""1"",""16866""
","""event"",""trial"",""time""
""fullscreenexit"",""6"",""29888""
","","","","","","1240.300000011921","images/boat5.png","","","memory_trial","3","maybe_new","","","","","","",""
"html-keyboard-response","128","375680","0.0-15.0-0.43","1510","2","""event"",""trial"",""time""
""fullscreenenter"",""1"",""16866""
""fullscreenexit"",""6"",""29888""
","
","
","""event"",""trial"",""time""
""fullscreenenter"",""1"",""16866""
","""event"",""trial"",""time""
""fullscreenexit"",""6"",""29888""
","","","","","","null","<div style=""font-size:60px;"">+</div>","null","","fixation","","","","","","","","",""
"memory-trial","129","377068","0.0-15.0-1.43","1510","2","""event"",""trial"",""time""
""fullscreenenter"",""1"",""16866""
""fullscreenexit"",""6"",""29888""
","
","
","""event"",""trial"",""time""
""fullscreenenter"",""1"",""16866""
","""event"",""trial"",""time""
""fullscreenexit"",""6"",""29888""
","","","","","","382.80000001192093","images/dog5.png","","","memory_trial","3","maybe_new","","","","","","",""
"html-keyboard-response","130","377571","0.0-15.0-0.44","1510","2","""event"",""trial"",""time""
""fullscreenenter"",""1"",""16866""
""fullscreenexit"",""6"",""29888""
","
","
","""event"",""trial"",""time""
""fullscreenenter"",""1"",""16866""
","""event"",""trial"",""time""
""fullscreenexit"",""6"",""29888""
","","","","","","null","<div style=""font-size:60px;"">+</div>","null","","fixation","","","","","","","","",""
"memory-trial","131","379969","0.0-15.0-1.44","1510","2","""event"",""trial"",""time""
""fullscreenenter"",""1"",""16866""
""fullscreenexit"",""6"",""29888""
","
","
","""event"",""trial"",""time""
""fullscreenenter"",""1"",""16866""
","""event"",""trial"",""time""
""fullscreenexit"",""6"",""29888""
","","","","","","1391.5","images/orange5.png","","","memory_trial","4","definitely_new","","","","","","",""
"html-keyboard-response","132","380471","0.0-15.0-0.45","1510","2","""event"",""trial"",""time""
""fullscreenenter"",""1"",""16866""
""fullscreenexit"",""6"",""29888""
","
","
","""event"",""trial"",""time""
""fullscreenenter"",""1"",""16866""
","""event"",""trial"",""time""
""fullscreenexit"",""6"",""29888""
","","","","","","null","<div style=""font-size:60px;"">+</div>","null","","fixation","","","","","","","","",""
"memory-trial","133","384922","0.0-15.0-1.45","1510","2","""event"",""trial"",""time""
""fullscreenenter"",""1"",""16866""
""fullscreenexit"",""6"",""29888""
","
","
","""event"",""trial"",""time""
""fullscreenenter"",""1"",""16866""
","""event"",""trial"",""time""
""fullscreenexit"",""6"",""29888""
","","","","","","3442.5","images/banana3.png","","","memory_trial","1","definitely_old","","","","","","",""
"html-keyboard-response","134","385424","0.0-15.0-0.46","1510","2","""event"",""trial"",""time""
""fullscreenenter"",""1"",""16866""
""fullscreenexit"",""6"",""29888""
","
","
","""event"",""trial"",""time""
""fullscreenenter"",""1"",""16866""
","""event"",""trial"",""time""
""fullscreenexit"",""6"",""29888""
","","","","","","null","<div style=""font-size:60px;"">+</div>","null","","fixation","","","","","","","","",""
"memory-trial","135","387861","0.0-15.0-1.46","1510","2","""event"",""trial"",""time""
""fullscreenenter"",""1"",""16866""
""fullscreenexit"",""6"",""29888""
","
","
","""event"",""trial"",""time""
""fullscreenenter"",""1"",""16866""
","""event"",""trial"",""time""
""fullscreenexit"",""6"",""29888""
","","","","","","1430.800000011921","images/rabbit2.png","","","memory_trial","3","maybe_new","","","","","","",""
"html-button-response","136","440048","0.0-15.0-2.46-0.46","1510","2","""event"",""trial"",""time""
""fullscreenenter"",""1"",""16866""
""fullscreenexit"",""6"",""29888""
","
","
","""event"",""trial"",""time""
""fullscreenenter"",""1"",""16866""
","""event"",""trial"",""time""
""fullscreenexit"",""6"",""29888""
","","","","","","52182.5","<p> Take a break! </p><p> Click the button to continue. </p>","0","","break","","","","","","","","",""
"html-keyboard-response","137","440551","0.0-15.0-0.47","1510","2","""event"",""trial"",""time""
""fullscreenenter"",""1"",""16866""
""fullscreenexit"",""6"",""29888""
","
","
","""event"",""trial"",""time""
""fullscreenenter"",""1"",""16866""
","""event"",""trial"",""time""
""fullscreenexit"",""6"",""29888""
","","","","","","null","<div style=""font-size:60px;"">+</div>","null","","fixation","","","","","","","","",""
"memory-trial","138","442987","0.0-15.0-1.47","1510","2","""event"",""trial"",""time""
""fullscreenenter"",""1"",""16866""
""fullscreenexit"",""6"",""29888""
","
","
","""event"",""trial"",""time""
""fullscreenenter"",""1"",""16866""
","""event"",""trial"",""time""
""fullscreenexit"",""6"",""29888""
","","","","","","1428.6000000238419","images/boat1.png","","","memory_trial","4","definitely_new","","","","","","",""
"html-keyboard-response","139","443490","0.0-15.0-0.48","1510","2","""event"",""trial"",""time""
""fullscreenenter"",""1"",""16866""
""fullscreenexit"",""6"",""29888""
","
","
","""event"",""trial"",""time""
""fullscreenenter"",""1"",""16866""
","""event"",""trial"",""time""
""fullscreenexit"",""6"",""29888""
","","","","","","null","<div style=""font-size:60px;"">+</div>","null","","fixation","","","","","","","","",""
"memory-trial","140","446264","0.0-15.0-1.48","1510","2","""event"",""trial"",""time""
""fullscreenenter"",""1"",""16866""
""fullscreenexit"",""6"",""29888""
","
","
","""event"",""trial"",""time""
""fullscreenenter"",""1"",""16866""
","""event"",""trial"",""time""
""fullscreenexit"",""6"",""29888""
","","","","","","1766.3999999761581","images/orange3.png","","","memory_trial","3","maybe_new","","","","","","",""
"html-keyboard-response","141","446766","0.0-15.0-0.49","1510","2","""event"",""trial"",""time""
""fullscreenenter"",""1"",""16866""
""fullscreenexit"",""6"",""29888""
","
","
","""event"",""trial"",""time""
""fullscreenenter"",""1"",""16866""
","""event"",""trial"",""time""
""fullscreenexit"",""6"",""29888""
","","","","","","null","<div style=""font-size:60px;"">+</div>","null","","fixation","","","","","","","","",""
"memory-trial","142","448800","0.0-15.0-1.49","1510","2","""event"",""trial"",""time""
""fullscreenenter"",""1"",""16866""
""fullscreenexit"",""6"",""29888""
","
","
","""event"",""trial"",""time""
""fullscreenenter"",""1"",""16866""
","""event"",""trial"",""time""
""fullscreenexit"",""6"",""29888""
","","","","","","1026.1000000238419","images/sheep1.png","","","memory_trial","4","definitely_new","","","","","","",""
"html-keyboard-response","143","449304","0.0-15.0-0.50","1510","2","""event"",""trial"",""time""
""fullscreenenter"",""1"",""16866""
""fullscreenexit"",""6"",""29888""
","
","
","""event"",""trial"",""time""
""fullscreenenter"",""1"",""16866""
","""event"",""trial"",""time""
""fullscreenexit"",""6"",""29888""
","","","","","","null","<div style=""font-size:60px;"">+</div>","null","","fixation","","","","","","","","",""
"memory-trial","144","450988","0.0-15.0-1.50","1510","2","""event"",""trial"",""time""
""fullscreenenter"",""1"",""16866""
""fullscreenexit"",""6"",""29888""
","
","
","""event"",""trial"",""time""
""fullscreenenter"",""1"",""16866""
","""event"",""trial"",""time""
""fullscreenexit"",""6"",""29888""
","","","","","","675.5","images/bush1.png","","","memory_trial","3","maybe_new","","","","","","",""
"html-keyboard-response","145","451490","0.0-15.0-0.51","1510","2","""event"",""trial"",""time""
""fullscreenenter"",""1"",""16866""
""fullscreenexit"",""6"",""29888""
","
","
","""event"",""trial"",""time""
""fullscreenenter"",""1"",""16866""
","""event"",""trial"",""time""
""fullscreenexit"",""6"",""29888""
","","","","","","null","<div style=""font-size:60px;"">+</div>","null","","fixation","","","","","","","","",""
"memory-trial","146","453103","0.0-15.0-1.51","1510","2","""event"",""trial"",""time""
""fullscreenenter"",""1"",""16866""
""fullscreenexit"",""6"",""29888""
","
","
","""event"",""trial"",""time""
""fullscreenenter"",""1"",""16866""
","""event"",""trial"",""time""
""fullscreenexit"",""6"",""29888""
","","","","","","606.5999999642372","images/bed4.png","","","memory_trial","4","definitely_new","","","","","","",""
"html-keyboard-response","147","453608","0.0-15.0-0.52","1510","2","""event"",""trial"",""time""
""fullscreenenter"",""1"",""16866""
""fullscreenexit"",""6"",""29888""
","
","
","""event"",""trial"",""time""
""fullscreenenter"",""1"",""16866""
","""event"",""trial"",""time""
""fullscreenexit"",""6"",""29888""
","","","","","","null","<div style=""font-size:60px;"">+</div>","null","","fixation","","","","","","","","",""
"memory-trial","148","455637","0.0-15.0-1.52","1510","2","""event"",""trial"",""time""
""fullscreenenter"",""1"",""16866""
""fullscreenexit"",""6"",""29888""
","
","
","""event"",""trial"",""time""
""fullscreenenter"",""1"",""16866""
","""event"",""trial"",""time""
""fullscreenexit"",""6"",""29888""
","","","","","","1023.0999999642372","images/sheep3.png","","","memory_trial","3","maybe_new","","","","","","",""
"html-keyboard-response","149","456140","0.0-15.0-0.53","1510","2","""event"",""trial"",""time""
""fullscreenenter"",""1"",""16866""
""fullscreenexit"",""6"",""29888""
","
","
","""event"",""trial"",""time""
""fullscreenenter"",""1"",""16866""
","""event"",""trial"",""time""
""fullscreenexit"",""6"",""29888""
","","","","","","null","<div style=""font-size:60px;"">+</div>","null","","fixation","","","","","","","","",""
"memory-trial","150","457943","0.0-15.0-1.53","1510","2","""event"",""trial"",""time""
""fullscreenenter"",""1"",""16866""
""fullscreenexit"",""6"",""29888""
","
","
","""event"",""trial"",""time""
""fullscreenenter"",""1"",""16866""
","""event"",""trial"",""time""
""fullscreenexit"",""6"",""29888""
","","","","","","797.3999999761581","images/tree4.png","","","memory_trial","3","maybe_new","","","","","","",""
"html-keyboard-response","151","458446","0.0-15.0-0.54","1510","2","""event"",""trial"",""time""
""fullscreenenter"",""1"",""16866""
""fullscreenexit"",""6"",""29888""
","
","
","""event"",""trial"",""time""
""fullscreenenter"",""1"",""16866""
","""event"",""trial"",""time""
""fullscreenexit"",""6"",""29888""
","","","","","","null","<div style=""font-size:60px;"">+</div>","null","","fixation","","","","","","","","",""
"memory-trial","152","459951","0.0-15.0-1.54","1510","2","""event"",""trial"",""time""
""fullscreenenter"",""1"",""16866""
""fullscreenexit"",""6"",""29888""
","
","
","""event"",""trial"",""time""
""fullscreenenter"",""1"",""16866""
","""event"",""trial"",""time""
""fullscreenexit"",""6"",""29888""
","","","","","","498.10000002384186","images/sofa2.png","","","memory_trial","2","maybe_old","","","","","","",""
"html-keyboard-response","153","460455","0.0-15.0-0.55","1510","2","""event"",""trial"",""time""
""fullscreenenter"",""1"",""16866""
""fullscreenexit"",""6"",""29888""
","
","
","""event"",""trial"",""time""
""fullscreenenter"",""1"",""16866""
","""event"",""trial"",""time""
""fullscreenexit"",""6"",""29888""
","","","","","","null","<div style=""font-size:60px;"">+</div>","null","","fixation","","","","","","","","",""
"memory-trial","154","463031","0.0-15.0-1.55","1510","2","""event"",""trial"",""time""
""fullscreenenter"",""1"",""16866""
""fullscreenexit"",""6"",""29888""
","
","
","""event"",""trial"",""time""
""fullscreenenter"",""1"",""16866""
","""event"",""trial"",""time""
""fullscreenexit"",""6"",""29888""
","","","","","","1570.300000011921","images/goat5.png","","","memory_trial","2","maybe_old","","","","","","",""
"html-keyboard-response","155","463533","0.0-15.0-0.56","1510","2","""event"",""trial"",""time""
""fullscreenenter"",""1"",""16866""
""fullscreenexit"",""6"",""29888""
","
","
","""event"",""trial"",""time""
""fullscreenenter"",""1"",""16866""
","""event"",""trial"",""time""
""fullscreenexit"",""6"",""29888""
","","","","","","null","<div style=""font-size:60px;"">+</div>","null","","fixation","","","","","","","","",""
"memory-trial","156","464597","0.0-15.0-1.56","1510","2","""event"",""trial"",""time""
""fullscreenenter"",""1"",""16866""
""fullscreenexit"",""6"",""29888""
","
","
","""event"",""trial"",""time""
""fullscreenenter"",""1"",""16866""
","""event"",""trial"",""time""
""fullscreenexit"",""6"",""29888""
","","","","","","59.5","images/chair1.png","","","memory_trial","2","maybe_old","","","","","","",""
"html-keyboard-response","157","465101","0.0-15.0-0.57","1510","2","""event"",""trial"",""time""
""fullscreenenter"",""1"",""16866""
""fullscreenexit"",""6"",""29888""
","
","
","""event"",""trial"",""time""
""fullscreenenter"",""1"",""16866""
","""event"",""trial"",""time""
""fullscreenexit"",""6"",""29888""
","","","","","","null","<div style=""font-size:60px;"">+</div>","null","","fixation","","","","","","","","",""
"memory-trial","158","466530","0.0-15.0-1.57","1510","2","""event"",""trial"",""time""
""fullscreenenter"",""1"",""16866""
""fullscreenexit"",""6"",""29888""
","
","
","""event"",""trial"",""time""
""fullscreenenter"",""1"",""16866""
","""event"",""trial"",""time""
""fullscreenexit"",""6"",""29888""
","","","","","","424.69999998807907","images/straw3.png","","","memory_trial","3","maybe_new","","","","","","",""
"html-keyboard-response","159","467033","0.0-15.0-0.58","1510","2","""event"",""trial"",""time""
""fullscreenenter"",""1"",""16866""
""fullscreenexit"",""6"",""29888""
","
","
","""event"",""trial"",""time""
""fullscreenenter"",""1"",""16866""
","""event"",""trial"",""time""
""fullscreenexit"",""6"",""29888""
","","","","","","null","<div style=""font-size:60px;"">+</div>","null","","fixation","","","","","","","","",""
"memory-trial","160","468904","0.0-15.0-1.58","1510","2","""event"",""trial"",""time""
""fullscreenenter"",""1"",""16866""
""fullscreenexit"",""6"",""29888""
","
","
","""event"",""trial"",""time""
""fullscreenenter"",""1"",""16866""
","""event"",""trial"",""time""
""fullscreenexit"",""6"",""29888""
","","","","","","864.6000000238419","images/chair5.png","","","memory_trial","3","maybe_new","","","","","","",""
"html-keyboard-response","161","469408","0.0-15.0-0.59","1510","2","""event"",""trial"",""time""
""fullscreenenter"",""1"",""16866""
""fullscreenexit"",""6"",""29888""
","
","
","""event"",""trial"",""time""
""fullscreenenter"",""1"",""16866""
","""event"",""trial"",""time""
""fullscreenexit"",""6"",""29888""
","","","","","","null","<div style=""font-size:60px;"">+</div>","null","","fixation","","","","","","","","",""
"memory-trial","162","471836","0.0-15.0-1.59","1510","2","""event"",""trial"",""time""
""fullscreenenter"",""1"",""16866""
""fullscreenexit"",""6"",""29888""
","
","
","""event"",""trial"",""time""
""fullscreenenter"",""1"",""16866""
","""event"",""trial"",""time""
""fullscreenexit"",""6"",""29888""
","","","","","","1421","images/sofa4.png","","","memory_trial","4","definitely_new","","","","","","",""
"html-keyboard-response","163","472339","0.0-15.0-0.60","1510","2","""event"",""trial"",""time""
""fullscreenenter"",""1"",""16866""
""fullscreenexit"",""6"",""29888""
","
","
","""event"",""trial"",""time""
""fullscreenenter"",""1"",""16866""
","""event"",""trial"",""time""
""fullscreenexit"",""6"",""29888""
","","","","","","null","<div style=""font-size:60px;"">+</div>","null","","fixation","","","","","","","","",""
"memory-trial","164","473834","0.0-15.0-1.60","1510","2","""event"",""trial"",""time""
""fullscreenenter"",""1"",""16866""
""fullscreenexit"",""6"",""29888""
","
","
","""event"",""trial"",""time""
""fullscreenenter"",""1"",""16866""
","""event"",""trial"",""time""
""fullscreenexit"",""6"",""29888""
","","","","","","488.30000001192093","images/rabbit3.png","","","memory_trial","4","definitely_new","","","","","","",""
"html-keyboard-response","165","474337","0.0-15.0-0.61","1510","2","""event"",""trial"",""time""
""fullscreenenter"",""1"",""16866""
""fullscreenexit"",""6"",""29888""
","
","
","""event"",""trial"",""time""
""fullscreenenter"",""1"",""16866""
","""event"",""trial"",""time""
""fullscreenexit"",""6"",""29888""
","","","","","","null","<div style=""font-size:60px;"">+</div>","null","","fixation","","","","","","","","",""
"memory-trial","166","476065","0.0-15.0-1.61","1510","2","""event"",""trial"",""time""
""fullscreenenter"",""1"",""16866""
""fullscreenexit"",""6"",""29888""
","
","
","""event"",""trial"",""time""
""fullscreenenter"",""1"",""16866""
","""event"",""trial"",""time""
""fullscreenexit"",""6"",""29888""
","","","","","","722.3999999761581","images/bush2.png","","","memory_trial","4","definitely_new","","","","","","",""
"html-keyboard-response","167","476567","0.0-15.0-0.62","1510","2","""event"",""trial"",""time""
""fullscreenenter"",""1"",""16866""
""fullscreenexit"",""6"",""29888""
","
","
","""event"",""trial"",""time""
""fullscreenenter"",""1"",""16866""
","""event"",""trial"",""time""
""fullscreenexit"",""6"",""29888""
","","","","","","null","<div style=""font-size:60px;"">+</div>","null","","fixation","","","","","","","","",""
"memory-trial","168","478827","0.0-15.0-1.62","1510","2","""event"",""trial"",""time""
""fullscreenenter"",""1"",""16866""
""fullscreenexit"",""6"",""29888""
","
","
","""event"",""trial"",""time""
""fullscreenenter"",""1"",""16866""
","""event"",""trial"",""time""
""fullscreenexit"",""6"",""29888""
","","","","","","1251.5999999642372","images/dog4.png","","","memory_trial","3","maybe_new","","","","","","",""
"html-keyboard-response","169","479330","0.0-15.0-0.63","1510","2","""event"",""trial"",""time""
""fullscreenenter"",""1"",""16866""
""fullscreenexit"",""6"",""29888""
","
","
","""event"",""trial"",""time""
""fullscreenenter"",""1"",""16866""
","""event"",""trial"",""time""
""fullscreenexit"",""6"",""29888""
","","","","","","null","<div style=""font-size:60px;"">+</div>","null","","fixation","","","","","","","","",""
"memory-trial","170","482510","0.0-15.0-1.63","1510","2","""event"",""trial"",""time""
""fullscreenenter"",""1"",""16866""
""fullscreenexit"",""6"",""29888""
","
","
","""event"",""trial"",""time""
""fullscreenenter"",""1"",""16866""
","""event"",""trial"",""time""
""fullscreenexit"",""6"",""29888""
","","","","","","2174.599999964237","images/horse2.png","","","memory_trial","4","definitely_new","","","","","","",""
"html-keyboard-response","171","483019","0.0-15.0-0.64","1510","2","""event"",""trial"",""time""
""fullscreenenter"",""1"",""16866""
""fullscreenexit"",""6"",""29888""
","
","
","""event"",""trial"",""time""
""fullscreenenter"",""1"",""16866""
","""event"",""trial"",""time""
""fullscreenexit"",""6"",""29888""
","","","","","","null","<div style=""font-size:60px;"">+</div>","null","","fixation","","","","","","","","",""
"memory-trial","172","484674","0.0-15.0-1.64","1510","2","""event"",""trial"",""time""
""fullscreenenter"",""1"",""16866""
""fullscreenexit"",""6"",""29888""
","
","
","""event"",""trial"",""time""
""fullscreenenter"",""1"",""16866""
","""event"",""trial"",""time""
""fullscreenexit"",""6"",""29888""
","","","","","","647.7999999523163","images/horse1.png","","","memory_trial","3","maybe_new","","","","","","",""
"html-keyboard-response","173","485178","0.0-15.0-0.65","1510","2","""event"",""trial"",""time""
""fullscreenenter"",""1"",""16866""
""fullscreenexit"",""6"",""29888""
","
","
","""event"",""trial"",""time""
""fullscreenenter"",""1"",""16866""
","""event"",""trial"",""time""
""fullscreenexit"",""6"",""29888""
","","","","","","null","<div style=""font-size:60px;"">+</div>","null","","fixation","","","","","","","","",""
"memory-trial","174","486848","0.0-15.0-1.65","1510","2","""event"",""trial"",""time""
""fullscreenenter"",""1"",""16866""
""fullscreenexit"",""6"",""29888""
","
","
","""event"",""trial"",""time""
""fullscreenenter"",""1"",""16866""
","""event"",""trial"",""time""
""fullscreenexit"",""6"",""29888""
","","","","","","664.0999999642372","images/horse4.png","","","memory_trial","3","maybe_new","","","","","","",""
"html-keyboard-response","175","487351","0.0-15.0-0.66","1510","2","""event"",""trial"",""time""
""fullscreenenter"",""1"",""16866""
""fullscreenexit"",""6"",""29888""
","
","
","""event"",""trial"",""time""
""fullscreenenter"",""1"",""16866""
","""event"",""trial"",""time""
""fullscreenexit"",""6"",""29888""
","","","","","","null","<div style=""font-size:60px;"">+</div>","null","","fixation","","","","","","","","",""
"memory-trial","176","488371","0.0-15.0-1.66","1510","2","""event"",""trial"",""time""
""fullscreenenter"",""1"",""16866""
""fullscreenexit"",""6"",""29888""
","
","
","""event"",""trial"",""time""
""fullscreenenter"",""1"",""16866""
","""event"",""trial"",""time""
""fullscreenexit"",""6"",""29888""
","","","","","","13.5","images/banana2.png","","","memory_trial","4","definitely_new","","","","","","",""
"html-keyboard-response","177","488875","0.0-15.0-0.67","1510","2","""event"",""trial"",""time""
""fullscreenenter"",""1"",""16866""
""fullscreenexit"",""6"",""29888""
","
","
","""event"",""trial"",""time""
""fullscreenenter"",""1"",""16866""
","""event"",""trial"",""time""
""fullscreenexit"",""6"",""29888""
","","","","","","null","<div style=""font-size:60px;"">+</div>","null","","fixation","","","","","","","","",""
"memory-trial","178","491386","0.0-15.0-1.67","1510","2","""event"",""trial"",""time""
""fullscreenenter"",""1"",""16866""
""fullscreenexit"",""6"",""29888""
","
","
","""event"",""trial"",""time""
""fullscreenenter"",""1"",""16866""
","""event"",""trial"",""time""
""fullscreenexit"",""6"",""29888""
","","","","","","1505.2000000476837","images/bush4.png","","","memory_trial","3","maybe_new","","","","","","",""
"html-keyboard-response","179","491888","0.0-15.0-0.68","1510","2","""event"",""trial"",""time""
""fullscreenenter"",""1"",""16866""
""fullscreenexit"",""6"",""29888""
","
","
","""event"",""trial"",""time""
""fullscreenenter"",""1"",""16866""
","""event"",""trial"",""time""
""fullscreenexit"",""6"",""29888""
","","","","","","null","<div style=""font-size:60px;"">+</div>","null","","fixation","","","","","","","","",""
"memory-trial","180","493327","0.0-15.0-1.68","1510","2","""event"",""trial"",""time""
""fullscreenenter"",""1"",""16866""
""fullscreenexit"",""6"",""29888""
","
","
","""event"",""trial"",""time""
""fullscreenenter"",""1"",""16866""
","""event"",""trial"",""time""
""fullscreenexit"",""6"",""29888""
","","","","","","433.69999998807907","images/rodent3.png","","","memory_trial","3","maybe_new","","","","","","",""
"html-keyboard-response","181","493830","0.0-15.0-0.69","1510","2","""event"",""trial"",""time""
""fullscreenenter"",""1"",""16866""
""fullscreenexit"",""6"",""29888""
","
","
","""event"",""trial"",""time""
""fullscreenenter"",""1"",""16866""
","""event"",""trial"",""time""
""fullscreenexit"",""6"",""29888""
","","","","","","null","<div style=""font-size:60px;"">+</div>","null","","fixation","","","","","","","","",""
"memory-trial","182","495874","0.0-15.0-1.69","1510","2","""event"",""trial"",""time""
""fullscreenenter"",""1"",""16866""
""fullscreenexit"",""6"",""29888""
","
","
","""event"",""trial"",""time""
""fullscreenenter"",""1"",""16866""
","""event"",""trial"",""time""
""fullscreenexit"",""6"",""29888""
","","","","","","1037.199999988079","images/straw1.png","","","memory_trial","3","maybe_new","","","","","","",""
"html-keyboard-response","183","496378","0.0-15.0-0.70","1510","2","""event"",""trial"",""time""
""fullscreenenter"",""1"",""16866""
""fullscreenexit"",""6"",""29888""
","
","
","""event"",""trial"",""time""
""fullscreenenter"",""1"",""16866""
","""event"",""trial"",""time""
""fullscreenexit"",""6"",""29888""
","","","","","","null","<div style=""font-size:60px;"">+</div>","null","","fixation","","","","","","","","",""
"memory-trial","184","497714","0.0-15.0-1.70","1510","2","""event"",""trial"",""time""
""fullscreenenter"",""1"",""16866""
""fullscreenexit"",""6"",""29888""
","
","
","""event"",""trial"",""time""
""fullscreenenter"",""1"",""16866""
","""event"",""trial"",""time""
""fullscreenexit"",""6"",""29888""
","","","","","","330.19999998807907","images/rodent5.png","","","memory_trial","3","maybe_new","","","","","","",""
"html-keyboard-response","185","498217","0.0-15.0-0.71","1510","2","""event"",""trial"",""time""
""fullscreenenter"",""1"",""16866""
""fullscreenexit"",""6"",""29888""
","
","
","""event"",""trial"",""time""
""fullscreenenter"",""1"",""16866""
","""event"",""trial"",""time""
""fullscreenexit"",""6"",""29888""
","","","","","","null","<div style=""font-size:60px;"">+</div>","null","","fixation","","","","","","","","",""
"memory-trial","186","499835","0.0-15.0-1.71","1510","2","""event"",""trial"",""time""
""fullscreenenter"",""1"",""16866""
""fullscreenexit"",""6"",""29888""
","
","
","""event"",""trial"",""time""
""fullscreenenter"",""1"",""16866""
","""event"",""trial"",""time""
""fullscreenexit"",""6"",""29888""
","","","","","","613.0999999642372","images/chair3.png","","","memory_trial","2","maybe_old","","","","","","",""
"html-keyboard-response","187","500337","0.0-15.0-0.72","1510","2","""event"",""trial"",""time""
""fullscreenenter"",""1"",""16866""
""fullscreenexit"",""6"",""29888""
","
","
","""event"",""trial"",""time""
""fullscreenenter"",""1"",""16866""
","""event"",""trial"",""time""
""fullscreenexit"",""6"",""29888""
","","","","","","null","<div style=""font-size:60px;"">+</div>","null","","fixation","","","","","","","","",""
"memory-trial","188","501397","0.0-15.0-1.72","1510","2","""event"",""trial"",""time""
""fullscreenenter"",""1"",""16866""
""fullscreenexit"",""6"",""29888""
","
","
","""event"",""trial"",""time""
""fullscreenenter"",""1"",""16866""
","""event"",""trial"",""time""
""fullscreenexit"",""6"",""29888""
","","","","","","51.10000002384186","images/feline4.png","","","memory_trial","3","maybe_new","","","","","","",""
"html-keyboard-response","189","501901","0.0-15.0-0.73","1510","2","""event"",""trial"",""time""
""fullscreenenter"",""1"",""16866""
""fullscreenexit"",""6"",""29888""
","
","
","""event"",""trial"",""time""
""fullscreenenter"",""1"",""16866""
","""event"",""trial"",""time""
""fullscreenexit"",""6"",""29888""
","","","","","","null","<div style=""font-size:60px;"">+</div>","null","","fixation","","","","","","","","",""
"memory-trial","190","503283","0.0-15.0-1.73","1510","2","""event"",""trial"",""time""
""fullscreenenter"",""1"",""16866""
""fullscreenexit"",""6"",""29888""
","
","
","""event"",""trial"",""time""
""fullscreenenter"",""1"",""16866""
","""event"",""trial"",""time""
""fullscreenexit"",""6"",""29888""
","","","","","","373.80000001192093","images/feline2.png","","","memory_trial","4","definitely_new","","","","","","",""
"html-keyboard-response","191","503785","0.0-15.0-0.74","1510","2","""event"",""trial"",""time""
""fullscreenenter"",""1"",""16866""
""fullscreenexit"",""6"",""29888""
","
","
","""event"",""trial"",""time""
""fullscreenenter"",""1"",""16866""
","""event"",""trial"",""time""
""fullscreenexit"",""6"",""29888""
","","","","","","null","<div style=""font-size:60px;"">+</div>","null","","fixation","","","","","","","","",""
"memory-trial","192","505464","0.0-15.0-1.74","1510","2","""event"",""trial"",""time""
""fullscreenenter"",""1"",""16866""
""fullscreenexit"",""6"",""29888""
","
","
","""event"",""trial"",""time""
""fullscreenenter"",""1"",""16866""
","""event"",""trial"",""time""
""fullscreenexit"",""6"",""29888""
","","","","","","673.5999999642372","images/truck5.png","","","memory_trial","3","maybe_new","","","","","","",""
"html-keyboard-response","193","505967","0.0-15.0-0.75","1510","2","""event"",""trial"",""time""
""fullscreenenter"",""1"",""16866""
""fullscreenexit"",""6"",""29888""
","
","
","""event"",""trial"",""time""
""fullscreenenter"",""1"",""16866""
","""event"",""trial"",""time""
""fullscreenexit"",""6"",""29888""
","","","","","","null","<div style=""font-size:60px;"">+</div>","null","","fixation","","","","","","","","",""
"memory-trial","194","507513","0.0-15.0-1.75","1510","2","""event"",""trial"",""time""
""fullscreenenter"",""1"",""16866""
""fullscreenexit"",""6"",""29888""
","
","
","""event"",""trial"",""time""
""fullscreenenter"",""1"",""16866""
","""event"",""trial"",""time""
""fullscreenexit"",""6"",""29888""
","","","","","","538.8999999761581","images/cactus3.png","","","memory_trial","3","maybe_new","","","","","","",""
"html-keyboard-response","195","508016","0.0-15.0-0.76","1510","2","""event"",""trial"",""time""
""fullscreenenter"",""1"",""16866""
""fullscreenexit"",""6"",""29888""
","
","
","""event"",""trial"",""time""
""fullscreenenter"",""1"",""16866""
","""event"",""trial"",""time""
""fullscreenexit"",""6"",""29888""
","","","","","","null","<div style=""font-size:60px;"">+</div>","null","","fixation","","","","","","","","",""
"memory-trial","196","509512","0.0-15.0-1.76","1510","2","""event"",""trial"",""time""
""fullscreenenter"",""1"",""16866""
""fullscreenexit"",""6"",""29888""
","
","
","""event"",""trial"",""time""
""fullscreenenter"",""1"",""16866""
","""event"",""trial"",""time""
""fullscreenexit"",""6"",""29888""
","","","","","","487.60000002384186","images/truck1.png","","","memory_trial","3","maybe_new","","","","","","",""
"html-keyboard-response","197","510015","0.0-15.0-0.77","1510","2","""event"",""trial"",""time""
""fullscreenenter"",""1"",""16866""
""fullscreenexit"",""6"",""29888""
","
","
","""event"",""trial"",""time""
""fullscreenenter"",""1"",""16866""
","""event"",""trial"",""time""
""fullscreenexit"",""6"",""29888""
","","","","","","null","<div style=""font-size:60px;"">+</div>","null","","fixation","","","","","","","","",""
"memory-trial","198","511749","0.0-15.0-1.77","1510","2","""event"",""trial"",""time""
""fullscreenenter"",""1"",""16866""
""fullscreenexit"",""6"",""29888""
","
","
","""event"",""trial"",""time""
""fullscreenenter"",""1"",""16866""
","""event"",""trial"",""time""
""fullscreenexit"",""6"",""29888""
","","","","","","727.9000000357628","images/straw4.png","","","memory_trial","2","maybe_old","","","","","","",""
"html-keyboard-response","199","512252","0.0-15.0-0.78","1510","2","""event"",""trial"",""time""
""fullscreenenter"",""1"",""16866""
""fullscreenexit"",""6"",""29888""
","
","
","""event"",""trial"",""time""
""fullscreenenter"",""1"",""16866""
","""event"",""trial"",""time""
""fullscreenexit"",""6"",""29888""
","","","","","","null","<div style=""font-size:60px;"">+</div>","null","","fixation","","","","","","","","",""
"memory-trial","200","513478","0.0-15.0-1.78","1510","2","""event"",""trial"",""time""
""fullscreenenter"",""1"",""16866""
""fullscreenexit"",""6"",""29888""
","
","
","""event"",""trial"",""time""
""fullscreenenter"",""1"",""16866""
","""event"",""trial"",""time""
""fullscreenexit"",""6"",""29888""
","","","","","","219.5","images/banana4.png","","","memory_trial","2","maybe_old","","","","","","",""
"html-keyboard-response","201","513981","0.0-15.0-0.79","1510","2","""event"",""trial"",""time""
""fullscreenenter"",""1"",""16866""
""fullscreenexit"",""6"",""29888""
","
","
","""event"",""trial"",""time""
""fullscreenenter"",""1"",""16866""
","""event"",""trial"",""time""
""fullscreenexit"",""6"",""29888""
","","","","","","null","<div style=""font-size:60px;"">+</div>","null","","fixation","","","","","","","","",""
"memory-trial","202","516844","0.0-15.0-1.79","1510","2","""event"",""trial"",""time""
""fullscreenenter"",""1"",""16866""
""fullscreenexit"",""6"",""29888""
","
","
","""event"",""trial"",""time""
""fullscreenenter"",""1"",""16866""
","""event"",""trial"",""time""
""fullscreenexit"",""6"",""29888""
","","","","","","1856.199999988079","images/orange1.png","","","memory_trial","3","maybe_new","","","","","","",""
"html-keyboard-response","203","517347","0.0-15.0-0.80","1510","2","""event"",""trial"",""time""
""fullscreenenter"",""1"",""16866""
""fullscreenexit"",""6"",""29888""
","
","
","""event"",""trial"",""time""
""fullscreenenter"",""1"",""16866""
","""event"",""trial"",""time""
""fullscreenexit"",""6"",""29888""
","","","","","","null","<div style=""font-size:60px;"">+</div>","null","","fixation","","","","","","","","",""
"memory-trial","204","518963","0.0-15.0-1.80","1510","2","""event"",""trial"",""time""
""fullscreenenter"",""1"",""16866""
""fullscreenexit"",""6"",""29888""
","
","
","""event"",""trial"",""time""
""fullscreenenter"",""1"",""16866""
","""event"",""trial"",""time""
""fullscreenexit"",""6"",""29888""
","","","","","","607.8000000119209","images/cactus2.png","","","memory_trial","2","maybe_old","","","","","","",""
"html-keyboard-response","205","519466","0.0-15.0-0.81","1510","2","""event"",""trial"",""time""
""fullscreenenter"",""1"",""16866""
""fullscreenexit"",""6"",""29888""
","
","
","""event"",""trial"",""time""
""fullscreenenter"",""1"",""16866""
","""event"",""trial"",""time""
""fullscreenexit"",""6"",""29888""
","","","","","","null","<div style=""font-size:60px;"">+</div>","null","","fixation","","","","","","","","",""
"memory-trial","206","521352","0.0-15.0-1.81","1510","2","""event"",""trial"",""time""
""fullscreenenter"",""1"",""16866""
""fullscreenexit"",""6"",""29888""
","
","
","""event"",""trial"",""time""
""fullscreenenter"",""1"",""16866""
","""event"",""trial"",""time""
""fullscreenexit"",""6"",""29888""
","","","","","","881","images/goat1.png","","","memory_trial","3","maybe_new","","","","","","",""
"html-keyboard-response","207","521856","0.0-15.0-0.82","1510","2","""event"",""trial"",""time""
""fullscreenenter"",""1"",""16866""
""fullscreenexit"",""6"",""29888""
","
","
","""event"",""trial"",""time""
""fullscreenenter"",""1"",""16866""
","""event"",""trial"",""time""
""fullscreenexit"",""6"",""29888""
","","","","","","null","<div style=""font-size:60px;"">+</div>","null","","fixation","","","","","","","","",""
"memory-trial","208","523772","0.0-15.0-1.82","1510","2","""event"",""trial"",""time""
""fullscreenenter"",""1"",""16866""
""fullscreenexit"",""6"",""29888""
","
","
","""event"",""trial"",""time""
""fullscreenenter"",""1"",""16866""
","""event"",""trial"",""time""
""fullscreenexit"",""6"",""29888""
","","","","","","910.8999999761581","images/truck2.png","","","memory_trial","2","maybe_old","","","","","","",""
"html-keyboard-response","209","524274","0.0-15.0-0.83","1510","2","""event"",""trial"",""time""
""fullscreenenter"",""1"",""16866""
""fullscreenexit"",""6"",""29888""
","
","
","""event"",""trial"",""time""
""fullscreenenter"",""1"",""16866""
","""event"",""trial"",""time""
""fullscreenexit"",""6"",""29888""
","","","","","","null","<div style=""font-size:60px;"">+</div>","null","","fixation","","","","","","","","",""
"memory-trial","210","526226","0.0-15.0-1.83","1510","2","""event"",""trial"",""time""
""fullscreenenter"",""1"",""16866""
""fullscreenexit"",""6"",""29888""
","
","
","""event"",""trial"",""time""
""fullscreenenter"",""1"",""16866""
","""event"",""trial"",""time""
""fullscreenexit"",""6"",""29888""
","","","","","","945.6999999880791","images/bush5.png","","","memory_trial","2","maybe_old","","","","","","",""
"html-keyboard-response","211","526729","0.0-15.0-0.84","1510","2","""event"",""trial"",""time""
""fullscreenenter"",""1"",""16866""
""fullscreenexit"",""6"",""29888""
","
","
","""event"",""trial"",""time""
""fullscreenenter"",""1"",""16866""
","""event"",""trial"",""time""
""fullscreenexit"",""6"",""29888""
","","","","","","null","<div style=""font-size:60px;"">+</div>","null","","fixation","","","","","","","","",""
"memory-trial","212","527741","0.0-15.0-1.84","1510","2","""event"",""trial"",""time""
""fullscreenenter"",""1"",""16866""
""fullscreenexit"",""6"",""29888""
","
","
","""event"",""trial"",""time""
""fullscreenenter"",""1"",""16866""
","""event"",""trial"",""time""
""fullscreenexit"",""6"",""29888""
","","","","","","4.900000035762787","images/sofa5.png","","","memory_trial","2","maybe_old","","","","","","",""
"html-keyboard-response","213","528243","0.0-15.0-0.85","1510","2","""event"",""trial"",""time""
""fullscreenenter"",""1"",""16866""
""fullscreenexit"",""6"",""29888""
","
","
","""event"",""trial"",""time""
""fullscreenenter"",""1"",""16866""
","""event"",""trial"",""time""
""fullscreenexit"",""6"",""29888""
","","","","","","null","<div style=""font-size:60px;"">+</div>","null","","fixation","","","","","","","","",""
"memory-trial","214","530175","0.0-15.0-1.85","1510","2","""event"",""trial"",""time""
""fullscreenenter"",""1"",""16866""
""fullscreenexit"",""6"",""29888""
","
","
","""event"",""trial"",""time""
""fullscreenenter"",""1"",""16866""
","""event"",""trial"",""time""
""fullscreenexit"",""6"",""29888""
","","","","","","926.5","images/goat3.png","","","memory_trial","3","maybe_new","","","","","","",""
"html-keyboard-response","215","530680","0.0-15.0-0.86","1510","2","""event"",""trial"",""time""
""fullscreenenter"",""1"",""16866""
""fullscreenexit"",""6"",""29888""
","
","
","""event"",""trial"",""time""
""fullscreenenter"",""1"",""16866""
","""event"",""trial"",""time""
""fullscreenexit"",""6"",""29888""
","","","","","","null","<div style=""font-size:60px;"">+</div>","null","","fixation","","","","","","","","",""
"memory-trial","216","531717","0.0-15.0-1.86","1510","2","""event"",""trial"",""time""
""fullscreenenter"",""1"",""16866""
""fullscreenexit"",""6"",""29888""
","
","
","""event"",""trial"",""time""
""fullscreenenter"",""1"",""16866""
","""event"",""trial"",""time""
""fullscreenexit"",""6"",""29888""
","","","","","","30.100000023841858","images/rabbit4.png","","","memory_trial","2","maybe_old","","","","","","",""
"html-keyboard-response","217","532219","0.0-15.0-0.87","1510","2","""event"",""trial"",""time""
""fullscreenenter"",""1"",""16866""
""fullscreenexit"",""6"",""29888""
","
","
","""event"",""trial"",""time""
""fullscreenenter"",""1"",""16866""
","""event"",""trial"",""time""
""fullscreenexit"",""6"",""29888""
","","","","","","null","<div style=""font-size:60px;"">+</div>","null","","fixation","","","","","","","","",""
"memory-trial","218","534242","0.0-15.0-1.87","1510","2","""event"",""trial"",""time""
""fullscreenenter"",""1"",""16866""
""fullscreenexit"",""6"",""29888""
","
","
","""event"",""trial"",""time""
""fullscreenenter"",""1"",""16866""
","""event"",""trial"",""time""
""fullscreenexit"",""6"",""29888""
","","","","","","1017","images/bed2.png","","","memory_trial","2","maybe_old","","","","","","",""
"html-keyboard-response","219","534745","0.0-15.0-0.88","1510","2","""event"",""trial"",""time""
""fullscreenenter"",""1"",""16866""
""fullscreenexit"",""6"",""29888""
","
","
","""event"",""trial"",""time""
""fullscreenenter"",""1"",""16866""
","""event"",""trial"",""time""
""fullscreenexit"",""6"",""29888""
","","","","","","null","<div style=""font-size:60px;"">+</div>","null","","fixation","","","","","","","","",""
"memory-trial","220","537001","0.0-15.0-1.88","1510","2","""event"",""trial"",""time""
""fullscreenenter"",""1"",""16866""
""fullscreenexit"",""6"",""29888""
","
","
","""event"",""trial"",""time""
""fullscreenenter"",""1"",""16866""
","""event"",""trial"",""time""
""fullscreenexit"",""6"",""29888""
","","","","","","1251.5","images/boat3.png","","","memory_trial","2","maybe_old","","","","","","",""
"html-keyboard-response","221","537503","0.0-15.0-0.89","1510","2","""event"",""trial"",""time""
""fullscreenenter"",""1"",""16866""
""fullscreenexit"",""6"",""29888""
","
","
","""event"",""trial"",""time""
""fullscreenenter"",""1"",""16866""
","""event"",""trial"",""time""
""fullscreenexit"",""6"",""29888""
","","","","","","null","<div style=""font-size:60px;"">+</div>","null","","fixation","","","","","","","","",""
"memory-trial","222","538776","0.0-15.0-1.89","1510","2","""event"",""trial"",""time""
""fullscreenenter"",""1"",""16866""
""fullscreenexit"",""6"",""29888""
","
","
","""event"",""trial"",""time""
""fullscreenenter"",""1"",""16866""
","""event"",""trial"",""time""
""fullscreenexit"",""6"",""29888""
","","","","","","265.5999999642372","images/table1.png","","","memory_trial","3","maybe_new","","","","","","",""
"html-keyboard-response","223","539279","0.0-15.0-0.90","1510","2","""event"",""trial"",""time""
""fullscreenenter"",""1"",""16866""
""fullscreenexit"",""6"",""29888""
","
","
","""event"",""trial"",""time""
""fullscreenenter"",""1"",""16866""
","""event"",""trial"",""time""
""fullscreenexit"",""6"",""29888""
","","","","","","null","<div style=""font-size:60px;"">+</div>","null","","fixation","","","","","","","","",""
"memory-trial","224","540610","0.0-15.0-1.90","1510","2","""event"",""trial"",""time""
""fullscreenenter"",""1"",""16866""
""fullscreenexit"",""6"",""29888""
","
","
","""event"",""trial"",""time""
""fullscreenenter"",""1"",""16866""
","""event"",""trial"",""time""
""fullscreenexit"",""6"",""29888""
","","","","","","324.5999999642372","images/tree5.png","","","memory_trial","2","maybe_old","","","","","","",""
"html-keyboard-response","225","541112","0.0-15.0-0.91","1510","2","""event"",""trial"",""time""
""fullscreenenter"",""1"",""16866""
""fullscreenexit"",""6"",""29888""
","
","
","""event"",""trial"",""time""
""fullscreenenter"",""1"",""16866""
","""event"",""trial"",""time""
""fullscreenexit"",""6"",""29888""
","","","","","","null","<div style=""font-size:60px;"">+</div>","null","","fixation","","","","","","","","",""
"memory-trial","226","542299","0.0-15.0-1.91","1510","2","""event"",""trial"",""time""
""fullscreenenter"",""1"",""16866""
""fullscreenexit"",""6"",""29888""
","
","
","""event"",""trial"",""time""
""fullscreenenter"",""1"",""16866""
","""event"",""trial"",""time""
""fullscreenexit"",""6"",""29888""
","","","","","","181.60000002384186","images/dog1.png","","","memory_trial","3","maybe_new","","","","","","",""
"html-keyboard-response","227","542801","0.0-15.0-0.92","1510","2","""event"",""trial"",""time""
""fullscreenenter"",""1"",""16866""
""fullscreenexit"",""6"",""29888""
","
","
","""event"",""trial"",""time""
""fullscreenenter"",""1"",""16866""
","""event"",""trial"",""time""
""fullscreenexit"",""6"",""29888""
