"trial_type","trial_index","time_elapsed","internal_node_id","subject_id","task_version","interactions","blur_events","focus_events","fullscreenenter_events","fullscreenexit_events","success","timeout","failed_images","failed_audio","failed_video","rt","stimulus","response","button_pressed","task_part","key_press","answer","correct","left_choice","middle_choice","right_choice","choice_positions","option_selected","block"
"pavlovia","0","3","0.0-0.0","1687","2","""event"",""trial"",""time""
""fullscreenenter"",""1"",""2536""
","
","
","""event"",""trial"",""time""
""fullscreenenter"",""1"",""2536""
","
","","","","","","","","","","","","","","","","","","",""
"fullscreen","1","3524","0.0-1.0","1687","2","""event"",""trial"",""time""
""fullscreenenter"",""1"",""2536""
","
","
","""event"",""trial"",""time""
""fullscreenenter"",""1"",""2536""
","
","true","","","","","","","","","","","","","","","","","",""
"preload","2","4407","0.0-2.0","1687","2","""event"",""trial"",""time""
""fullscreenenter"",""1"",""2536""
","
","
","""event"",""trial"",""time""
""fullscreenenter"",""1"",""2536""
","
","true","false","[]","[]","[]","","","","","","","","","","","","","",""
"audio-keyboard-response","3","7100","0.0-3.0","1687","2","""event"",""trial"",""time""
""fullscreenenter"",""1"",""2536""
","
","
","""event"",""trial"",""time""
""fullscreenenter"",""1"",""2536""
","
","","","","","","2690.6666666666665","audio/beep_loop.wav"," ","","","","","","","","","","",""
"audio-button-response","4","8939","0.0-4.0","1687","2","""event"",""trial"",""time""
""fullscreenenter"",""1"",""2536""
","
","
","""event"",""trial"",""time""
""fullscreenenter"",""1"",""2536""
","
","","","","","","1840","audio/turtle.wav","3","","","","","","","","","","",""
"audio-button-response","5","11218","0.0-5.0","1687","2","""event"",""trial"",""time""
""fullscreenenter"",""1"",""2536""
","
","
","""event"",""trial"",""time""
""fullscreenenter"",""1"",""2536""
","
","","","","","","1272","audio/shark.wav","2","","","","","","","","","","",""
"preload","6","15057","0.0-6.0","1687","2","""event"",""trial"",""time""
""fullscreenenter"",""1"",""2536""
","
","
","""event"",""trial"",""time""
""fullscreenenter"",""1"",""2536""
","
","true","false","[]","[]","[]","","","","","","","","","","","","","",""
"learning-instructions","7","23291","0.0-7.0-0.0","1687","2","""event"",""trial"",""time""
""fullscreenenter"",""1"",""2536""
","
","
","""event"",""trial"",""time""
""fullscreenenter"",""1"",""2536""
","
","","","","","","3428","<p> Welcome back! </p><p> Last week, you had to make choices about lots of different items.  </p>","","0","instructions","","","","","","","","",""
"learning-instructions","8","30667","0.0-7.0-0.1","1687","2","""event"",""trial"",""time""
""fullscreenenter"",""1"",""2536""
","
","
","""event"",""trial"",""time""
""fullscreenenter"",""1"",""2536""
","
","","","","","","3073.399999976158","<p> Today, we are going to ask you to try to remember all the items. </p>","","0","instructions","","","","","","","","",""
"learning-instructions","9","41969","0.0-7.0-0.2","1687","2","""event"",""trial"",""time""
""fullscreenenter"",""1"",""2536""
","
","
","""event"",""trial"",""time""
""fullscreenenter"",""1"",""2536""
","
","","","","","","1166.3999999761581","<p> On every trial, you will see an image. </p><p> The image may be an OLD image you saw during the games last week or it may be a NEW image that was not presented. </p>","","0","instructions","","","","","","","","",""
"learning-instructions","10","51139","0.0-7.0-0.3","1687","2","""event"",""trial"",""time""
""fullscreenenter"",""1"",""2536""
","
","
","""event"",""trial"",""time""
""fullscreenenter"",""1"",""2536""
","
","","","","","","666.1999999284744","<p> You need to select whether the image is:  </p><p>  'Definitely old', 'Maybe old', 'Maybe new', or 'Definitely new.'  </p><div class=""mem-choice-instructions-grid""><div class=""choice-option"" id=""choice-option-1"" ><img src=""images/definitely_old_1.png"" id=""choice-option-img-1"" class=""choice-option-img"" stage=""1""></div><div class=""choice-option"" id=""choice-option-2"" ><img src=""images/maybe_old_1.png"" id=""choice-option-img-2"" class=""choice-option-img"" stage=""1""></div><div class=""choice-option"" id=""choice-option-3"" ><img src=""images/maybe_new_1.png"" id=""choice-option-img-3"" class=""choice-option-img"" stage=""1""></div><div class=""choice-option"" id=""choice-option-4"" > <img src=""images/definitely_new_1.png"" id=""choice-option-img-4"" class=""choice-option-img"" stage=""1""></div></div>","","0","instructions","","","","","","","","",""
"learning-instructions","11","59482","0.0-7.0-0.4","1687","2","""event"",""trial"",""time""
""fullscreenenter"",""1"",""2536""
","
","
","""event"",""trial"",""time""
""fullscreenenter"",""1"",""2536""
","
","","","","","","1648.1999999284744","<p> You should use the 1, 2, 3, and 4 keys to make your responses.  </p><div class=""mem-choice-instructions-grid""><div class=""choice-option"" id=""choice-option-1"" ><img src=""images/definitely_old.png"" id=""choice-option-img-1"" class=""choice-option-img"" stage=""1""></div><div class=""choice-option"" id=""choice-option-2"" ><img src=""images/maybe_old.png"" id=""choice-option-img-2"" class=""choice-option-img"" stage=""1""></div><div class=""choice-option"" id=""choice-option-3"" ><img src=""images/maybe_new.png"" id=""choice-option-img-3"" class=""choice-option-img"" stage=""1""></div><div class=""choice-option"" id=""choice-option-4"" > <img src=""images/definitely_new.png"" id=""choice-option-img-4"" class=""choice-option-img"" stage=""1""></div></div>","","0","instructions","","","","","","","","",""
"learning-instructions","12","66840","0.0-7.0-0.5","1687","2","""event"",""trial"",""time""
""fullscreenenter"",""1"",""2536""
","
","
","""event"",""trial"",""time""
""fullscreenenter"",""1"",""2536""
","
","","","","","","597.3000000715256","<p> You will have 10 seconds to make each response.  </p><p>  Make sure to respond before time runs out! </p>","","0","instructions","","","","","","","","",""
"learning-instructions","13","75368","0.0-7.0-0.6","1687","2","""event"",""trial"",""time""
""fullscreenenter"",""1"",""2536""
","
","
","""event"",""trial"",""time""
""fullscreenenter"",""1"",""2536""
","
","","","","","","944.7999999523163","<p> Today, you will see each image ONCE only.  </p><p>  That means none of the images will repeat. </p>","","0","instructions","","","","","","","","",""
"learning-instructions","14","88719","0.0-7.0-0.7","1687","2","""event"",""trial"",""time""
""fullscreenenter"",""1"",""2536""
","
","
","""event"",""trial"",""time""
""fullscreenenter"",""1"",""2536""
","
","","","","","","676.6000000238419","<p> Before you play the real game, it is time to practice. </p><p>  Just like in the real game, some of the images in the practice will be ones you have seen before. </p><p>  Others will be entirely new. </p>","","0","instructions","","","","","","","","",""
"html-button-response","15","90067","0.0-8.0","1687","2","""event"",""trial"",""time""
""fullscreenenter"",""1"",""2536""
","
","
","""event"",""trial"",""time""
""fullscreenenter"",""1"",""2536""
","
","","","","","","1237.7000000476837","<p> Ready to practice? </p><p> Remember, use the 1, 2, 3, and 4 keys to make your responses. </p>","0","","instructions","","","","","","","","",""
"html-keyboard-response","16","90683","0.0-9.0-0.0","1687","2","""event"",""trial"",""time""
""fullscreenenter"",""1"",""2536""
","
","
","""event"",""trial"",""time""
""fullscreenenter"",""1"",""2536""
","
","","","","","","null","<div style=""font-size:60px;"">+</div>","null","","fixation","","","","","","","","",""
"memory-trial","17","93604","0.0-9.0-1.0","1687","2","""event"",""trial"",""time""
""fullscreenenter"",""1"",""2536""
","
","
","""event"",""trial"",""time""
""fullscreenenter"",""1"",""2536""
","
","","","","","","1918.7999999523163","images/racket2.png","","","practice","4","definitely_new","","","","","","",""
"html-keyboard-response","18","94119","0.0-9.0-0.1","1687","2","""event"",""trial"",""time""
""fullscreenenter"",""1"",""2536""
","
","
","""event"",""trial"",""time""
""fullscreenenter"",""1"",""2536""
","
","","","","","","null","<div style=""font-size:60px;"">+</div>","null","","fixation","","","","","","","","",""
"memory-trial","19","96747","0.0-9.0-1.1","1687","2","""event"",""trial"",""time""
""fullscreenenter"",""1"",""2536""
","
","
","""event"",""trial"",""time""
""fullscreenenter"",""1"",""2536""
","
","","","","","","1611.1000000238419","images/racket1.png","","","practice","3","maybe_new","","","","","","",""
"html-keyboard-response","20","97249","0.0-9.0-0.2","1687","2","""event"",""trial"",""time""
""fullscreenenter"",""1"",""2536""
","
","
","""event"",""trial"",""time""
""fullscreenenter"",""1"",""2536""
","
","","","","","","null","<div style=""font-size:60px;"">+</div>","null","","fixation","","","","","","","","",""
"memory-trial","21","99672","0.0-9.0-1.2","1687","2","""event"",""trial"",""time""
""fullscreenenter"",""1"",""2536""
","
","
","""event"",""trial"",""time""
""fullscreenenter"",""1"",""2536""
","
","","","","","","1417.5","images/racket4.png","","","practice","2","maybe_old","","","","","","",""
"html-keyboard-response","22","100187","0.0-9.0-0.3","1687","2","""event"",""trial"",""time""
""fullscreenenter"",""1"",""2536""
","
","
","""event"",""trial"",""time""
""fullscreenenter"",""1"",""2536""
","
","","","","","","null","<div style=""font-size:60px;"">+</div>","null","","fixation","","","","","","","","",""
"memory-trial","23","102638","0.0-9.0-1.3","1687","2","""event"",""trial"",""time""
""fullscreenenter"",""1"",""2536""
","
","
","""event"",""trial"",""time""
""fullscreenenter"",""1"",""2536""
","
","","","","","","1447.8000000715256","images/ball4.png","","","practice","3","maybe_new","","","","","","",""
"html-keyboard-response","24","103140","0.0-9.0-0.4","1687","2","""event"",""trial"",""time""
""fullscreenenter"",""1"",""2536""
","
","
","""event"",""trial"",""time""
""fullscreenenter"",""1"",""2536""
","
","","","","","","null","<div style=""font-size:60px;"">+</div>","null","","fixation","","","","","","","","",""
"memory-trial","25","105526","0.0-9.0-1.4","1687","2","""event"",""trial"",""time""
""fullscreenenter"",""1"",""2536""
","
","
","""event"",""trial"",""time""
""fullscreenenter"",""1"",""2536""
","
","","","","","","1381.7999999523163","images/ball1.png","","","practice","4","definitely_new","","","","","","",""
"html-keyboard-response","26","106027","0.0-9.0-0.5","1687","2","""event"",""trial"",""time""
""fullscreenenter"",""1"",""2536""
","
","
","""event"",""trial"",""time""
""fullscreenenter"",""1"",""2536""
","
","","","","","","null","<div style=""font-size:60px;"">+</div>","null","","fixation","","","","","","","","",""
"memory-trial","27","109448","0.0-9.0-1.5","1687","2","""event"",""trial"",""time""
""fullscreenenter"",""1"",""2536""
","
","
","""event"",""trial"",""time""
""fullscreenenter"",""1"",""2536""
","
","","","","","","2407.5","images/ball2.png","","","practice","2","maybe_old","","","","","","",""
"html-keyboard-response","28","109962","0.0-9.0-0.6","1687","2","""event"",""trial"",""time""
""fullscreenenter"",""1"",""2536""
","
","
","""event"",""trial"",""time""
""fullscreenenter"",""1"",""2536""
","
","","","","","","null","<div style=""font-size:60px;"">+</div>","null","","fixation","","","","","","","","",""
"memory-trial","29","112069","0.0-9.0-1.6","1687","2","""event"",""trial"",""time""
""fullscreenenter"",""1"",""2536""
","
","
","""event"",""trial"",""time""
""fullscreenenter"",""1"",""2536""
","
","","","","","","1095.1999999284744","images/racket3.png","","","practice","1","definitely_old","","","","","","",""
"html-keyboard-response","30","112571","0.0-9.0-0.7","1687","2","""event"",""trial"",""time""
""fullscreenenter"",""1"",""2536""
","
","
","""event"",""trial"",""time""
""fullscreenenter"",""1"",""2536""
","
","","","","","","null","<div style=""font-size:60px;"">+</div>","null","","fixation","","","","","","","","",""
"memory-trial","31","114412","0.0-9.0-1.7","1687","2","""event"",""trial"",""time""
""fullscreenenter"",""1"",""2536""
","
","
","""event"",""trial"",""time""
""fullscreenenter"",""1"",""2536""
","
","","","","","","830.8999999761581","images/ball3.png","","","practice","1","definitely_old","","","","","","",""
"learning-instructions","32","123314","0.0-10.0-0.0","1687","2","""event"",""trial"",""time""
""fullscreenenter"",""1"",""2536""
","
","
","""event"",""trial"",""time""
""fullscreenenter"",""1"",""2536""
","
","","","","","","951.8000000715256","<p> Great! You have completed the practice. </p><p> Before you start, we're going to ask you a few questions about how the game works.  </p>","","0","instructions","","","","","","","","",""
"preload","33","125488","0.0-11.0","1687","2","""event"",""trial"",""time""
""fullscreenenter"",""1"",""2536""
","
","
","""event"",""trial"",""time""
""fullscreenenter"",""1"",""2536""
","
","true","false","[]","[]","[]","","","","","","","","","","","","","",""
"comp-q","34","132595","0.0-12.0-0.0","1687","2","""event"",""trial"",""time""
""fullscreenenter"",""1"",""2536""
","
","
","""event"",""trial"",""time""
""fullscreenenter"",""1"",""2536""
","
","","","","","","1281.7999999523163","<p> <b> True or False? </b> </p><p> In this game, you will only see each image once. </p>","","0","comp_question","","","true","","","","","",""
"comp-q","35","140826","0.0-12.0-1.0","1687","2","""event"",""trial"",""time""
""fullscreenenter"",""1"",""2536""
","
","
","""event"",""trial"",""time""
""fullscreenenter"",""1"",""2536""
","
","","","","","","1893.9000000953674","<p> <b> That's right! </b> You will see many different images <i> one time each </i> in this game. </p>","","0","comp_answer","","","","","","","","",""
"comp-q","36","147738","0.0-12.0-0.1","1687","2","""event"",""trial"",""time""
""fullscreenenter"",""1"",""2536""
","
","
","""event"",""trial"",""time""
""fullscreenenter"",""1"",""2536""
","
","","","","","","1106","<p> <b> True or False? </b> </p><p> You should use the mouse and click to make your response. </p>","","1","comp_question","","","true","","","","","",""
"comp-q","37","156636","0.0-12.0-1.1","1687","2","""event"",""trial"",""time""
""fullscreenenter"",""1"",""2536""
","
","
","""event"",""trial"",""time""
""fullscreenenter"",""1"",""2536""
","
","","","","","","1554.6000000238419","<p><b> That's right! </b> You should use the '1', '2', '3', and '4' keys to make your response. </p>","","0","comp_answer","","","","","","","","",""
"comp-q","38","164758","0.0-12.0-0.2","1687","2","""event"",""trial"",""time""
""fullscreenenter"",""1"",""2536""
","
","
","""event"",""trial"",""time""
""fullscreenenter"",""1"",""2536""
","
","","","","","","2126.2999999523163","<p> <b> True or False? </b> </p><p> You will have as much time as you want to make each choice. </p>","","1","comp_question","","","true","","","","","",""
"comp-q","39","171416","0.0-12.0-1.2","1687","2","""event"",""trial"",""time""
""fullscreenenter"",""1"",""2536""
","
","
","""event"",""trial"",""time""
""fullscreenenter"",""1"",""2536""
","
","","","","","","1274.7000000476837","<p> <b> That's right! </b> You will only have 10 seconds to make each choice. </p>","","0","comp_answer","","","","","","","","",""
"learning-instructions","40","181551","0.0-13.0","1687","2","""event"",""trial"",""time""
""fullscreenenter"",""1"",""2536""
","
","
","""event"",""trial"",""time""
""fullscreenenter"",""1"",""2536""
","
","","","","","","1458.7999999523163","<p> Great! You are now ready to begin the game. </p><p> Remember, use the 1, 2, 3, and 4 keys to make your responses. </p>","","0","instructions","","","","","","","","",""
"preload","41","186322","0.0-14.0","1687","2","""event"",""trial"",""time""
""fullscreenenter"",""1"",""2536""
","
","
","""event"",""trial"",""time""
""fullscreenenter"",""1"",""2536""
","
","true","false","[]","[]","[]","","","","","","","","","","","","","",""
"html-keyboard-response","42","186827","0.0-15.0-0.0","1687","2","""event"",""trial"",""time""
""fullscreenenter"",""1"",""2536""
","
","
","""event"",""trial"",""time""
""fullscreenenter"",""1"",""2536""
","
","","","","","","null","<div style=""font-size:60px;"">+</div>","null","","fixation","","","","","","","","",""
"memory-trial","43","189248","0.0-15.0-1.0","1687","2","""event"",""trial"",""time""
""fullscreenenter"",""1"",""2536""
","
","
","""event"",""trial"",""time""
""fullscreenenter"",""1"",""2536""
","
","","","","","","1413.3999999761581","images/rodent1.png","","","memory_trial","1","definitely_old","","","","","","",""
"html-keyboard-response","44","189751","0.0-15.0-0.1","1687","2","""event"",""trial"",""time""
""fullscreenenter"",""1"",""2536""
","
","
","""event"",""trial"",""time""
""fullscreenenter"",""1"",""2536""
","
","","","","","","null","<div style=""font-size:60px;"">+</div>","null","","fixation","","","","","","","","",""
"memory-trial","45","192407","0.0-15.0-1.1","1687","2","""event"",""trial"",""time""
""fullscreenenter"",""1"",""2536""
","
","
","""event"",""trial"",""time""
""fullscreenenter"",""1"",""2536""
","
","","","","","","1642.6000000238419","images/horse3.png","","","memory_trial","1","definitely_old","","","","","","",""
"html-keyboard-response","46","192920","0.0-15.0-0.2","1687","2","""event"",""trial"",""time""
""fullscreenenter"",""1"",""2536""
","
","
","""event"",""trial"",""time""
""fullscreenenter"",""1"",""2536""
","
","","","","","","null","<div style=""font-size:60px;"">+</div>","null","","fixation","","","","","","","","",""
"memory-trial","47","196278","0.0-15.0-1.2","1687","2","""event"",""trial"",""time""
""fullscreenenter"",""1"",""2536""
","
","
","""event"",""trial"",""time""
""fullscreenenter"",""1"",""2536""
","
","","","","","","2344.6999999284744","images/bush4.png","","","memory_trial","4","definitely_new","","","","","","",""
"html-keyboard-response","48","196792","0.0-15.0-0.3","1687","2","""event"",""trial"",""time""
""fullscreenenter"",""1"",""2536""
","
","
","""event"",""trial"",""time""
""fullscreenenter"",""1"",""2536""
","
","","","","","","null","<div style=""font-size:60px;"">+</div>","null","","fixation","","","","","","","","",""
"memory-trial","49","198895","0.0-15.0-1.3","1687","2","""event"",""trial"",""time""
""fullscreenenter"",""1"",""2536""
","
","
","""event"",""trial"",""time""
""fullscreenenter"",""1"",""2536""
","
","","","","","","1089","images/cow1.png","","","memory_trial","1","definitely_old","","","","","","",""
"html-keyboard-response","50","199396","0.0-15.0-0.4","1687","2","""event"",""trial"",""time""
""fullscreenenter"",""1"",""2536""
","
","
","""event"",""trial"",""time""
""fullscreenenter"",""1"",""2536""
","
","","","","","","null","<div style=""font-size:60px;"">+</div>","null","","fixation","","","","","","","","",""
"memory-trial","51","202160","0.0-15.0-1.4","1687","2","""event"",""trial"",""time""
""fullscreenenter"",""1"",""2536""
","
","
","""event"",""trial"",""time""
""fullscreenenter"",""1"",""2536""
","
","","","","","","1749.2000000476837","images/dog2.png","","","memory_trial","4","definitely_new","","","","","","",""
"html-keyboard-response","52","202661","0.0-15.0-0.5","1687","2","""event"",""trial"",""time""
""fullscreenenter"",""1"",""2536""
","
","
","""event"",""trial"",""time""
""fullscreenenter"",""1"",""2536""
","
","","","","","","null","<div style=""font-size:60px;"">+</div>","null","","fixation","","","","","","","","",""
"memory-trial","53","204789","0.0-15.0-1.5","1687","2","""event"",""trial"",""time""
""fullscreenenter"",""1"",""2536""
","
","
","""event"",""trial"",""time""
""fullscreenenter"",""1"",""2536""
","
","","","","","","1115.6999999284744","images/sheep3.png","","","memory_trial","2","maybe_old","","","","","","",""
"html-keyboard-response","54","205304","0.0-15.0-0.6","1687","2","""event"",""trial"",""time""
""fullscreenenter"",""1"",""2536""
","
","
","""event"",""trial"",""time""
""fullscreenenter"",""1"",""2536""
","
","","","","","","null","<div style=""font-size:60px;"">+</div>","null","","fixation","","","","","","","","",""
"memory-trial","55","207163","0.0-15.0-1.6","1687","2","""event"",""trial"",""time""
""fullscreenenter"",""1"",""2536""
","
","
","""event"",""trial"",""time""
""fullscreenenter"",""1"",""2536""
","
","","","","","","849.1000000238419","images/apple2.png","","","memory_trial","3","maybe_new","","","","","","",""
"html-keyboard-response","56","207679","0.0-15.0-0.7","1687","2","""event"",""trial"",""time""
""fullscreenenter"",""1"",""2536""
","
","
","""event"",""trial"",""time""
""fullscreenenter"",""1"",""2536""
","
","","","","","","null","<div style=""font-size:60px;"">+</div>","null","","fixation","","","","","","","","",""
"memory-trial","57","210580","0.0-15.0-1.7","1687","2","""event"",""trial"",""time""
""fullscreenenter"",""1"",""2536""
","
","
","""event"",""trial"",""time""
""fullscreenenter"",""1"",""2536""
","
","","","","","","1898.8999999761581","images/sofa1.png","","","memory_trial","1","definitely_old","","","","","","",""
"html-keyboard-response","58","211082","0.0-15.0-0.8","1687","2","""event"",""trial"",""time""
""fullscreenenter"",""1"",""2536""
","
","
","""event"",""trial"",""time""
""fullscreenenter"",""1"",""2536""
","
","","","","","","null","<div style=""font-size:60px;"">+</div>","null","","fixation","","","","","","","","",""
"memory-trial","59","213276","0.0-15.0-1.8","1687","2","""event"",""trial"",""time""
""fullscreenenter"",""1"",""2536""
","
","
","""event"",""trial"",""time""
""fullscreenenter"",""1"",""2536""
","
","","","","","","1191.6000000238419","images/orange3.png","","","memory_trial","2","maybe_old","","","","","","",""
"html-keyboard-response","60","213778","0.0-15.0-0.9","1687","2","""event"",""trial"",""time""
""fullscreenenter"",""1"",""2536""
","
","
","""event"",""trial"",""time""
""fullscreenenter"",""1"",""2536""
","
","","","","","","null","<div style=""font-size:60px;"">+</div>","null","","fixation","","","","","","","","",""
"memory-trial","61","215523","0.0-15.0-1.9","1687","2","""event"",""trial"",""time""
""fullscreenenter"",""1"",""2536""
","
","
","""event"",""trial"",""time""
""fullscreenenter"",""1"",""2536""
","
","","","","","","743.1999999284744","images/rabbit2.png","","","memory_trial","1","definitely_old","","","","","","",""
"html-keyboard-response","62","216025","0.0-15.0-0.10","1687","2","""event"",""trial"",""time""
""fullscreenenter"",""1"",""2536""
","
","
","""event"",""trial"",""time""
""fullscreenenter"",""1"",""2536""
","
","","","","","","null","<div style=""font-size:60px;"">+</div>","null","","fixation","","","","","","","","",""
"memory-trial","63","218236","0.0-15.0-1.10","1687","2","""event"",""trial"",""time""
""fullscreenenter"",""1"",""2536""
","
","
","""event"",""trial"",""time""
""fullscreenenter"",""1"",""2536""
","
","","","","","","1208.1999999284744","images/bed5.png","","","memory_trial","2","maybe_old","","","","","","",""
"html-keyboard-response","64","218736","0.0-15.0-0.11","1687","2","""event"",""trial"",""time""
""fullscreenenter"",""1"",""2536""
","
","
","""event"",""trial"",""time""
""fullscreenenter"",""1"",""2536""
","
","","","","","","null","<div style=""font-size:60px;"">+</div>","null","","fixation","","","","","","","","",""
"memory-trial","65","220404","0.0-15.0-1.11","1687","2","""event"",""trial"",""time""
""fullscreenenter"",""1"",""2536""
","
","
","""event"",""trial"",""time""
""fullscreenenter"",""1"",""2536""
","
","","","","","","665.2999999523163","images/sofa3.png","","","memory_trial","3","maybe_new","","","","","","",""
"html-keyboard-response","66","220905","0.0-15.0-0.12","1687","2","""event"",""trial"",""time""
""fullscreenenter"",""1"",""2536""
","
","
","""event"",""trial"",""time""
""fullscreenenter"",""1"",""2536""
","
","","","","","","null","<div style=""font-size:60px;"">+</div>","null","","fixation","","","","","","","","",""
"memory-trial","67","224217","0.0-15.0-1.12","1687","2","""event"",""trial"",""time""
""fullscreenenter"",""1"",""2536""
","
","
","""event"",""trial"",""time""
""fullscreenenter"",""1"",""2536""
","
","","","","","","2296.2999999523163","images/chair3.png","","","memory_trial","4","definitely_new","","","","","","",""
"html-keyboard-response","68","224718","0.0-15.0-0.13","1687","2","""event"",""trial"",""time""
""fullscreenenter"",""1"",""2536""
","
","
","""event"",""trial"",""time""
""fullscreenenter"",""1"",""2536""
","
","","","","","","null","<div style=""font-size:60px;"">+</div>","null","","fixation","","","","","","","","",""
"memory-trial","69","226228","0.0-15.0-1.13","1687","2","""event"",""trial"",""time""
""fullscreenenter"",""1"",""2536""
","
","
","""event"",""trial"",""time""
""fullscreenenter"",""1"",""2536""
","
","","","","","","507.2000000476837","images/train2.png","","","memory_trial","4","definitely_new","","","","","","",""
"html-keyboard-response","70","226730","0.0-15.0-0.14","1687","2","""event"",""trial"",""time""
""fullscreenenter"",""1"",""2536""
","
","
","""event"",""trial"",""time""
""fullscreenenter"",""1"",""2536""
","
","","","","","","null","<div style=""font-size:60px;"">+</div>","null","","fixation","","","","","","","","",""
"memory-trial","71","228100","0.0-15.0-1.14","1687","2","""event"",""trial"",""time""
""fullscreenenter"",""1"",""2536""
","
","
","""event"",""trial"",""time""
""fullscreenenter"",""1"",""2536""
","
","","","","","","367.60000002384186","images/chair1.png","","","memory_trial","1","definitely_old","","","","","","",""
"html-keyboard-response","72","228601","0.0-15.0-0.15","1687","2","""event"",""trial"",""time""
""fullscreenenter"",""1"",""2536""
","
","
","""event"",""trial"",""time""
""fullscreenenter"",""1"",""2536""
","
","","","","","","null","<div style=""font-size:60px;"">+</div>","null","","fixation","","","","","","","","",""
"memory-trial","73","230022","0.0-15.0-1.15","1687","2","""event"",""trial"",""time""
""fullscreenenter"",""1"",""2536""
","
","
","""event"",""trial"",""time""
""fullscreenenter"",""1"",""2536""
","
","","","","","","408.60000002384186","images/banana5.png","","","memory_trial","1","definitely_old","","","","","","",""
"html-keyboard-response","74","230524","0.0-15.0-0.16","1687","2","""event"",""trial"",""time""
""fullscreenenter"",""1"",""2536""
","
","
","""event"",""trial"",""time""
""fullscreenenter"",""1"",""2536""
","
","","","","","","null","<div style=""font-size:60px;"">+</div>","null","","fixation","","","","","","","","",""
"memory-trial","75","232179","0.0-15.0-1.16","1687","2","""event"",""trial"",""time""
""fullscreenenter"",""1"",""2536""
","
","
","""event"",""trial"",""time""
""fullscreenenter"",""1"",""2536""
","
","","","","","","653.4000000953674","images/train4.png","","","memory_trial","2","maybe_old","","","","","","",""
"html-keyboard-response","76","232681","0.0-15.0-0.17","1687","2","""event"",""trial"",""time""
""fullscreenenter"",""1"",""2536""
","
","
","""event"",""trial"",""time""
""fullscreenenter"",""1"",""2536""
","
","","","","","","null","<div style=""font-size:60px;"">+</div>","null","","fixation","","","","","","","","",""
"memory-trial","77","234076","0.0-15.0-1.17","1687","2","""event"",""trial"",""time""
""fullscreenenter"",""1"",""2536""
","
","
","""event"",""trial"",""time""
""fullscreenenter"",""1"",""2536""
","
","","","","","","392.7999999523163","images/cactus3.png","","","memory_trial","3","maybe_new","","","","","","",""
"html-keyboard-response","78","234577","0.0-15.0-0.18","1687","2","""event"",""trial"",""time""
""fullscreenenter"",""1"",""2536""
","
","
","""event"",""trial"",""time""
""fullscreenenter"",""1"",""2536""
","
","","","","","","null","<div style=""font-size:60px;"">+</div>","null","","fixation","","","","","","","","",""
"memory-trial","79","236099","0.0-15.0-1.18","1687","2","""event"",""trial"",""time""
""fullscreenenter"",""1"",""2536""
","
","
","""event"",""trial"",""time""
""fullscreenenter"",""1"",""2536""
","
","","","","","","520.8999999761581","images/truck1.png","","","memory_trial","1","definitely_old","","","","","","",""
"html-keyboard-response","80","236601","0.0-15.0-0.19","1687","2","""event"",""trial"",""time""
""fullscreenenter"",""1"",""2536""
","
","
","""event"",""trial"",""time""
""fullscreenenter"",""1"",""2536""
","
","","","","","","null","<div style=""font-size:60px;"">+</div>","null","","fixation","","","","","","","","",""
"memory-trial","81","238258","0.0-15.0-1.19","1687","2","""event"",""trial"",""time""
""fullscreenenter"",""1"",""2536""
","
","
","""event"",""trial"",""time""
""fullscreenenter"",""1"",""2536""
","
","","","","","","656.3999999761581","images/rodent5.png","","","memory_trial","2","maybe_old","","","","","","",""
"html-keyboard-response","82","238759","0.0-15.0-0.20","1687","2","""event"",""trial"",""time""
""fullscreenenter"",""1"",""2536""
","
","
","""event"",""trial"",""time""
""fullscreenenter"",""1"",""2536""
","
","","","","","","null","<div style=""font-size:60px;"">+</div>","null","","fixation","","","","","","","","",""
"memory-trial","83","240633","0.0-15.0-1.20","1687","2","""event"",""trial"",""time""
""fullscreenenter"",""1"",""2536""
","
","
","""event"",""trial"",""time""
""fullscreenenter"",""1"",""2536""
","
","","","","","","866.3999999761581","images/sheep2.png","","","memory_trial","2","maybe_old","","","","","","",""
"html-keyboard-response","84","241134","0.0-15.0-0.21","1687","2","""event"",""trial"",""time""
""fullscreenenter"",""1"",""2536""
","
","
","""event"",""trial"",""time""
""fullscreenenter"",""1"",""2536""
","
","","","","","","null","<div style=""font-size:60px;"">+</div>","null","","fixation","","","","","","","","",""
"memory-trial","85","242828","0.0-15.0-1.21","1687","2","""event"",""trial"",""time""
""fullscreenenter"",""1"",""2536""
","
","
","""event"",""trial"",""time""
""fullscreenenter"",""1"",""2536""
","
","","","","","","691.1999999284744","images/boat3.png","","","memory_trial","3","maybe_new","","","","","","",""
"html-keyboard-response","86","243329","0.0-15.0-0.22","1687","2","""event"",""trial"",""time""
""fullscreenenter"",""1"",""2536""
","
","
","""event"",""trial"",""time""
""fullscreenenter"",""1"",""2536""
","
","","","","","","null","<div style=""font-size:60px;"">+</div>","null","","fixation","","","","","","","","",""
"memory-trial","87","245395","0.0-15.0-1.22","1687","2","""event"",""trial"",""time""
""fullscreenenter"",""1"",""2536""
","
","
","""event"",""trial"",""time""
""fullscreenenter"",""1"",""2536""
","
","","","","","","1064.2999999523163","images/bed3.png","","","memory_trial","1","definitely_old","","","","","","",""
"html-keyboard-response","88","245897","0.0-15.0-0.23","1687","2","""event"",""trial"",""time""
""fullscreenenter"",""1"",""2536""
","
","
","""event"",""trial"",""time""
""fullscreenenter"",""1"",""2536""
","
","","","","","","null","<div style=""font-size:60px;"">+</div>","null","","fixation","","","","","","","","",""
"memory-trial","89","247779","0.0-15.0-1.23","1687","2","""event"",""trial"",""time""
""fullscreenenter"",""1"",""2536""
","
","
","""event"",""trial"",""time""
""fullscreenenter"",""1"",""2536""
","
","","","","","","879.6999999284744","images/sofa2.png","","","memory_trial","3","maybe_new","","","","","","",""
"html-keyboard-response","90","248281","0.0-15.0-0.24","1687","2","""event"",""trial"",""time""
""fullscreenenter"",""1"",""2536""
","
","
","""event"",""trial"",""time""
""fullscreenenter"",""1"",""2536""
","
","","","","","","null","<div style=""font-size:60px;"">+</div>","null","","fixation","","","","","","","","",""
"memory-trial","91","250963","0.0-15.0-1.24","1687","2","""event"",""trial"",""time""
""fullscreenenter"",""1"",""2536""
","
","
","""event"",""trial"",""time""
""fullscreenenter"",""1"",""2536""
","
","","","","","","1680.3999999761581","images/bed1.png","","","memory_trial","4","definitely_new","","","","","","",""
"html-keyboard-response","92","251465","0.0-15.0-0.25","1687","2","""event"",""trial"",""time""
""fullscreenenter"",""1"",""2536""
","
","
","""event"",""trial"",""time""
""fullscreenenter"",""1"",""2536""
","
","","","","","","null","<div style=""font-size:60px;"">+</div>","null","","fixation","","","","","","","","",""
"memory-trial","93","252891","0.0-15.0-1.25","1687","2","""event"",""trial"",""time""
""fullscreenenter"",""1"",""2536""
","
","
","""event"",""trial"",""time""
""fullscreenenter"",""1"",""2536""
","
","","","","","","425.09999990463257","images/orange4.png","","","memory_trial","3","maybe_new","","","","","","",""
"html-keyboard-response","94","253393","0.0-15.0-0.26","1687","2","""event"",""trial"",""time""
""fullscreenenter"",""1"",""2536""
","
","
","""event"",""trial"",""time""
""fullscreenenter"",""1"",""2536""
","
","","","","","","null","<div style=""font-size:60px;"">+</div>","null","","fixation","","","","","","","","",""
"memory-trial","95","254708","0.0-15.0-1.26","1687","2","""event"",""trial"",""time""
""fullscreenenter"",""1"",""2536""
","
","
","""event"",""trial"",""time""
""fullscreenenter"",""1"",""2536""
","
","","","","","","313","images/horse1.png","","","memory_trial","1","definitely_old","","","","","","",""
"html-keyboard-response","96","255209","0.0-15.0-0.27","1687","2","""event"",""trial"",""time""
""fullscreenenter"",""1"",""2536""
","
","
","""event"",""trial"",""time""
""fullscreenenter"",""1"",""2536""
","
","","","","","","null","<div style=""font-size:60px;"">+</div>","null","","fixation","","","","","","","","",""
"memory-trial","97","257883","0.0-15.0-1.27","1687","2","""event"",""trial"",""time""
""fullscreenenter"",""1"",""2536""
","
","
","""event"",""trial"",""time""
""fullscreenenter"",""1"",""2536""
","
","","","","","","1672.1000000238419","images/apple4.png","","","memory_trial","4","definitely_new","","","","","","",""
"html-keyboard-response","98","258385","0.0-15.0-0.28","1687","2","""event"",""trial"",""time""
""fullscreenenter"",""1"",""2536""
","
","
","""event"",""trial"",""time""
""fullscreenenter"",""1"",""2536""
","
","","","","","","null","<div style=""font-size:60px;"">+</div>","null","","fixation","","","","","","","","",""
"memory-trial","99","260027","0.0-15.0-1.28","1687","2","""event"",""trial"",""time""
""fullscreenenter"",""1"",""2536""
","
","
","""event"",""trial"",""time""
""fullscreenenter"",""1"",""2536""
","
","","","","","","640.5","images/cow2.png","","","memory_trial","1","definitely_old","","","","","","",""
"html-keyboard-response","100","260529","0.0-15.0-0.29","1687","2","""event"",""trial"",""time""
""fullscreenenter"",""1"",""2536""
","
","
","""event"",""trial"",""time""
""fullscreenenter"",""1"",""2536""
","
","","","","","","null","<div style=""font-size:60px;"">+</div>","null","","fixation","","","","","","","","",""
"memory-trial","101","262092","0.0-15.0-1.29","1687","2","""event"",""trial"",""time""
""fullscreenenter"",""1"",""2536""
","
","
","""event"",""trial"",""time""
""fullscreenenter"",""1"",""2536""
","
","","","","","","560.6000000238419","images/flower1.png","","","memory_trial","2","maybe_old","","","","","","",""
"html-keyboard-response","102","262593","0.0-15.0-0.30","1687","2","""event"",""trial"",""time""
""fullscreenenter"",""1"",""2536""
","
","
","""event"",""trial"",""time""
""fullscreenenter"",""1"",""2536""
","
","","","","","","null","<div style=""font-size:60px;"">+</div>","null","","fixation","","","","","","","","",""
"memory-trial","103","263819","0.0-15.0-1.30","1687","2","""event"",""trial"",""time""
""fullscreenenter"",""1"",""2536""
","
","
","""event"",""trial"",""time""
""fullscreenenter"",""1"",""2536""
","
","","","","","","224.60000002384186","images/train3.png","","","memory_trial","3","maybe_new","","","","","","",""
"html-keyboard-response","104","264320","0.0-15.0-0.31","1687","2","""event"",""trial"",""time""
""fullscreenenter"",""1"",""2536""
","
","
","""event"",""trial"",""time""
""fullscreenenter"",""1"",""2536""
","
","","","","","","null","<div style=""font-size:60px;"">+</div>","null","","fixation","","","","","","","","",""
"memory-trial","105","266716","0.0-15.0-1.31","1687","2","""event"",""trial"",""time""
""fullscreenenter"",""1"",""2536""
","
","
","""event"",""trial"",""time""
""fullscreenenter"",""1"",""2536""
","
","","","","","","1393.4000000953674","images/goat2.png","","","memory_trial","4","definitely_new","","","","","","",""
"html-keyboard-response","106","267232","0.0-15.0-0.32","1687","2","""event"",""trial"",""time""
""fullscreenenter"",""1"",""2536""
","
","
","""event"",""trial"",""time""
""fullscreenenter"",""1"",""2536""
","
","","","","","","null","<div style=""font-size:60px;"">+</div>","null","","fixation","","","","","","","","",""
"memory-trial","107","268852","0.0-15.0-1.32","1687","2","""event"",""trial"",""time""
""fullscreenenter"",""1"",""2536""
","
","
","""event"",""trial"",""time""
""fullscreenenter"",""1"",""2536""
","
","","","","","","617.5","images/boat2.png","","","memory_trial","1","definitely_old","","","","","","",""
"html-keyboard-response","108","269353","0.0-15.0-0.33","1687","2","""event"",""trial"",""time""
""fullscreenenter"",""1"",""2536""
","
","
","""event"",""trial"",""time""
""fullscreenenter"",""1"",""2536""
","
","","","","","","null","<div style=""font-size:60px;"">+</div>","null","","fixation","","","","","","","","",""
"memory-trial","109","271452","0.0-15.0-1.33","1687","2","""event"",""trial"",""time""
""fullscreenenter"",""1"",""2536""
","
","
","""event"",""trial"",""time""
""fullscreenenter"",""1"",""2536""
","
","","","","","","1096.3999999761581","images/bush3.png","","","memory_trial","3","maybe_new","","","","","","",""
"html-keyboard-response","110","271953","0.0-15.0-0.34","1687","2","""event"",""trial"",""time""
""fullscreenenter"",""1"",""2536""
","
","
","""event"",""trial"",""time""
""fullscreenenter"",""1"",""2536""
","
","","","","","","null","<div style=""font-size:60px;"">+</div>","null","","fixation","","","","","","","","",""
"memory-trial","111","273892","0.0-15.0-1.34","1687","2","""event"",""trial"",""time""
""fullscreenenter"",""1"",""2536""
","
","
","""event"",""trial"",""time""
""fullscreenenter"",""1"",""2536""
","
","","","","","","937.2999999523163","images/rabbit3.png","","","memory_trial","2","maybe_old","","","","","","",""
"html-keyboard-response","112","274406","0.0-15.0-0.35","1687","2","""event"",""trial"",""time""
""fullscreenenter"",""1"",""2536""
","
","
","""event"",""trial"",""time""
""fullscreenenter"",""1"",""2536""
","
","","","","","","null","<div style=""font-size:60px;"">+</div>","null","","fixation","","","","","","","","",""
"memory-trial","113","276827","0.0-15.0-1.35","1687","2","""event"",""trial"",""time""
""fullscreenenter"",""1"",""2536""
","
","
","""event"",""trial"",""time""
""fullscreenenter"",""1"",""2536""
","
","","","","","","1419.6999999284744","images/dog1.png","","","memory_trial","3","maybe_new","","","","","","",""
"html-keyboard-response","114","277329","0.0-15.0-0.36","1687","2","""event"",""trial"",""time""
""fullscreenenter"",""1"",""2536""
","
","
","""event"",""trial"",""time""
""fullscreenenter"",""1"",""2536""
","
","","","","","","null","<div style=""font-size:60px;"">+</div>","null","","fixation","","","","","","","","",""
"memory-trial","115","278620","0.0-15.0-1.36","1687","2","""event"",""trial"",""time""
""fullscreenenter"",""1"",""2536""
","
","
","""event"",""trial"",""time""
""fullscreenenter"",""1"",""2536""
","
","","","","","","280.89999997615814","images/truck5.png","","","memory_trial","3","maybe_new","","","","","","",""
"html-keyboard-response","116","279121","0.0-15.0-0.37","1687","2","""event"",""trial"",""time""
""fullscreenenter"",""1"",""2536""
","
","
","""event"",""trial"",""time""
""fullscreenenter"",""1"",""2536""
","
","","","","","","null","<div style=""font-size:60px;"">+</div>","null","","fixation","","","","","","","","",""
"memory-trial","117","280267","0.0-15.0-1.37","1687","2","""event"",""trial"",""time""
""fullscreenenter"",""1"",""2536""
","
","
","""event"",""trial"",""time""
""fullscreenenter"",""1"",""2536""
","
","","","","","","144.29999995231628","images/straw3.png","","","memory_trial","4","definitely_new","","","","","","",""
"html-keyboard-response","118","280768","0.0-15.0-0.38","1687","2","""event"",""trial"",""time""
""fullscreenenter"",""1"",""2536""
","
","
","""event"",""trial"",""time""
""fullscreenenter"",""1"",""2536""
","
","","","","","","null","<div style=""font-size:60px;"">+</div>","null","","fixation","","","","","","","","",""
"memory-trial","119","282389","0.0-15.0-1.38","1687","2","""event"",""trial"",""time""
""fullscreenenter"",""1"",""2536""
","
","
","""event"",""trial"",""time""
""fullscreenenter"",""1"",""2536""
","
","","","","","","617.7000000476837","images/banana1.png","","","memory_trial","1","definitely_old","","","","","","",""
"html-keyboard-response","120","282890","0.0-15.0-0.39","1687","2","""event"",""trial"",""time""
""fullscreenenter"",""1"",""2536""
","
","
","""event"",""trial"",""time""
""fullscreenenter"",""1"",""2536""
","
","","","","","","null","<div style=""font-size:60px;"">+</div>","null","","fixation","","","","","","","","",""
"memory-trial","121","285540","0.0-15.0-1.39","1687","2","""event"",""trial"",""time""
""fullscreenenter"",""1"",""2536""
","
","
","""event"",""trial"",""time""
""fullscreenenter"",""1"",""2536""
","
","","","","","","1647.6000000238419","images/flower2.png","","","memory_trial","4","definitely_new","","","","","","",""
"html-keyboard-response","122","286042","0.0-15.0-0.40","1687","2","""event"",""trial"",""time""
""fullscreenenter"",""1"",""2536""
","
","
","""event"",""trial"",""time""
""fullscreenenter"",""1"",""2536""
","
","","","","","","null","<div style=""font-size:60px;"">+</div>","null","","fixation","","","","","","","","",""
"memory-trial","123","287907","0.0-15.0-1.40","1687","2","""event"",""trial"",""time""
""fullscreenenter"",""1"",""2536""
","
","
","""event"",""trial"",""time""
""fullscreenenter"",""1"",""2536""
","
","","","","","","863.4000000953674","images/rabbit4.png","","","memory_trial","4","definitely_new","","","","","","",""
"html-keyboard-response","124","288408","0.0-15.0-0.41","1687","2","""event"",""trial"",""time""
""fullscreenenter"",""1"",""2536""
","
","
","""event"",""trial"",""time""
""fullscreenenter"",""1"",""2536""
","
","","","","","","null","<div style=""font-size:60px;"">+</div>","null","","fixation","","","","","","","","",""
"memory-trial","125","290139","0.0-15.0-1.41","1687","2","""event"",""trial"",""time""
""fullscreenenter"",""1"",""2536""
","
","
","""event"",""trial"",""time""
""fullscreenenter"",""1"",""2536""
","
","","","","","","729.6000000238419","images/train1.png","","","memory_trial","1","definitely_old","","","","","","",""
"html-keyboard-response","126","290641","0.0-15.0-0.42","1687","2","""event"",""trial"",""time""
""fullscreenenter"",""1"",""2536""
","
","
","""event"",""trial"",""time""
""fullscreenenter"",""1"",""2536""
","
","","","","","","null","<div style=""font-size:60px;"">+</div>","null","","fixation","","","","","","","","",""
"memory-trial","127","292748","0.0-15.0-1.42","1687","2","""event"",""trial"",""time""
""fullscreenenter"",""1"",""2536""
","
","
","""event"",""trial"",""time""
""fullscreenenter"",""1"",""2536""
","
","","","","","","1105.1999999284744","images/feline2.png","","","memory_trial","4","definitely_new","","","","","","",""
"html-keyboard-response","128","293250","0.0-15.0-0.43","1687","2","""event"",""trial"",""time""
""fullscreenenter"",""1"",""2536""
","
","
","""event"",""trial"",""time""
""fullscreenenter"",""1"",""2536""
","
","","","","","","null","<div style=""font-size:60px;"">+</div>","null","","fixation","","","","","","","","",""
"memory-trial","129","295068","0.0-15.0-1.43","1687","2","""event"",""trial"",""time""
""fullscreenenter"",""1"",""2536""
","
","
","""event"",""trial"",""time""
""fullscreenenter"",""1"",""2536""
","
","","","","","","815.7999999523163","images/cow3.png","","","memory_trial","3","maybe_new","","","","","","",""
"html-keyboard-response","130","295568","0.0-15.0-0.44","1687","2","""event"",""trial"",""time""
""fullscreenenter"",""1"",""2536""
","
","
","""event"",""trial"",""time""
""fullscreenenter"",""1"",""2536""
","
","","","","","","null","<div style=""font-size:60px;"">+</div>","null","","fixation","","","","","","","","",""
"memory-trial","131","296992","0.0-15.0-1.44","1687","2","""event"",""trial"",""time""
""fullscreenenter"",""1"",""2536""
","
","
","""event"",""trial"",""time""
""fullscreenenter"",""1"",""2536""
","
","","","","","","409.7999999523163","images/orange1.png","","","memory_trial","1","definitely_old","","","","","","",""
"html-keyboard-response","132","297508","0.0-15.0-0.45","1687","2","""event"",""trial"",""time""
""fullscreenenter"",""1"",""2536""
","
","
","""event"",""trial"",""time""
""fullscreenenter"",""1"",""2536""
","
","","","","","","null","<div style=""font-size:60px;"">+</div>","null","","fixation","","","","","","","","",""
"memory-trial","133","298827","0.0-15.0-1.45","1687","2","""event"",""trial"",""time""
""fullscreenenter"",""1"",""2536""
","
","
","""event"",""trial"",""time""
""fullscreenenter"",""1"",""2536""
","
","","","","","","318.3000000715256","images/sheep5.png","","","memory_trial","1","definitely_old","","","","","","",""
"html-keyboard-response","134","299328","0.0-15.0-0.46","1687","2","""event"",""trial"",""time""
""fullscreenenter"",""1"",""2536""
","
","
","""event"",""trial"",""time""
""fullscreenenter"",""1"",""2536""
","
","","","","","","null","<div style=""font-size:60px;"">+</div>","null","","fixation","","","","","","","","",""
"memory-trial","135","301691","0.0-15.0-1.46","1687","2","""event"",""trial"",""time""
""fullscreenenter"",""1"",""2536""
","
","
","""event"",""trial"",""time""
""fullscreenenter"",""1"",""2536""
","
","","","","","","1361.1000000238419","images/feline3.png","","","memory_trial","2","maybe_old","","","","","","",""
"html-button-response","136","305565","0.0-15.0-2.46-0.46","1687","2","""event"",""trial"",""time""
""fullscreenenter"",""1"",""2536""
","
","
","""event"",""trial"",""time""
""fullscreenenter"",""1"",""2536""
","
","","","","","","3873.100000023842","<p> Take a break! </p><p> Click the button to continue. </p>","0","","break","","","","","","","","",""
"html-keyboard-response","137","306065","0.0-15.0-0.47","1687","2","""event"",""trial"",""time""
""fullscreenenter"",""1"",""2536""
","
","
","""event"",""trial"",""time""
""fullscreenenter"",""1"",""2536""
","
","","","","","","null","<div style=""font-size:60px;"">+</div>","null","","fixation","","","","","","","","",""
"memory-trial","138","308204","0.0-15.0-1.47","1687","2","""event"",""trial"",""time""
""fullscreenenter"",""1"",""2536""
","
","
","""event"",""trial"",""time""
""fullscreenenter"",""1"",""2536""
","
","","","","","","1135.7000000476837","images/cow4.png","","","memory_trial","2","maybe_old","","","","","","",""
"html-keyboard-response","139","308705","0.0-15.0-0.48","1687","2","""event"",""trial"",""time""
""fullscreenenter"",""1"",""2536""
","
","
","""event"",""trial"",""time""
""fullscreenenter"",""1"",""2536""
","
","","","","","","null","<div style=""font-size:60px;"">+</div>","null","","fixation","","","","","","","","",""
"memory-trial","140","310068","0.0-15.0-1.48","1687","2","""event"",""trial"",""time""
""fullscreenenter"",""1"",""2536""
","
","
","""event"",""trial"",""time""
""fullscreenenter"",""1"",""2536""
","
","","","","","","360.60000002384186","images/dog4.png","","","memory_trial","4","definitely_new","","","","","","",""
"html-keyboard-response","141","310569","0.0-15.0-0.49","1687","2","""event"",""trial"",""time""
""fullscreenenter"",""1"",""2536""
","
","
","""event"",""trial"",""time""
""fullscreenenter"",""1"",""2536""
","
","","","","","","null","<div style=""font-size:60px;"">+</div>","null","","fixation","","","","","","","","",""
"memory-trial","142","311947","0.0-15.0-1.49","1687","2","""event"",""trial"",""time""
""fullscreenenter"",""1"",""2536""
","
","
","""event"",""trial"",""time""
""fullscreenenter"",""1"",""2536""
","
","","","","","","376.5","images/chair5.png","","","memory_trial","3","maybe_new","","","","","","",""
"html-keyboard-response","143","312450","0.0-15.0-0.50","1687","2","""event"",""trial"",""time""
""fullscreenenter"",""1"",""2536""
","
","
","""event"",""trial"",""time""
""fullscreenenter"",""1"",""2536""
","
","","","","","","null","<div style=""font-size:60px;"">+</div>","null","","fixation","","","","","","","","",""
"memory-trial","144","313500","0.0-15.0-1.50","1687","2","""event"",""trial"",""time""
""fullscreenenter"",""1"",""2536""
","
","
","""event"",""trial"",""time""
""fullscreenenter"",""1"",""2536""
","
","","","","","","47.39999997615814","images/banana4.png","","","memory_trial","1","definitely_old","","","","","","",""
"html-keyboard-response","145","314001","0.0-15.0-0.51","1687","2","""event"",""trial"",""time""
""fullscreenenter"",""1"",""2536""
","
","
","""event"",""trial"",""time""
""fullscreenenter"",""1"",""2536""
","
","","","","","","null","<div style=""font-size:60px;"">+</div>","null","","fixation","","","","","","","","",""
"memory-trial","146","315268","0.0-15.0-1.51","1687","2","""event"",""trial"",""time""
""fullscreenenter"",""1"",""2536""
","
","
","""event"",""trial"",""time""
""fullscreenenter"",""1"",""2536""
","
","","","","","","264.89999997615814","images/cactus4.png","","","memory_trial","1","definitely_old","","","","","","",""
"html-keyboard-response","147","315769","0.0-15.0-0.52","1687","2","""event"",""trial"",""time""
""fullscreenenter"",""1"",""2536""
","
","
","""event"",""trial"",""time""
""fullscreenenter"",""1"",""2536""
","
","","","","","","null","<div style=""font-size:60px;"">+</div>","null","","fixation","","","","","","","","",""
"memory-trial","148","317381","0.0-15.0-1.52","1687","2","""event"",""trial"",""time""
""fullscreenenter"",""1"",""2536""
","
","
","""event"",""trial"",""time""
""fullscreenenter"",""1"",""2536""
","
","","","","","","608.1000000238419","images/apple1.png","","","memory_trial","3","maybe_new","","","","","","",""
"html-keyboard-response","149","317883","0.0-15.0-0.53","1687","2","""event"",""trial"",""time""
""fullscreenenter"",""1"",""2536""
","
","
","""event"",""trial"",""time""
""fullscreenenter"",""1"",""2536""
","
","","","","","","null","<div style=""font-size:60px;"">+</div>","null","","fixation","","","","","","","","",""
"memory-trial","150","320396","0.0-15.0-1.53","1687","2","""event"",""trial"",""time""
""fullscreenenter"",""1"",""2536""
","
","
","""event"",""trial"",""time""
""fullscreenenter"",""1"",""2536""
","
","","","","","","1511","images/straw5.png","","","memory_trial","4","definitely_new","","","","","","",""
"html-keyboard-response","151","320897","0.0-15.0-0.54","1687","2","""event"",""trial"",""time""
""fullscreenenter"",""1"",""2536""
","
","
","""event"",""trial"",""time""
""fullscreenenter"",""1"",""2536""
","
","","","","","","null","<div style=""font-size:60px;"">+</div>","null","","fixation","","","","","","","","",""
"memory-trial","152","323731","0.0-15.0-1.54","1687","2","""event"",""trial"",""time""
""fullscreenenter"",""1"",""2536""
","
","
","""event"",""trial"",""time""
""fullscreenenter"",""1"",""2536""
","
","","","","","","1832.3999999761581","images/feline4.png","","","memory_trial","4","definitely_new","","","","","","",""
"html-keyboard-response","153","324232","0.0-15.0-0.55","1687","2","""event"",""trial"",""time""
""fullscreenenter"",""1"",""2536""
","
","
","""event"",""trial"",""time""
""fullscreenenter"",""1"",""2536""
","
","","","","","","null","<div style=""font-size:60px;"">+</div>","null","","fixation","","","","","","","","",""
"memory-trial","154","325917","0.0-15.0-1.55","1687","2","""event"",""trial"",""time""
""fullscreenenter"",""1"",""2536""
","
","
","""event"",""trial"",""time""
""fullscreenenter"",""1"",""2536""
","
","","","","","","681.3999999761581","images/apple5.png","","","memory_trial","1","definitely_old","","","","","","",""
"html-keyboard-response","155","326418","0.0-15.0-0.56","1687","2","""event"",""trial"",""time""
""fullscreenenter"",""1"",""2536""
","
","
","""event"",""trial"",""time""
""fullscreenenter"",""1"",""2536""
","
","","","","","","null","<div style=""font-size:60px;"">+</div>","null","","fixation","","","","","","","","",""
"memory-trial","156","327556","0.0-15.0-1.56","1687","2","""event"",""trial"",""time""
""fullscreenenter"",""1"",""2536""
","
","
","""event"",""trial"",""time""
""fullscreenenter"",""1"",""2536""
","
","","","","","","135.30000007152557","images/bush1.png","","","memory_trial","4","definitely_new","","","","","","",""
"html-keyboard-response","157","328058","0.0-15.0-0.57","1687","2","""event"",""trial"",""time""
""fullscreenenter"",""1"",""2536""
","
","
","""event"",""trial"",""time""
""fullscreenenter"",""1"",""2536""
","
","","","","","","null","<div style=""font-size:60px;"">+</div>","null","","fixation","","","","","","","","",""
"memory-trial","158","329459","0.0-15.0-1.57","1687","2","""event"",""trial"",""time""
""fullscreenenter"",""1"",""2536""
","
","
","""event"",""trial"",""time""
""fullscreenenter"",""1"",""2536""
","
","","","","","","400.10000002384186","images/apple3.png","","","memory_trial","3","maybe_new","","","","","","",""
"html-keyboard-response","159","329960","0.0-15.0-0.58","1687","2","""event"",""trial"",""time""
""fullscreenenter"",""1"",""2536""
","
","
","""event"",""trial"",""time""
""fullscreenenter"",""1"",""2536""
","
","","","","","","null","<div style=""font-size:60px;"">+</div>","null","","fixation","","","","","","","","",""
"memory-trial","160","331140","0.0-15.0-1.58","1687","2","""event"",""trial"",""time""
""fullscreenenter"",""1"",""2536""
","
","
","""event"",""trial"",""time""
""fullscreenenter"",""1"",""2536""
","
","","","","","","177.90000009536743","images/truck3.png","","","memory_trial","2","maybe_old","","","","","","",""
"html-keyboard-response","161","331641","0.0-15.0-0.59","1687","2","""event"",""trial"",""time""
""fullscreenenter"",""1"",""2536""
","
","
","""event"",""trial"",""time""
""fullscreenenter"",""1"",""2536""
","
","","","","","","null","<div style=""font-size:60px;"">+</div>","null","","fixation","","","","","","","","",""
"memory-trial","162","333348","0.0-15.0-1.59","1687","2","""event"",""trial"",""time""
""fullscreenenter"",""1"",""2536""
","
","
","""event"",""trial"",""time""
""fullscreenenter"",""1"",""2536""
","
","","","","","","704.6000000238419","images/table1.png","","","memory_trial","1","definitely_old","","","","","","",""
"html-keyboard-response","163","333849","0.0-15.0-0.60","1687","2","""event"",""trial"",""time""
""fullscreenenter"",""1"",""2536""
","
","
","""event"",""trial"",""time""
""fullscreenenter"",""1"",""2536""
","
","","","","","","null","<div style=""font-size:60px;"">+</div>","null","","fixation","","","","","","","","",""
"memory-trial","164","335587","0.0-15.0-1.60","1687","2","""event"",""trial"",""time""
""fullscreenenter"",""1"",""2536""
","
","
","""event"",""trial"",""time""
""fullscreenenter"",""1"",""2536""
","
","","","","","","736.8000000715256","images/table3.png","","","memory_trial","1","definitely_old","","","","","","",""
"html-keyboard-response","165","336088","0.0-15.0-0.61","1687","2","""event"",""trial"",""time""
""fullscreenenter"",""1"",""2536""
","
","
","""event"",""trial"",""time""
""fullscreenenter"",""1"",""2536""
","
","","","","","","null","<div style=""font-size:60px;"">+</div>","null","","fixation","","","","","","","","",""
"memory-trial","166","337723","0.0-15.0-1.61","1687","2","""event"",""trial"",""time""
""fullscreenenter"",""1"",""2536""
","
","
","""event"",""trial"",""time""
""fullscreenenter"",""1"",""2536""
","
","","","","","","632.6000000238419","images/cactus5.png","","","memory_trial","2","maybe_old","","","","","","",""
"html-keyboard-response","167","338224","0.0-15.0-0.62","1687","2","""event"",""trial"",""time""
""fullscreenenter"",""1"",""2536""
","
","
","""event"",""trial"",""time""
""fullscreenenter"",""1"",""2536""
","
","","","","","","null","<div style=""font-size:60px;"">+</div>","null","","fixation","","","","","","","","",""
"memory-trial","168","339603","0.0-15.0-1.62","1687","2","""event"",""trial"",""time""
""fullscreenenter"",""1"",""2536""
","
","
","""event"",""trial"",""time""
""fullscreenenter"",""1"",""2536""
","
","","","","","","377.2000000476837","images/goat1.png","","","memory_trial","3","maybe_new","","","","","","",""
"html-keyboard-response","169","340104","0.0-15.0-0.63","1687","2","""event"",""trial"",""time""
""fullscreenenter"",""1"",""2536""
","
","
","""event"",""trial"",""time""
""fullscreenenter"",""1"",""2536""
","
","","","","","","null","<div style=""font-size:60px;"">+</div>","null","","fixation","","","","","","","","",""
"memory-trial","170","341925","0.0-15.0-1.63","1687","2","""event"",""trial"",""time""
""fullscreenenter"",""1"",""2536""
","
","
","""event"",""trial"",""time""
""fullscreenenter"",""1"",""2536""
","
","","","","","","809.2999999523163","images/truck2.png","","","memory_trial","3","maybe_new","","","","","","",""
"html-keyboard-response","171","342426","0.0-15.0-0.64","1687","2","""event"",""trial"",""time""
""fullscreenenter"",""1"",""2536""
","
","
","""event"",""trial"",""time""
""fullscreenenter"",""1"",""2536""
","
","","","","","","null","<div style=""font-size:60px;"">+</div>","null","","fixation","","","","","","","","",""
"memory-trial","172","344060","0.0-15.0-1.64","1687","2","""event"",""trial"",""time""
""fullscreenenter"",""1"",""2536""
","
","
","""event"",""trial"",""time""
""fullscreenenter"",""1"",""2536""
","
","","","","","","631.2999999523163","images/plane3.png","","","memory_trial","4","definitely_new","","","","","","",""
"html-keyboard-response","173","344561","0.0-15.0-0.65","1687","2","""event"",""trial"",""time""
""fullscreenenter"",""1"",""2536""
","
","
","""event"",""trial"",""time""
""fullscreenenter"",""1"",""2536""
","
","","","","","","null","<div style=""font-size:60px;"">+</div>","null","","fixation","","","","","","","","",""
"memory-trial","174","346092","0.0-15.0-1.65","1687","2","""event"",""trial"",""time""
""fullscreenenter"",""1"",""2536""
","
","
","""event"",""trial"",""time""
""fullscreenenter"",""1"",""2536""
","
","","","","","","528.3000000715256","images/table4.png","","","memory_trial","3","maybe_new","","","","","","",""
"html-keyboard-response","175","346593","0.0-15.0-0.66","1687","2","""event"",""trial"",""time""
""fullscreenenter"",""1"",""2536""
","
","
","""event"",""trial"",""time""
""fullscreenenter"",""1"",""2536""
","
","","","","","","null","<div style=""font-size:60px;"">+</div>","null","","fixation","","","","","","","","",""
"memory-trial","176","348091","0.0-15.0-1.66","1687","2","""event"",""trial"",""time""
""fullscreenenter"",""1"",""2536""
","
","
","""event"",""trial"",""time""
""fullscreenenter"",""1"",""2536""
","
","","","","","","496.39999997615814","images/sofa4.png","","","memory_trial","1","definitely_old","","","","","","",""
"html-keyboard-response","177","348606","0.0-15.0-0.67","1687","2","""event"",""trial"",""time""
""fullscreenenter"",""1"",""2536""
","
","
","""event"",""trial"",""time""
""fullscreenenter"",""1"",""2536""
","
","","","","","","null","<div style=""font-size:60px;"">+</div>","null","","fixation","","","","","","","","",""
"memory-trial","178","350436","0.0-15.0-1.67","1687","2","""event"",""trial"",""time""
""fullscreenenter"",""1"",""2536""
","
","
","""event"",""trial"",""time""
""fullscreenenter"",""1"",""2536""
","
","","","","","","827.8999999761581","images/cow5.png","","","memory_trial","1","definitely_old","","","","","","",""
"html-keyboard-response","179","350938","0.0-15.0-0.68","1687","2","""event"",""trial"",""time""
""fullscreenenter"",""1"",""2536""
","
","
","""event"",""trial"",""time""
""fullscreenenter"",""1"",""2536""
","
","","","","","","null","<div style=""font-size:60px;"">+</div>","null","","fixation","","","","","","","","",""
"memory-trial","180","352612","0.0-15.0-1.68","1687","2","""event"",""trial"",""time""
""fullscreenenter"",""1"",""2536""
","
","
","""event"",""trial"",""time""
""fullscreenenter"",""1"",""2536""
","
","","","","","","671.6000000238419","images/tree1.png","","","memory_trial","4","definitely_new","","","","","","",""
"html-keyboard-response","181","353114","0.0-15.0-0.69","1687","2","""event"",""trial"",""time""
""fullscreenenter"",""1"",""2536""
","
","
","""event"",""trial"",""time""
""fullscreenenter"",""1"",""2536""
","
","","","","","","null","<div style=""font-size:60px;"">+</div>","null","","fixation","","","","","","","","",""
"memory-trial","182","354930","0.0-15.0-1.69","1687","2","""event"",""trial"",""time""
""fullscreenenter"",""1"",""2536""
","
","
","""event"",""trial"",""time""
""fullscreenenter"",""1"",""2536""
","
","","","","","","815","images/plane2.png","","","memory_trial","3","maybe_new","","","","","","",""
"html-keyboard-response","183","355432","0.0-15.0-0.70","1687","2","""event"",""trial"",""time""
""fullscreenenter"",""1"",""2536""
","
","
","""event"",""trial"",""time""
""fullscreenenter"",""1"",""2536""
","
","","","","","","null","<div style=""font-size:60px;"">+</div>","null","","fixation","","","","","","","","",""
"memory-trial","184","356731","0.0-15.0-1.70","1687","2","""event"",""trial"",""time""
""fullscreenenter"",""1"",""2536""
","
","
","""event"",""trial"",""time""
""fullscreenenter"",""1"",""2536""
","
","","","","","","297.60000002384186","images/rodent4.png","","","memory_trial","1","definitely_old","","","","","","",""
"html-keyboard-response","185","357233","0.0-15.0-0.71","1687","2","""event"",""trial"",""time""
""fullscreenenter"",""1"",""2536""
","
","
","""event"",""trial"",""time""
""fullscreenenter"",""1"",""2536""
","
","","","","","","null","<div style=""font-size:60px;"">+</div>","null","","fixation","","","","","","","","",""
"memory-trial","186","358643","0.0-15.0-1.71","1687","2","""event"",""trial"",""time""
""fullscreenenter"",""1"",""2536""
","
","
","""event"",""trial"",""time""
""fullscreenenter"",""1"",""2536""
","
","","","","","","408.5","images/goat3.png","","","memory_trial","1","definitely_old","","","","","","",""
"html-keyboard-response","187","359145","0.0-15.0-0.72","1687","2","""event"",""trial"",""time""
""fullscreenenter"",""1"",""2536""
","
","
","""event"",""trial"",""time""
""fullscreenenter"",""1"",""2536""
","
","","","","","","null","<div style=""font-size:60px;"">+</div>","null","","fixation","","","","","","","","",""
"memory-trial","188","360596","0.0-15.0-1.72","1687","2","""event"",""trial"",""time""
""fullscreenenter"",""1"",""2536""
","
","
","""event"",""trial"",""time""
""fullscreenenter"",""1"",""2536""
","
","","","","","","448.59999990463257","images/chair2.png","","","memory_trial","1","definitely_old","","","","","","",""
"html-keyboard-response","189","361098","0.0-15.0-0.73","1687","2","""event"",""trial"",""time""
""fullscreenenter"",""1"",""2536""
","
","
","""event"",""trial"",""time""
""fullscreenenter"",""1"",""2536""
","
","","","","","","null","<div style=""font-size:60px;"">+</div>","null","","fixation","","","","","","","","",""
"memory-trial","190","362574","0.0-15.0-1.73","1687","2","""event"",""trial"",""time""
""fullscreenenter"",""1"",""2536""
","
","
","""event"",""trial"",""time""
""fullscreenenter"",""1"",""2536""
","
","","","","","","463","images/horse2.png","","","memory_trial","1","definitely_old","","","","","","",""
"html-keyboard-response","191","363076","0.0-15.0-0.74","1687","2","""event"",""trial"",""time""
""fullscreenenter"",""1"",""2536""
","
","
","""event"",""trial"",""time""
""fullscreenenter"",""1"",""2536""
","
","","","","","","null","<div style=""font-size:60px;"">+</div>","null","","fixation","","","","","","","","",""
"memory-trial","192","365252","0.0-15.0-1.74","1687","2","""event"",""trial"",""time""
""fullscreenenter"",""1"",""2536""
","
","
","""event"",""trial"",""time""
""fullscreenenter"",""1"",""2536""
","
","","","","","","1174.4000000953674","images/flower5.png","","","memory_trial","3","maybe_new","","","","","","",""
"html-keyboard-response","193","365757","0.0-15.0-0.75","1687","2","""event"",""trial"",""time""
""fullscreenenter"",""1"",""2536""
","
","
","""event"",""trial"",""time""
""fullscreenenter"",""1"",""2536""
","
","","","","","","null","<div style=""font-size:60px;"">+</div>","null","","fixation","","","","","","","","",""
"memory-trial","194","367403","0.0-15.0-1.75","1687","2","""event"",""trial"",""time""
""fullscreenenter"",""1"",""2536""
","
","
","""event"",""trial"",""time""
""fullscreenenter"",""1"",""2536""
","
","","","","","","644.4000000953674","images/rabbit1.png","","","memory_trial","4","definitely_new","","","","","","",""
"html-keyboard-response","195","367916","0.0-15.0-0.76","1687","2","""event"",""trial"",""time""
""fullscreenenter"",""1"",""2536""
","
","
","""event"",""trial"",""time""
""fullscreenenter"",""1"",""2536""
","
","","","","","","null","<div style=""font-size:60px;"">+</div>","null","","fixation","","","","","","","","",""
"memory-trial","196","370227","0.0-15.0-1.76","1687","2","""event"",""trial"",""time""
""fullscreenenter"",""1"",""2536""
","
","
","""event"",""trial"",""time""
""fullscreenenter"",""1"",""2536""
","
","","","","","","1309.8999999761581","images/plane4.png","","","memory_trial","1","definitely_old","","","","","","",""
"html-keyboard-response","197","370728","0.0-15.0-0.77","1687","2","""event"",""trial"",""time""
""fullscreenenter"",""1"",""2536""
","
","
","""event"",""trial"",""time""
""fullscreenenter"",""1"",""2536""
","
","","","","","","null","<div style=""font-size:60px;"">+</div>","null","","fixation","","","","","","","","",""
"memory-trial","198","372155","0.0-15.0-1.77","1687","2","""event"",""trial"",""time""
""fullscreenenter"",""1"",""2536""
","
","
","""event"",""trial"",""time""
""fullscreenenter"",""1"",""2536""
","
","","","","","","425.59999990463257","images/banana2.png","","","memory_trial","2","maybe_old","","","","","","",""
"html-keyboard-response","199","372657","0.0-15.0-0.78","1687","2","""event"",""trial"",""time""
""fullscreenenter"",""1"",""2536""
","
","
","""event"",""trial"",""time""
""fullscreenenter"",""1"",""2536""
","
","","","","","","null","<div style=""font-size:60px;"">+</div>","null","","fixation","","","","","","","","",""
"memory-trial","200","374091","0.0-15.0-1.78","1687","2","""event"",""trial"",""time""
""fullscreenenter"",""1"",""2536""
","
","
","""event"",""trial"",""time""
""fullscreenenter"",""1"",""2536""
","
","","","","","","432.5","images/feline1.png","","","memory_trial","3","maybe_new","","","","","","",""
"html-keyboard-response","201","374593","0.0-15.0-0.79","1687","2","""event"",""trial"",""time""
""fullscreenenter"",""1"",""2536""
","
","
","""event"",""trial"",""time""
""fullscreenenter"",""1"",""2536""
","
","","","","","","null","<div style=""font-size:60px;"">+</div>","null","","fixation","","","","","","","","",""
"memory-trial","202","376132","0.0-15.0-1.79","1687","2","""event"",""trial"",""time""
""fullscreenenter"",""1"",""2536""
","
","
","""event"",""trial"",""time""
""fullscreenenter"",""1"",""2536""
","
","","","","","","536.8999999761581","images/plane1.png","","","memory_trial","2","maybe_old","","","","","","",""
"html-keyboard-response","203","376633","0.0-15.0-0.80","1687","2","""event"",""trial"",""time""
""fullscreenenter"",""1"",""2536""
","
","
","""event"",""trial"",""time""
""fullscreenenter"",""1"",""2536""
","
","","","","","","null","<div style=""font-size:60px;"">+</div>","null","","fixation","","","","","","","","",""
"memory-trial","204","378388","0.0-15.0-1.80","1687","2","""event"",""trial"",""time""
""fullscreenenter"",""1"",""2536""
","
","
","""event"",""trial"",""time""
""fullscreenenter"",""1"",""2536""
","
","","","","","","753.1000000238419","images/feline5.png","","","memory_trial","1","definitely_old","","","","","","",""
"html-keyboard-response","205","378890","0.0-15.0-0.81","1687","2","""event"",""trial"",""time""
""fullscreenenter"",""1"",""2536""
","
","
","""event"",""trial"",""time""
""fullscreenenter"",""1"",""2536""
","
","","","","","","null","<div style=""font-size:60px;"">+</div>","null","","fixation","","","","","","","","",""
"memory-trial","206","380132","0.0-15.0-1.81","1687","2","""event"",""trial"",""time""
""fullscreenenter"",""1"",""2536""
","
","
","""event"",""trial"",""time""
""fullscreenenter"",""1"",""2536""
","
","","","","","","239.5","images/chair4.png","","","memory_trial","1","definitely_old","","","","","","",""
"html-keyboard-response","207","380648","0.0-15.0-0.82","1687","2","""event"",""trial"",""time""
""fullscreenenter"",""1"",""2536""
","
","
","""event"",""trial"",""time""
""fullscreenenter"",""1"",""2536""
","
","","","","","","null","<div style=""font-size:60px;"">+</div>","null","","fixation","","","","","","","","",""
"memory-trial","208","381931","0.0-15.0-1.82","1687","2","""event"",""trial"",""time""
""fullscreenenter"",""1"",""2536""
","
","
","""event"",""trial"",""time""
""fullscreenenter"",""1"",""2536""
","
","","","","","","281.5","images/straw4.png","","","memory_trial","1","definitely_old","","","","","","",""
"html-keyboard-response","209","382433","0.0-15.0-0.83","1687","2","""event"",""trial"",""time""
""fullscreenenter"",""1"",""2536""
","
","
","""event"",""trial"",""time""
""fullscreenenter"",""1"",""2536""
","
","","","","","","null","<div style=""font-size:60px;"">+</div>","null","","fixation","","","","","","","","",""
"memory-trial","210","383820","0.0-15.0-1.83","1687","2","""event"",""trial"",""time""
""fullscreenenter"",""1"",""2536""
","
","
","""event"",""trial"",""time""
""fullscreenenter"",""1"",""2536""
","
","","","","","","385.1999999284744","images/sheep1.png","","","memory_trial","1","definitely_old","","","","","","",""
"html-keyboard-response","211","384321","0.0-15.0-0.84","1687","2","""event"",""trial"",""time""
""fullscreenenter"",""1"",""2536""
","
","
","""event"",""trial"",""time""
""fullscreenenter"",""1"",""2536""
","
","","","","","","null","<div style=""font-size:60px;"">+</div>","null","","fixation","","","","","","","","",""
"memory-trial","212","386696","0.0-15.0-1.84","1687","2","""event"",""trial"",""time""
""fullscreenenter"",""1"",""2536""
","
","
","""event"",""trial"",""time""
""fullscreenenter"",""1"",""2536""
","
","","","","","","1360.5","images/truck4.png","","","memory_trial","3","maybe_new","","","","","","",""
"html-keyboard-response","213","387198","0.0-15.0-0.85","1687","2","""event"",""trial"",""time""
""fullscreenenter"",""1"",""2536""
","
","
","""event"",""trial"",""time""
""fullscreenenter"",""1"",""2536""
","
","","","","","","null","<div style=""font-size:60px;"">+</div>","null","","fixation","","","","","","","","",""
"memory-trial","214","388963","0.0-15.0-1.85","1687","2","""event"",""trial"",""time""
""fullscreenenter"",""1"",""2536""
","
","
","""event"",""trial"",""time""
""fullscreenenter"",""1"",""2536""
","
","","","","","","763.1000000238419","images/tree4.png","","","memory_trial","4","definitely_new","","","","","","",""
"html-keyboard-response","215","389465","0.0-15.0-0.86","1687","2","""event"",""trial"",""time""
""fullscreenenter"",""1"",""2536""
","
","
","""event"",""trial"",""time""
""fullscreenenter"",""1"",""2536""
","
","","","","","","null","<div style=""font-size:60px;"">+</div>","null","","fixation","","","","","","","","",""
"memory-trial","216","391492","0.0-15.0-1.86","1687","2","""event"",""trial"",""time""
""fullscreenenter"",""1"",""2536""
","
","
","""event"",""trial"",""time""
""fullscreenenter"",""1"",""2536""
","
","","","","","","1024.2999999523163","images/rodent2.png","","","memory_trial","3","maybe_new","","","","","","",""
"html-keyboard-response","217","391994","0.0-15.0-0.87","1687","2","""event"",""trial"",""time""
""fullscreenenter"",""1"",""2536""
","
","
","""event"",""trial"",""time""
""fullscreenenter"",""1"",""2536""
","
","","","","","","null","<div style=""font-size:60px;"">+</div>","null","","fixation","","","","","","","","",""
"memory-trial","218","393755","0.0-15.0-1.87","1687","2","""event"",""trial"",""time""
""fullscreenenter"",""1"",""2536""
","
","
","""event"",""trial"",""time""
""fullscreenenter"",""1"",""2536""
","
","","","","","","759.5999999046326","images/straw1.png","","","memory_trial","1","definitely_old","","","","","","",""
"html-keyboard-response","219","394257","0.0-15.0-0.88","1687","2","""event"",""trial"",""time""
""fullscreenenter"",""1"",""2536""
","
","
","""event"",""trial"",""time""
""fullscreenenter"",""1"",""2536""
","
","","","","","","null","<div style=""font-size:60px;"">+</div>","null","","fixation","","","","","","","","",""
"memory-trial","220","396172","0.0-15.0-1.88","1687","2","""event"",""trial"",""time""
""fullscreenenter"",""1"",""2536""
","
","
","""event"",""trial"",""time""
""fullscreenenter"",""1"",""2536""
","
","","","","","","912.6999999284744","images/table5.png","","","memory_trial","4","definitely_new","","","","","","",""
"html-keyboard-response","221","396678","0.0-15.0-0.89","1687","2","""event"",""trial"",""time""
""fullscreenenter"",""1"",""2536""
","
","
","""event"",""trial"",""time""
""fullscreenenter"",""1"",""2536""
","
","","","","","","null","<div style=""font-size:60px;"">+</div>","null","","fixation","","","","","","","","",""
"memory-trial","222","399123","0.0-15.0-1.89","1687","2","""event"",""trial"",""time""
""fullscreenenter"",""1"",""2536""
","
","
","""event"",""trial"",""time""
""fullscreenenter"",""1"",""2536""
","
","","","","","","1443.3000000715256","images/rodent3.png","","","memory_trial","1","definitely_old","","","","","","",""
"html-keyboard-response","223","399625","0.0-15.0-0.90","1687","2","""event"",""trial"",""time""
""fullscreenenter"",""1"",""2536""
","
","
","""event"",""trial"",""time""
""fullscreenenter"",""1"",""2536""
","
","","","","","","null","<div style=""font-size:60px;"">+</div>","null","","fixation","","","","","","","","",""
"memory-trial","224","402251","0.0-15.0-1.90","1687","2","""event"",""trial"",""time""
""fullscreenenter"",""1"",""2536""
","
","
","""event"",""trial"",""time""
""fullscreenenter"",""1"",""2536""
","
","","","","","","1624","images/goat5.png","","","memory_trial","3","maybe_new","","","","","","",""
"html-keyboard-response","225","402753","0.0-15.0-0.91","1687","2","""event"",""trial"",""time""
""fullscreenenter"",""1"",""2536""
","
","
","""event"",""trial"",""time""
""fullscreenenter"",""1"",""2536""
","
","","","","","","null","<div style=""font-size:60px;"">+</div>","null","","fixation","","","","","","","","",""
"memory-trial","226","405212","0.0-15.0-1.91","1687","2","""event"",""trial"",""time""
""fullscreenenter"",""1"",""2536""
","
","
","""event"",""trial"",""time""
""fullscreenenter"",""1"",""2536""
","
","","","","","","1457.1000000238419","images/boat4.png","","","memory_trial","1","definitely_old","","","","","","",""
"html-keyboard-response","227","405724","0.0-15.0-0.92","1687","2","""event"",""trial"",""time""
""fullscreenenter"",""1"",""2536""
","
","
","""event"",""trial"",""time""
""fullscreenenter"",""1"",""2536""
","
","","","","","","null","<div style=""font-size:60px;"">+</div>","null","","fixation","","","","","","","","",""
"memory-trial","228","408091","0.0-15.0-1.92","1687","2","""event"",""trial"",""time""
""fullscreenenter"",""1"",""2536""
","
","
","""event"",""trial"",""time""
""fullscreenenter"",""1"",""2536""
","
","","","","","","1365.2000000476837","images/bush2.png","","","memory_trial","4","definitely_new","","","","","","",""
"html-keyboard-response","229","408593","0.0-15.0-0.93","1687","2","""event"",""trial"",""time""
""fullscreenenter"",""1"",""2536""
","
","
","""event"",""trial"",""time""
""fullscreenenter"",""1"",""2536""
","
","","","","","","null","<div style=""font-size:60px;"">+</div>","null","","fixation","","","","","","","","",""
"memory-trial","230","410659","0.0-15.0-1.93","1687","2","""event"",""trial"",""time""
""fullscreenenter"",""1"",""2536""
","
","
","""event"",""trial"",""time""
""fullscreenenter"",""1"",""2536""
","
","","","","","","1064.8000000715256","images/train5.png","","","memory_trial","1","definitely_old","","","","","","",""
"html-keyboard-response","231","411161","0.0-15.0-0.94","1687","2","""event"",""trial"",""time""
""fullscreenenter"",""1"",""2536""
","
","
","""event"",""trial"",""time""
""fullscreenenter"",""1"",""2536""
","
","","","","","","null","<div style=""font-size:60px;"">+</div>","null","","fixation","","","","","","","","",""
"memory-trial","232","413451","0.0-15.0-1.94","1687","2","""event"",""trial"",""time""
""fullscreenenter"",""1"",""2536""
","
","
","""event"",""trial"",""time""
""fullscreenenter"",""1"",""2536""
","
","","","","","","1289","images/horse5.png","","","memory_trial","4","definitely_new","","","","","","",""
"html-keyboard-response","233","413952","0.0-15.0-0.95","1687","2","""event"",""trial"",""time""
""fullscreenenter"",""1"",""2536""
","
","
","""event"",""trial"",""time""
""fullscreenenter"",""1"",""2536""
","
","","","","","","null","<div style=""font-size:60px;"">+</div>","null","","fixation","","","","","","","","",""
"memory-trial","234","417123","0.0-15.0-1.95","1687","2","""event"",""trial"",""time""
""fullscreenenter"",""1"",""2536""
","
","
","""event"",""trial"",""time""
""fullscreenenter"",""1"",""2536""
","
","","","","","","2169.0999999046326","images/sofa5.png","","","memory_trial","2","maybe_old","","","","","","",""
"html-keyboard-response","235","417624","0.0-15.0-0.96","1687","2","""event"",""trial"",""time""
""fullscreenenter"",""1"",""2536""
","
","
","""event"",""trial"",""time""
""fullscreenenter"",""1"",""2536""
","
","","","","","","null","<div style=""font-size:60px;"">+</div>","null","","fixation","","","","","","","","",""
"memory-trial","236","420091","0.0-15.0-1.96","1687","2","""event"",""trial"",""time""
""fullscreenenter"",""1"",""2536""
","
","
","""event"",""trial"",""time""
""fullscreenenter"",""1"",""2536""
","
","","","","","","1465","images/bed2.png","","","memory_trial","4","definitely_new","","","","","","",""
"html-keyboard-response","237","420595","0.0-15.0-0.97","1687","2","""event"",""trial"",""time""
""fullscreenenter"",""1"",""2536""
","
","
","""event"",""trial"",""time""
""fullscreenenter"",""1"",""2536""
","
","","","","","","null","<div style=""font-size:60px;"">+</div>","null","","fixation","","","","","","","","",""
"memory-trial","238","423116","0.0-15.0-1.97","1687","2","""event"",""trial"",""time""
""fullscreenenter"",""1"",""2536""
","
","
","""event"",""trial"",""time""
""fullscreenenter"",""1"",""2536""
","
","","","","","","1518.7999999523163","images/straw2.png","","","memory_trial","2","maybe_old","","","","","","",""
"html-keyboard-response","239","423618","0.0-15.0-0.98","1687","2","""event"",""trial"",""time""
""fullscreenenter"",""1"",""2536""
","
","
","""event"",""trial"",""time""
""fullscreenenter"",""1"",""2536""
","
","","","","","","null","<div style=""font-size:60px;"">+</div>","null","","fixation","","","","","","","","",""
"memory-trial","240","425172","0.0-15.0-1.98","1687","2","""event"",""trial"",""time""
""fullscreenenter"",""1"",""2536""
","
","
","""event"",""trial"",""time""
""fullscreenenter"",""1"",""2536""
","
","","","","","","551.2000000476837","images/flower4.png","","","memory_trial","3","maybe_new","","","","","","",""
"html-keyboard-response","241","425673","0.0-15.0-0.99","1687","2","""event"",""trial"",""time""
""fullscreenenter"",""1"",""2536""
","
","
","""event"",""trial"",""time""
""fullscreenenter"",""1"",""2536""
","
","","","","","","null","<div style=""font-size:60px;"">+</div>","null","","fixation","","","","","","","","",""
"memory-trial","242","426891","0.0-15.0-1.99","1687","2","""event"",""trial"",""time""
""fullscreenenter"",""1"",""2536""
","
","
","""event"",""trial"",""time""
""fullscreenenter"",""1"",""2536""
","
","","","","","","216.20000004768372","images/flower3.png","","","memory_trial","1","definitely_old","","","","","","",""
"html-keyboard-response","243","427393","0.0-15.0-0.100","1687","2","""event"",""trial"",""time""
""fullscreenenter"",""1"",""2536""
","
","
","""event"",""trial"",""time""
""fullscreenenter"",""1"",""2536""
","
","","","","","","null","<div style=""font-size:60px;"">+</div>","null","","fixation","","","","","","","","",""
"memory-trial","244","428883","0.0-15.0-1.100","1687","2","""event"",""trial"",""time""
""fullscreenenter"",""1"",""2536""
","
","
","""event"",""trial"",""time""
""fullscreenenter"",""1"",""2536""
","
","","","","","","488.39999997615814","images/goat4.png","","","memory_trial","1","definitely_old","","","","","","",""
"html-keyboard-response","245","429385","0.0-15.0-0.101","1687","2","""event"",""trial"",""time""
""fullscreenenter"",""1"",""2536""
","
","
","""event"",""trial"",""time""
""fullscreenenter"",""1"",""2536""
","
","","","","","","null","<div style=""font-size:60px;"">+</div>","null","","fixation","","","","","","","","",""
"memory-trial","246","430611","0.0-15.0-1.101","1687","2","""event"",""trial"",""time""
""fullscreenenter"",""1"",""2536""
","
","
","""event"",""trial"",""time""
""fullscreenenter"",""1"",""2536""
","
","","","","","","224.30000007152557","images/bed4.png","","","memory_trial","2","maybe_old","","","","","","",""
"html-button-response","247","432746","0.0-15.0-2.101-0.101","1687","2","""event"",""trial"",""time""
""fullscreenenter"",""1"",""2536""
","
","
","""event"",""trial"",""time""
""fullscreenenter"",""1"",""2536""
","
","","","","","","2134.7000000476837","<p> Take a break! </p><p> Click the button to continue. </p>","0","","break","","","","","","","","",""
"html-keyboard-response","248","433247","0.0-15.0-0.102","1687","2","""event"",""trial"",""time""
""fullscreenenter"",""1"",""2536""
","
","
","""event"",""trial"",""time""
""fullscreenenter"",""1"",""2536""
","
","","","","","","null","<div style=""font-size:60px;"">+</div>","null","","fixation","","","","","","","","",""
"memory-trial","249","435116","0.0-15.0-1.102","1687","2","""event"",""trial"",""time""
""fullscreenenter"",""1"",""2536""
","
","
","""event"",""trial"",""time""
""fullscreenenter"",""1"",""2536""
","
","","","","","","865.8999999761581","images/orange5.png","","","memory_trial","3","maybe_new","","","","","","",""
"html-keyboard-response","250","435617","0.0-15.0-0.103","1687","2","""event"",""trial"",""time""
""fullscreenenter"",""1"",""2536""
","
","
","""event"",""trial"",""time""
""fullscreenenter"",""1"",""2536""
","
","","","","","","null","<div style=""font-size:60px;"">+</div>","null","","fixation","","","","","","","","",""
"memory-trial","251","437108","0.0-15.0-1.103","1687","2","""event"",""trial"",""time""
""fullscreenenter"",""1"",""2536""
","
","
","""event"",""trial"",""time""
""fullscreenenter"",""1"",""2536""
","
","","","","","","488.5","images/tree5.png","","","memory_trial","4","definitely_new","","","","","","",""
"html-keyboard-response","252","437610","0.0-15.0-0.104","1687","2","""event"",""trial"",""time""
""fullscreenenter"",""1"",""2536""
","
","
","""event"",""trial"",""time""
""fullscreenenter"",""1"",""2536""
","
","","","","","","null","<div style=""font-size:60px;"">+</div>","null","","fixation","","","","","","","","",""
"memory-trial","253","439580","0.0-15.0-1.104","1687","2","""event"",""trial"",""time""
""fullscreenenter"",""1"",""2536""
","
","
","""event"",""trial"",""time""
""fullscreenenter"",""1"",""2536""
","
","","","","","","967.7999999523163","images/boat1.png","","","memory_trial","2","maybe_old","","","","","","",""
"html-keyboard-response","254","440081","0.0-15.0-0.105","1687","2","""event"",""trial"",""time""
""fullscreenenter"",""1"",""2536""
","
","
","""event"",""trial"",""time""
""fullscreenenter"",""1"",""2536""
","
","","","","","","null","<div style=""font-size:60px;"">+</div>","null","","fixation","","","","","","","","",""
"memory-trial","255","442116","0.0-15.0-1.105","1687","2","""event"",""trial"",""time""
""fullscreenenter"",""1"",""2536""
","
","
","""event"",""trial"",""time""
""fullscreenenter"",""1"",""2536""
","
","","","","","","1032.3000000715256","images/tree2.png","","","memory_trial","1","definitely_old","","","","","","",""
"html-keyboard-response","256","442618","0.0-15.0-0.106","1687","2","""event"",""trial"",""time""
""fullscreenenter"",""1"",""2536""
","
","
","""event"",""trial"",""time""
""fullscreenenter"",""1"",""2536""
","
","","","","","","null","<div style=""font-size:60px;"">+</div>","null","","fixation","","","","","","","","",""
"memory-trial","257","444451","0.0-15.0-1.106","1687","2","""event"",""trial"",""time""
""fullscreenenter"",""1"",""2536""
","
","
","""event"",""trial"",""time""
""fullscreenenter"",""1"",""2536""
","
","","","","","","831.3000000715256","images/plane5.png","","","memory_trial","4","definitely_new","","","","","","",""
"html-keyboard-response","258","444953","0.0-15.0-0.107","1687","2","""event"",""trial"",""time""
""fullscreenenter"",""1"",""2536""
","
","
","""event"",""trial"",""time""
""fullscreenenter"",""1"",""2536""
","
","","","","","","null","<div style=""font-size:60px;"">+</div>","null","","fixation","","","","","","","","",""
"memory-trial","259","446492","0.0-15.0-1.107","1687","2","""event"",""trial"",""time""
""fullscreenenter"",""1"",""2536""
","
","
","""event"",""trial"",""time""
""fullscreenenter"",""1"",""2536""
","
","","","","","","536.2999999523163","images/horse4.png","","","memory_trial","3","maybe_new","","","","","","",""
"html-keyboard-response","260","446993","0.0-15.0-0.108","1687","2","""event"",""trial"",""time""
""fullscreenenter"",""1"",""2536""
","
","
","""event"",""trial"",""time""
""fullscreenenter"",""1"",""2536""
","
","","","","","","null","<div style=""font-size:60px;"">+</div>","null","","fixation","","","","","","","","",""
"memory-trial","261","448980","0.0-15.0-1.108","1687","2","""event"",""trial"",""time""
""fullscreenenter"",""1"",""2536""
","
","
","""event"",""trial"",""time""
""fullscreenenter"",""1"",""2536""
","
","","","","","","984.1000000238419","images/rabbit5.png","","","memory_trial","1","definitely_old","","","","","","",""
"html-keyboard-response","262","449481","0.0-15.0-0.109","1687","2","""event"",""trial"",""time""
""fullscreenenter"",""1"",""2536""
","
","
","""event"",""trial"",""time""
""fullscreenenter"",""1"",""2536""
","
","","","","","","null","<div style=""font-size:60px;"">+</div>","null","","fixation","","","","","","","","",""
"memory-trial","263","451435","0.0-15.0-1.109","1687","2","""event"",""trial"",""time""
""fullscreenenter"",""1"",""2536""
","
","
","""event"",""trial"",""time""
""fullscreenenter"",""1"",""2536""
","
","","","","","","951.6000000238419","images/cactus2.png","","","memory_trial","2","maybe_old","","","","","","",""
"html-keyboard-response","264","451936","0.0-15.0-0.110","1687","2","""event"",""trial"",""time""
""fullscreenenter"",""1"",""2536""
","
","
","""event"",""trial"",""time""
""fullscreenenter"",""1"",""2536""
","
","","","","","","null","<div style=""font-size:60px;"">+</div>","null","","fixation","","","","","","","","",""
"memory-trial","265","453443","0.0-15.0-1.110","1687","2","""event"",""trial"",""time""
""fullscreenenter"",""1"",""2536""
","
","
","""event"",""trial"",""time""
""fullscreenenter"",""1"",""2536""
","
","","","","","","504.6999999284744","images/table2.png","","","memory_trial","3","maybe_new","","","","","","",""
"html-keyboard-response","266","453945","0.0-15.0-0.111","1687","2","""event"",""trial"",""time""
""fullscreenenter"",""1"",""2536""
","
","
","""event"",""trial"",""time""
""fullscreenenter"",""1"",""2536""
","
","","","","","","null","<div style=""font-size:60px;"">+</div>","null","","fixation","","","","","","","","",""
"memory-trial","267","455716","0.0-15.0-1.111","1687","2","""event"",""trial"",""time""
""fullscreenenter"",""1"",""2536""
","
","
","""event"",""trial"",""time""
""fullscreenenter"",""1"",""2536""
","
","","","","","","768.8999999761581","images/tree3.png","","","memory_trial","1","definitely_old","","","","","","",""
"html-keyboard-response","268","456218","0.0-15.0-0.112","1687","2","""event"",""trial"",""time""
""fullscreenenter"",""1"",""2536""
","
","
","""event"",""trial"",""time""
""fullscreenenter"",""1"",""2536""
","
","","","","","","null","<div style=""font-size:60px;"">+</div>","null","","fixation","","","","","","","","",""
"memory-trial","269","458323","0.0-15.0-1.112","1687","2","""event"",""trial"",""time""
""fullscreenenter"",""1"",""2536""
","
","
","""event"",""trial"",""time""
""fullscreenenter"",""1"",""2536""
","
","","","","","","1103.1999999284744","images/banana3.png","","","memory_trial","2","maybe_old","","","","","","",""
"html-keyboard-response","270","458830","0.0-15.0-0.113","1687","2","""event"",""trial"",""time""
""fullscreenenter"",""1"",""2536""
","
","
","""event"",""trial"",""time""
""fullscreenenter"",""1"",""2536""
","
","","","","","","null","<div style=""font-size:60px;"">+</div>","null","","fixation","","","","","","","","",""
"memory-trial","271","461243","0.0-15.0-1.113","1687","2","""event"",""trial"",""time""
""fullscreenenter"",""1"",""2536""
","
","
","""event"",""trial"",""time""
""fullscreenenter"",""1"",""2536""
","
","","","","","","1411","images/orange2.png","","","memory_trial","3","maybe_new","","","","","","",""
"html-keyboard-response","272","461744","0.0-15.0-0.114","1687","2","""event"",""trial"",""time""
""fullscreenenter"",""1"",""2536""
","
","
","""event"",""trial"",""time""
""fullscreenenter"",""1"",""2536""
","
","","","","","","null","<div style=""font-size:60px;"">+</div>","null","","fixation","","","","","","","","",""
"memory-trial","273","462747","0.0-15.0-1.114","1687","2","""event"",""trial"",""time""
""fullscreenenter"",""1"",""2536""
","
","
","""event"",""trial"",""time""
""fullscreenenter"",""1"",""2536""
","
","","","","","","0.7999999523162842","images/cactus1.png","","","memory_trial","4","definitely_new","","","","","","",""
"html-keyboard-response","274","463252","0.0-15.0-0.115","1687","2","""event"",""trial"",""time""
""fullscreenenter"",""1"",""2536""
","
","
","""event"",""trial"",""time""
""fullscreenenter"",""1"",""2536""
","
","","","","","","null","<div style=""font-size:60px;"">+</div>","null","","fixation","","","","","","","","",""
"memory-trial","275","464620","0.0-15.0-1.115","1687","2","""event"",""trial"",""time""
""fullscreenenter"",""1"",""2536""
","
","
","""event"",""trial"",""time""
""fullscreenenter"",""1"",""2536""
","
","","","","","","365.3000000715256","images/sheep4.png","","","memory_trial","3","maybe_new","","","","","","",""
"html-keyboard-response","276","465121","0.0-15.0-0.116","1687","2","""event"",""trial"",""time""
""fullscreenenter"",""1"",""2536""
","
","
","""event"",""trial"",""time""
""fullscreenenter"",""1"",""2536""
","
","","","","","","null","<div style=""font-size:60px;"">+</div>","null","","fixation","","","","","","","","",""
"memory-trial","277","466667","0.0-15.0-1.116","1687","2","""event"",""trial"",""time""
""fullscreenenter"",""1"",""2536""
","
","
","""event"",""trial"",""time""
""fullscreenenter"",""1"",""2536""
","
","","","","","","544.7999999523163","images/dog5.png","","","memory_trial","1","definitely_old","","","","","","",""
"html-keyboard-response","278","467168","0.0-15.0-0.117","1687","2","""event"",""trial"",""time""
""fullscreenenter"",""1"",""2536""
","
","
","""event"",""trial"",""time""
""fullscreenenter"",""1"",""2536""
","
","","","","","","null","<div style=""font-size:60px;"">+</div>","null","","fixation","","","","","","","","",""
"memory-trial","279","469683","0.0-15.0-1.117","1687","2","""event"",""trial"",""time""
""fullscreenenter"",""1"",""2536""
","
","
","""event"",""trial"",""time""
""fullscreenenter"",""1"",""2536""
","
","","","","","","1513","images/boat5.png","","","memory_trial","4","definitely_new","","","","","","",""
"html-keyboard-response","280","470184","0.0-15.0-0.118","1687","2","""event"",""trial"",""time""
""fullscreenenter"",""1"",""2536""
","
","
","""event"",""trial"",""time""
""fullscreenenter"",""1"",""2536""
","
","","","","","","null","<div style=""font-size:60px;"">+</div>","null","","fixation","","","","","","","","",""
"memory-trial","281","472003","0.0-15.0-1.118","1687","2","""event"",""trial"",""time""
""fullscreenenter"",""1"",""2536""
","
","
","""event"",""trial"",""time""
""fullscreenenter"",""1"",""2536""
","
","","","","","","817.0999999046326","images/dog3.png","","","memory_trial","4","definitely_new","","","","","","",""
"html-keyboard-response","282","472504","0.0-15.0-0.119","1687","2","""event"",""trial"",""time""
""fullscreenenter"",""1"",""2536""
","
","
","""event"",""trial"",""time""
""fullscreenenter"",""1"",""2536""
","
","","","","","","null","<div style=""font-size:60px;"">+</div>","null","","fixation","","","","","","","","",""
"memory-trial","283","474460","0.0-15.0-1.119","1687","2","""event"",""trial"",""time""
""fullscreenenter"",""1"",""2536""
","
","
","""event"",""trial"",""time""
""fullscreenenter"",""1"",""2536""
","
","","","","","","953.6000000238419","images/bush5.png","","","memory_trial","4","definitely_new","","","","","","",""
"preload","284","479026","0.0-16.0","1687","2","""event"",""trial"",""time""
""fullscreenenter"",""1"",""2536""
","
","
","""event"",""trial"",""time""
""fullscreenenter"",""1"",""2536""
","
","true","false","[]","[]","[]","","","","","","","","","","","","","",""
"learning-instructions","285","484837","0.0-17.0-0.0-0.0-0.0","1687","2","""event"",""trial"",""time""
""fullscreenenter"",""1"",""2536""
","
","
","""event"",""trial"",""time""
""fullscreenenter"",""1"",""2536""
","
","","","","","","3024.600000023842","<p> We're now going to ask you to buy fruit again. </p>","","0","instructions","","","","","","","","",""
"learning-instructions","286","491947","0.0-17.0-0.0-0.0-0.1","1687","2","""event"",""trial"",""time""
""fullscreenenter"",""1"",""2536""
","
","
","""event"",""trial"",""time""
""fullscreenenter"",""1"",""2536""
","
","","","","","","2255.2000000476837","<p> On each trial, you will see a fruit. Select the store where you think you can buy the fruit. </p>","","0","instructions","","","","","","","","",""
"learning-instructions","287","500474","0.0-17.0-0.0-0.0-0.2","1687","2","""event"",""trial"",""time""
""fullscreenenter"",""1"",""2536""
","
","
","""event"",""trial"",""time""
""fullscreenenter"",""1"",""2536""
","
","","","","","","1472.5","<p> To make your selection, think about what you learned last week. You will NOT receive any feedback about your choice. </p>","","0","instructions","","","","","","","","",""
"learning-instructions","288","510068","0.0-17.0-0.0-0.0-0.3","1687","2","""event"",""trial"",""time""
""fullscreenenter"",""1"",""2536""
","
","
","""event"",""trial"",""time""
""fullscreenenter"",""1"",""2536""
","
","","","","","","1995.5","<p> You should use the 1 key to select the store on the left, the 2 key to select the store in the middle, and the 3 key to select the store on the right. </p><br><div class=""choice-mem-instructions-grid""> <div class=""choice-mem-option""><img src=""images/fruit_choice1.png"" class=""choice-mem-option-img"" stage=""instructions"" position=""0"" ><div class=""choice-mem-option-text""> Press ""1."" </div></div><div class=""choice-mem-option""><img src=""images/fruit_choice2.png"" class=""choice-mem-option-img"" stage=""instructions"" position=""1"" ><div class=""choice-mem-option-text""> Press ""2."" </div></div><div class=""choice-mem-option""><img src=""images/fruit_choice3.png"" class=""choice-mem-option-img"" stage=""instructions"" position=""2"" ><div class=""choice-mem-option-text""> Press ""3."" </div></div></div>","","0","instructions","","","","","","","","",""
"learning-instructions","289","517562","0.0-17.0-0.0-0.0-0.4","1687","2","""event"",""trial"",""time""
""fullscreenenter"",""1"",""2536""
","
","
","""event"",""trial"",""time""
""fullscreenenter"",""1"",""2536""
","
","","","","","","1220","<p> You will have 10 seconds to make each selection. Try to respond before time runs out! </p>","","0","instructions","","","","","","","","",""
"learning-instructions","290","521874","0.0-17.0-0.0-1.0","1687","2","""event"",""trial"",""time""
""fullscreenenter"",""1"",""2536""
","
","
","""event"",""trial"",""time""
""fullscreenenter"",""1"",""2536""
","
","","","","","","2241.7999999523163","<p> You are now ready to begin the game. </p>","","0","instructions","","","","","","","","",""
"html-keyboard-response","291","522480","0.0-17.0-0.0-2.0-0.0","1687","2","""event"",""trial"",""time""
""fullscreenenter"",""1"",""2536""
","
","
","""event"",""trial"",""time""
""fullscreenenter"",""1"",""2536""
","
","","","","","","null","<div style=""font-size:60px;"">+</div>","null","","fixation","","","","","","","","",""
"choice-memory-trial","292","524524","0.0-17.0-0.0-2.0-1.0","1687","2","""event"",""trial"",""time""
""fullscreenenter"",""1"",""2536""
","
","
","""event"",""trial"",""time""
""fullscreenenter"",""1"",""2536""
","
