"trial_type","trial_index","time_elapsed","internal_node_id","subject_id","task_version","interactions","blur_events","focus_events","fullscreenenter_events","fullscreenexit_events","success","timeout","failed_images","failed_audio","failed_video","rt","stimulus","response","button_pressed","task_part","key_press","answer","correct","left_choice","middle_choice","right_choice","choice_positions","option_selected","block"
"pavlovia","0","10","0.0-0.0","1915","2","""event"",""trial"",""time""
""fullscreenenter"",""1"",""1365""
","
","
","""event"",""trial"",""time""
""fullscreenenter"",""1"",""1365""
","
","","","","","","","","","","","","","","","","","","",""
"fullscreen","1","2382","0.0-1.0","1915","2","""event"",""trial"",""time""
""fullscreenenter"",""1"",""1365""
","
","
","""event"",""trial"",""time""
""fullscreenenter"",""1"",""1365""
","
","true","","","","","","","","","","","","","","","","","",""
"preload","2","3262","0.0-2.0","1915","2","""event"",""trial"",""time""
""fullscreenenter"",""1"",""1365""
","
","
","""event"",""trial"",""time""
""fullscreenenter"",""1"",""1365""
","
","true","false","[]","[]","[]","","","","","","","","","","","","","",""
"audio-keyboard-response","3","5877","0.0-3.0","1915","2","""event"",""trial"",""time""
""fullscreenenter"",""1"",""1365""
","
","
","""event"",""trial"",""time""
""fullscreenenter"",""1"",""1365""
","
","","","","","","2612.2448979591836","audio/beep_loop.wav"," ","","","","","","","","","","",""
"audio-button-response","4","7410","0.0-4.0","1915","2","""event"",""trial"",""time""
""fullscreenenter"",""1"",""1365""
","
","
","""event"",""trial"",""time""
""fullscreenenter"",""1"",""1365""
","
","","","","","","1533","audio/turtle.wav","3","","","","","","","","","","",""
"audio-button-response","5","9462","0.0-5.0","1915","2","""event"",""trial"",""time""
""fullscreenenter"",""1"",""1365""
","
","
","""event"",""trial"",""time""
""fullscreenenter"",""1"",""1365""
","
","","","","","","1051","audio/shark.wav","2","","","","","","","","","","",""
"preload","6","12691","0.0-6.0","1915","2","""event"",""trial"",""time""
""fullscreenenter"",""1"",""1365""
","
","
","""event"",""trial"",""time""
""fullscreenenter"",""1"",""1365""
","
","true","false","[]","[]","[]","","","","","","","","","","","","","",""
"learning-instructions","7","18773","0.0-7.0-0.0","1915","2","""event"",""trial"",""time""
""fullscreenenter"",""1"",""1365""
","
","
","""event"",""trial"",""time""
""fullscreenenter"",""1"",""1365""
","
","","","","","","1276.2000002861023","<p> Welcome back! </p><p> Last week, you had to make choices about lots of different items.  </p>","","0","instructions","","","","","","","","",""
"learning-instructions","8","23618","0.0-7.0-0.1","1915","2","""event"",""trial"",""time""
""fullscreenenter"",""1"",""1365""
","
","
","""event"",""trial"",""time""
""fullscreenenter"",""1"",""1365""
","
","","","","","","543.3000001907349","<p> Today, we are going to ask you to try to remember all the items. </p>","","0","instructions","","","","","","","","",""
"learning-instructions","9","34784","0.0-7.0-0.2","1915","2","""event"",""trial"",""time""
""fullscreenenter"",""1"",""1365""
","
","
","""event"",""trial"",""time""
""fullscreenenter"",""1"",""1365""
","
","","","","","","1034.7999997138977","<p> On every trial, you will see an image. </p><p> The image may be an OLD image you saw during the games last week or it may be a NEW image that was not presented. </p>","","0","instructions","","","","","","","","",""
"learning-instructions","10","43982","0.0-7.0-0.3","1915","2","""event"",""trial"",""time""
""fullscreenenter"",""1"",""1365""
","
","
","""event"",""trial"",""time""
""fullscreenenter"",""1"",""1365""
","
","","","","","","700.5","<p> You need to select whether the image is:  </p><p>  'Definitely old', 'Maybe old', 'Maybe new', or 'Definitely new.'  </p><div class=""mem-choice-instructions-grid""><div class=""choice-option"" id=""choice-option-1"" ><img src=""images/definitely_old_1.png"" id=""choice-option-img-1"" class=""choice-option-img"" stage=""1""></div><div class=""choice-option"" id=""choice-option-2"" ><img src=""images/maybe_old_1.png"" id=""choice-option-img-2"" class=""choice-option-img"" stage=""1""></div><div class=""choice-option"" id=""choice-option-3"" ><img src=""images/maybe_new_1.png"" id=""choice-option-img-3"" class=""choice-option-img"" stage=""1""></div><div class=""choice-option"" id=""choice-option-4"" > <img src=""images/definitely_new_1.png"" id=""choice-option-img-4"" class=""choice-option-img"" stage=""1""></div></div>","","0","instructions","","","","","","","","",""
"learning-instructions","11","51143","0.0-7.0-0.4","1915","2","""event"",""trial"",""time""
""fullscreenenter"",""1"",""1365""
","
","
","""event"",""trial"",""time""
""fullscreenenter"",""1"",""1365""
","
","","","","","","465.40000009536743","<p> You should use the 1, 2, 3, and 4 keys to make your responses.  </p><div class=""mem-choice-instructions-grid""><div class=""choice-option"" id=""choice-option-1"" ><img src=""images/definitely_old.png"" id=""choice-option-img-1"" class=""choice-option-img"" stage=""1""></div><div class=""choice-option"" id=""choice-option-2"" ><img src=""images/maybe_old.png"" id=""choice-option-img-2"" class=""choice-option-img"" stage=""1""></div><div class=""choice-option"" id=""choice-option-3"" ><img src=""images/maybe_new.png"" id=""choice-option-img-3"" class=""choice-option-img"" stage=""1""></div><div class=""choice-option"" id=""choice-option-4"" > <img src=""images/definitely_new.png"" id=""choice-option-img-4"" class=""choice-option-img"" stage=""1""></div></div>","","0","instructions","","","","","","","","",""
"learning-instructions","12","58454","0.0-7.0-0.5","1915","2","""event"",""trial"",""time""
""fullscreenenter"",""1"",""1365""
","
","
","""event"",""trial"",""time""
""fullscreenenter"",""1"",""1365""
","
","","","","","","546.5999999046326","<p> You will have 10 seconds to make each response.  </p><p>  Make sure to respond before time runs out! </p>","","0","instructions","","","","","","","","",""
"learning-instructions","13","66440","0.0-7.0-0.6","1915","2","""event"",""trial"",""time""
""fullscreenenter"",""1"",""1365""
","
","
","""event"",""trial"",""time""
""fullscreenenter"",""1"",""1365""
","
","","","","","","409.19999980926514","<p> Today, you will see each image ONCE only.  </p><p>  That means none of the images will repeat. </p>","","0","instructions","","","","","","","","",""
"learning-instructions","14","79512","0.0-7.0-0.7","1915","2","""event"",""trial"",""time""
""fullscreenenter"",""1"",""1365""
","
","
","""event"",""trial"",""time""
""fullscreenenter"",""1"",""1365""
","
","","","","","","403.7000002861023","<p> Before you play the real game, it is time to practice. </p><p>  Just like in the real game, some of the images in the practice will be ones you have seen before. </p><p>  Others will be entirely new. </p>","","0","instructions","","","","","","","","",""
"html-button-response","15","81023","0.0-8.0","1915","2","""event"",""trial"",""time""
""fullscreenenter"",""1"",""1365""
","
","
","""event"",""trial"",""time""
""fullscreenenter"",""1"",""1365""
","
","","","","","","1408.2000002861023","<p> Ready to practice? </p><p> Remember, use the 1, 2, 3, and 4 keys to make your responses. </p>","0","","instructions","","","","","","","","",""
"html-keyboard-response","16","81625","0.0-9.0-0.0","1915","2","""event"",""trial"",""time""
""fullscreenenter"",""1"",""1365""
","
","
","""event"",""trial"",""time""
""fullscreenenter"",""1"",""1365""
","
","","","","","","null","<div style=""font-size:60px;"">+</div>","null","","fixation","","","","","","","","",""
"memory-trial","17","83766","0.0-9.0-1.0","1915","2","""event"",""trial"",""time""
""fullscreenenter"",""1"",""1365""
","
","
","""event"",""trial"",""time""
""fullscreenenter"",""1"",""1365""
","
","","","","","","1134.3000001907349","images/ball2.png","","","practice","1","definitely_old","","","","","","",""
"html-keyboard-response","18","84270","0.0-9.0-0.1","1915","2","""event"",""trial"",""time""
""fullscreenenter"",""1"",""1365""
","
","
","""event"",""trial"",""time""
""fullscreenenter"",""1"",""1365""
","
","","","","","","null","<div style=""font-size:60px;"">+</div>","null","","fixation","","","","","","","","",""
"memory-trial","19","87347","0.0-9.0-1.1","1915","2","""event"",""trial"",""time""
""fullscreenenter"",""1"",""1365""
","
","
","""event"",""trial"",""time""
""fullscreenenter"",""1"",""1365""
","
","","","","","","2074.5","images/ball4.png","","","practice","2","maybe_old","","","","","","",""
"html-keyboard-response","20","87852","0.0-9.0-0.2","1915","2","""event"",""trial"",""time""
""fullscreenenter"",""1"",""1365""
","
","
","""event"",""trial"",""time""
""fullscreenenter"",""1"",""1365""
","
","","","","","","null","<div style=""font-size:60px;"">+</div>","null","","fixation","","","","","","","","",""
"memory-trial","21","91099","0.0-9.0-1.2","1915","2","""event"",""trial"",""time""
""fullscreenenter"",""1"",""1365""
","
","
","""event"",""trial"",""time""
""fullscreenenter"",""1"",""1365""
","
","","","","","","2240.800000190735","images/ball3.png","","","practice","2","maybe_old","","","","","","",""
"html-keyboard-response","22","91605","0.0-9.0-0.3","1915","2","""event"",""trial"",""time""
""fullscreenenter"",""1"",""1365""
","
","
","""event"",""trial"",""time""
""fullscreenenter"",""1"",""1365""
","
","","","","","","null","<div style=""font-size:60px;"">+</div>","null","","fixation","","","","","","","","",""
"memory-trial","23","95160","0.0-9.0-1.3","1915","2","""event"",""trial"",""time""
""fullscreenenter"",""1"",""1365""
","
","
","""event"",""trial"",""time""
""fullscreenenter"",""1"",""1365""
","
","","","","","","2545.7000002861023","images/racket4.png","","","practice","2","maybe_old","","","","","","",""
"html-keyboard-response","24","95665","0.0-9.0-0.4","1915","2","""event"",""trial"",""time""
""fullscreenenter"",""1"",""1365""
","
","
","""event"",""trial"",""time""
""fullscreenenter"",""1"",""1365""
","
","","","","","","null","<div style=""font-size:60px;"">+</div>","null","","fixation","","","","","","","","",""
"memory-trial","25","98599","0.0-9.0-1.4","1915","2","""event"",""trial"",""time""
""fullscreenenter"",""1"",""1365""
","
","
","""event"",""trial"",""time""
""fullscreenenter"",""1"",""1365""
","
","","","","","","1922.8999996185303","images/ball1.png","","","practice","3","maybe_new","","","","","","",""
"html-keyboard-response","26","99101","0.0-9.0-0.5","1915","2","""event"",""trial"",""time""
""fullscreenenter"",""1"",""1365""
","
","
","""event"",""trial"",""time""
""fullscreenenter"",""1"",""1365""
","
","","","","","","null","<div style=""font-size:60px;"">+</div>","null","","fixation","","","","","","","","",""
"memory-trial","27","103111","0.0-9.0-1.5","1915","2","""event"",""trial"",""time""
""fullscreenenter"",""1"",""1365""
","
","
","""event"",""trial"",""time""
""fullscreenenter"",""1"",""1365""
","
","","","","","","3002.199999809265","images/racket2.png","","","practice","3","maybe_new","","","","","","",""
"html-keyboard-response","28","103617","0.0-9.0-0.6","1915","2","""event"",""trial"",""time""
""fullscreenenter"",""1"",""1365""
","
","
","""event"",""trial"",""time""
""fullscreenenter"",""1"",""1365""
","
","","","","","","null","<div style=""font-size:60px;"">+</div>","null","","fixation","","","","","","","","",""
"memory-trial","29","106756","0.0-9.0-1.6","1915","2","""event"",""trial"",""time""
""fullscreenenter"",""1"",""1365""
","
","
","""event"",""trial"",""time""
""fullscreenenter"",""1"",""1365""
","
","","","","","","2133.2000002861023","images/racket1.png","","","practice","4","definitely_new","","","","","","",""
"html-keyboard-response","30","107263","0.0-9.0-0.7","1915","2","""event"",""trial"",""time""
""fullscreenenter"",""1"",""1365""
","
","
","""event"",""trial"",""time""
""fullscreenenter"",""1"",""1365""
","
","","","","","","null","<div style=""font-size:60px;"">+</div>","null","","fixation","","","","","","","","",""
"memory-trial","31","109393","0.0-9.0-1.7","1915","2","""event"",""trial"",""time""
""fullscreenenter"",""1"",""1365""
""blur"",""32"",""113138""
""focus"",""32"",""142240""
","""event"",""trial"",""time""
""blur"",""32"",""113138""
","""event"",""trial"",""time""
""focus"",""32"",""142240""
","""event"",""trial"",""time""
""fullscreenenter"",""1"",""1365""
","
","","","","","","1124.3000001907349","images/racket3.png","","","practice","4","definitely_new","","","","","","",""
"learning-instructions","32","143272","0.0-10.0-0.0","1915","2","""event"",""trial"",""time""
""fullscreenenter"",""1"",""1365""
""blur"",""32"",""113138""
""focus"",""32"",""142240""
","""event"",""trial"",""time""
""blur"",""32"",""113138""
","""event"",""trial"",""time""
""focus"",""32"",""142240""
","""event"",""trial"",""time""
""fullscreenenter"",""1"",""1365""
","
","","","","","","25914.800000190735","<p> Great! You have completed the practice. </p><p> Before you start, we're going to ask you a few questions about how the game works.  </p>","","0","instructions","","","","","","","","",""
"preload","33","145493","0.0-11.0","1915","2","""event"",""trial"",""time""
""fullscreenenter"",""1"",""1365""
""blur"",""32"",""113138""
""focus"",""32"",""142240""
","""event"",""trial"",""time""
""blur"",""32"",""113138""
","""event"",""trial"",""time""
""focus"",""32"",""142240""
","""event"",""trial"",""time""
""fullscreenenter"",""1"",""1365""
","
","true","false","[]","[]","[]","","","","","","","","","","","","","",""
"comp-q","34","152020","0.0-12.0-0.0","1915","2","""event"",""trial"",""time""
""fullscreenenter"",""1"",""1365""
""blur"",""32"",""113138""
""focus"",""32"",""142240""
","""event"",""trial"",""time""
""blur"",""32"",""113138""
","""event"",""trial"",""time""
""focus"",""32"",""142240""
","""event"",""trial"",""time""
""fullscreenenter"",""1"",""1365""
","
","","","","","","696.7000002861023","<p> <b> True or False? </b> </p><p> In this game, you will only see each image once. </p>","","0","comp_question","","","true","","","","","",""
"comp-q","35","159181","0.0-12.0-1.0","1915","2","""event"",""trial"",""time""
""fullscreenenter"",""1"",""1365""
""blur"",""32"",""113138""
""focus"",""32"",""142240""
","""event"",""trial"",""time""
""blur"",""32"",""113138""
","""event"",""trial"",""time""
""focus"",""32"",""142240""
","""event"",""trial"",""time""
""fullscreenenter"",""1"",""1365""
","
","","","","","","814.5999999046326","<p> <b> That's right! </b> You will see many different images <i> one time each </i> in this game. </p>","","0","comp_answer","","","","","","","","",""
"comp-q","36","165598","0.0-12.0-0.1","1915","2","""event"",""trial"",""time""
""fullscreenenter"",""1"",""1365""
""blur"",""32"",""113138""
""focus"",""32"",""142240""
","""event"",""trial"",""time""
""blur"",""32"",""113138""
","""event"",""trial"",""time""
""focus"",""32"",""142240""
","""event"",""trial"",""time""
""fullscreenenter"",""1"",""1365""
","
","","","","","","621.9000000953674","<p> <b> True or False? </b> </p><p> You should use the mouse and click to make your response. </p>","","1","comp_question","","","true","","","","","",""
"comp-q","37","173530","0.0-12.0-1.1","1915","2","""event"",""trial"",""time""
""fullscreenenter"",""1"",""1365""
""blur"",""32"",""113138""
""focus"",""32"",""142240""
","""event"",""trial"",""time""
""blur"",""32"",""113138""
","""event"",""trial"",""time""
""focus"",""32"",""142240""
","""event"",""trial"",""time""
""fullscreenenter"",""1"",""1365""
","
","","","","","","583.3999996185303","<p><b> That's right! </b> You should use the '1', '2', '3', and '4' keys to make your response. </p>","","0","comp_answer","","","","","","","","",""
"comp-q","38","180114","0.0-12.0-0.2","1915","2","""event"",""trial"",""time""
""fullscreenenter"",""1"",""1365""
""blur"",""32"",""113138""
""focus"",""32"",""142240""
","""event"",""trial"",""time""
""blur"",""32"",""113138""
","""event"",""trial"",""time""
""focus"",""32"",""142240""
","""event"",""trial"",""time""
""fullscreenenter"",""1"",""1365""
","
","","","","","","590","<p> <b> True or False? </b> </p><p> You will have as much time as you want to make each choice. </p>","","1","comp_question","","","true","","","","","",""
"comp-q","39","187844","0.0-12.0-1.2","1915","2","""event"",""trial"",""time""
""fullscreenenter"",""1"",""1365""
""blur"",""32"",""113138""
""focus"",""32"",""142240""
","""event"",""trial"",""time""
""blur"",""32"",""113138""
","""event"",""trial"",""time""
""focus"",""32"",""142240""
","""event"",""trial"",""time""
""fullscreenenter"",""1"",""1365""
","
","","","","","","2338.5","<p> <b> That's right! </b> You will only have 10 seconds to make each choice. </p>","","0","comp_answer","","","","","","","","",""
"learning-instructions","40","197776","0.0-13.0","1915","2","""event"",""trial"",""time""
""fullscreenenter"",""1"",""1365""
""blur"",""32"",""113138""
""focus"",""32"",""142240""
","""event"",""trial"",""time""
""blur"",""32"",""113138""
","""event"",""trial"",""time""
""focus"",""32"",""142240""
","""event"",""trial"",""time""
""fullscreenenter"",""1"",""1365""
","
","","","","","","1260.8000001907349","<p> Great! You are now ready to begin the game. </p><p> Remember, use the 1, 2, 3, and 4 keys to make your responses. </p>","","0","instructions","","","","","","","","",""
"preload","41","201129","0.0-14.0","1915","2","""event"",""trial"",""time""
""fullscreenenter"",""1"",""1365""
""blur"",""32"",""113138""
""focus"",""32"",""142240""
","""event"",""trial"",""time""
""blur"",""32"",""113138""
","""event"",""trial"",""time""
""focus"",""32"",""142240""
","""event"",""trial"",""time""
""fullscreenenter"",""1"",""1365""
","
","true","false","[]","[]","[]","","","","","","","","","","","","","",""
"html-keyboard-response","42","201637","0.0-15.0-0.0","1915","2","""event"",""trial"",""time""
""fullscreenenter"",""1"",""1365""
""blur"",""32"",""113138""
""focus"",""32"",""142240""
","""event"",""trial"",""time""
""blur"",""32"",""113138""
","""event"",""trial"",""time""
""focus"",""32"",""142240""
","""event"",""trial"",""time""
""fullscreenenter"",""1"",""1365""
","
","","","","","","null","<div style=""font-size:60px;"">+</div>","null","","fixation","","","","","","","","",""
"memory-trial","43","205553","0.0-15.0-1.0","1915","2","""event"",""trial"",""time""
""fullscreenenter"",""1"",""1365""
""blur"",""32"",""113138""
""focus"",""32"",""142240""
","""event"",""trial"",""time""
""blur"",""32"",""113138""
","""event"",""trial"",""time""
""focus"",""32"",""142240""
","""event"",""trial"",""time""
""fullscreenenter"",""1"",""1365""
","
","","","","","","2913.7999997138977","images/sofa2.png","","","memory_trial","2","maybe_old","","","","","","",""
"html-keyboard-response","44","206055","0.0-15.0-0.1","1915","2","""event"",""trial"",""time""
""fullscreenenter"",""1"",""1365""
""blur"",""32"",""113138""
""focus"",""32"",""142240""
","""event"",""trial"",""time""
""blur"",""32"",""113138""
","""event"",""trial"",""time""
""focus"",""32"",""142240""
","""event"",""trial"",""time""
""fullscreenenter"",""1"",""1365""
","
","","","","","","null","<div style=""font-size:60px;"">+</div>","null","","fixation","","","","","","","","",""
"memory-trial","45","208408","0.0-15.0-1.1","1915","2","""event"",""trial"",""time""
""fullscreenenter"",""1"",""1365""
""blur"",""32"",""113138""
""focus"",""32"",""142240""
","""event"",""trial"",""time""
""blur"",""32"",""113138""
","""event"",""trial"",""time""
""focus"",""32"",""142240""
","""event"",""trial"",""time""
""fullscreenenter"",""1"",""1365""
","
","","","","","","1346","images/straw4.png","","","memory_trial","1","definitely_old","","","","","","",""
"html-keyboard-response","46","208914","0.0-15.0-0.2","1915","2","""event"",""trial"",""time""
""fullscreenenter"",""1"",""1365""
""blur"",""32"",""113138""
""focus"",""32"",""142240""
","""event"",""trial"",""time""
""blur"",""32"",""113138""
","""event"",""trial"",""time""
""focus"",""32"",""142240""
","""event"",""trial"",""time""
""fullscreenenter"",""1"",""1365""
","
","","","","","","null","<div style=""font-size:60px;"">+</div>","null","","fixation","","","","","","","","",""
"memory-trial","47","210805","0.0-15.0-1.2","1915","2","""event"",""trial"",""time""
""fullscreenenter"",""1"",""1365""
""blur"",""32"",""113138""
""focus"",""32"",""142240""
","""event"",""trial"",""time""
""blur"",""32"",""113138""
","""event"",""trial"",""time""
""focus"",""32"",""142240""
","""event"",""trial"",""time""
""fullscreenenter"",""1"",""1365""
","
","","","","","","889.2999997138977","images/apple3.png","","","memory_trial","1","definitely_old","","","","","","",""
"html-keyboard-response","48","211311","0.0-15.0-0.3","1915","2","""event"",""trial"",""time""
""fullscreenenter"",""1"",""1365""
""blur"",""32"",""113138""
""focus"",""32"",""142240""
","""event"",""trial"",""time""
""blur"",""32"",""113138""
","""event"",""trial"",""time""
""focus"",""32"",""142240""
","""event"",""trial"",""time""
""fullscreenenter"",""1"",""1365""
","
","","","","","","null","<div style=""font-size:60px;"">+</div>","null","","fixation","","","","","","","","",""
"memory-trial","49","213978","0.0-15.0-1.3","1915","2","""event"",""trial"",""time""
""fullscreenenter"",""1"",""1365""
""blur"",""32"",""113138""
""focus"",""32"",""142240""
","""event"",""trial"",""time""
""blur"",""32"",""113138""
","""event"",""trial"",""time""
""focus"",""32"",""142240""
","""event"",""trial"",""time""
""fullscreenenter"",""1"",""1365""
","
","","","","","","1661.0999999046326","images/banana3.png","","","memory_trial","2","maybe_old","","","","","","",""
"html-keyboard-response","50","214482","0.0-15.0-0.4","1915","2","""event"",""trial"",""time""
""fullscreenenter"",""1"",""1365""
""blur"",""32"",""113138""
""focus"",""32"",""142240""
","""event"",""trial"",""time""
""blur"",""32"",""113138""
","""event"",""trial"",""time""
""focus"",""32"",""142240""
","""event"",""trial"",""time""
""fullscreenenter"",""1"",""1365""
","
","","","","","","null","<div style=""font-size:60px;"">+</div>","null","","fixation","","","","","","","","",""
"memory-trial","51","216758","0.0-15.0-1.4","1915","2","""event"",""trial"",""time""
""fullscreenenter"",""1"",""1365""
""blur"",""32"",""113138""
""focus"",""32"",""142240""
","""event"",""trial"",""time""
""blur"",""32"",""113138""
","""event"",""trial"",""time""
""focus"",""32"",""142240""
","""event"",""trial"",""time""
""fullscreenenter"",""1"",""1365""
","
","","","","","","1272.5999999046326","images/cactus3.png","","","memory_trial","4","definitely_new","","","","","","",""
"html-keyboard-response","52","217260","0.0-15.0-0.5","1915","2","""event"",""trial"",""time""
""fullscreenenter"",""1"",""1365""
""blur"",""32"",""113138""
""focus"",""32"",""142240""
","""event"",""trial"",""time""
""blur"",""32"",""113138""
","""event"",""trial"",""time""
""focus"",""32"",""142240""
","""event"",""trial"",""time""
""fullscreenenter"",""1"",""1365""
","
","","","","","","null","<div style=""font-size:60px;"">+</div>","null","","fixation","","","","","","","","",""
"memory-trial","53","219747","0.0-15.0-1.5","1915","2","""event"",""trial"",""time""
""fullscreenenter"",""1"",""1365""
""blur"",""32"",""113138""
""focus"",""32"",""142240""
","""event"",""trial"",""time""
""blur"",""32"",""113138""
","""event"",""trial"",""time""
""focus"",""32"",""142240""
","""event"",""trial"",""time""
""fullscreenenter"",""1"",""1365""
","
","","","","","","1484.6999998092651","images/dog4.png","","","memory_trial","1","definitely_old","","","","","","",""
"html-keyboard-response","54","220251","0.0-15.0-0.6","1915","2","""event"",""trial"",""time""
""fullscreenenter"",""1"",""1365""
""blur"",""32"",""113138""
""focus"",""32"",""142240""
","""event"",""trial"",""time""
""blur"",""32"",""113138""
","""event"",""trial"",""time""
""focus"",""32"",""142240""
","""event"",""trial"",""time""
""fullscreenenter"",""1"",""1365""
","
","","","","","","null","<div style=""font-size:60px;"">+</div>","null","","fixation","","","","","","","","",""
"memory-trial","55","222661","0.0-15.0-1.6","1915","2","""event"",""trial"",""time""
""fullscreenenter"",""1"",""1365""
""blur"",""32"",""113138""
""focus"",""32"",""142240""
","""event"",""trial"",""time""
""blur"",""32"",""113138""
","""event"",""trial"",""time""
""focus"",""32"",""142240""
","""event"",""trial"",""time""
""fullscreenenter"",""1"",""1365""
","
","","","","","","1407.6999998092651","images/sheep2.png","","","memory_trial","1","definitely_old","","","","","","",""
"html-keyboard-response","56","223164","0.0-15.0-0.7","1915","2","""event"",""trial"",""time""
""fullscreenenter"",""1"",""1365""
""blur"",""32"",""113138""
""focus"",""32"",""142240""
","""event"",""trial"",""time""
""blur"",""32"",""113138""
","""event"",""trial"",""time""
""focus"",""32"",""142240""
","""event"",""trial"",""time""
""fullscreenenter"",""1"",""1365""
","
","","","","","","null","<div style=""font-size:60px;"">+</div>","null","","fixation","","","","","","","","",""
"memory-trial","57","225185","0.0-15.0-1.7","1915","2","""event"",""trial"",""time""
""fullscreenenter"",""1"",""1365""
""blur"",""32"",""113138""
""focus"",""32"",""142240""
","""event"",""trial"",""time""
""blur"",""32"",""113138""
","""event"",""trial"",""time""
""focus"",""32"",""142240""
","""event"",""trial"",""time""
""fullscreenenter"",""1"",""1365""
","
","","","","","","1016.8000001907349","images/flower4.png","","","memory_trial","1","definitely_old","","","","","","",""
"html-keyboard-response","58","225686","0.0-15.0-0.8","1915","2","""event"",""trial"",""time""
""fullscreenenter"",""1"",""1365""
""blur"",""32"",""113138""
""focus"",""32"",""142240""
","""event"",""trial"",""time""
""blur"",""32"",""113138""
","""event"",""trial"",""time""
""focus"",""32"",""142240""
","""event"",""trial"",""time""
""fullscreenenter"",""1"",""1365""
","
","","","","","","null","<div style=""font-size:60px;"">+</div>","null","","fixation","","","","","","","","",""
"memory-trial","59","227926","0.0-15.0-1.8","1915","2","""event"",""trial"",""time""
""fullscreenenter"",""1"",""1365""
""blur"",""32"",""113138""
""focus"",""32"",""142240""
","""event"",""trial"",""time""
""blur"",""32"",""113138""
","""event"",""trial"",""time""
""focus"",""32"",""142240""
","""event"",""trial"",""time""
""fullscreenenter"",""1"",""1365""
","
","","","","","","1227.4000000953674","images/horse4.png","","","memory_trial","4","definitely_new","","","","","","",""
"html-keyboard-response","60","228430","0.0-15.0-0.9","1915","2","""event"",""trial"",""time""
""fullscreenenter"",""1"",""1365""
""blur"",""32"",""113138""
""focus"",""32"",""142240""
","""event"",""trial"",""time""
""blur"",""32"",""113138""
","""event"",""trial"",""time""
""focus"",""32"",""142240""
","""event"",""trial"",""time""
""fullscreenenter"",""1"",""1365""
","
","","","","","","null","<div style=""font-size:60px;"">+</div>","null","","fixation","","","","","","","","",""
"memory-trial","61","231942","0.0-15.0-1.9","1915","2","""event"",""trial"",""time""
""fullscreenenter"",""1"",""1365""
""blur"",""32"",""113138""
""focus"",""32"",""142240""
","""event"",""trial"",""time""
""blur"",""32"",""113138""
","""event"",""trial"",""time""
""focus"",""32"",""142240""
","""event"",""trial"",""time""
""fullscreenenter"",""1"",""1365""
","
","","","","","","2504.7999997138977","images/chair2.png","","","memory_trial","1","definitely_old","","","","","","",""
"html-keyboard-response","62","232447","0.0-15.0-0.10","1915","2","""event"",""trial"",""time""
""fullscreenenter"",""1"",""1365""
""blur"",""32"",""113138""
""focus"",""32"",""142240""
","""event"",""trial"",""time""
""blur"",""32"",""113138""
","""event"",""trial"",""time""
""focus"",""32"",""142240""
","""event"",""trial"",""time""
""fullscreenenter"",""1"",""1365""
","
","","","","","","null","<div style=""font-size:60px;"">+</div>","null","","fixation","","","","","","","","",""
"memory-trial","63","234655","0.0-15.0-1.10","1915","2","""event"",""trial"",""time""
""fullscreenenter"",""1"",""1365""
""blur"",""32"",""113138""
""focus"",""32"",""142240""
","""event"",""trial"",""time""
""blur"",""32"",""113138""
","""event"",""trial"",""time""
""focus"",""32"",""142240""
","""event"",""trial"",""time""
""fullscreenenter"",""1"",""1365""
","
","","","","","","1201.1000003814697","images/orange4.png","","","memory_trial","4","definitely_new","","","","","","",""
"html-keyboard-response","64","235158","0.0-15.0-0.11","1915","2","""event"",""trial"",""time""
""fullscreenenter"",""1"",""1365""
""blur"",""32"",""113138""
""focus"",""32"",""142240""
","""event"",""trial"",""time""
""blur"",""32"",""113138""
","""event"",""trial"",""time""
""focus"",""32"",""142240""
","""event"",""trial"",""time""
""fullscreenenter"",""1"",""1365""
","
","","","","","","null","<div style=""font-size:60px;"">+</div>","null","","fixation","","","","","","","","",""
"memory-trial","65","237364","0.0-15.0-1.11","1915","2","""event"",""trial"",""time""
""fullscreenenter"",""1"",""1365""
""blur"",""32"",""113138""
""focus"",""32"",""142240""
","""event"",""trial"",""time""
""blur"",""32"",""113138""
","""event"",""trial"",""time""
""focus"",""32"",""142240""
","""event"",""trial"",""time""
""fullscreenenter"",""1"",""1365""
","
","","","","","","1199","images/straw3.png","","","memory_trial","1","definitely_old","","","","","","",""
"html-keyboard-response","66","237869","0.0-15.0-0.12","1915","2","""event"",""trial"",""time""
""fullscreenenter"",""1"",""1365""
""blur"",""32"",""113138""
""focus"",""32"",""142240""
","""event"",""trial"",""time""
""blur"",""32"",""113138""
","""event"",""trial"",""time""
""focus"",""32"",""142240""
","""event"",""trial"",""time""
""fullscreenenter"",""1"",""1365""
","
","","","","","","null","<div style=""font-size:60px;"">+</div>","null","","fixation","","","","","","","","",""
"memory-trial","67","240354","0.0-15.0-1.12","1915","2","""event"",""trial"",""time""
""fullscreenenter"",""1"",""1365""
""blur"",""32"",""113138""
""focus"",""32"",""142240""
","""event"",""trial"",""time""
""blur"",""32"",""113138""
","""event"",""trial"",""time""
""focus"",""32"",""142240""
","""event"",""trial"",""time""
""fullscreenenter"",""1"",""1365""
","
","","","","","","1480.6999998092651","images/boat5.png","","","memory_trial","4","definitely_new","","","","","","",""
"html-keyboard-response","68","240859","0.0-15.0-0.13","1915","2","""event"",""trial"",""time""
""fullscreenenter"",""1"",""1365""
""blur"",""32"",""113138""
""focus"",""32"",""142240""
","""event"",""trial"",""time""
""blur"",""32"",""113138""
","""event"",""trial"",""time""
""focus"",""32"",""142240""
","""event"",""trial"",""time""
""fullscreenenter"",""1"",""1365""
","
","","","","","","null","<div style=""font-size:60px;"">+</div>","null","","fixation","","","","","","","","",""
"memory-trial","69","242862","0.0-15.0-1.13","1915","2","""event"",""trial"",""time""
""fullscreenenter"",""1"",""1365""
""blur"",""32"",""113138""
""focus"",""32"",""142240""
","""event"",""trial"",""time""
""blur"",""32"",""113138""
","""event"",""trial"",""time""
""focus"",""32"",""142240""
","""event"",""trial"",""time""
""fullscreenenter"",""1"",""1365""
","
","","","","","","997","images/feline2.png","","","memory_trial","4","definitely_new","","","","","","",""
"html-keyboard-response","70","243363","0.0-15.0-0.14","1915","2","""event"",""trial"",""time""
""fullscreenenter"",""1"",""1365""
""blur"",""32"",""113138""
""focus"",""32"",""142240""
","""event"",""trial"",""time""
""blur"",""32"",""113138""
","""event"",""trial"",""time""
""focus"",""32"",""142240""
","""event"",""trial"",""time""
""fullscreenenter"",""1"",""1365""
","
","","","","","","null","<div style=""font-size:60px;"">+</div>","null","","fixation","","","","","","","","",""
"memory-trial","71","246153","0.0-15.0-1.14","1915","2","""event"",""trial"",""time""
""fullscreenenter"",""1"",""1365""
""blur"",""32"",""113138""
""focus"",""32"",""142240""
","""event"",""trial"",""time""
""blur"",""32"",""113138""
","""event"",""trial"",""time""
""focus"",""32"",""142240""
","""event"",""trial"",""time""
""fullscreenenter"",""1"",""1365""
","
","","","","","","1786","images/rabbit3.png","","","memory_trial","2","maybe_old","","","","","","",""
"html-keyboard-response","72","246657","0.0-15.0-0.15","1915","2","""event"",""trial"",""time""
""fullscreenenter"",""1"",""1365""
""blur"",""32"",""113138""
""focus"",""32"",""142240""
","""event"",""trial"",""time""
""blur"",""32"",""113138""
","""event"",""trial"",""time""
""focus"",""32"",""142240""
","""event"",""trial"",""time""
""fullscreenenter"",""1"",""1365""
","
","","","","","","null","<div style=""font-size:60px;"">+</div>","null","","fixation","","","","","","","","",""
"memory-trial","73","248655","0.0-15.0-1.15","1915","2","""event"",""trial"",""time""
""fullscreenenter"",""1"",""1365""
""blur"",""32"",""113138""
""focus"",""32"",""142240""
","""event"",""trial"",""time""
""blur"",""32"",""113138""
","""event"",""trial"",""time""
""focus"",""32"",""142240""
","""event"",""trial"",""time""
""fullscreenenter"",""1"",""1365""
","
","","","","","","995.3000001907349","images/rabbit4.png","","","memory_trial","1","definitely_old","","","","","","",""
"html-keyboard-response","74","249160","0.0-15.0-0.16","1915","2","""event"",""trial"",""time""
""fullscreenenter"",""1"",""1365""
""blur"",""32"",""113138""
""focus"",""32"",""142240""
","""event"",""trial"",""time""
""blur"",""32"",""113138""
","""event"",""trial"",""time""
""focus"",""32"",""142240""
","""event"",""trial"",""time""
""fullscreenenter"",""1"",""1365""
","
","","","","","","null","<div style=""font-size:60px;"">+</div>","null","","fixation","","","","","","","","",""
"memory-trial","75","251273","0.0-15.0-1.16","1915","2","""event"",""trial"",""time""
""fullscreenenter"",""1"",""1365""
""blur"",""32"",""113138""
""focus"",""32"",""142240""
","""event"",""trial"",""time""
""blur"",""32"",""113138""
","""event"",""trial"",""time""
""focus"",""32"",""142240""
","""event"",""trial"",""time""
""fullscreenenter"",""1"",""1365""
","
","","","","","","1107.5","images/table3.png","","","memory_trial","4","definitely_new","","","","","","",""
"html-keyboard-response","76","251778","0.0-15.0-0.17","1915","2","""event"",""trial"",""time""
""fullscreenenter"",""1"",""1365""
""blur"",""32"",""113138""
""focus"",""32"",""142240""
","""event"",""trial"",""time""
""blur"",""32"",""113138""
","""event"",""trial"",""time""
""focus"",""32"",""142240""
","""event"",""trial"",""time""
""fullscreenenter"",""1"",""1365""
","
","","","","","","null","<div style=""font-size:60px;"">+</div>","null","","fixation","","","","","","","","",""
"memory-trial","77","254047","0.0-15.0-1.17","1915","2","""event"",""trial"",""time""
""fullscreenenter"",""1"",""1365""
""blur"",""32"",""113138""
""focus"",""32"",""142240""
","""event"",""trial"",""time""
""blur"",""32"",""113138""
","""event"",""trial"",""time""
""focus"",""32"",""142240""
","""event"",""trial"",""time""
""fullscreenenter"",""1"",""1365""
","
","","","","","","1259.6999998092651","images/tree3.png","","","memory_trial","1","definitely_old","","","","","","",""
"html-keyboard-response","78","254553","0.0-15.0-0.18","1915","2","""event"",""trial"",""time""
""fullscreenenter"",""1"",""1365""
""blur"",""32"",""113138""
""focus"",""32"",""142240""
","""event"",""trial"",""time""
""blur"",""32"",""113138""
","""event"",""trial"",""time""
""focus"",""32"",""142240""
","""event"",""trial"",""time""
""fullscreenenter"",""1"",""1365""
","
","","","","","","null","<div style=""font-size:60px;"">+</div>","null","","fixation","","","","","","","","",""
"memory-trial","79","256788","0.0-15.0-1.18","1915","2","""event"",""trial"",""time""
""fullscreenenter"",""1"",""1365""
""blur"",""32"",""113138""
""focus"",""32"",""142240""
","""event"",""trial"",""time""
""blur"",""32"",""113138""
","""event"",""trial"",""time""
""focus"",""32"",""142240""
","""event"",""trial"",""time""
""fullscreenenter"",""1"",""1365""
","
","","","","","","1231.0999999046326","images/flower2.png","","","memory_trial","4","definitely_new","","","","","","",""
"html-keyboard-response","80","257293","0.0-15.0-0.19","1915","2","""event"",""trial"",""time""
""fullscreenenter"",""1"",""1365""
""blur"",""32"",""113138""
""focus"",""32"",""142240""
","""event"",""trial"",""time""
""blur"",""32"",""113138""
","""event"",""trial"",""time""
""focus"",""32"",""142240""
","""event"",""trial"",""time""
""fullscreenenter"",""1"",""1365""
","
","","","","","","null","<div style=""font-size:60px;"">+</div>","null","","fixation","","","","","","","","",""
"memory-trial","81","260073","0.0-15.0-1.19","1915","2","""event"",""trial"",""time""
""fullscreenenter"",""1"",""1365""
""blur"",""32"",""113138""
""focus"",""32"",""142240""
","""event"",""trial"",""time""
""blur"",""32"",""113138""
","""event"",""trial"",""time""
""focus"",""32"",""142240""
","""event"",""trial"",""time""
""fullscreenenter"",""1"",""1365""
","
","","","","","","1774.8000001907349","images/rabbit2.png","","","memory_trial","2","maybe_old","","","","","","",""
"html-keyboard-response","82","260578","0.0-15.0-0.20","1915","2","""event"",""trial"",""time""
""fullscreenenter"",""1"",""1365""
""blur"",""32"",""113138""
""focus"",""32"",""142240""
","""event"",""trial"",""time""
""blur"",""32"",""113138""
","""event"",""trial"",""time""
""focus"",""32"",""142240""
","""event"",""trial"",""time""
""fullscreenenter"",""1"",""1365""
","
","","","","","","null","<div style=""font-size:60px;"">+</div>","null","","fixation","","","","","","","","",""
"memory-trial","83","262569","0.0-15.0-1.20","1915","2","""event"",""trial"",""time""
""fullscreenenter"",""1"",""1365""
""blur"",""32"",""113138""
""focus"",""32"",""142240""
","""event"",""trial"",""time""
""blur"",""32"",""113138""
","""event"",""trial"",""time""
""focus"",""32"",""142240""
","""event"",""trial"",""time""
""fullscreenenter"",""1"",""1365""
","
","","","","","","986.3000001907349","images/chair4.png","","","memory_trial","4","definitely_new","","","","","","",""
"html-keyboard-response","84","263073","0.0-15.0-0.21","1915","2","""event"",""trial"",""time""
""fullscreenenter"",""1"",""1365""
""blur"",""32"",""113138""
""focus"",""32"",""142240""
","""event"",""trial"",""time""
""blur"",""32"",""113138""
","""event"",""trial"",""time""
""focus"",""32"",""142240""
","""event"",""trial"",""time""
""fullscreenenter"",""1"",""1365""
","
","","","","","","null","<div style=""font-size:60px;"">+</div>","null","","fixation","","","","","","","","",""
"memory-trial","85","266087","0.0-15.0-1.21","1915","2","""event"",""trial"",""time""
""fullscreenenter"",""1"",""1365""
""blur"",""32"",""113138""
""focus"",""32"",""142240""
","""event"",""trial"",""time""
""blur"",""32"",""113138""
","""event"",""trial"",""time""
""focus"",""32"",""142240""
","""event"",""trial"",""time""
""fullscreenenter"",""1"",""1365""
","
","","","","","","2009.6000003814697","images/cactus5.png","","","memory_trial","3","maybe_new","","","","","","",""
"html-keyboard-response","86","266592","0.0-15.0-0.22","1915","2","""event"",""trial"",""time""
""fullscreenenter"",""1"",""1365""
""blur"",""32"",""113138""
""focus"",""32"",""142240""
","""event"",""trial"",""time""
""blur"",""32"",""113138""
","""event"",""trial"",""time""
""focus"",""32"",""142240""
","""event"",""trial"",""time""
""fullscreenenter"",""1"",""1365""
","
","","","","","","null","<div style=""font-size:60px;"">+</div>","null","","fixation","","","","","","","","",""
"memory-trial","87","268589","0.0-15.0-1.22","1915","2","""event"",""trial"",""time""
""fullscreenenter"",""1"",""1365""
""blur"",""32"",""113138""
""focus"",""32"",""142240""
","""event"",""trial"",""time""
""blur"",""32"",""113138""
","""event"",""trial"",""time""
""focus"",""32"",""142240""
","""event"",""trial"",""time""
""fullscreenenter"",""1"",""1365""
","
","","","","","","993.9000000953674","images/bush3.png","","","memory_trial","1","definitely_old","","","","","","",""
"html-keyboard-response","88","269101","0.0-15.0-0.23","1915","2","""event"",""trial"",""time""
""fullscreenenter"",""1"",""1365""
""blur"",""32"",""113138""
""focus"",""32"",""142240""
","""event"",""trial"",""time""
""blur"",""32"",""113138""
","""event"",""trial"",""time""
""focus"",""32"",""142240""
","""event"",""trial"",""time""
""fullscreenenter"",""1"",""1365""
","
","","","","","","null","<div style=""font-size:60px;"">+</div>","null","","fixation","","","","","","","","",""
"memory-trial","89","271022","0.0-15.0-1.23","1915","2","""event"",""trial"",""time""
""fullscreenenter"",""1"",""1365""
""blur"",""32"",""113138""
""focus"",""32"",""142240""
","""event"",""trial"",""time""
""blur"",""32"",""113138""
","""event"",""trial"",""time""
""focus"",""32"",""142240""
","""event"",""trial"",""time""
""fullscreenenter"",""1"",""1365""
","
","","","","","","917.1999998092651","images/truck5.png","","","memory_trial","4","definitely_new","","","","","","",""
"html-keyboard-response","90","271527","0.0-15.0-0.24","1915","2","""event"",""trial"",""time""
""fullscreenenter"",""1"",""1365""
""blur"",""32"",""113138""
""focus"",""32"",""142240""
","""event"",""trial"",""time""
""blur"",""32"",""113138""
","""event"",""trial"",""time""
""focus"",""32"",""142240""
","""event"",""trial"",""time""
""fullscreenenter"",""1"",""1365""
","
","","","","","","null","<div style=""font-size:60px;"">+</div>","null","","fixation","","","","","","","","",""
"memory-trial","91","273680","0.0-15.0-1.24","1915","2","""event"",""trial"",""time""
""fullscreenenter"",""1"",""1365""
""blur"",""32"",""113138""
""focus"",""32"",""142240""
","""event"",""trial"",""time""
""blur"",""32"",""113138""
","""event"",""trial"",""time""
""focus"",""32"",""142240""
","""event"",""trial"",""time""
""fullscreenenter"",""1"",""1365""
","
","","","","","","1149.5999999046326","images/rabbit5.png","","","memory_trial","4","definitely_new","","","","","","",""
"html-keyboard-response","92","274185","0.0-15.0-0.25","1915","2","""event"",""trial"",""time""
""fullscreenenter"",""1"",""1365""
""blur"",""32"",""113138""
""focus"",""32"",""142240""
","""event"",""trial"",""time""
""blur"",""32"",""113138""
","""event"",""trial"",""time""
""focus"",""32"",""142240""
","""event"",""trial"",""time""
""fullscreenenter"",""1"",""1365""
","
","","","","","","null","<div style=""font-size:60px;"">+</div>","null","","fixation","","","","","","","","",""
"memory-trial","93","276095","0.0-15.0-1.25","1915","2","""event"",""trial"",""time""
""fullscreenenter"",""1"",""1365""
""blur"",""32"",""113138""
""focus"",""32"",""142240""
","""event"",""trial"",""time""
""blur"",""32"",""113138""
","""event"",""trial"",""time""
""focus"",""32"",""142240""
","""event"",""trial"",""time""
""fullscreenenter"",""1"",""1365""
","
","","","","","","905.7999997138977","images/dog1.png","","","memory_trial","4","definitely_new","","","","","","",""
"html-keyboard-response","94","276600","0.0-15.0-0.26","1915","2","""event"",""trial"",""time""
""fullscreenenter"",""1"",""1365""
""blur"",""32"",""113138""
""focus"",""32"",""142240""
","""event"",""trial"",""time""
""blur"",""32"",""113138""
","""event"",""trial"",""time""
""focus"",""32"",""142240""
","""event"",""trial"",""time""
""fullscreenenter"",""1"",""1365""
","
","","","","","","null","<div style=""font-size:60px;"">+</div>","null","","fixation","","","","","","","","",""
"memory-trial","95","279207","0.0-15.0-1.26","1915","2","""event"",""trial"",""time""
""fullscreenenter"",""1"",""1365""
""blur"",""32"",""113138""
""focus"",""32"",""142240""
","""event"",""trial"",""time""
""blur"",""32"",""113138""
","""event"",""trial"",""time""
""focus"",""32"",""142240""
","""event"",""trial"",""time""
""fullscreenenter"",""1"",""1365""
","
","","","","","","1601.5","images/truck2.png","","","memory_trial","4","definitely_new","","","","","","",""
"html-keyboard-response","96","279712","0.0-15.0-0.27","1915","2","""event"",""trial"",""time""
""fullscreenenter"",""1"",""1365""
""blur"",""32"",""113138""
""focus"",""32"",""142240""
","""event"",""trial"",""time""
""blur"",""32"",""113138""
","""event"",""trial"",""time""
""focus"",""32"",""142240""
","""event"",""trial"",""time""
""fullscreenenter"",""1"",""1365""
","
","","","","","","null","<div style=""font-size:60px;"">+</div>","null","","fixation","","","","","","","","",""
"memory-trial","97","282463","0.0-15.0-1.27","1915","2","""event"",""trial"",""time""
""fullscreenenter"",""1"",""1365""
""blur"",""32"",""113138""
""focus"",""32"",""142240""
","""event"",""trial"",""time""
""blur"",""32"",""113138""
","""event"",""trial"",""time""
""focus"",""32"",""142240""
","""event"",""trial"",""time""
""fullscreenenter"",""1"",""1365""
","
","","","","","","1745.6999998092651","images/orange2.png","","","memory_trial","3","maybe_new","","","","","","",""
"html-keyboard-response","98","282968","0.0-15.0-0.28","1915","2","""event"",""trial"",""time""
""fullscreenenter"",""1"",""1365""
""blur"",""32"",""113138""
""focus"",""32"",""142240""
","""event"",""trial"",""time""
""blur"",""32"",""113138""
","""event"",""trial"",""time""
""focus"",""32"",""142240""
","""event"",""trial"",""time""
""fullscreenenter"",""1"",""1365""
","
","","","","","","null","<div style=""font-size:60px;"">+</div>","null","","fixation","","","","","","","","",""
"memory-trial","99","285389","0.0-15.0-1.28","1915","2","""event"",""trial"",""time""
""fullscreenenter"",""1"",""1365""
""blur"",""32"",""113138""
""focus"",""32"",""142240""
","""event"",""trial"",""time""
""blur"",""32"",""113138""
","""event"",""trial"",""time""
""focus"",""32"",""142240""
","""event"",""trial"",""time""
""fullscreenenter"",""1"",""1365""
","
","","","","","","1415.3000001907349","images/feline5.png","","","memory_trial","2","maybe_old","","","","","","",""
"html-keyboard-response","100","285894","0.0-15.0-0.29","1915","2","""event"",""trial"",""time""
""fullscreenenter"",""1"",""1365""
""blur"",""32"",""113138""
""focus"",""32"",""142240""
","""event"",""trial"",""time""
""blur"",""32"",""113138""
","""event"",""trial"",""time""
""focus"",""32"",""142240""
","""event"",""trial"",""time""
""fullscreenenter"",""1"",""1365""
","
","","","","","","null","<div style=""font-size:60px;"">+</div>","null","","fixation","","","","","","","","",""
"memory-trial","101","288889","0.0-15.0-1.29","1915","2","""event"",""trial"",""time""
""fullscreenenter"",""1"",""1365""
""blur"",""32"",""113138""
""focus"",""32"",""142240""
","""event"",""trial"",""time""
""blur"",""32"",""113138""
","""event"",""trial"",""time""
""focus"",""32"",""142240""
","""event"",""trial"",""time""
""fullscreenenter"",""1"",""1365""
","
","","","","","","1987.8000001907349","images/sheep3.png","","","memory_trial","4","definitely_new","","","","","","",""
"html-keyboard-response","102","289393","0.0-15.0-0.30","1915","2","""event"",""trial"",""time""
""fullscreenenter"",""1"",""1365""
""blur"",""32"",""113138""
""focus"",""32"",""142240""
","""event"",""trial"",""time""
""blur"",""32"",""113138""
","""event"",""trial"",""time""
""focus"",""32"",""142240""
","""event"",""trial"",""time""
""fullscreenenter"",""1"",""1365""
","
","","","","","","null","<div style=""font-size:60px;"">+</div>","null","","fixation","","","","","","","","",""
"memory-trial","103","291728","0.0-15.0-1.30","1915","2","""event"",""trial"",""time""
""fullscreenenter"",""1"",""1365""
""blur"",""32"",""113138""
""focus"",""32"",""142240""
","""event"",""trial"",""time""
""blur"",""32"",""113138""
","""event"",""trial"",""time""
""focus"",""32"",""142240""
","""event"",""trial"",""time""
""fullscreenenter"",""1"",""1365""
","
","","","","","","1328.5","images/bed2.png","","","memory_trial","1","definitely_old","","","","","","",""
"html-keyboard-response","104","292233","0.0-15.0-0.31","1915","2","""event"",""trial"",""time""
""fullscreenenter"",""1"",""1365""
""blur"",""32"",""113138""
""focus"",""32"",""142240""
","""event"",""trial"",""time""
""blur"",""32"",""113138""
","""event"",""trial"",""time""
""focus"",""32"",""142240""
","""event"",""trial"",""time""
""fullscreenenter"",""1"",""1365""
","
","","","","","","null","<div style=""font-size:60px;"">+</div>","null","","fixation","","","","","","","","",""
"memory-trial","105","294218","0.0-15.0-1.31","1915","2","""event"",""trial"",""time""
""fullscreenenter"",""1"",""1365""
""blur"",""32"",""113138""
""focus"",""32"",""142240""
","""event"",""trial"",""time""
""blur"",""32"",""113138""
","""event"",""trial"",""time""
""focus"",""32"",""142240""
","""event"",""trial"",""time""
""fullscreenenter"",""1"",""1365""
","
","","","","","","982.5999999046326","images/train5.png","","","memory_trial","1","definitely_old","","","","","","",""
"html-keyboard-response","106","294729","0.0-15.0-0.32","1915","2","""event"",""trial"",""time""
""fullscreenenter"",""1"",""1365""
""blur"",""32"",""113138""
""focus"",""32"",""142240""
","""event"",""trial"",""time""
""blur"",""32"",""113138""
","""event"",""trial"",""time""
""focus"",""32"",""142240""
","""event"",""trial"",""time""
""fullscreenenter"",""1"",""1365""
","
","","","","","","null","<div style=""font-size:60px;"">+</div>","null","","fixation","","","","","","","","",""
"memory-trial","107","298160","0.0-15.0-1.32","1915","2","""event"",""trial"",""time""
""fullscreenenter"",""1"",""1365""
""blur"",""32"",""113138""
""focus"",""32"",""142240""
","""event"",""trial"",""time""
""blur"",""32"",""113138""
","""event"",""trial"",""time""
""focus"",""32"",""142240""
","""event"",""trial"",""time""
""fullscreenenter"",""1"",""1365""
","
","","","","","","2427.300000190735","images/sheep1.png","","","memory_trial","2","maybe_old","","","","","","",""
"html-keyboard-response","108","298665","0.0-15.0-0.33","1915","2","""event"",""trial"",""time""
""fullscreenenter"",""1"",""1365""
""blur"",""32"",""113138""
""focus"",""32"",""142240""
","""event"",""trial"",""time""
""blur"",""32"",""113138""
","""event"",""trial"",""time""
""focus"",""32"",""142240""
","""event"",""trial"",""time""
""fullscreenenter"",""1"",""1365""
","
","","","","","","null","<div style=""font-size:60px;"">+</div>","null","","fixation","","","","","","","","",""
"memory-trial","109","300615","0.0-15.0-1.33","1915","2","""event"",""trial"",""time""
""fullscreenenter"",""1"",""1365""
""blur"",""32"",""113138""
""focus"",""32"",""142240""
","""event"",""trial"",""time""
""blur"",""32"",""113138""
","""event"",""trial"",""time""
""focus"",""32"",""142240""
","""event"",""trial"",""time""
""fullscreenenter"",""1"",""1365""
","
","","","","","","943.5","images/train3.png","","","memory_trial","1","definitely_old","","","","","","",""
"html-keyboard-response","110","301120","0.0-15.0-0.34","1915","2","""event"",""trial"",""time""
""fullscreenenter"",""1"",""1365""
""blur"",""32"",""113138""
""focus"",""32"",""142240""
","""event"",""trial"",""time""
""blur"",""32"",""113138""
","""event"",""trial"",""time""
""focus"",""32"",""142240""
","""event"",""trial"",""time""
""fullscreenenter"",""1"",""1365""
","
","","","","","","null","<div style=""font-size:60px;"">+</div>","null","","fixation","","","","","","","","",""
"memory-trial","111","303577","0.0-15.0-1.34","1915","2","""event"",""trial"",""time""
""fullscreenenter"",""1"",""1365""
""blur"",""32"",""113138""
""focus"",""32"",""142240""
","""event"",""trial"",""time""
""blur"",""32"",""113138""
","""event"",""trial"",""time""
""focus"",""32"",""142240""
","""event"",""trial"",""time""
""fullscreenenter"",""1"",""1365""
","
","","","","","","1451.6999998092651","images/dog2.png","","","memory_trial","1","definitely_old","","","","","","",""
"html-keyboard-response","112","304081","0.0-15.0-0.35","1915","2","""event"",""trial"",""time""
""fullscreenenter"",""1"",""1365""
""blur"",""32"",""113138""
""focus"",""32"",""142240""
","""event"",""trial"",""time""
""blur"",""32"",""113138""
","""event"",""trial"",""time""
""focus"",""32"",""142240""
","""event"",""trial"",""time""
""fullscreenenter"",""1"",""1365""
","
","","","","","","null","<div style=""font-size:60px;"">+</div>","null","","fixation","","","","","","","","",""
"memory-trial","113","306142","0.0-15.0-1.35","1915","2","""event"",""trial"",""time""
""fullscreenenter"",""1"",""1365""
""blur"",""32"",""113138""
""focus"",""32"",""142240""
","""event"",""trial"",""time""
""blur"",""32"",""113138""
","""event"",""trial"",""time""
""focus"",""32"",""142240""
","""event"",""trial"",""time""
""fullscreenenter"",""1"",""1365""
","
","","","","","","1056.8999996185303","images/table2.png","","","memory_trial","4","definitely_new","","","","","","",""
"html-keyboard-response","114","306647","0.0-15.0-0.36","1915","2","""event"",""trial"",""time""
""fullscreenenter"",""1"",""1365""
""blur"",""32"",""113138""
""focus"",""32"",""142240""
","""event"",""trial"",""time""
""blur"",""32"",""113138""
","""event"",""trial"",""time""
""focus"",""32"",""142240""
","""event"",""trial"",""time""
""fullscreenenter"",""1"",""1365""
","
","","","","","","null","<div style=""font-size:60px;"">+</div>","null","","fixation","","","","","","","","",""
"memory-trial","115","309131","0.0-15.0-1.36","1915","2","""event"",""trial"",""time""
""fullscreenenter"",""1"",""1365""
""blur"",""32"",""113138""
""focus"",""32"",""142240""
","""event"",""trial"",""time""
""blur"",""32"",""113138""
","""event"",""trial"",""time""
""focus"",""32"",""142240""
","""event"",""trial"",""time""
""fullscreenenter"",""1"",""1365""
","
","","","","","","1478.8000001907349","images/straw5.png","","","memory_trial","1","definitely_old","","","","","","",""
"html-keyboard-response","116","309636","0.0-15.0-0.37","1915","2","""event"",""trial"",""time""
""fullscreenenter"",""1"",""1365""
""blur"",""32"",""113138""
""focus"",""32"",""142240""
","""event"",""trial"",""time""
""blur"",""32"",""113138""
","""event"",""trial"",""time""
""focus"",""32"",""142240""
","""event"",""trial"",""time""
""fullscreenenter"",""1"",""1365""
","
","","","","","","null","<div style=""font-size:60px;"">+</div>","null","","fixation","","","","","","","","",""
"memory-trial","117","312678","0.0-15.0-1.37","1915","2","""event"",""trial"",""time""
""fullscreenenter"",""1"",""1365""
""blur"",""32"",""113138""
""focus"",""32"",""142240""
","""event"",""trial"",""time""
""blur"",""32"",""113138""
","""event"",""trial"",""time""
""focus"",""32"",""142240""
","""event"",""trial"",""time""
""fullscreenenter"",""1"",""1365""
","
","","","","","","2039.9000000953674","images/cow3.png","","","memory_trial","2","maybe_old","","","","","","",""
"html-keyboard-response","118","313184","0.0-15.0-0.38","1915","2","""event"",""trial"",""time""
""fullscreenenter"",""1"",""1365""
""blur"",""32"",""113138""
""focus"",""32"",""142240""
","""event"",""trial"",""time""
""blur"",""32"",""113138""
","""event"",""trial"",""time""
""focus"",""32"",""142240""
","""event"",""trial"",""time""
""fullscreenenter"",""1"",""1365""
","
","","","","","","null","<div style=""font-size:60px;"">+</div>","null","","fixation","","","","","","","","",""
"memory-trial","119","315041","0.0-15.0-1.38","1915","2","""event"",""trial"",""time""
""fullscreenenter"",""1"",""1365""
""blur"",""32"",""113138""
""focus"",""32"",""142240""
","""event"",""trial"",""time""
""blur"",""32"",""113138""
","""event"",""trial"",""time""
""focus"",""32"",""142240""
","""event"",""trial"",""time""
""fullscreenenter"",""1"",""1365""
","
","","","","","","851.4000000953674","images/straw1.png","","","memory_trial","1","definitely_old","","","","","","",""
"html-keyboard-response","120","315546","0.0-15.0-0.39","1915","2","""event"",""trial"",""time""
""fullscreenenter"",""1"",""1365""
""blur"",""32"",""113138""
""focus"",""32"",""142240""
","""event"",""trial"",""time""
""blur"",""32"",""113138""
","""event"",""trial"",""time""
""focus"",""32"",""142240""
","""event"",""trial"",""time""
""fullscreenenter"",""1"",""1365""
","
","","","","","","null","<div style=""font-size:60px;"">+</div>","null","","fixation","","","","","","","","",""
"memory-trial","121","317828","0.0-15.0-1.39","1915","2","""event"",""trial"",""time""
""fullscreenenter"",""1"",""1365""
""blur"",""32"",""113138""
""focus"",""32"",""142240""
","""event"",""trial"",""time""
""blur"",""32"",""113138""
","""event"",""trial"",""time""
""focus"",""32"",""142240""
","""event"",""trial"",""time""
""fullscreenenter"",""1"",""1365""
","
","","","","","","1279.4000000953674","images/sofa3.png","","","memory_trial","1","definitely_old","","","","","","",""
"html-keyboard-response","122","318332","0.0-15.0-0.40","1915","2","""event"",""trial"",""time""
""fullscreenenter"",""1"",""1365""
""blur"",""32"",""113138""
""focus"",""32"",""142240""
","""event"",""trial"",""time""
""blur"",""32"",""113138""
","""event"",""trial"",""time""
""focus"",""32"",""142240""
","""event"",""trial"",""time""
""fullscreenenter"",""1"",""1365""
","
","","","","","","null","<div style=""font-size:60px;"">+</div>","null","","fixation","","","","","","","","",""
"memory-trial","123","320840","0.0-15.0-1.40","1915","2","""event"",""trial"",""time""
""fullscreenenter"",""1"",""1365""
""blur"",""32"",""113138""
""focus"",""32"",""142240""
","""event"",""trial"",""time""
""blur"",""32"",""113138""
","""event"",""trial"",""time""
""focus"",""32"",""142240""
","""event"",""trial"",""time""
""fullscreenenter"",""1"",""1365""
","
","","","","","","1501.6999998092651","images/banana1.png","","","memory_trial","2","maybe_old","","","","","","",""
"html-keyboard-response","124","321345","0.0-15.0-0.41","1915","2","""event"",""trial"",""time""
""fullscreenenter"",""1"",""1365""
""blur"",""32"",""113138""
""focus"",""32"",""142240""
","""event"",""trial"",""time""
""blur"",""32"",""113138""
","""event"",""trial"",""time""
""focus"",""32"",""142240""
","""event"",""trial"",""time""
""fullscreenenter"",""1"",""1365""
","
","","","","","","null","<div style=""font-size:60px;"">+</div>","null","","fixation","","","","","","","","",""
"memory-trial","125","323431","0.0-15.0-1.41","1915","2","""event"",""trial"",""time""
""fullscreenenter"",""1"",""1365""
""blur"",""32"",""113138""
""focus"",""32"",""142240""
","""event"",""trial"",""time""
""blur"",""32"",""113138""
","""event"",""trial"",""time""
""focus"",""32"",""142240""
","""event"",""trial"",""time""
""fullscreenenter"",""1"",""1365""
","
","","","","","","1081","images/horse3.png","","","memory_trial","4","definitely_new","","","","","","",""
"html-keyboard-response","126","323934","0.0-15.0-0.42","1915","2","""event"",""trial"",""time""
""fullscreenenter"",""1"",""1365""
""blur"",""32"",""113138""
""focus"",""32"",""142240""
","""event"",""trial"",""time""
""blur"",""32"",""113138""
","""event"",""trial"",""time""
""focus"",""32"",""142240""
","""event"",""trial"",""time""
""fullscreenenter"",""1"",""1365""
","
","","","","","","null","<div style=""font-size:60px;"">+</div>","null","","fixation","","","","","","","","",""
"memory-trial","127","325949","0.0-15.0-1.42","1915","2","""event"",""trial"",""time""
""fullscreenenter"",""1"",""1365""
""blur"",""32"",""113138""
""focus"",""32"",""142240""
","""event"",""trial"",""time""
""blur"",""32"",""113138""
","""event"",""trial"",""time""
""focus"",""32"",""142240""
","""event"",""trial"",""time""
""fullscreenenter"",""1"",""1365""
","
","","","","","","1003.2000002861023","images/cactus4.png","","","memory_trial","4","definitely_new","","","","","","",""
"html-keyboard-response","128","326454","0.0-15.0-0.43","1915","2","""event"",""trial"",""time""
""fullscreenenter"",""1"",""1365""
""blur"",""32"",""113138""
""focus"",""32"",""142240""
","""event"",""trial"",""time""
""blur"",""32"",""113138""
","""event"",""trial"",""time""
""focus"",""32"",""142240""
","""event"",""trial"",""time""
""fullscreenenter"",""1"",""1365""
","
","","","","","","null","<div style=""font-size:60px;"">+</div>","null","","fixation","","","","","","","","",""
"memory-trial","129","329118","0.0-15.0-1.43","1915","2","""event"",""trial"",""time""
""fullscreenenter"",""1"",""1365""
""blur"",""32"",""113138""
""focus"",""32"",""142240""
","""event"",""trial"",""time""
""blur"",""32"",""113138""
","""event"",""trial"",""time""
""focus"",""32"",""142240""
","""event"",""trial"",""time""
""fullscreenenter"",""1"",""1365""
","
","","","","","","1659.2999997138977","images/goat4.png","","","memory_trial","1","definitely_old","","","","","","",""
"html-keyboard-response","130","329623","0.0-15.0-0.44","1915","2","""event"",""trial"",""time""
""fullscreenenter"",""1"",""1365""
""blur"",""32"",""113138""
""focus"",""32"",""142240""
","""event"",""trial"",""time""
""blur"",""32"",""113138""
","""event"",""trial"",""time""
""focus"",""32"",""142240""
","""event"",""trial"",""time""
""fullscreenenter"",""1"",""1365""
","
","","","","","","null","<div style=""font-size:60px;"">+</div>","null","","fixation","","","","","","","","",""
"memory-trial","131","332520","0.0-15.0-1.44","1915","2","""event"",""trial"",""time""
""fullscreenenter"",""1"",""1365""
""blur"",""32"",""113138""
""focus"",""32"",""142240""
","""event"",""trial"",""time""
""blur"",""32"",""113138""
","""event"",""trial"",""time""
""focus"",""32"",""142240""
","""event"",""trial"",""time""
""fullscreenenter"",""1"",""1365""
","
","","","","","","1891.5","images/sofa5.png","","","memory_trial","4","definitely_new","","","","","","",""
"html-keyboard-response","132","333024","0.0-15.0-0.45","1915","2","""event"",""trial"",""time""
""fullscreenenter"",""1"",""1365""
""blur"",""32"",""113138""
""focus"",""32"",""142240""
","""event"",""trial"",""time""
""blur"",""32"",""113138""
","""event"",""trial"",""time""
""focus"",""32"",""142240""
","""event"",""trial"",""time""
""fullscreenenter"",""1"",""1365""
","
","","","","","","null","<div style=""font-size:60px;"">+</div>","null","","fixation","","","","","","","","",""
"memory-trial","133","335561","0.0-15.0-1.45","1915","2","""event"",""trial"",""time""
""fullscreenenter"",""1"",""1365""
""blur"",""32"",""113138""
""focus"",""32"",""142240""
","""event"",""trial"",""time""
""blur"",""32"",""113138""
","""event"",""trial"",""time""
""focus"",""32"",""142240""
","""event"",""trial"",""time""
""fullscreenenter"",""1"",""1365""
","
","","","","","","1529.3999996185303","images/orange1.png","","","memory_trial","2","maybe_old","","","","","","",""
"html-keyboard-response","134","336067","0.0-15.0-0.46","1915","2","""event"",""trial"",""time""
""fullscreenenter"",""1"",""1365""
""blur"",""32"",""113138""
""focus"",""32"",""142240""
","""event"",""trial"",""time""
""blur"",""32"",""113138""
","""event"",""trial"",""time""
""focus"",""32"",""142240""
","""event"",""trial"",""time""
""fullscreenenter"",""1"",""1365""
","
","","","","","","null","<div style=""font-size:60px;"">+</div>","null","","fixation","","","","","","","","",""
"memory-trial","135","338296","0.0-15.0-1.46","1915","2","""event"",""trial"",""time""
""fullscreenenter"",""1"",""1365""
""blur"",""32"",""113138""
""focus"",""32"",""142240""
","""event"",""trial"",""time""
""blur"",""32"",""113138""
","""event"",""trial"",""time""
""focus"",""32"",""142240""
","""event"",""trial"",""time""
""fullscreenenter"",""1"",""1365""
","
","","","","","","1226.6000003814697","images/cow2.png","","","memory_trial","1","definitely_old","","","","","","",""
"html-button-response","136","342236","0.0-15.0-2.46-0.46","1915","2","""event"",""trial"",""time""
""fullscreenenter"",""1"",""1365""
""blur"",""32"",""113138""
""focus"",""32"",""142240""
","""event"",""trial"",""time""
""blur"",""32"",""113138""
","""event"",""trial"",""time""
""focus"",""32"",""142240""
","""event"",""trial"",""time""
""fullscreenenter"",""1"",""1365""
","
","","","","","","3939","<p> Take a break! </p><p> Click the button to continue. </p>","0","","break","","","","","","","","",""
"html-keyboard-response","137","342737","0.0-15.0-0.47","1915","2","""event"",""trial"",""time""
""fullscreenenter"",""1"",""1365""
""blur"",""32"",""113138""
""focus"",""32"",""142240""
","""event"",""trial"",""time""
""blur"",""32"",""113138""
","""event"",""trial"",""time""
""focus"",""32"",""142240""
","""event"",""trial"",""time""
""fullscreenenter"",""1"",""1365""
","
","","","","","","null","<div style=""font-size:60px;"">+</div>","null","","fixation","","","","","","","","",""
"memory-trial","138","344861","0.0-15.0-1.47","1915","2","""event"",""trial"",""time""
""fullscreenenter"",""1"",""1365""
""blur"",""32"",""113138""
""focus"",""32"",""142240""
","""event"",""trial"",""time""
""blur"",""32"",""113138""
","""event"",""trial"",""time""
""focus"",""32"",""142240""
","""event"",""trial"",""time""
""fullscreenenter"",""1"",""1365""
","
","","","","","","1120.3000001907349","images/chair5.png","","","memory_trial","1","definitely_old","","","","","","",""
"html-keyboard-response","139","345366","0.0-15.0-0.48","1915","2","""event"",""trial"",""time""
""fullscreenenter"",""1"",""1365""
""blur"",""32"",""113138""
""focus"",""32"",""142240""
","""event"",""trial"",""time""
""blur"",""32"",""113138""
","""event"",""trial"",""time""
""focus"",""32"",""142240""
","""event"",""trial"",""time""
""fullscreenenter"",""1"",""1365""
","
","","","","","","null","<div style=""font-size:60px;"">+</div>","null","","fixation","","","","","","","","",""
"memory-trial","140","347377","0.0-15.0-1.48","1915","2","""event"",""trial"",""time""
""fullscreenenter"",""1"",""1365""
""blur"",""32"",""113138""
""focus"",""32"",""142240""
","""event"",""trial"",""time""
""blur"",""32"",""113138""
","""event"",""trial"",""time""
""focus"",""32"",""142240""
","""event"",""trial"",""time""
""fullscreenenter"",""1"",""1365""
","
","","","","","","987.5","images/dog5.png","","","memory_trial","4","definitely_new","","","","","","",""
"html-keyboard-response","141","347878","0.0-15.0-0.49","1915","2","""event"",""trial"",""time""
""fullscreenenter"",""1"",""1365""
""blur"",""32"",""113138""
""focus"",""32"",""142240""
","""event"",""trial"",""time""
""blur"",""32"",""113138""
","""event"",""trial"",""time""
""focus"",""32"",""142240""
","""event"",""trial"",""time""
""fullscreenenter"",""1"",""1365""
","
","","","","","","null","<div style=""font-size:60px;"">+</div>","null","","fixation","","","","","","","","",""
"memory-trial","142","350004","0.0-15.0-1.49","1915","2","""event"",""trial"",""time""
""fullscreenenter"",""1"",""1365""
""blur"",""32"",""113138""
""focus"",""32"",""142240""
","""event"",""trial"",""time""
""blur"",""32"",""113138""
","""event"",""trial"",""time""
""focus"",""32"",""142240""
","""event"",""trial"",""time""
""fullscreenenter"",""1"",""1365""
","
","","","","","","1119","images/cow5.png","","","memory_trial","1","definitely_old","","","","","","",""
"html-keyboard-response","143","350509","0.0-15.0-0.50","1915","2","""event"",""trial"",""time""
""fullscreenenter"",""1"",""1365""
""blur"",""32"",""113138""
""focus"",""32"",""142240""
","""event"",""trial"",""time""
""blur"",""32"",""113138""
","""event"",""trial"",""time""
""focus"",""32"",""142240""
","""event"",""trial"",""time""
""fullscreenenter"",""1"",""1365""
","
","","","","","","null","<div style=""font-size:60px;"">+</div>","null","","fixation","","","","","","","","",""
"memory-trial","144","354445","0.0-15.0-1.50","1915","2","""event"",""trial"",""time""
""fullscreenenter"",""1"",""1365""
""blur"",""32"",""113138""
""focus"",""32"",""142240""
","""event"",""trial"",""time""
""blur"",""32"",""113138""
","""event"",""trial"",""time""
""focus"",""32"",""142240""
","""event"",""trial"",""time""
""fullscreenenter"",""1"",""1365""
","
","","","","","","2929.0999999046326","images/bed1.png","","","memory_trial","2","maybe_old","","","","","","",""
"html-keyboard-response","145","354950","0.0-15.0-0.51","1915","2","""event"",""trial"",""time""
""fullscreenenter"",""1"",""1365""
""blur"",""32"",""113138""
""focus"",""32"",""142240""
","""event"",""trial"",""time""
""blur"",""32"",""113138""
","""event"",""trial"",""time""
""focus"",""32"",""142240""
","""event"",""trial"",""time""
""fullscreenenter"",""1"",""1365""
","
","","","","","","null","<div style=""font-size:60px;"">+</div>","null","","fixation","","","","","","","","",""
"memory-trial","146","359049","0.0-15.0-1.51","1915","2","""event"",""trial"",""time""
""fullscreenenter"",""1"",""1365""
""blur"",""32"",""113138""
""focus"",""32"",""142240""
","""event"",""trial"",""time""
""blur"",""32"",""113138""
","""event"",""trial"",""time""
""focus"",""32"",""142240""
","""event"",""trial"",""time""
""fullscreenenter"",""1"",""1365""
","
","","","","","","3093.2999997138977","images/cow4.png","","","memory_trial","2","maybe_old","","","","","","",""
"html-keyboard-response","147","359554","0.0-15.0-0.52","1915","2","""event"",""trial"",""time""
""fullscreenenter"",""1"",""1365""
""blur"",""32"",""113138""
""focus"",""32"",""142240""
","""event"",""trial"",""time""
""blur"",""32"",""113138""
","""event"",""trial"",""time""
""focus"",""32"",""142240""
","""event"",""trial"",""time""
""fullscreenenter"",""1"",""1365""
","
","","","","","","null","<div style=""font-size:60px;"">+</div>","null","","fixation","","","","","","","","",""
"memory-trial","148","361817","0.0-15.0-1.52","1915","2","""event"",""trial"",""time""
""fullscreenenter"",""1"",""1365""
""blur"",""32"",""113138""
""focus"",""32"",""142240""
","""event"",""trial"",""time""
""blur"",""32"",""113138""
","""event"",""trial"",""time""
""focus"",""32"",""142240""
","""event"",""trial"",""time""
""fullscreenenter"",""1"",""1365""
","
","","","","","","1256.5","images/goat5.png","","","memory_trial","4","definitely_new","","","","","","",""
"html-keyboard-response","149","362325","0.0-15.0-0.53","1915","2","""event"",""trial"",""time""
""fullscreenenter"",""1"",""1365""
""blur"",""32"",""113138""
""focus"",""32"",""142240""
","""event"",""trial"",""time""
""blur"",""32"",""113138""
","""event"",""trial"",""time""
""focus"",""32"",""142240""
","""event"",""trial"",""time""
""fullscreenenter"",""1"",""1365""
","
","","","","","","null","<div style=""font-size:60px;"">+</div>","null","","fixation","","","","","","","","",""
"memory-trial","150","365357","0.0-15.0-1.53","1915","2","""event"",""trial"",""time""
""fullscreenenter"",""1"",""1365""
""blur"",""32"",""113138""
""focus"",""32"",""142240""
","""event"",""trial"",""time""
""blur"",""32"",""113138""
","""event"",""trial"",""time""
""focus"",""32"",""142240""
","""event"",""trial"",""time""
""fullscreenenter"",""1"",""1365""
","
","","","","","","2025.6000003814697","images/cow1.png","","","memory_trial","3","maybe_new","","","","","","",""
"html-keyboard-response","151","365858","0.0-15.0-0.54","1915","2","""event"",""trial"",""time""
""fullscreenenter"",""1"",""1365""
""blur"",""32"",""113138""
""focus"",""32"",""142240""
","""event"",""trial"",""time""
""blur"",""32"",""113138""
","""event"",""trial"",""time""
""focus"",""32"",""142240""
","""event"",""trial"",""time""
""fullscreenenter"",""1"",""1365""
","
","","","","","","null","<div style=""font-size:60px;"">+</div>","null","","fixation","","","","","","","","",""
"memory-trial","152","369526","0.0-15.0-1.54","1915","2","""event"",""trial"",""time""
""fullscreenenter"",""1"",""1365""
""blur"",""32"",""113138""
""focus"",""32"",""142240""
","""event"",""trial"",""time""
""blur"",""32"",""113138""
","""event"",""trial"",""time""
""focus"",""32"",""142240""
","""event"",""trial"",""time""
""fullscreenenter"",""1"",""1365""
","
","","","","","","2661.300000190735","images/goat3.png","","","memory_trial","4","definitely_new","","","","","","",""
"html-keyboard-response","153","370031","0.0-15.0-0.55","1915","2","""event"",""trial"",""time""
""fullscreenenter"",""1"",""1365""
""blur"",""32"",""113138""
""focus"",""32"",""142240""
","""event"",""trial"",""time""
""blur"",""32"",""113138""
","""event"",""trial"",""time""
""focus"",""32"",""142240""
","""event"",""trial"",""time""
""fullscreenenter"",""1"",""1365""
","
","","","","","","null","<div style=""font-size:60px;"">+</div>","null","","fixation","","","","","","","","",""
"memory-trial","154","372489","0.0-15.0-1.55","1915","2","""event"",""trial"",""time""
""fullscreenenter"",""1"",""1365""
""blur"",""32"",""113138""
""focus"",""32"",""142240""
","""event"",""trial"",""time""
""blur"",""32"",""113138""
","""event"",""trial"",""time""
""focus"",""32"",""142240""
","""event"",""trial"",""time""
""fullscreenenter"",""1"",""1365""
","
","","","","","","1454.5","images/plane4.png","","","memory_trial","2","maybe_old","","","","","","",""
"html-keyboard-response","155","372992","0.0-15.0-0.56","1915","2","""event"",""trial"",""time""
""fullscreenenter"",""1"",""1365""
""blur"",""32"",""113138""
""focus"",""32"",""142240""
","""event"",""trial"",""time""
""blur"",""32"",""113138""
","""event"",""trial"",""time""
""focus"",""32"",""142240""
","""event"",""trial"",""time""
""fullscreenenter"",""1"",""1365""
","
","","","","","","null","<div style=""font-size:60px;"">+</div>","null","","fixation","","","","","","","","",""
"memory-trial","156","375180","0.0-15.0-1.56","1915","2","""event"",""trial"",""time""
""fullscreenenter"",""1"",""1365""
""blur"",""32"",""113138""
""focus"",""32"",""142240""
","""event"",""trial"",""time""
""blur"",""32"",""113138""
","""event"",""trial"",""time""
""focus"",""32"",""142240""
","""event"",""trial"",""time""
""fullscreenenter"",""1"",""1365""
","
","","","","","","1182.0999999046326","images/boat4.png","","","memory_trial","1","definitely_old","","","","","","",""
"html-keyboard-response","157","375685","0.0-15.0-0.57","1915","2","""event"",""trial"",""time""
""fullscreenenter"",""1"",""1365""
""blur"",""32"",""113138""
""focus"",""32"",""142240""
","""event"",""trial"",""time""
""blur"",""32"",""113138""
","""event"",""trial"",""time""
""focus"",""32"",""142240""
","""event"",""trial"",""time""
""fullscreenenter"",""1"",""1365""
","
","","","","","","null","<div style=""font-size:60px;"">+</div>","null","","fixation","","","","","","","","",""
"memory-trial","158","377800","0.0-15.0-1.57","1915","2","""event"",""trial"",""time""
""fullscreenenter"",""1"",""1365""
""blur"",""32"",""113138""
""focus"",""32"",""142240""
","""event"",""trial"",""time""
""blur"",""32"",""113138""
","""event"",""trial"",""time""
""focus"",""32"",""142240""
","""event"",""trial"",""time""
""fullscreenenter"",""1"",""1365""
","
","","","","","","1113","images/flower1.png","","","memory_trial","1","definitely_old","","","","","","",""
"html-keyboard-response","159","378304","0.0-15.0-0.58","1915","2","""event"",""trial"",""time""
""fullscreenenter"",""1"",""1365""
""blur"",""32"",""113138""
""focus"",""32"",""142240""
","""event"",""trial"",""time""
""blur"",""32"",""113138""
","""event"",""trial"",""time""
""focus"",""32"",""142240""
","""event"",""trial"",""time""
""fullscreenenter"",""1"",""1365""
","
","","","","","","null","<div style=""font-size:60px;"">+</div>","null","","fixation","","","","","","","","",""
"memory-trial","160","380667","0.0-15.0-1.58","1915","2","""event"",""trial"",""time""
""fullscreenenter"",""1"",""1365""
""blur"",""32"",""113138""
""focus"",""32"",""142240""
","""event"",""trial"",""time""
""blur"",""32"",""113138""
","""event"",""trial"",""time""
""focus"",""32"",""142240""
","""event"",""trial"",""time""
""fullscreenenter"",""1"",""1365""
","
","","","","","","1358.2999997138977","images/tree4.png","","","memory_trial","4","definitely_new","","","","","","",""
"html-keyboard-response","161","381171","0.0-15.0-0.59","1915","2","""event"",""trial"",""time""
""fullscreenenter"",""1"",""1365""
""blur"",""32"",""113138""
""focus"",""32"",""142240""
","""event"",""trial"",""time""
""blur"",""32"",""113138""
","""event"",""trial"",""time""
""focus"",""32"",""142240""
","""event"",""trial"",""time""
""fullscreenenter"",""1"",""1365""
","
","","","","","","null","<div style=""font-size:60px;"">+</div>","null","","fixation","","","","","","","","",""
"memory-trial","162","383894","0.0-15.0-1.59","1915","2","""event"",""trial"",""time""
""fullscreenenter"",""1"",""1365""
""blur"",""32"",""113138""
""focus"",""32"",""142240""
","""event"",""trial"",""time""
""blur"",""32"",""113138""
","""event"",""trial"",""time""
""focus"",""32"",""142240""
","""event"",""trial"",""time""
""fullscreenenter"",""1"",""1365""
","
","","","","","","1715.9000000953674","images/banana4.png","","","memory_trial","2","maybe_old","","","","","","",""
"html-keyboard-response","163","384399","0.0-15.0-0.60","1915","2","""event"",""trial"",""time""
""fullscreenenter"",""1"",""1365""
""blur"",""32"",""113138""
""focus"",""32"",""142240""
","""event"",""trial"",""time""
""blur"",""32"",""113138""
","""event"",""trial"",""time""
""focus"",""32"",""142240""
","""event"",""trial"",""time""
""fullscreenenter"",""1"",""1365""
","
","","","","","","null","<div style=""font-size:60px;"">+</div>","null","","fixation","","","","","","","","",""
"memory-trial","164","386373","0.0-15.0-1.60","1915","2","""event"",""trial"",""time""
""fullscreenenter"",""1"",""1365""
""blur"",""32"",""113138""
""focus"",""32"",""142240""
","""event"",""trial"",""time""
""blur"",""32"",""113138""
","""event"",""trial"",""time""
""focus"",""32"",""142240""
","""event"",""trial"",""time""
""fullscreenenter"",""1"",""1365""
","
","","","","","","968.5999999046326","images/table1.png","","","memory_trial","4","definitely_new","","","","","","",""
"html-keyboard-response","165","386878","0.0-15.0-0.61","1915","2","""event"",""trial"",""time""
""fullscreenenter"",""1"",""1365""
""blur"",""32"",""113138""
""focus"",""32"",""142240""
","""event"",""trial"",""time""
""blur"",""32"",""113138""
","""event"",""trial"",""time""
""focus"",""32"",""142240""
","""event"",""trial"",""time""
""fullscreenenter"",""1"",""1365""
","
","","","","","","null","<div style=""font-size:60px;"">+</div>","null","","fixation","","","","","","","","",""
"memory-trial","166","389072","0.0-15.0-1.61","1915","2","""event"",""trial"",""time""
""fullscreenenter"",""1"",""1365""
""blur"",""32"",""113138""
""focus"",""32"",""142240""
","""event"",""trial"",""time""
""blur"",""32"",""113138""
","""event"",""trial"",""time""
""focus"",""32"",""142240""
","""event"",""trial"",""time""
""fullscreenenter"",""1"",""1365""
","
","","","","","","1189.6999998092651","images/rodent2.png","","","memory_trial","1","definitely_old","","","","","","",""
"html-keyboard-response","167","389577","0.0-15.0-0.62","1915","2","""event"",""trial"",""time""
""fullscreenenter"",""1"",""1365""
""blur"",""32"",""113138""
""focus"",""32"",""142240""
","""event"",""trial"",""time""
""blur"",""32"",""113138""
","""event"",""trial"",""time""
""focus"",""32"",""142240""
","""event"",""trial"",""time""
""fullscreenenter"",""1"",""1365""
","
","","","","","","null","<div style=""font-size:60px;"">+</div>","null","","fixation","","","","","","","","",""
"memory-trial","168","392236","0.0-15.0-1.62","1915","2","""event"",""trial"",""time""
""fullscreenenter"",""1"",""1365""
""blur"",""32"",""113138""
""focus"",""32"",""142240""
","""event"",""trial"",""time""
""blur"",""32"",""113138""
","""event"",""trial"",""time""
""focus"",""32"",""142240""
","""event"",""trial"",""time""
""fullscreenenter"",""1"",""1365""
","
","","","","","","1653","images/table5.png","","","memory_trial","3","maybe_new","","","","","","",""
"html-keyboard-response","169","392741","0.0-15.0-0.63","1915","2","""event"",""trial"",""time""
""fullscreenenter"",""1"",""1365""
""blur"",""32"",""113138""
""focus"",""32"",""142240""
","""event"",""trial"",""time""
""blur"",""32"",""113138""
","""event"",""trial"",""time""
""focus"",""32"",""142240""
","""event"",""trial"",""time""
""fullscreenenter"",""1"",""1365""
","
","","","","","","null","<div style=""font-size:60px;"">+</div>","null","","fixation","","","","","","","","",""
"memory-trial","170","394947","0.0-15.0-1.63","1915","2","""event"",""trial"",""time""
""fullscreenenter"",""1"",""1365""
""blur"",""32"",""113138""
""focus"",""32"",""142240""
","""event"",""trial"",""time""
""blur"",""32"",""113138""
","""event"",""trial"",""time""
""focus"",""32"",""142240""
","""event"",""trial"",""time""
""fullscreenenter"",""1"",""1365""
","
","","","","","","1203.1999998092651","images/horse1.png","","","memory_trial","4","definitely_new","","","","","","",""
"html-keyboard-response","171","395452","0.0-15.0-0.64","1915","2","""event"",""trial"",""time""
""fullscreenenter"",""1"",""1365""
""blur"",""32"",""113138""
""focus"",""32"",""142240""
","""event"",""trial"",""time""
""blur"",""32"",""113138""
","""event"",""trial"",""time""
""focus"",""32"",""142240""
","""event"",""trial"",""time""
""fullscreenenter"",""1"",""1365""
","
","","","","","","null","<div style=""font-size:60px;"">+</div>","null","","fixation","","","","","","","","",""
"memory-trial","172","398218","0.0-15.0-1.64","1915","2","""event"",""trial"",""time""
""fullscreenenter"",""1"",""1365""
""blur"",""32"",""113138""
""focus"",""32"",""142240""
","""event"",""trial"",""time""
""blur"",""32"",""113138""
","""event"",""trial"",""time""
""focus"",""32"",""142240""
","""event"",""trial"",""time""
""fullscreenenter"",""1"",""1365""
","
","","","","","","1758.9000000953674","images/apple2.png","","","memory_trial","2","maybe_old","","","","","","",""
"html-keyboard-response","173","398723","0.0-15.0-0.65","1915","2","""event"",""trial"",""time""
""fullscreenenter"",""1"",""1365""
""blur"",""32"",""113138""
""focus"",""32"",""142240""
","""event"",""trial"",""time""
""blur"",""32"",""113138""
","""event"",""trial"",""time""
""focus"",""32"",""142240""
","""event"",""trial"",""time""
""fullscreenenter"",""1"",""1365""
","
","","","","","","null","<div style=""font-size:60px;"">+</div>","null","","fixation","","","","","","","","",""
"memory-trial","174","400967","0.0-15.0-1.65","1915","2","""event"",""trial"",""time""
""fullscreenenter"",""1"",""1365""
""blur"",""32"",""113138""
""focus"",""32"",""142240""
","""event"",""trial"",""time""
""blur"",""32"",""113138""
","""event"",""trial"",""time""
""focus"",""32"",""142240""
","""event"",""trial"",""time""
""fullscreenenter"",""1"",""1365""
","
","","","","","","1241.6000003814697","images/table4.png","","","memory_trial","4","definitely_new","","","","","","",""
"html-keyboard-response","175","401472","0.0-15.0-0.66","1915","2","""event"",""trial"",""time""
""fullscreenenter"",""1"",""1365""
""blur"",""32"",""113138""
""focus"",""32"",""142240""
","""event"",""trial"",""time""
""blur"",""32"",""113138""
","""event"",""trial"",""time""
""focus"",""32"",""142240""
","""event"",""trial"",""time""
""fullscreenenter"",""1"",""1365""
","
","","","","","","null","<div style=""font-size:60px;"">+</div>","null","","fixation","","","","","","","","",""
"memory-trial","176","403341","0.0-15.0-1.66","1915","2","""event"",""trial"",""time""
""fullscreenenter"",""1"",""1365""
""blur"",""32"",""113138""
""focus"",""32"",""142240""
","""event"",""trial"",""time""
""blur"",""32"",""113138""
","""event"",""trial"",""time""
""focus"",""32"",""142240""
","""event"",""trial"",""time""
""fullscreenenter"",""1"",""1365""
","
","","","","","","864.0999999046326","images/bed5.png","","","memory_trial","1","definitely_old","","","","","","",""
"html-keyboard-response","177","403846","0.0-15.0-0.67","1915","2","""event"",""trial"",""time""
""fullscreenenter"",""1"",""1365""
""blur"",""32"",""113138""
""focus"",""32"",""142240""
","""event"",""trial"",""time""
""blur"",""32"",""113138""
","""event"",""trial"",""time""
""focus"",""32"",""142240""
","""event"",""trial"",""time""
""fullscreenenter"",""1"",""1365""
","
","","","","","","null","<div style=""font-size:60px;"">+</div>","null","","fixation","","","","","","","","",""
"memory-trial","178","406964","0.0-15.0-1.67","1915","2","""event"",""trial"",""time""
""fullscreenenter"",""1"",""1365""
""blur"",""32"",""113138""
""focus"",""32"",""142240""
","""event"",""trial"",""time""
""blur"",""32"",""113138""
","""event"",""trial"",""time""
""focus"",""32"",""142240""
","""event"",""trial"",""time""
""fullscreenenter"",""1"",""1365""
","
","","","","","","2115.800000190735","images/apple4.png","","","memory_trial","3","maybe_new","","","","","","",""
"html-keyboard-response","179","407470","0.0-15.0-0.68","1915","2","""event"",""trial"",""time""
""fullscreenenter"",""1"",""1365""
""blur"",""32"",""113138""
""focus"",""32"",""142240""
","""event"",""trial"",""time""
""blur"",""32"",""113138""
","""event"",""trial"",""time""
""focus"",""32"",""142240""
","""event"",""trial"",""time""
""fullscreenenter"",""1"",""1365""
","
","","","","","","null","<div style=""font-size:60px;"">+</div>","null","","fixation","","","","","","","","",""
"memory-trial","180","411506","0.0-15.0-1.68","1915","2","""event"",""trial"",""time""
""fullscreenenter"",""1"",""1365""
""blur"",""32"",""113138""
""focus"",""32"",""142240""
","""event"",""trial"",""time""
""blur"",""32"",""113138""
","""event"",""trial"",""time""
""focus"",""32"",""142240""
","""event"",""trial"",""time""
""fullscreenenter"",""1"",""1365""
","
","","","","","","3029.800000190735","images/banana2.png","","","memory_trial","2","maybe_old","","","","","","",""
"html-keyboard-response","181","412011","0.0-15.0-0.69","1915","2","""event"",""trial"",""time""
""fullscreenenter"",""1"",""1365""
""blur"",""32"",""113138""
""focus"",""32"",""142240""
","""event"",""trial"",""time""
""blur"",""32"",""113138""
","""event"",""trial"",""time""
""focus"",""32"",""142240""
","""event"",""trial"",""time""
""fullscreenenter"",""1"",""1365""
","
","","","","","","null","<div style=""font-size:60px;"">+</div>","null","","fixation","","","","","","","","",""
"memory-trial","182","416044","0.0-15.0-1.69","1915","2","""event"",""trial"",""time""
""fullscreenenter"",""1"",""1365""
""blur"",""32"",""113138""
""focus"",""32"",""142240""
","""event"",""trial"",""time""
""blur"",""32"",""113138""
","""event"",""trial"",""time""
""focus"",""32"",""142240""
","""event"",""trial"",""time""
""fullscreenenter"",""1"",""1365""
","
","","","","","","3026.0999999046326","images/sheep5.png","","","memory_trial","1","definitely_old","","","","","","",""
"html-keyboard-response","183","416549","0.0-15.0-0.70","1915","2","""event"",""trial"",""time""
""fullscreenenter"",""1"",""1365""
""blur"",""32"",""113138""
""focus"",""32"",""142240""
","""event"",""trial"",""time""
""blur"",""32"",""113138""
","""event"",""trial"",""time""
""focus"",""32"",""142240""
","""event"",""trial"",""time""
""fullscreenenter"",""1"",""1365""
","
","","","","","","null","<div style=""font-size:60px;"">+</div>","null","","fixation","","","","","","","","",""
"memory-trial","184","419816","0.0-15.0-1.70","1915","2","""event"",""trial"",""time""
""fullscreenenter"",""1"",""1365""
""blur"",""32"",""113138""
""focus"",""32"",""142240""
","""event"",""trial"",""time""
""blur"",""32"",""113138""
","""event"",""trial"",""time""
""focus"",""32"",""142240""
","""event"",""trial"",""time""
""fullscreenenter"",""1"",""1365""
","
","","","","","","2264.9000000953674","images/tree2.png","","","memory_trial","2","maybe_old","","","","","","",""
"html-keyboard-response","185","420320","0.0-15.0-0.71","1915","2","""event"",""trial"",""time""
""fullscreenenter"",""1"",""1365""
""blur"",""32"",""113138""
""focus"",""32"",""142240""
","""event"",""trial"",""time""
""blur"",""32"",""113138""
","""event"",""trial"",""time""
""focus"",""32"",""142240""
","""event"",""trial"",""time""
""fullscreenenter"",""1"",""1365""
","
","","","","","","null","<div style=""font-size:60px;"">+</div>","null","","fixation","","","","","","","","",""
"memory-trial","186","422137","0.0-15.0-1.71","1915","2","""event"",""trial"",""time""
""fullscreenenter"",""1"",""1365""
""blur"",""32"",""113138""
""focus"",""32"",""142240""
","""event"",""trial"",""time""
""blur"",""32"",""113138""
","""event"",""trial"",""time""
""focus"",""32"",""142240""
","""event"",""trial"",""time""
""fullscreenenter"",""1"",""1365""
","
","","","","","","815.0999999046326","images/train2.png","","","memory_trial","1","definitely_old","","","","","","",""
"html-keyboard-response","187","422642","0.0-15.0-0.72","1915","2","""event"",""trial"",""time""
""fullscreenenter"",""1"",""1365""
""blur"",""32"",""113138""
""focus"",""32"",""142240""
","""event"",""trial"",""time""
""blur"",""32"",""113138""
","""event"",""trial"",""time""
""focus"",""32"",""142240""
","""event"",""trial"",""time""
""fullscreenenter"",""1"",""1365""
","
","","","","","","null","<div style=""font-size:60px;"">+</div>","null","","fixation","","","","","","","","",""
"memory-trial","188","424546","0.0-15.0-1.72","1915","2","""event"",""trial"",""time""
""fullscreenenter"",""1"",""1365""
""blur"",""32"",""113138""
""focus"",""32"",""142240""
","""event"",""trial"",""time""
""blur"",""32"",""113138""
","""event"",""trial"",""time""
""focus"",""32"",""142240""
","""event"",""trial"",""time""
""fullscreenenter"",""1"",""1365""
","
","","","","","","900.2999997138977","images/sofa4.png","","","memory_trial","1","definitely_old","","","","","","",""
"html-keyboard-response","189","425051","0.0-15.0-0.73","1915","2","""event"",""trial"",""time""
""fullscreenenter"",""1"",""1365""
""blur"",""32"",""113138""
""focus"",""32"",""142240""
","""event"",""trial"",""time""
""blur"",""32"",""113138""
","""event"",""trial"",""time""
""focus"",""32"",""142240""
","""event"",""trial"",""time""
""fullscreenenter"",""1"",""1365""
","
","","","","","","null","<div style=""font-size:60px;"">+</div>","null","","fixation","","","","","","","","",""
"memory-trial","190","428598","0.0-15.0-1.73","1915","2","""event"",""trial"",""time""
""fullscreenenter"",""1"",""1365""
""blur"",""32"",""113138""
""focus"",""32"",""142240""
","""event"",""trial"",""time""
""blur"",""32"",""113138""
","""event"",""trial"",""time""
""focus"",""32"",""142240""
","""event"",""trial"",""time""
""fullscreenenter"",""1"",""1365""
","
","","","","","","2543.699999809265","images/cactus2.png","","","memory_trial","4","definitely_new","","","","","","",""
"html-keyboard-response","191","429104","0.0-15.0-0.74","1915","2","""event"",""trial"",""time""
""fullscreenenter"",""1"",""1365""
""blur"",""32"",""113138""
""focus"",""32"",""142240""
","""event"",""trial"",""time""
""blur"",""32"",""113138""
","""event"",""trial"",""time""
""focus"",""32"",""142240""
","""event"",""trial"",""time""
""fullscreenenter"",""1"",""1365""
","
","","","","","","null","<div style=""font-size:60px;"">+</div>","null","","fixation","","","","","","","","",""
"memory-trial","192","432023","0.0-15.0-1.74","1915","2","""event"",""trial"",""time""
""fullscreenenter"",""1"",""1365""
""blur"",""32"",""113138""
""focus"",""32"",""142240""
","""event"",""trial"",""time""
""blur"",""32"",""113138""
","""event"",""trial"",""time""
""focus"",""32"",""142240""
","""event"",""trial"",""time""
""fullscreenenter"",""1"",""1365""
","
","","","","","","1916.5999999046326","images/feline3.png","","","memory_trial","2","maybe_old","","","","","","",""
"html-keyboard-response","193","432528","0.0-15.0-0.75","1915","2","""event"",""trial"",""time""
""fullscreenenter"",""1"",""1365""
""blur"",""32"",""113138""
""focus"",""32"",""142240""
","""event"",""trial"",""time""
""blur"",""32"",""113138""
","""event"",""trial"",""time""
""focus"",""32"",""142240""
","""event"",""trial"",""time""
""fullscreenenter"",""1"",""1365""
","
","","","","","","null","<div style=""font-size:60px;"">+</div>","null","","fixation","","","","","","","","",""
"memory-trial","194","434380","0.0-15.0-1.75","1915","2","""event"",""trial"",""time""
""fullscreenenter"",""1"",""1365""
""blur"",""32"",""113138""
""focus"",""32"",""142240""
","""event"",""trial"",""time""
""blur"",""32"",""113138""
","""event"",""trial"",""time""
""focus"",""32"",""142240""
","""event"",""trial"",""time""
""fullscreenenter"",""1"",""1365""
","
","","","","","","846.3000001907349","images/horse2.png","","","memory_trial","4","definitely_new","","","","","","",""
"html-keyboard-response","195","434893","0.0-15.0-0.76","1915","2","""event"",""trial"",""time""
""fullscreenenter"",""1"",""1365""
""blur"",""32"",""113138""
""focus"",""32"",""142240""
","""event"",""trial"",""time""
""blur"",""32"",""113138""
","""event"",""trial"",""time""
""focus"",""32"",""142240""
","""event"",""trial"",""time""
""fullscreenenter"",""1"",""1365""
","
","","","","","","null","<div style=""font-size:60px;"">+</div>","null","","fixation","","","","","","","","",""
"memory-trial","196","438078","0.0-15.0-1.76","1915","2","""event"",""trial"",""time""
""fullscreenenter"",""1"",""1365""
""blur"",""32"",""113138""
""focus"",""32"",""142240""
","""event"",""trial"",""time""
""blur"",""32"",""113138""
","""event"",""trial"",""time""
""focus"",""32"",""142240""
","""event"",""trial"",""time""
""fullscreenenter"",""1"",""1365""
","
","","","","","","2183.800000190735","images/plane5.png","","","memory_trial","1","definitely_old","","","","","","",""
"html-keyboard-response","197","438583","0.0-15.0-0.77","1915","2","""event"",""trial"",""time""
""fullscreenenter"",""1"",""1365""
""blur"",""32"",""113138""
""focus"",""32"",""142240""
","""event"",""trial"",""time""
""blur"",""32"",""113138""
","""event"",""trial"",""time""
""focus"",""32"",""142240""
","""event"",""trial"",""time""
""fullscreenenter"",""1"",""1365""
","
","","","","","","null","<div style=""font-size:60px;"">+</div>","null","","fixation","","","","","","","","",""
"memory-trial","198","442188","0.0-15.0-1.77","1915","2","""event"",""trial"",""time""
""fullscreenenter"",""1"",""1365""
""blur"",""32"",""113138""
""focus"",""32"",""142240""
","""event"",""trial"",""time""
""blur"",""32"",""113138""
","""event"",""trial"",""time""
""focus"",""32"",""142240""
","""event"",""trial"",""time""
""fullscreenenter"",""1"",""1365""
","
","","","","","","2600.7999997138977","images/bed3.png","","","memory_trial","1","definitely_old","","","","","","",""
"html-keyboard-response","199","442693","0.0-15.0-0.78","1915","2","""event"",""trial"",""time""
""fullscreenenter"",""1"",""1365""
""blur"",""32"",""113138""
""focus"",""32"",""142240""
","""event"",""trial"",""time""
""blur"",""32"",""113138""
","""event"",""trial"",""time""
""focus"",""32"",""142240""
","""event"",""trial"",""time""
""fullscreenenter"",""1"",""1365""
","
","","","","","","null","<div style=""font-size:60px;"">+</div>","null","","fixation","","","","","","","","",""
"memory-trial","200","445415","0.0-15.0-1.78","1915","2","""event"",""trial"",""time""
""fullscreenenter"",""1"",""1365""
""blur"",""32"",""113138""
""focus"",""32"",""142240""
","""event"",""trial"",""time""
""blur"",""32"",""113138""
","""event"",""trial"",""time""
""focus"",""32"",""142240""
","""event"",""trial"",""time""
""fullscreenenter"",""1"",""1365""
","
","","","","","","1719.4000000953674","images/plane2.png","","","memory_trial","2","maybe_old","","","","","","",""
"html-keyboard-response","201","445921","0.0-15.0-0.79","1915","2","""event"",""trial"",""time""
""fullscreenenter"",""1"",""1365""
""blur"",""32"",""113138""
""focus"",""32"",""142240""
","""event"",""trial"",""time""
""blur"",""32"",""113138""
","""event"",""trial"",""time""
""focus"",""32"",""142240""
","""event"",""trial"",""time""
""fullscreenenter"",""1"",""1365""
","
","","","","","","null","<div style=""font-size:60px;"">+</div>","null","","fixation","","","","","","","","",""
"memory-trial","202","448324","0.0-15.0-1.79","1915","2","""event"",""trial"",""time""
""fullscreenenter"",""1"",""1365""
""blur"",""32"",""113138""
""focus"",""32"",""142240""
","""event"",""trial"",""time""
""blur"",""32"",""113138""
","""event"",""trial"",""time""
""focus"",""32"",""142240""
","""event"",""trial"",""time""
""fullscreenenter"",""1"",""1365""
","
","","","","","","1395.9000000953674","images/sheep4.png","","","memory_trial","1","definitely_old","","","","","","",""
"html-keyboard-response","203","448829","0.0-15.0-0.80","1915","2","""event"",""trial"",""time""
""fullscreenenter"",""1"",""1365""
""blur"",""32"",""113138""
""focus"",""32"",""142240""
","""event"",""trial"",""time""
""blur"",""32"",""113138""
","""event"",""trial"",""time""
""focus"",""32"",""142240""
","""event"",""trial"",""time""
""fullscreenenter"",""1"",""1365""
","
","","","","","","null","<div style=""font-size:60px;"">+</div>","null","","fixation","","","","","","","","",""
"memory-trial","204","451347","0.0-15.0-1.80","1915","2","""event"",""trial"",""time""
""fullscreenenter"",""1"",""1365""
""blur"",""32"",""113138""
""focus"",""32"",""142240""
","""event"",""trial"",""time""
""blur"",""32"",""113138""
","""event"",""trial"",""time""
""focus"",""32"",""142240""
","""event"",""trial"",""time""
""fullscreenenter"",""1"",""1365""
","
","","","","","","1510.8000001907349","images/rabbit1.png","","","memory_trial","3","maybe_new","","","","","","",""
"html-keyboard-response","205","451850","0.0-15.0-0.81","1915","2","""event"",""trial"",""time""
""fullscreenenter"",""1"",""1365""
""blur"",""32"",""113138""
""focus"",""32"",""142240""
","""event"",""trial"",""time""
""blur"",""32"",""113138""
","""event"",""trial"",""time""
""focus"",""32"",""142240""
","""event"",""trial"",""time""
""fullscreenenter"",""1"",""1365""
","
