"trial_type","trial_index","time_elapsed","internal_node_id","subject_id","task_version","interactions","blur_events","focus_events","fullscreenenter_events","fullscreenexit_events","success","timeout","failed_images","failed_audio","failed_video","rt","stimulus","response","button_pressed","task_part","key_press","answer","correct","left_choice","middle_choice","right_choice","choice_positions","option_selected","block"
"pavlovia","0","2","0.0-0.0","1737","2","""event"",""trial"",""time""
""fullscreenenter"",""1"",""1295""
","
","
","""event"",""trial"",""time""
""fullscreenenter"",""1"",""1295""
","
","","","","","","","","","","","","","","","","","","",""
"fullscreen","1","2263","0.0-1.0","1737","2","""event"",""trial"",""time""
""fullscreenenter"",""1"",""1295""
","
","
","""event"",""trial"",""time""
""fullscreenenter"",""1"",""1295""
","
","true","","","","","","","","","","","","","","","","","",""
"preload","2","2461","0.0-2.0","1737","2","""event"",""trial"",""time""
""fullscreenenter"",""1"",""1295""
","
","
","""event"",""trial"",""time""
""fullscreenenter"",""1"",""1295""
","
","true","false","[]","[]","[]","","","","","","","","","","","","","",""
"audio-keyboard-response","3","6075","0.0-3.0","1737","2","""event"",""trial"",""time""
""fullscreenenter"",""1"",""1295""
","
","
","""event"",""trial"",""time""
""fullscreenenter"",""1"",""1295""
","
","","","","","","3616","audio/beep_loop.wav"," ","","","","","","","","","","",""
"audio-button-response","4","7833","0.0-4.0","1737","2","""event"",""trial"",""time""
""fullscreenenter"",""1"",""1295""
","
","
","""event"",""trial"",""time""
""fullscreenenter"",""1"",""1295""
","
","","","","","","1760","audio/turtle.wav","0","","","","","","","","","","",""
"audio-button-response","5","9745","0.0-5.0","1737","2","""event"",""trial"",""time""
""fullscreenenter"",""1"",""1295""
","
","
","""event"",""trial"",""time""
""fullscreenenter"",""1"",""1295""
","
","","","","","","907","audio/shark.wav","2","","","","","","","","","","",""
"preload","6","12261","0.0-6.0","1737","2","""event"",""trial"",""time""
""fullscreenenter"",""1"",""1295""
","
","
","""event"",""trial"",""time""
""fullscreenenter"",""1"",""1295""
","
","true","false","[]","[]","[]","","","","","","","","","","","","","",""
"learning-instructions","7","18316","0.0-7.0-0.0","1737","2","""event"",""trial"",""time""
""fullscreenenter"",""1"",""1295""
","
","
","""event"",""trial"",""time""
""fullscreenenter"",""1"",""1295""
","
","","","","","","1252.2000007629395","<p> Welcome back! </p><p> Last week, you had to make choices about lots of different items.  </p>","","0","instructions","","","","","","","","",""
"learning-instructions","8","23061","0.0-7.0-0.1","1737","2","""event"",""trial"",""time""
""fullscreenenter"",""1"",""1295""
","
","
","""event"",""trial"",""time""
""fullscreenenter"",""1"",""1295""
","
","","","","","","444.8999996185303","<p> Today, we are going to ask you to try to remember all the items. </p>","","0","instructions","","","","","","","","",""
"learning-instructions","9","33807","0.0-7.0-0.2","1737","2","""event"",""trial"",""time""
""fullscreenenter"",""1"",""1295""
","
","
","""event"",""trial"",""time""
""fullscreenenter"",""1"",""1295""
","
","","","","","","615.3999996185303","<p> On every trial, you will see an image. </p><p> The image may be an OLD image you saw during the games last week or it may be a NEW image that was not presented. </p>","","0","instructions","","","","","","","","",""
"learning-instructions","10","43305","0.0-7.0-0.3","1737","2","""event"",""trial"",""time""
""fullscreenenter"",""1"",""1295""
","
","
","""event"",""trial"",""time""
""fullscreenenter"",""1"",""1295""
","
","","","","","","1003.5","<p> You need to select whether the image is:  </p><p>  'Definitely old', 'Maybe old', 'Maybe new', or 'Definitely new.'  </p><div class=""mem-choice-instructions-grid""><div class=""choice-option"" id=""choice-option-1"" ><img src=""images/definitely_old_1.png"" id=""choice-option-img-1"" class=""choice-option-img"" stage=""1""></div><div class=""choice-option"" id=""choice-option-2"" ><img src=""images/maybe_old_1.png"" id=""choice-option-img-2"" class=""choice-option-img"" stage=""1""></div><div class=""choice-option"" id=""choice-option-3"" ><img src=""images/maybe_new_1.png"" id=""choice-option-img-3"" class=""choice-option-img"" stage=""1""></div><div class=""choice-option"" id=""choice-option-4"" > <img src=""images/definitely_new_1.png"" id=""choice-option-img-4"" class=""choice-option-img"" stage=""1""></div></div>","","0","instructions","","","","","","","","",""
"learning-instructions","11","50463","0.0-7.0-0.4","1737","2","""event"",""trial"",""time""
""fullscreenenter"",""1"",""1295""
","
","
","""event"",""trial"",""time""
""fullscreenenter"",""1"",""1295""
","
","","","","","","471.19999980926514","<p> You should use the 1, 2, 3, and 4 keys to make your responses.  </p><div class=""mem-choice-instructions-grid""><div class=""choice-option"" id=""choice-option-1"" ><img src=""images/definitely_old.png"" id=""choice-option-img-1"" class=""choice-option-img"" stage=""1""></div><div class=""choice-option"" id=""choice-option-2"" ><img src=""images/maybe_old.png"" id=""choice-option-img-2"" class=""choice-option-img"" stage=""1""></div><div class=""choice-option"" id=""choice-option-3"" ><img src=""images/maybe_new.png"" id=""choice-option-img-3"" class=""choice-option-img"" stage=""1""></div><div class=""choice-option"" id=""choice-option-4"" > <img src=""images/definitely_new.png"" id=""choice-option-img-4"" class=""choice-option-img"" stage=""1""></div></div>","","0","instructions","","","","","","","","",""
"learning-instructions","12","57649","0.0-7.0-0.5","1737","2","""event"",""trial"",""time""
""fullscreenenter"",""1"",""1295""
","
","
","""event"",""trial"",""time""
""fullscreenenter"",""1"",""1295""
","
","","","","","","431.5","<p> You will have 10 seconds to make each response.  </p><p>  Make sure to respond before time runs out! </p>","","0","instructions","","","","","","","","",""
"learning-instructions","13","65684","0.0-7.0-0.6","1737","2","""event"",""trial"",""time""
""fullscreenenter"",""1"",""1295""
","
","
","""event"",""trial"",""time""
""fullscreenenter"",""1"",""1295""
","
","","","","","","456.1000003814697","<p> Today, you will see each image ONCE only.  </p><p>  That means none of the images will repeat. </p>","","0","instructions","","","","","","","","",""
"learning-instructions","14","78521","0.0-7.0-0.7","1737","2","""event"",""trial"",""time""
""fullscreenenter"",""1"",""1295""
","
","
","""event"",""trial"",""time""
""fullscreenenter"",""1"",""1295""
","
","","","","","","173.4000005722046","<p> Before you play the real game, it is time to practice. </p><p>  Just like in the real game, some of the images in the practice will be ones you have seen before. </p><p>  Others will be entirely new. </p>","","0","instructions","","","","","","","","",""
"html-button-response","15","79900","0.0-8.0","1737","2","""event"",""trial"",""time""
""fullscreenenter"",""1"",""1295""
","
","
","""event"",""trial"",""time""
""fullscreenenter"",""1"",""1295""
","
","","","","","","1278.3999996185303","<p> Ready to practice? </p><p> Remember, use the 1, 2, 3, and 4 keys to make your responses. </p>","0","","instructions","","","","","","","","",""
"html-keyboard-response","16","80506","0.0-9.0-0.0","1737","2","""event"",""trial"",""time""
""fullscreenenter"",""1"",""1295""
","
","
","""event"",""trial"",""time""
""fullscreenenter"",""1"",""1295""
","
","","","","","","null","<div style=""font-size:60px;"">+</div>","null","","fixation","","","","","","","","",""
"memory-trial","17","83152","0.0-9.0-1.0","1737","2","""event"",""trial"",""time""
""fullscreenenter"",""1"",""1295""
","
","
","""event"",""trial"",""time""
""fullscreenenter"",""1"",""1295""
","
","","","","","","1638.1000003814697","images/racket3.png","","","practice","1","definitely_old","","","","","","",""
"html-keyboard-response","18","83657","0.0-9.0-0.1","1737","2","""event"",""trial"",""time""
""fullscreenenter"",""1"",""1295""
","
","
","""event"",""trial"",""time""
""fullscreenenter"",""1"",""1295""
","
","","","","","","null","<div style=""font-size:60px;"">+</div>","null","","fixation","","","","","","","","",""
"memory-trial","19","85949","0.0-9.0-1.1","1737","2","""event"",""trial"",""time""
""fullscreenenter"",""1"",""1295""
","
","
","""event"",""trial"",""time""
""fullscreenenter"",""1"",""1295""
","
","","","","","","1286","images/ball3.png","","","practice","4","definitely_new","","","","","","",""
"html-keyboard-response","20","86454","0.0-9.0-0.2","1737","2","""event"",""trial"",""time""
""fullscreenenter"",""1"",""1295""
","
","
","""event"",""trial"",""time""
""fullscreenenter"",""1"",""1295""
","
","","","","","","null","<div style=""font-size:60px;"">+</div>","null","","fixation","","","","","","","","",""
"memory-trial","21","88687","0.0-9.0-1.2","1737","2","""event"",""trial"",""time""
""fullscreenenter"",""1"",""1295""
","
","
","""event"",""trial"",""time""
""fullscreenenter"",""1"",""1295""
","
","","","","","","1229.8000001907349","images/racket1.png","","","practice","2","maybe_old","","","","","","",""
"html-keyboard-response","22","89189","0.0-9.0-0.3","1737","2","""event"",""trial"",""time""
""fullscreenenter"",""1"",""1295""
","
","
","""event"",""trial"",""time""
""fullscreenenter"",""1"",""1295""
","
","","","","","","null","<div style=""font-size:60px;"">+</div>","null","","fixation","","","","","","","","",""
"memory-trial","23","91295","0.0-9.0-1.3","1737","2","""event"",""trial"",""time""
""fullscreenenter"",""1"",""1295""
","
","
","""event"",""trial"",""time""
""fullscreenenter"",""1"",""1295""
","
","","","","","","1104.8000001907349","images/ball2.png","","","practice","3","maybe_new","","","","","","",""
"html-keyboard-response","24","91797","0.0-9.0-0.4","1737","2","""event"",""trial"",""time""
""fullscreenenter"",""1"",""1295""
","
","
","""event"",""trial"",""time""
""fullscreenenter"",""1"",""1295""
","
","","","","","","null","<div style=""font-size:60px;"">+</div>","null","","fixation","","","","","","","","",""
"memory-trial","25","93932","0.0-9.0-1.4","1737","2","""event"",""trial"",""time""
""fullscreenenter"",""1"",""1295""
","
","
","""event"",""trial"",""time""
""fullscreenenter"",""1"",""1295""
","
","","","","","","1134.0999994277954","images/ball4.png","","","practice","3","maybe_new","","","","","","",""
"html-keyboard-response","26","94438","0.0-9.0-0.5","1737","2","""event"",""trial"",""time""
""fullscreenenter"",""1"",""1295""
","
","
","""event"",""trial"",""time""
""fullscreenenter"",""1"",""1295""
","
","","","","","","null","<div style=""font-size:60px;"">+</div>","null","","fixation","","","","","","","","",""
"memory-trial","27","96396","0.0-9.0-1.5","1737","2","""event"",""trial"",""time""
""fullscreenenter"",""1"",""1295""
","
","
","""event"",""trial"",""time""
""fullscreenenter"",""1"",""1295""
","
","","","","","","953.6999998092651","images/ball1.png","","","practice","3","maybe_new","","","","","","",""
"html-keyboard-response","28","96900","0.0-9.0-0.6","1737","2","""event"",""trial"",""time""
""fullscreenenter"",""1"",""1295""
","
","
","""event"",""trial"",""time""
""fullscreenenter"",""1"",""1295""
","
","","","","","","null","<div style=""font-size:60px;"">+</div>","null","","fixation","","","","","","","","",""
"memory-trial","29","98711","0.0-9.0-1.6","1737","2","""event"",""trial"",""time""
""fullscreenenter"",""1"",""1295""
","
","
","""event"",""trial"",""time""
""fullscreenenter"",""1"",""1295""
","
","","","","","","804.8999996185303","images/racket4.png","","","practice","2","maybe_old","","","","","","",""
"html-keyboard-response","30","99216","0.0-9.0-0.7","1737","2","""event"",""trial"",""time""
""fullscreenenter"",""1"",""1295""
","
","
","""event"",""trial"",""time""
""fullscreenenter"",""1"",""1295""
","
","","","","","","null","<div style=""font-size:60px;"">+</div>","null","","fixation","","","","","","","","",""
"memory-trial","31","101131","0.0-9.0-1.7","1737","2","""event"",""trial"",""time""
""fullscreenenter"",""1"",""1295""
","
","
","""event"",""trial"",""time""
""fullscreenenter"",""1"",""1295""
","
","","","","","","909.9000005722046","images/racket2.png","","","practice","1","definitely_old","","","","","","",""
"learning-instructions","32","110199","0.0-10.0-0.0","1737","2","""event"",""trial"",""time""
""fullscreenenter"",""1"",""1295""
","
","
","""event"",""trial"",""time""
""fullscreenenter"",""1"",""1295""
","
","","","","","","1116.3000001907349","<p> Great! You have completed the practice. </p><p> Before you start, we're going to ask you a few questions about how the game works.  </p>","","0","instructions","","","","","","","","",""
"preload","33","111235","0.0-11.0","1737","2","""event"",""trial"",""time""
""fullscreenenter"",""1"",""1295""
","
","
","""event"",""trial"",""time""
""fullscreenenter"",""1"",""1295""
","
","true","false","[]","[]","[]","","","","","","","","","","","","","",""
"comp-q","34","117087","0.0-12.0-0.0","1737","2","""event"",""trial"",""time""
""fullscreenenter"",""1"",""1295""
","
","
","""event"",""trial"",""time""
""fullscreenenter"",""1"",""1295""
","
","","","","","","25.59999942779541","<p> <b> True or False? </b> </p><p> In this game, you will only see each image once. </p>","","1","comp_question","","","false","","","","","",""
"comp-q","35","124651","0.0-12.0-1.0","1737","2","""event"",""trial"",""time""
""fullscreenenter"",""1"",""1295""
","
","
","""event"",""trial"",""time""
""fullscreenenter"",""1"",""1295""
","
","","","","","","1035.3999996185303","<p> <b>Incorrect.</b> You will see many different images <i> one time each </i> in this game. </p>","","0","comp_answer","","","","","","","","",""
"comp-q","36","131138","0.0-12.0-0.1","1737","2","""event"",""trial"",""time""
""fullscreenenter"",""1"",""1295""
","
","
","""event"",""trial"",""time""
""fullscreenenter"",""1"",""1295""
","
","","","","","","689.6999998092651","<p> <b> True or False? </b> </p><p> You should use the mouse and click to make your response. </p>","","1","comp_question","","","true","","","","","",""
"comp-q","37","139725","0.0-12.0-1.1","1737","2","""event"",""trial"",""time""
""fullscreenenter"",""1"",""1295""
","
","
","""event"",""trial"",""time""
""fullscreenenter"",""1"",""1295""
","
","","","","","","1240.1000003814697","<p><b> That's right! </b> You should use the '1', '2', '3', and '4' keys to make your response. </p>","","0","comp_answer","","","","","","","","",""
"comp-q","38","146515","0.0-12.0-0.2","1737","2","""event"",""trial"",""time""
""fullscreenenter"",""1"",""1295""
","
","
","""event"",""trial"",""time""
""fullscreenenter"",""1"",""1295""
","
","","","","","","797.5","<p> <b> True or False? </b> </p><p> You will have as much time as you want to make each choice. </p>","","1","comp_question","","","true","","","","","",""
"comp-q","39","153295","0.0-12.0-1.2","1737","2","""event"",""trial"",""time""
""fullscreenenter"",""1"",""1295""
","
","
","""event"",""trial"",""time""
""fullscreenenter"",""1"",""1295""
","
","","","","","","1391.1999998092651","<p> <b> That's right! </b> You will only have 10 seconds to make each choice. </p>","","0","comp_answer","","","","","","","","",""
"learning-instructions","40","162819","0.0-13.0","1737","2","""event"",""trial"",""time""
""fullscreenenter"",""1"",""1295""
","
","
","""event"",""trial"",""time""
""fullscreenenter"",""1"",""1295""
","
","","","","","","857.5","<p> Great! You are now ready to begin the game. </p><p> Remember, use the 1, 2, 3, and 4 keys to make your responses. </p>","","0","instructions","","","","","","","","",""
"preload","41","165989","0.0-14.0","1737","2","""event"",""trial"",""time""
""fullscreenenter"",""1"",""1295""
","
","
","""event"",""trial"",""time""
""fullscreenenter"",""1"",""1295""
","
","true","false","[]","[]","[]","","","","","","","","","","","","","",""
"html-keyboard-response","42","166495","0.0-15.0-0.0","1737","2","""event"",""trial"",""time""
""fullscreenenter"",""1"",""1295""
","
","
","""event"",""trial"",""time""
""fullscreenenter"",""1"",""1295""
","
","","","","","","null","<div style=""font-size:60px;"">+</div>","null","","fixation","","","","","","","","",""
"memory-trial","43","168958","0.0-15.0-1.0","1737","2","""event"",""trial"",""time""
""fullscreenenter"",""1"",""1295""
","
","
","""event"",""trial"",""time""
""fullscreenenter"",""1"",""1295""
","
","","","","","","1454.7999992370605","images/bush5.png","","","memory_trial","4","definitely_new","","","","","","",""
"html-keyboard-response","44","169464","0.0-15.0-0.1","1737","2","""event"",""trial"",""time""
""fullscreenenter"",""1"",""1295""
","
","
","""event"",""trial"",""time""
""fullscreenenter"",""1"",""1295""
","
","","","","","","null","<div style=""font-size:60px;"">+</div>","null","","fixation","","","","","","","","",""
"memory-trial","45","171489","0.0-15.0-1.1","1737","2","""event"",""trial"",""time""
""fullscreenenter"",""1"",""1295""
","
","
","""event"",""trial"",""time""
""fullscreenenter"",""1"",""1295""
","
","","","","","","1020.3999996185303","images/table5.png","","","memory_trial","3","maybe_new","","","","","","",""
"html-keyboard-response","46","171992","0.0-15.0-0.2","1737","2","""event"",""trial"",""time""
""fullscreenenter"",""1"",""1295""
","
","
","""event"",""trial"",""time""
""fullscreenenter"",""1"",""1295""
","
","","","","","","null","<div style=""font-size:60px;"">+</div>","null","","fixation","","","","","","","","",""
"memory-trial","47","173878","0.0-15.0-1.2","1737","2","""event"",""trial"",""time""
""fullscreenenter"",""1"",""1295""
","
","
","""event"",""trial"",""time""
""fullscreenenter"",""1"",""1295""
","
","","","","","","878.8000001907349","images/apple1.png","","","memory_trial","2","maybe_old","","","","","","",""
"html-keyboard-response","48","174379","0.0-15.0-0.3","1737","2","""event"",""trial"",""time""
""fullscreenenter"",""1"",""1295""
","
","
","""event"",""trial"",""time""
""fullscreenenter"",""1"",""1295""
","
","","","","","","null","<div style=""font-size:60px;"">+</div>","null","","fixation","","","","","","","","",""
"memory-trial","49","176846","0.0-15.0-1.3","1737","2","""event"",""trial"",""time""
""fullscreenenter"",""1"",""1295""
","
","
","""event"",""trial"",""time""
""fullscreenenter"",""1"",""1295""
","
","","","","","","1462.8000001907349","images/cow2.png","","","memory_trial","4","definitely_new","","","","","","",""
"html-keyboard-response","50","177350","0.0-15.0-0.4","1737","2","""event"",""trial"",""time""
""fullscreenenter"",""1"",""1295""
","
","
","""event"",""trial"",""time""
""fullscreenenter"",""1"",""1295""
","
","","","","","","null","<div style=""font-size:60px;"">+</div>","null","","fixation","","","","","","","","",""
"memory-trial","51","179286","0.0-15.0-1.4","1737","2","""event"",""trial"",""time""
""fullscreenenter"",""1"",""1295""
","
","
","""event"",""trial"",""time""
""fullscreenenter"",""1"",""1295""
","
","","","","","","928.8999996185303","images/orange4.png","","","memory_trial","3","maybe_new","","","","","","",""
"html-keyboard-response","52","179788","0.0-15.0-0.5","1737","2","""event"",""trial"",""time""
""fullscreenenter"",""1"",""1295""
","
","
","""event"",""trial"",""time""
""fullscreenenter"",""1"",""1295""
","
","","","","","","null","<div style=""font-size:60px;"">+</div>","null","","fixation","","","","","","","","",""
"memory-trial","53","181413","0.0-15.0-1.5","1737","2","""event"",""trial"",""time""
""fullscreenenter"",""1"",""1295""
","
","
","""event"",""trial"",""time""
""fullscreenenter"",""1"",""1295""
","
","","","","","","621.1999998092651","images/tree5.png","","","memory_trial","3","maybe_new","","","","","","",""
"html-keyboard-response","54","181916","0.0-15.0-0.6","1737","2","""event"",""trial"",""time""
""fullscreenenter"",""1"",""1295""
","
","
","""event"",""trial"",""time""
""fullscreenenter"",""1"",""1295""
","
","","","","","","null","<div style=""font-size:60px;"">+</div>","null","","fixation","","","","","","","","",""
"memory-trial","55","184782","0.0-15.0-1.6","1737","2","""event"",""trial"",""time""
""fullscreenenter"",""1"",""1295""
","
","
","""event"",""trial"",""time""
""fullscreenenter"",""1"",""1295""
","
","","","","","","1862.3999996185303","images/feline3.png","","","memory_trial","1","definitely_old","","","","","","",""
"html-keyboard-response","56","185284","0.0-15.0-0.7","1737","2","""event"",""trial"",""time""
""fullscreenenter"",""1"",""1295""
","
","
","""event"",""trial"",""time""
""fullscreenenter"",""1"",""1295""
","
","","","","","","null","<div style=""font-size:60px;"">+</div>","null","","fixation","","","","","","","","",""
"memory-trial","57","187687","0.0-15.0-1.7","1737","2","""event"",""trial"",""time""
""fullscreenenter"",""1"",""1295""
","
","
","""event"",""trial"",""time""
""fullscreenenter"",""1"",""1295""
","
","","","","","","1395.1999998092651","images/plane4.png","","","memory_trial","1","definitely_old","","","","","","",""
"html-keyboard-response","58","188193","0.0-15.0-0.8","1737","2","""event"",""trial"",""time""
""fullscreenenter"",""1"",""1295""
","
","
","""event"",""trial"",""time""
""fullscreenenter"",""1"",""1295""
","
","","","","","","null","<div style=""font-size:60px;"">+</div>","null","","fixation","","","","","","","","",""
"memory-trial","59","190104","0.0-15.0-1.8","1737","2","""event"",""trial"",""time""
""fullscreenenter"",""1"",""1295""
","
","
","""event"",""trial"",""time""
""fullscreenenter"",""1"",""1295""
","
","","","","","","906.3000001907349","images/bush1.png","","","memory_trial","4","definitely_new","","","","","","",""
"html-keyboard-response","60","190610","0.0-15.0-0.9","1737","2","""event"",""trial"",""time""
""fullscreenenter"",""1"",""1295""
","
","
","""event"",""trial"",""time""
""fullscreenenter"",""1"",""1295""
","
","","","","","","null","<div style=""font-size:60px;"">+</div>","null","","fixation","","","","","","","","",""
"memory-trial","61","192665","0.0-15.0-1.9","1737","2","""event"",""trial"",""time""
""fullscreenenter"",""1"",""1295""
","
","
","""event"",""trial"",""time""
""fullscreenenter"",""1"",""1295""
","
","","","","","","1049.1000003814697","images/truck5.png","","","memory_trial","1","definitely_old","","","","","","",""
"html-keyboard-response","62","193170","0.0-15.0-0.10","1737","2","""event"",""trial"",""time""
""fullscreenenter"",""1"",""1295""
","
","
","""event"",""trial"",""time""
""fullscreenenter"",""1"",""1295""
","
","","","","","","null","<div style=""font-size:60px;"">+</div>","null","","fixation","","","","","","","","",""
"memory-trial","63","195145","0.0-15.0-1.10","1737","2","""event"",""trial"",""time""
""fullscreenenter"",""1"",""1295""
","
","
","""event"",""trial"",""time""
""fullscreenenter"",""1"",""1295""
","
","","","","","","967.1000003814697","images/rodent4.png","","","memory_trial","2","maybe_old","","","","","","",""
"html-keyboard-response","64","195646","0.0-15.0-0.11","1737","2","""event"",""trial"",""time""
""fullscreenenter"",""1"",""1295""
","
","
","""event"",""trial"",""time""
""fullscreenenter"",""1"",""1295""
","
","","","","","","null","<div style=""font-size:60px;"">+</div>","null","","fixation","","","","","","","","",""
"memory-trial","65","197470","0.0-15.0-1.11","1737","2","""event"",""trial"",""time""
""fullscreenenter"",""1"",""1295""
","
","
","""event"",""trial"",""time""
""fullscreenenter"",""1"",""1295""
","
","","","","","","816.8000001907349","images/rabbit2.png","","","memory_trial","2","maybe_old","","","","","","",""
"html-keyboard-response","66","197971","0.0-15.0-0.12","1737","2","""event"",""trial"",""time""
""fullscreenenter"",""1"",""1295""
","
","
","""event"",""trial"",""time""
""fullscreenenter"",""1"",""1295""
","
","","","","","","null","<div style=""font-size:60px;"">+</div>","null","","fixation","","","","","","","","",""
"memory-trial","67","199614","0.0-15.0-1.12","1737","2","""event"",""trial"",""time""
""fullscreenenter"",""1"",""1295""
","
","
","""event"",""trial"",""time""
""fullscreenenter"",""1"",""1295""
","
","","","","","","636.1000003814697","images/goat3.png","","","memory_trial","2","maybe_old","","","","","","",""
"html-keyboard-response","68","200120","0.0-15.0-0.13","1737","2","""event"",""trial"",""time""
""fullscreenenter"",""1"",""1295""
","
","
","""event"",""trial"",""time""
""fullscreenenter"",""1"",""1295""
","
","","","","","","null","<div style=""font-size:60px;"">+</div>","null","","fixation","","","","","","","","",""
"memory-trial","69","202430","0.0-15.0-1.13","1737","2","""event"",""trial"",""time""
""fullscreenenter"",""1"",""1295""
","
","
","""event"",""trial"",""time""
""fullscreenenter"",""1"",""1295""
","
","","","","","","1306.1000003814697","images/chair4.png","","","memory_trial","3","maybe_new","","","","","","",""
"html-keyboard-response","70","202935","0.0-15.0-0.14","1737","2","""event"",""trial"",""time""
""fullscreenenter"",""1"",""1295""
","
","
","""event"",""trial"",""time""
""fullscreenenter"",""1"",""1295""
","
","","","","","","null","<div style=""font-size:60px;"">+</div>","null","","fixation","","","","","","","","",""
"memory-trial","71","204536","0.0-15.0-1.14","1737","2","""event"",""trial"",""time""
""fullscreenenter"",""1"",""1295""
","
","
","""event"",""trial"",""time""
""fullscreenenter"",""1"",""1295""
","
","","","","","","594.8000001907349","images/table4.png","","","memory_trial","3","maybe_new","","","","","","",""
"html-keyboard-response","72","205043","0.0-15.0-0.15","1737","2","""event"",""trial"",""time""
""fullscreenenter"",""1"",""1295""
","
","
","""event"",""trial"",""time""
""fullscreenenter"",""1"",""1295""
","
","","","","","","null","<div style=""font-size:60px;"">+</div>","null","","fixation","","","","","","","","",""
"memory-trial","73","206728","0.0-15.0-1.15","1737","2","""event"",""trial"",""time""
""fullscreenenter"",""1"",""1295""
","
","
","""event"",""trial"",""time""
""fullscreenenter"",""1"",""1295""
","
","","","","","","682.3000001907349","images/orange5.png","","","memory_trial","2","maybe_old","","","","","","",""
"html-keyboard-response","74","207235","0.0-15.0-0.16","1737","2","""event"",""trial"",""time""
""fullscreenenter"",""1"",""1295""
","
","
","""event"",""trial"",""time""
""fullscreenenter"",""1"",""1295""
","
","","","","","","null","<div style=""font-size:60px;"">+</div>","null","","fixation","","","","","","","","",""
"memory-trial","75","209309","0.0-15.0-1.16","1737","2","""event"",""trial"",""time""
""fullscreenenter"",""1"",""1295""
","
","
","""event"",""trial"",""time""
""fullscreenenter"",""1"",""1295""
","
","","","","","","1068.7999992370605","images/bed1.png","","","memory_trial","3","maybe_new","","","","","","",""
"html-keyboard-response","76","209813","0.0-15.0-0.17","1737","2","""event"",""trial"",""time""
""fullscreenenter"",""1"",""1295""
","
","
","""event"",""trial"",""time""
""fullscreenenter"",""1"",""1295""
","
","","","","","","null","<div style=""font-size:60px;"">+</div>","null","","fixation","","","","","","","","",""
"memory-trial","77","212589","0.0-15.0-1.17","1737","2","""event"",""trial"",""time""
""fullscreenenter"",""1"",""1295""
","
","
","""event"",""trial"",""time""
""fullscreenenter"",""1"",""1295""
","
","","","","","","1770.5","images/horse5.png","","","memory_trial","3","maybe_new","","","","","","",""
"html-keyboard-response","78","213093","0.0-15.0-0.18","1737","2","""event"",""trial"",""time""
""fullscreenenter"",""1"",""1295""
","
","
","""event"",""trial"",""time""
""fullscreenenter"",""1"",""1295""
","
","","","","","","null","<div style=""font-size:60px;"">+</div>","null","","fixation","","","","","","","","",""
"memory-trial","79","215256","0.0-15.0-1.18","1737","2","""event"",""trial"",""time""
""fullscreenenter"",""1"",""1295""
","
","
","""event"",""trial"",""time""
""fullscreenenter"",""1"",""1295""
","
","","","","","","1158.9000005722046","images/tree3.png","","","memory_trial","4","definitely_new","","","","","","",""
"html-keyboard-response","80","215762","0.0-15.0-0.19","1737","2","""event"",""trial"",""time""
""fullscreenenter"",""1"",""1295""
","
","
","""event"",""trial"",""time""
""fullscreenenter"",""1"",""1295""
","
","","","","","","null","<div style=""font-size:60px;"">+</div>","null","","fixation","","","","","","","","",""
"memory-trial","81","217560","0.0-15.0-1.19","1737","2","""event"",""trial"",""time""
""fullscreenenter"",""1"",""1295""
","
","
","""event"",""trial"",""time""
""fullscreenenter"",""1"",""1295""
","
","","","","","","792.8000001907349","images/sheep2.png","","","memory_trial","3","maybe_new","","","","","","",""
"html-keyboard-response","82","218063","0.0-15.0-0.20","1737","2","""event"",""trial"",""time""
""fullscreenenter"",""1"",""1295""
","
","
","""event"",""trial"",""time""
""fullscreenenter"",""1"",""1295""
","
","","","","","","null","<div style=""font-size:60px;"">+</div>","null","","fixation","","","","","","","","",""
"memory-trial","83","219901","0.0-15.0-1.20","1737","2","""event"",""trial"",""time""
""fullscreenenter"",""1"",""1295""
","
","
","""event"",""trial"",""time""
""fullscreenenter"",""1"",""1295""
","
","","","","","","834.6000003814697","images/truck3.png","","","memory_trial","2","maybe_old","","","","","","",""
"html-keyboard-response","84","220402","0.0-15.0-0.21","1737","2","""event"",""trial"",""time""
""fullscreenenter"",""1"",""1295""
","
","
","""event"",""trial"",""time""
""fullscreenenter"",""1"",""1295""
","
","","","","","","null","<div style=""font-size:60px;"">+</div>","null","","fixation","","","","","","","","",""
"memory-trial","85","222125","0.0-15.0-1.21","1737","2","""event"",""trial"",""time""
""fullscreenenter"",""1"",""1295""
","
","
","""event"",""trial"",""time""
""fullscreenenter"",""1"",""1295""
","
","","","","","","717","images/feline4.png","","","memory_trial","2","maybe_old","","","","","","",""
"html-keyboard-response","86","222627","0.0-15.0-0.22","1737","2","""event"",""trial"",""time""
""fullscreenenter"",""1"",""1295""
","
","
","""event"",""trial"",""time""
""fullscreenenter"",""1"",""1295""
","
","","","","","","null","<div style=""font-size:60px;"">+</div>","null","","fixation","","","","","","","","",""
"memory-trial","87","224409","0.0-15.0-1.22","1737","2","""event"",""trial"",""time""
""fullscreenenter"",""1"",""1295""
","
","
","""event"",""trial"",""time""
""fullscreenenter"",""1"",""1295""
","
","","","","","","776.3999996185303","images/dog4.png","","","memory_trial","3","maybe_new","","","","","","",""
"html-keyboard-response","88","224914","0.0-15.0-0.23","1737","2","""event"",""trial"",""time""
""fullscreenenter"",""1"",""1295""
","
","
","""event"",""trial"",""time""
""fullscreenenter"",""1"",""1295""
","
","","","","","","null","<div style=""font-size:60px;"">+</div>","null","","fixation","","","","","","","","",""
"memory-trial","89","226727","0.0-15.0-1.23","1737","2","""event"",""trial"",""time""
""fullscreenenter"",""1"",""1295""
","
","
","""event"",""trial"",""time""
""fullscreenenter"",""1"",""1295""
","
","","","","","","810.6999998092651","images/horse2.png","","","memory_trial","3","maybe_new","","","","","","",""
"html-keyboard-response","90","227234","0.0-15.0-0.24","1737","2","""event"",""trial"",""time""
""fullscreenenter"",""1"",""1295""
","
","
","""event"",""trial"",""time""
""fullscreenenter"",""1"",""1295""
","
","","","","","","null","<div style=""font-size:60px;"">+</div>","null","","fixation","","","","","","","","",""
"memory-trial","91","229159","0.0-15.0-1.24","1737","2","""event"",""trial"",""time""
""fullscreenenter"",""1"",""1295""
","
","
","""event"",""trial"",""time""
""fullscreenenter"",""1"",""1295""
","
","","","","","","921.3999996185303","images/straw1.png","","","memory_trial","2","maybe_old","","","","","","",""
"html-keyboard-response","92","229666","0.0-15.0-0.25","1737","2","""event"",""trial"",""time""
""fullscreenenter"",""1"",""1295""
","
","
","""event"",""trial"",""time""
""fullscreenenter"",""1"",""1295""
","
","","","","","","null","<div style=""font-size:60px;"">+</div>","null","","fixation","","","","","","","","",""
"memory-trial","93","231143","0.0-15.0-1.25","1737","2","""event"",""trial"",""time""
""fullscreenenter"",""1"",""1295""
","
","
","""event"",""trial"",""time""
""fullscreenenter"",""1"",""1295""
","
","","","","","","472.9000005722046","images/orange1.png","","","memory_trial","2","maybe_old","","","","","","",""
"html-keyboard-response","94","231645","0.0-15.0-0.26","1737","2","""event"",""trial"",""time""
""fullscreenenter"",""1"",""1295""
","
","
","""event"",""trial"",""time""
""fullscreenenter"",""1"",""1295""
","
","","","","","","null","<div style=""font-size:60px;"">+</div>","null","","fixation","","","","","","","","",""
"memory-trial","95","233479","0.0-15.0-1.26","1737","2","""event"",""trial"",""time""
""fullscreenenter"",""1"",""1295""
","
","
","""event"",""trial"",""time""
""fullscreenenter"",""1"",""1295""
","
","","","","","","831.1000003814697","images/cactus2.png","","","memory_trial","4","definitely_new","","","","","","",""
"html-keyboard-response","96","233985","0.0-15.0-0.27","1737","2","""event"",""trial"",""time""
""fullscreenenter"",""1"",""1295""
","
","
","""event"",""trial"",""time""
""fullscreenenter"",""1"",""1295""
","
","","","","","","null","<div style=""font-size:60px;"">+</div>","null","","fixation","","","","","","","","",""
"memory-trial","97","235709","0.0-15.0-1.27","1737","2","""event"",""trial"",""time""
""fullscreenenter"",""1"",""1295""
","
","
","""event"",""trial"",""time""
""fullscreenenter"",""1"",""1295""
","
","","","","","","717.6000003814697","images/rodent3.png","","","memory_trial","2","maybe_old","","","","","","",""
"html-keyboard-response","98","236212","0.0-15.0-0.28","1737","2","""event"",""trial"",""time""
""fullscreenenter"",""1"",""1295""
","
","
","""event"",""trial"",""time""
""fullscreenenter"",""1"",""1295""
","
","","","","","","null","<div style=""font-size:60px;"">+</div>","null","","fixation","","","","","","","","",""
"memory-trial","99","238034","0.0-15.0-1.28","1737","2","""event"",""trial"",""time""
""fullscreenenter"",""1"",""1295""
","
","
","""event"",""trial"",""time""
""fullscreenenter"",""1"",""1295""
","
","","","","","","817","images/bush3.png","","","memory_trial","3","maybe_new","","","","","","",""
"html-keyboard-response","100","238535","0.0-15.0-0.29","1737","2","""event"",""trial"",""time""
""fullscreenenter"",""1"",""1295""
","
","
","""event"",""trial"",""time""
""fullscreenenter"",""1"",""1295""
","
","","","","","","null","<div style=""font-size:60px;"">+</div>","null","","fixation","","","","","","","","",""
"memory-trial","101","240227","0.0-15.0-1.29","1737","2","""event"",""trial"",""time""
""fullscreenenter"",""1"",""1295""
","
","
","""event"",""trial"",""time""
""fullscreenenter"",""1"",""1295""
","
","","","","","","687.1000003814697","images/goat5.png","","","memory_trial","3","maybe_new","","","","","","",""
"html-keyboard-response","102","240732","0.0-15.0-0.30","1737","2","""event"",""trial"",""time""
""fullscreenenter"",""1"",""1295""
","
","
","""event"",""trial"",""time""
""fullscreenenter"",""1"",""1295""
","
","","","","","","null","<div style=""font-size:60px;"">+</div>","null","","fixation","","","","","","","","",""
"memory-trial","103","242796","0.0-15.0-1.30","1737","2","""event"",""trial"",""time""
""fullscreenenter"",""1"",""1295""
","
","
","""event"",""trial"",""time""
""fullscreenenter"",""1"",""1295""
","
","","","","","","1059.0999994277954","images/rodent2.png","","","memory_trial","2","maybe_old","","","","","","",""
"html-keyboard-response","104","243300","0.0-15.0-0.31","1737","2","""event"",""trial"",""time""
""fullscreenenter"",""1"",""1295""
","
","
","""event"",""trial"",""time""
""fullscreenenter"",""1"",""1295""
","
","","","","","","null","<div style=""font-size:60px;"">+</div>","null","","fixation","","","","","","","","",""
"memory-trial","105","245004","0.0-15.0-1.31","1737","2","""event"",""trial"",""time""
""fullscreenenter"",""1"",""1295""
","
","
","""event"",""trial"",""time""
""fullscreenenter"",""1"",""1295""
","
","","","","","","696","images/sofa3.png","","","memory_trial","3","maybe_new","","","","","","",""
"html-keyboard-response","106","245505","0.0-15.0-0.32","1737","2","""event"",""trial"",""time""
""fullscreenenter"",""1"",""1295""
","
","
","""event"",""trial"",""time""
""fullscreenenter"",""1"",""1295""
","
","","","","","","null","<div style=""font-size:60px;"">+</div>","null","","fixation","","","","","","","","",""
"memory-trial","107","247084","0.0-15.0-1.32","1737","2","""event"",""trial"",""time""
""fullscreenenter"",""1"",""1295""
","
","
","""event"",""trial"",""time""
""fullscreenenter"",""1"",""1295""
","
","","","","","","575.5","images/cactus4.png","","","memory_trial","4","definitely_new","","","","","","",""
"html-keyboard-response","108","247587","0.0-15.0-0.33","1737","2","""event"",""trial"",""time""
""fullscreenenter"",""1"",""1295""
","
","
","""event"",""trial"",""time""
""fullscreenenter"",""1"",""1295""
","
","","","","","","null","<div style=""font-size:60px;"">+</div>","null","","fixation","","","","","","","","",""
"memory-trial","109","249516","0.0-15.0-1.33","1737","2","""event"",""trial"",""time""
""fullscreenenter"",""1"",""1295""
","
","
","""event"",""trial"",""time""
""fullscreenenter"",""1"",""1295""
","
","","","","","","927.3999996185303","images/boat2.png","","","memory_trial","1","definitely_old","","","","","","",""
"html-keyboard-response","110","250022","0.0-15.0-0.34","1737","2","""event"",""trial"",""time""
""fullscreenenter"",""1"",""1295""
","
","
","""event"",""trial"",""time""
""fullscreenenter"",""1"",""1295""
","
","","","","","","null","<div style=""font-size:60px;"">+</div>","null","","fixation","","","","","","","","",""
"memory-trial","111","251676","0.0-15.0-1.34","1737","2","""event"",""trial"",""time""
""fullscreenenter"",""1"",""1295""
","
","
","""event"",""trial"",""time""
""fullscreenenter"",""1"",""1295""
","
","","","","","","648.8000001907349","images/sheep3.png","","","memory_trial","3","maybe_new","","","","","","",""
"html-keyboard-response","112","252179","0.0-15.0-0.35","1737","2","""event"",""trial"",""time""
""fullscreenenter"",""1"",""1295""
","
","
","""event"",""trial"",""time""
""fullscreenenter"",""1"",""1295""
","
","","","","","","null","<div style=""font-size:60px;"">+</div>","null","","fixation","","","","","","","","",""
"memory-trial","113","253891","0.0-15.0-1.35","1737","2","""event"",""trial"",""time""
""fullscreenenter"",""1"",""1295""
","
","
","""event"",""trial"",""time""
""fullscreenenter"",""1"",""1295""
","
","","","","","","709.5","images/flower5.png","","","memory_trial","4","definitely_new","","","","","","",""
"html-keyboard-response","114","254396","0.0-15.0-0.36","1737","2","""event"",""trial"",""time""
""fullscreenenter"",""1"",""1295""
","
","
","""event"",""trial"",""time""
""fullscreenenter"",""1"",""1295""
","
","","","","","","null","<div style=""font-size:60px;"">+</div>","null","","fixation","","","","","","","","",""
"memory-trial","115","256022","0.0-15.0-1.36","1737","2","""event"",""trial"",""time""
""fullscreenenter"",""1"",""1295""
","
","
","""event"",""trial"",""time""
""fullscreenenter"",""1"",""1295""
","
","","","","","","624.1000003814697","images/cactus3.png","","","memory_trial","4","definitely_new","","","","","","",""
"html-keyboard-response","116","256524","0.0-15.0-0.37","1737","2","""event"",""trial"",""time""
""fullscreenenter"",""1"",""1295""
","
","
","""event"",""trial"",""time""
""fullscreenenter"",""1"",""1295""
","
","","","","","","null","<div style=""font-size:60px;"">+</div>","null","","fixation","","","","","","","","",""
"memory-trial","117","258353","0.0-15.0-1.37","1737","2","""event"",""trial"",""time""
""fullscreenenter"",""1"",""1295""
","
","
","""event"",""trial"",""time""
""fullscreenenter"",""1"",""1295""
","
","","","","","","825","images/sheep5.png","","","memory_trial","3","maybe_new","","","","","","",""
"html-keyboard-response","118","258855","0.0-15.0-0.38","1737","2","""event"",""trial"",""time""
""fullscreenenter"",""1"",""1295""
","
","
","""event"",""trial"",""time""
""fullscreenenter"",""1"",""1295""
","
","","","","","","null","<div style=""font-size:60px;"">+</div>","null","","fixation","","","","","","","","",""
"memory-trial","119","260507","0.0-15.0-1.38","1737","2","""event"",""trial"",""time""
""fullscreenenter"",""1"",""1295""
","
","
","""event"",""trial"",""time""
""fullscreenenter"",""1"",""1295""
","
","","","","","","646.8999996185303","images/table1.png","","","memory_trial","4","definitely_new","","","","","","",""
"html-keyboard-response","120","261012","0.0-15.0-0.39","1737","2","""event"",""trial"",""time""
""fullscreenenter"",""1"",""1295""
","
","
","""event"",""trial"",""time""
""fullscreenenter"",""1"",""1295""
","
","","","","","","null","<div style=""font-size:60px;"">+</div>","null","","fixation","","","","","","","","",""
"memory-trial","121","262928","0.0-15.0-1.39","1737","2","""event"",""trial"",""time""
""fullscreenenter"",""1"",""1295""
","
","
","""event"",""trial"",""time""
""fullscreenenter"",""1"",""1295""
","
","","","","","","911","images/apple4.png","","","memory_trial","4","definitely_new","","","","","","",""
"html-keyboard-response","122","263430","0.0-15.0-0.40","1737","2","""event"",""trial"",""time""
""fullscreenenter"",""1"",""1295""
","
","
","""event"",""trial"",""time""
""fullscreenenter"",""1"",""1295""
","
","","","","","","null","<div style=""font-size:60px;"">+</div>","null","","fixation","","","","","","","","",""
"memory-trial","123","265206","0.0-15.0-1.40","1737","2","""event"",""trial"",""time""
""fullscreenenter"",""1"",""1295""
","
","
","""event"",""trial"",""time""
""fullscreenenter"",""1"",""1295""
","
","","","","","","773.3000001907349","images/bush2.png","","","memory_trial","4","definitely_new","","","","","","",""
"html-keyboard-response","124","265707","0.0-15.0-0.41","1737","2","""event"",""trial"",""time""
""fullscreenenter"",""1"",""1295""
","
","
","""event"",""trial"",""time""
""fullscreenenter"",""1"",""1295""
","
","","","","","","null","<div style=""font-size:60px;"">+</div>","null","","fixation","","","","","","","","",""
"memory-trial","125","267515","0.0-15.0-1.41","1737","2","""event"",""trial"",""time""
""fullscreenenter"",""1"",""1295""
","
","
","""event"",""trial"",""time""
""fullscreenenter"",""1"",""1295""
","
","","","","","","805.0999994277954","images/cow1.png","","","memory_trial","4","definitely_new","","","","","","",""
"html-keyboard-response","126","268022","0.0-15.0-0.42","1737","2","""event"",""trial"",""time""
""fullscreenenter"",""1"",""1295""
","
","
","""event"",""trial"",""time""
""fullscreenenter"",""1"",""1295""
","
","","","","","","null","<div style=""font-size:60px;"">+</div>","null","","fixation","","","","","","","","",""
"memory-trial","127","269750","0.0-15.0-1.42","1737","2","""event"",""trial"",""time""
""fullscreenenter"",""1"",""1295""
","
","
","""event"",""trial"",""time""
""fullscreenenter"",""1"",""1295""
","
","","","","","","722.6999998092651","images/feline2.png","","","memory_trial","3","maybe_new","","","","","","",""
"html-keyboard-response","128","270256","0.0-15.0-0.43","1737","2","""event"",""trial"",""time""
""fullscreenenter"",""1"",""1295""
","
","
","""event"",""trial"",""time""
""fullscreenenter"",""1"",""1295""
","
","","","","","","null","<div style=""font-size:60px;"">+</div>","null","","fixation","","","","","","","","",""
"memory-trial","129","271846","0.0-15.0-1.43","1737","2","""event"",""trial"",""time""
""fullscreenenter"",""1"",""1295""
","
","
","""event"",""trial"",""time""
""fullscreenenter"",""1"",""1295""
","
","","","","","","583","images/flower4.png","","","memory_trial","4","definitely_new","","","","","","",""
"html-keyboard-response","130","272352","0.0-15.0-0.44","1737","2","""event"",""trial"",""time""
""fullscreenenter"",""1"",""1295""
","
","
","""event"",""trial"",""time""
""fullscreenenter"",""1"",""1295""
","
","","","","","","null","<div style=""font-size:60px;"">+</div>","null","","fixation","","","","","","","","",""
"memory-trial","131","273888","0.0-15.0-1.44","1737","2","""event"",""trial"",""time""
""fullscreenenter"",""1"",""1295""
","
","
","""event"",""trial"",""time""
""fullscreenenter"",""1"",""1295""
","
","","","","","","530.5","images/flower2.png","","","memory_trial","4","definitely_new","","","","","","",""
"html-keyboard-response","132","274395","0.0-15.0-0.45","1737","2","""event"",""trial"",""time""
""fullscreenenter"",""1"",""1295""
","
","
","""event"",""trial"",""time""
""fullscreenenter"",""1"",""1295""
","
","","","","","","null","<div style=""font-size:60px;"">+</div>","null","","fixation","","","","","","","","",""
"memory-trial","133","276097","0.0-15.0-1.45","1737","2","""event"",""trial"",""time""
""fullscreenenter"",""1"",""1295""
","
","
","""event"",""trial"",""time""
""fullscreenenter"",""1"",""1295""
","
","","","","","","695.0999994277954","images/rabbit1.png","","","memory_trial","4","definitely_new","","","","","","",""
"html-keyboard-response","134","276603","0.0-15.0-0.46","1737","2","""event"",""trial"",""time""
""fullscreenenter"",""1"",""1295""
","
","
","""event"",""trial"",""time""
""fullscreenenter"",""1"",""1295""
","
","","","","","","null","<div style=""font-size:60px;"">+</div>","null","","fixation","","","","","","","","",""
"memory-trial","135","278923","0.0-15.0-1.46","1737","2","""event"",""trial"",""time""
""fullscreenenter"",""1"",""1295""
","
","
","""event"",""trial"",""time""
""fullscreenenter"",""1"",""1295""
","
","","","","","","1316.1999998092651","images/straw2.png","","","memory_trial","1","definitely_old","","","","","","",""
"html-button-response","136","281526","0.0-15.0-2.46-0.46","1737","2","""event"",""trial"",""time""
""fullscreenenter"",""1"",""1295""
","
","
","""event"",""trial"",""time""
""fullscreenenter"",""1"",""1295""
","
","","","","","","2601.5999994277954","<p> Take a break! </p><p> Click the button to continue. </p>","0","","break","","","","","","","","",""
"html-keyboard-response","137","282028","0.0-15.0-0.47","1737","2","""event"",""trial"",""time""
""fullscreenenter"",""1"",""1295""
","
","
","""event"",""trial"",""time""
""fullscreenenter"",""1"",""1295""
","
","","","","","","null","<div style=""font-size:60px;"">+</div>","null","","fixation","","","","","","","","",""
"memory-trial","138","283691","0.0-15.0-1.47","1737","2","""event"",""trial"",""time""
""fullscreenenter"",""1"",""1295""
","
","
","""event"",""trial"",""time""
""fullscreenenter"",""1"",""1295""
","
","","","","","","659","images/sheep4.png","","","memory_trial","4","definitely_new","","","","","","",""
"html-keyboard-response","139","284196","0.0-15.0-0.48","1737","2","""event"",""trial"",""time""
""fullscreenenter"",""1"",""1295""
","
","
","""event"",""trial"",""time""
""fullscreenenter"",""1"",""1295""
","
","","","","","","null","<div style=""font-size:60px;"">+</div>","null","","fixation","","","","","","","","",""
"memory-trial","140","286160","0.0-15.0-1.48","1737","2","""event"",""trial"",""time""
""fullscreenenter"",""1"",""1295""
","
","
","""event"",""trial"",""time""
""fullscreenenter"",""1"",""1295""
","
","","","","","","956.8000001907349","images/plane2.png","","","memory_trial","2","maybe_old","","","","","","",""
"html-keyboard-response","141","286662","0.0-15.0-0.49","1737","2","""event"",""trial"",""time""
""fullscreenenter"",""1"",""1295""
","
","
","""event"",""trial"",""time""
""fullscreenenter"",""1"",""1295""
","
","","","","","","null","<div style=""font-size:60px;"">+</div>","null","","fixation","","","","","","","","",""
"memory-trial","142","288378","0.0-15.0-1.49","1737","2","""event"",""trial"",""time""
""fullscreenenter"",""1"",""1295""
","
","
","""event"",""trial"",""time""
""fullscreenenter"",""1"",""1295""
","
","","","","","","710","images/sofa5.png","","","memory_trial","2","maybe_old","","","","","","",""
"html-keyboard-response","143","288883","0.0-15.0-0.50","1737","2","""event"",""trial"",""time""
""fullscreenenter"",""1"",""1295""
","
","
","""event"",""trial"",""time""
""fullscreenenter"",""1"",""1295""
","
","","","","","","null","<div style=""font-size:60px;"">+</div>","null","","fixation","","","","","","","","",""
"memory-trial","144","290602","0.0-15.0-1.50","1737","2","""event"",""trial"",""time""
""fullscreenenter"",""1"",""1295""
","
","
","""event"",""trial"",""time""
""fullscreenenter"",""1"",""1295""
","
","","","","","","711.5999994277954","images/truck4.png","","","memory_trial","2","maybe_old","","","","","","",""
"html-keyboard-response","145","291109","0.0-15.0-0.51","1737","2","""event"",""trial"",""time""
""fullscreenenter"",""1"",""1295""
","
","
","""event"",""trial"",""time""
""fullscreenenter"",""1"",""1295""
","
","","","","","","null","<div style=""font-size:60px;"">+</div>","null","","fixation","","","","","","","","",""
"memory-trial","146","293024","0.0-15.0-1.51","1737","2","""event"",""trial"",""time""
""fullscreenenter"",""1"",""1295""
","
","
","""event"",""trial"",""time""
""fullscreenenter"",""1"",""1295""
","
","","","","","","909.8000001907349","images/goat2.png","","","memory_trial","3","maybe_new","","","","","","",""
"html-keyboard-response","147","293527","0.0-15.0-0.52","1737","2","""event"",""trial"",""time""
""fullscreenenter"",""1"",""1295""
","
","
","""event"",""trial"",""time""
""fullscreenenter"",""1"",""1295""
","
","","","","","","null","<div style=""font-size:60px;"">+</div>","null","","fixation","","","","","","","","",""
"memory-trial","148","295128","0.0-15.0-1.52","1737","2","""event"",""trial"",""time""
""fullscreenenter"",""1"",""1295""
","
","
","""event"",""trial"",""time""
""fullscreenenter"",""1"",""1295""
","
","","","","","","594.3000001907349","images/tree4.png","","","memory_trial","4","definitely_new","","","","","","",""
"html-keyboard-response","149","295631","0.0-15.0-0.53","1737","2","""event"",""trial"",""time""
""fullscreenenter"",""1"",""1295""
","
","
","""event"",""trial"",""time""
""fullscreenenter"",""1"",""1295""
","
","","","","","","null","<div style=""font-size:60px;"">+</div>","null","","fixation","","","","","","","","",""
"memory-trial","150","297215","0.0-15.0-1.53","1737","2","""event"",""trial"",""time""
""fullscreenenter"",""1"",""1295""
","
","
","""event"",""trial"",""time""
""fullscreenenter"",""1"",""1295""
","
","","","","","","580.3000001907349","images/straw4.png","","","memory_trial","2","maybe_old","","","","","","",""
"html-keyboard-response","151","297722","0.0-15.0-0.54","1737","2","""event"",""trial"",""time""
""fullscreenenter"",""1"",""1295""
","
","
","""event"",""trial"",""time""
""fullscreenenter"",""1"",""1295""
","
","","","","","","null","<div style=""font-size:60px;"">+</div>","null","","fixation","","","","","","","","",""
"memory-trial","152","299338","0.0-15.0-1.54","1737","2","""event"",""trial"",""time""
""fullscreenenter"",""1"",""1295""
","
","
","""event"",""trial"",""time""
""fullscreenenter"",""1"",""1295""
","
","","","","","","610.3999996185303","images/bush4.png","","","memory_trial","3","maybe_new","","","","","","",""
"html-keyboard-response","153","299839","0.0-15.0-0.55","1737","2","""event"",""trial"",""time""
""fullscreenenter"",""1"",""1295""
","
","
","""event"",""trial"",""time""
""fullscreenenter"",""1"",""1295""
","
","","","","","","null","<div style=""font-size:60px;"">+</div>","null","","fixation","","","","","","","","",""
"memory-trial","154","301711","0.0-15.0-1.55","1737","2","""event"",""trial"",""time""
""fullscreenenter"",""1"",""1295""
","
","
","""event"",""trial"",""time""
""fullscreenenter"",""1"",""1295""
","
","","","","","","864.2000007629395","images/sofa4.png","","","memory_trial","3","maybe_new","","","","","","",""
"html-keyboard-response","155","302213","0.0-15.0-0.56","1737","2","""event"",""trial"",""time""
""fullscreenenter"",""1"",""1295""
","
","
","""event"",""trial"",""time""
""fullscreenenter"",""1"",""1295""
","
","","","","","","null","<div style=""font-size:60px;"">+</div>","null","","fixation","","","","","","","","",""
"memory-trial","156","304442","0.0-15.0-1.56","1737","2","""event"",""trial"",""time""
""fullscreenenter"",""1"",""1295""
","
","
","""event"",""trial"",""time""
""fullscreenenter"",""1"",""1295""
","
","","","","","","1225.8000001907349","images/train5.png","","","memory_trial","3","maybe_new","","","","","","",""
"html-keyboard-response","157","304947","0.0-15.0-0.57","1737","2","""event"",""trial"",""time""
""fullscreenenter"",""1"",""1295""
","
","
","""event"",""trial"",""time""
""fullscreenenter"",""1"",""1295""
","
","","","","","","null","<div style=""font-size:60px;"">+</div>","null","","fixation","","","","","","","","",""
"memory-trial","158","306538","0.0-15.0-1.57","1737","2","""event"",""trial"",""time""
""fullscreenenter"",""1"",""1295""
","
","
","""event"",""trial"",""time""
""fullscreenenter"",""1"",""1295""
","
","","","","","","584.8999996185303","images/rodent5.png","","","memory_trial","2","maybe_old","","","","","","",""
"html-keyboard-response","159","307044","0.0-15.0-0.58","1737","2","""event"",""trial"",""time""
""fullscreenenter"",""1"",""1295""
","
","
","""event"",""trial"",""time""
""fullscreenenter"",""1"",""1295""
","
","","","","","","null","<div style=""font-size:60px;"">+</div>","null","","fixation","","","","","","","","",""
"memory-trial","160","308762","0.0-15.0-1.58","1737","2","""event"",""trial"",""time""
""fullscreenenter"",""1"",""1295""
","
","
","""event"",""trial"",""time""
""fullscreenenter"",""1"",""1295""
","
","","","","","","710.5","images/bed3.png","","","memory_trial","3","maybe_new","","","","","","",""
"html-keyboard-response","161","309268","0.0-15.0-0.59","1737","2","""event"",""trial"",""time""
""fullscreenenter"",""1"",""1295""
","
","
","""event"",""trial"",""time""
""fullscreenenter"",""1"",""1295""
","
","","","","","","null","<div style=""font-size:60px;"">+</div>","null","","fixation","","","","","","","","",""
"memory-trial","162","312090","0.0-15.0-1.59","1737","2","""event"",""trial"",""time""
""fullscreenenter"",""1"",""1295""
","
","
","""event"",""trial"",""time""
""fullscreenenter"",""1"",""1295""
","
","","","","","","1816.3000001907349","images/train1.png","","","memory_trial","3","maybe_new","","","","","","",""
"html-keyboard-response","163","312592","0.0-15.0-0.60","1737","2","""event"",""trial"",""time""
""fullscreenenter"",""1"",""1295""
","
","
","""event"",""trial"",""time""
""fullscreenenter"",""1"",""1295""
","
","","","","","","null","<div style=""font-size:60px;"">+</div>","null","","fixation","","","","","","","","",""
"memory-trial","164","314180","0.0-15.0-1.60","1737","2","""event"",""trial"",""time""
""fullscreenenter"",""1"",""1295""
","
","
","""event"",""trial"",""time""
""fullscreenenter"",""1"",""1295""
","
","","","","","","582.1999998092651","images/flower1.png","","","memory_trial","4","definitely_new","","","","","","",""
"html-keyboard-response","165","314687","0.0-15.0-0.61","1737","2","""event"",""trial"",""time""
""fullscreenenter"",""1"",""1295""
","
","
","""event"",""trial"",""time""
""fullscreenenter"",""1"",""1295""
","
","","","","","","null","<div style=""font-size:60px;"">+</div>","null","","fixation","","","","","","","","",""
"memory-trial","166","317369","0.0-15.0-1.61","1737","2","""event"",""trial"",""time""
""fullscreenenter"",""1"",""1295""
","
","
","""event"",""trial"",""time""
""fullscreenenter"",""1"",""1295""
","
","","","","","","1675.8999996185303","images/plane3.png","","","memory_trial","3","maybe_new","","","","","","",""
"html-keyboard-response","167","317876","0.0-15.0-0.62","1737","2","""event"",""trial"",""time""
""fullscreenenter"",""1"",""1295""
","
","
","""event"",""trial"",""time""
""fullscreenenter"",""1"",""1295""
","
","","","","","","null","<div style=""font-size:60px;"">+</div>","null","","fixation","","","","","","","","",""
"memory-trial","168","319732","0.0-15.0-1.62","1737","2","""event"",""trial"",""time""
""fullscreenenter"",""1"",""1295""
","
","
","""event"",""trial"",""time""
""fullscreenenter"",""1"",""1295""
","
","","","","","","851.3000001907349","images/banana4.png","","","memory_trial","2","maybe_old","","","","","","",""
"html-keyboard-response","169","320238","0.0-15.0-0.63","1737","2","""event"",""trial"",""time""
""fullscreenenter"",""1"",""1295""
","
","
","""event"",""trial"",""time""
""fullscreenenter"",""1"",""1295""
","
","","","","","","null","<div style=""font-size:60px;"">+</div>","null","","fixation","","","","","","","","",""
"memory-trial","170","321913","0.0-15.0-1.63","1737","2","""event"",""trial"",""time""
""fullscreenenter"",""1"",""1295""
","
","
","""event"",""trial"",""time""
""fullscreenenter"",""1"",""1295""
","
","","","","","","668.5999994277954","images/bed5.png","","","memory_trial","3","maybe_new","","","","","","",""
"html-keyboard-response","171","322414","0.0-15.0-0.64","1737","2","""event"",""trial"",""time""
""fullscreenenter"",""1"",""1295""
","
","
","""event"",""trial"",""time""
""fullscreenenter"",""1"",""1295""
","
","","","","","","null","<div style=""font-size:60px;"">+</div>","null","","fixation","","","","","","","","",""
"memory-trial","172","324158","0.0-15.0-1.64","1737","2","""event"",""trial"",""time""
""fullscreenenter"",""1"",""1295""
","
","
","""event"",""trial"",""time""
""fullscreenenter"",""1"",""1295""
","
","","","","","","739.5","images/apple2.png","","","memory_trial","2","maybe_old","","","","","","",""
"html-keyboard-response","173","324663","0.0-15.0-0.65","1737","2","""event"",""trial"",""time""
""fullscreenenter"",""1"",""1295""
","
","
","""event"",""trial"",""time""
""fullscreenenter"",""1"",""1295""
","
","","","","","","null","<div style=""font-size:60px;"">+</div>","null","","fixation","","","","","","","","",""
"memory-trial","174","326318","0.0-15.0-1.65","1737","2","""event"",""trial"",""time""
""fullscreenenter"",""1"",""1295""
","
","
","""event"",""trial"",""time""
""fullscreenenter"",""1"",""1295""
","
","","","","","","649.6999998092651","images/chair2.png","","","memory_trial","3","maybe_new","","","","","","",""
"html-keyboard-response","175","326821","0.0-15.0-0.66","1737","2","""event"",""trial"",""time""
""fullscreenenter"",""1"",""1295""
","
","
","""event"",""trial"",""time""
""fullscreenenter"",""1"",""1295""
","
","","","","","","null","<div style=""font-size:60px;"">+</div>","null","","fixation","","","","","","","","",""
"memory-trial","176","328915","0.0-15.0-1.66","1737","2","""event"",""trial"",""time""
""fullscreenenter"",""1"",""1295""
","
","
","""event"",""trial"",""time""
""fullscreenenter"",""1"",""1295""
","
","","","","","","1086.1999998092651","images/train3.png","","","memory_trial","2","maybe_old","","","","","","",""
"html-keyboard-response","177","329417","0.0-15.0-0.67","1737","2","""event"",""trial"",""time""
""fullscreenenter"",""1"",""1295""
","
","
","""event"",""trial"",""time""
""fullscreenenter"",""1"",""1295""
","
","","","","","","null","<div style=""font-size:60px;"">+</div>","null","","fixation","","","","","","","","",""
"memory-trial","178","331977","0.0-15.0-1.67","1737","2","""event"",""trial"",""time""
""fullscreenenter"",""1"",""1295""
","
","
","""event"",""trial"",""time""
""fullscreenenter"",""1"",""1295""
","
","","","","","","1555.7000007629395","images/boat3.png","","","memory_trial","3","maybe_new","","","","","","",""
"html-keyboard-response","179","332483","0.0-15.0-0.68","1737","2","""event"",""trial"",""time""
""fullscreenenter"",""1"",""1295""
","
","
","""event"",""trial"",""time""
""fullscreenenter"",""1"",""1295""
","
","","","","","","null","<div style=""font-size:60px;"">+</div>","null","","fixation","","","","","","","","",""
"memory-trial","180","334137","0.0-15.0-1.68","1737","2","""event"",""trial"",""time""
""fullscreenenter"",""1"",""1295""
","
","
","""event"",""trial"",""time""
""fullscreenenter"",""1"",""1295""
","
","","","","","","646.1000003814697","images/feline5.png","","","memory_trial","2","maybe_old","","","","","","",""
"html-keyboard-response","181","334643","0.0-15.0-0.69","1737","2","""event"",""trial"",""time""
""fullscreenenter"",""1"",""1295""
","
","
","""event"",""trial"",""time""
""fullscreenenter"",""1"",""1295""
","
","","","","","","null","<div style=""font-size:60px;"">+</div>","null","","fixation","","","","","","","","",""
"memory-trial","182","337475","0.0-15.0-1.69","1737","2","""event"",""trial"",""time""
""fullscreenenter"",""1"",""1295""
","
","
","""event"",""trial"",""time""
""fullscreenenter"",""1"",""1295""
","
","","","","","","1826.1999998092651","images/apple5.png","","","memory_trial","4","definitely_new","","","","","","",""
"html-keyboard-response","183","337982","0.0-15.0-0.70","1737","2","""event"",""trial"",""time""
""fullscreenenter"",""1"",""1295""
","
","
","""event"",""trial"",""time""
""fullscreenenter"",""1"",""1295""
","
","","","","","","null","<div style=""font-size:60px;"">+</div>","null","","fixation","","","","","","","","",""
"memory-trial","184","339779","0.0-15.0-1.70","1737","2","""event"",""trial"",""time""
""fullscreenenter"",""1"",""1295""
","
","
","""event"",""trial"",""time""
""fullscreenenter"",""1"",""1295""
","
","","","","","","788.6999998092651","images/rabbit5.png","","","memory_trial","2","maybe_old","","","","","","",""
"html-keyboard-response","185","340282","0.0-15.0-0.71","1737","2","""event"",""trial"",""time""
""fullscreenenter"",""1"",""1295""
","
","
","""event"",""trial"",""time""
""fullscreenenter"",""1"",""1295""
","
","","","","","","null","<div style=""font-size:60px;"">+</div>","null","","fixation","","","","","","","","",""
"memory-trial","186","341859","0.0-15.0-1.71","1737","2","""event"",""trial"",""time""
""fullscreenenter"",""1"",""1295""
","
","
","""event"",""trial"",""time""
""fullscreenenter"",""1"",""1295""
","
","","","","","","571.9000005722046","images/flower3.png","","","memory_trial","3","maybe_new","","","","","","",""
"html-keyboard-response","187","342365","0.0-15.0-0.72","1737","2","""event"",""trial"",""time""
""fullscreenenter"",""1"",""1295""
","
","
","""event"",""trial"",""time""
""fullscreenenter"",""1"",""1295""
","
","","","","","","null","<div style=""font-size:60px;"">+</div>","null","","fixation","","","","","","","","",""
"memory-trial","188","344131","0.0-15.0-1.72","1737","2","""event"",""trial"",""time""
""fullscreenenter"",""1"",""1295""
","
","
","""event"",""trial"",""time""
""fullscreenenter"",""1"",""1295""
","
","","","","","","757.1000003814697","images/tree1.png","","","memory_trial","2","maybe_old","","","","","","",""
"html-keyboard-response","189","344637","0.0-15.0-0.73","1737","2","""event"",""trial"",""time""
""fullscreenenter"",""1"",""1295""
","
","
","""event"",""trial"",""time""
""fullscreenenter"",""1"",""1295""
","
","","","","","","null","<div style=""font-size:60px;"">+</div>","null","","fixation","","","","","","","","",""
"memory-trial","190","346222","0.0-15.0-1.73","1737","2","""event"",""trial"",""time""
""fullscreenenter"",""1"",""1295""
","
","
","""event"",""trial"",""time""
""fullscreenenter"",""1"",""1295""
","
","","","","","","580","images/goat1.png","","","memory_trial","2","maybe_old","","","","","","",""
"html-keyboard-response","191","346728","0.0-15.0-0.74","1737","2","""event"",""trial"",""time""
""fullscreenenter"",""1"",""1295""
","
","
","""event"",""trial"",""time""
""fullscreenenter"",""1"",""1295""
","
","","","","","","null","<div style=""font-size:60px;"">+</div>","null","","fixation","","","","","","","","",""
"memory-trial","192","348467","0.0-15.0-1.74","1737","2","""event"",""trial"",""time""
""fullscreenenter"",""1"",""1295""
","
","
","""event"",""trial"",""time""
""fullscreenenter"",""1"",""1295""
","
","","","","","","731.6000003814697","images/chair1.png","","","memory_trial","2","maybe_old","","","","","","",""
"html-keyboard-response","193","348972","0.0-15.0-0.75","1737","2","""event"",""trial"",""time""
""fullscreenenter"",""1"",""1295""
","
","
","""event"",""trial"",""time""
""fullscreenenter"",""1"",""1295""
","
","","","","","","null","<div style=""font-size:60px;"">+</div>","null","","fixation","","","","","","","","",""
"memory-trial","194","350658","0.0-15.0-1.75","1737","2","""event"",""trial"",""time""
""fullscreenenter"",""1"",""1295""
","
","
","""event"",""trial"",""time""
""fullscreenenter"",""1"",""1295""
","
","","","","","","681.9000005722046","images/dog3.png","","","memory_trial","2","maybe_old","","","","","","",""
"html-keyboard-response","195","351164","0.0-15.0-0.76","1737","2","""event"",""trial"",""time""
""fullscreenenter"",""1"",""1295""
","
","
","""event"",""trial"",""time""
""fullscreenenter"",""1"",""1295""
","
","","","","","","null","<div style=""font-size:60px;"">+</div>","null","","fixation","","","","","","","","",""
"memory-trial","196","352818","0.0-15.0-1.76","1737","2","""event"",""trial"",""time""
""fullscreenenter"",""1"",""1295""
","
","
","""event"",""trial"",""time""
""fullscreenenter"",""1"",""1295""
","
","","","","","","647.7000007629395","images/tree2.png","","","memory_trial","3","maybe_new","","","","","","",""
"html-keyboard-response","197","353323","0.0-15.0-0.77","1737","2","""event"",""trial"",""time""
""fullscreenenter"",""1"",""1295""
","
","
","""event"",""trial"",""time""
""fullscreenenter"",""1"",""1295""
","
","","","","","","null","<div style=""font-size:60px;"">+</div>","null","","fixation","","","","","","","","",""
"memory-trial","198","355400","0.0-15.0-1.77","1737","2","""event"",""trial"",""time""
""fullscreenenter"",""1"",""1295""
","
","
","""event"",""trial"",""time""
""fullscreenenter"",""1"",""1295""
","
","","","","","","1074.8000001907349","images/train4.png","","","memory_trial","3","maybe_new","","","","","","",""
"html-keyboard-response","199","355906","0.0-15.0-0.78","1737","2","""event"",""trial"",""time""
""fullscreenenter"",""1"",""1295""
","
","
","""event"",""trial"",""time""
""fullscreenenter"",""1"",""1295""
","
","","","","","","null","<div style=""font-size:60px;"">+</div>","null","","fixation","","","","","","","","",""
"memory-trial","200","357649","0.0-15.0-1.78","1737","2","""event"",""trial"",""time""
""fullscreenenter"",""1"",""1295""
","
","
","""event"",""trial"",""time""
""fullscreenenter"",""1"",""1295""
","
","","","","","","735.7000007629395","images/banana2.png","","","memory_trial","3","maybe_new","","","","","","",""
"html-keyboard-response","201","358152","0.0-15.0-0.79","1737","2","""event"",""trial"",""time""
""fullscreenenter"",""1"",""1295""
","
","
","""event"",""trial"",""time""
""fullscreenenter"",""1"",""1295""
","
","","","","","","null","<div style=""font-size:60px;"">+</div>","null","","fixation","","","","","","","","",""
"memory-trial","202","360450","0.0-15.0-1.79","1737","2","""event"",""trial"",""time""
""fullscreenenter"",""1"",""1295""
","
","
","""event"",""trial"",""time""
""fullscreenenter"",""1"",""1295""
","
","","","","","","1295.0999994277954","images/horse4.png","","","memory_trial","3","maybe_new","","","","","","",""
"html-keyboard-response","203","360957","0.0-15.0-0.80","1737","2","""event"",""trial"",""time""
""fullscreenenter"",""1"",""1295""
","
","
","""event"",""trial"",""time""
""fullscreenenter"",""1"",""1295""
","
","","","","","","null","<div style=""font-size:60px;"">+</div>","null","","fixation","","","","","","","","",""
"memory-trial","204","362553","0.0-15.0-1.80","1737","2","""event"",""trial"",""time""
""fullscreenenter"",""1"",""1295""
","
","
","""event"",""trial"",""time""
""fullscreenenter"",""1"",""1295""
","
","","","","","","591.6999998092651","images/dog2.png","","","memory_trial","3","maybe_new","","","","","","",""
"html-keyboard-response","205","363058","0.0-15.0-0.81","1737","2","""event"",""trial"",""time""
""fullscreenenter"",""1"",""1295""
","
","
","""event"",""trial"",""time""
""fullscreenenter"",""1"",""1295""
","
","","","","","","null","<div style=""font-size:60px;"">+</div>","null","","fixation","","","","","","","","",""
"memory-trial","206","364732","0.0-15.0-1.81","1737","2","""event"",""trial"",""time""
""fullscreenenter"",""1"",""1295""
","
","
","""event"",""trial"",""time""
""fullscreenenter"",""1"",""1295""
","
","","","","","","669.5999994277954","images/rabbit4.png","","","memory_trial","2","maybe_old","","","","","","",""
"html-keyboard-response","207","365234","0.0-15.0-0.82","1737","2","""event"",""trial"",""time""
""fullscreenenter"",""1"",""1295""
","
","
","""event"",""trial"",""time""
""fullscreenenter"",""1"",""1295""
","
","","","","","","null","<div style=""font-size:60px;"">+</div>","null","","fixation","","","","","","","","",""
"memory-trial","208","366850","0.0-15.0-1.82","1737","2","""event"",""trial"",""time""
""fullscreenenter"",""1"",""1295""
","
","
","""event"",""trial"",""time""
""fullscreenenter"",""1"",""1295""
","
","","","","","","608.3000001907349","images/horse1.png","","","memory_trial","3","maybe_new","","","","","","",""
"html-keyboard-response","209","367356","0.0-15.0-0.83","1737","2","""event"",""trial"",""time""
""fullscreenenter"",""1"",""1295""
","
","
","""event"",""trial"",""time""
""fullscreenenter"",""1"",""1295""
","
","","","","","","null","<div style=""font-size:60px;"">+</div>","null","","fixation","","","","","","","","",""
"memory-trial","210","369431","0.0-15.0-1.83","1737","2","""event"",""trial"",""time""
""fullscreenenter"",""1"",""1295""
","
","
","""event"",""trial"",""time""
""fullscreenenter"",""1"",""1295""
","
","","","","","","1068.8999996185303","images/truck1.png","","","memory_trial","2","maybe_old","","","","","","",""
"html-keyboard-response","211","369938","0.0-15.0-0.84","1737","2","""event"",""trial"",""time""
""fullscreenenter"",""1"",""1295""
","
","
","""event"",""trial"",""time""
""fullscreenenter"",""1"",""1295""
","
","","","","","","null","<div style=""font-size:60px;"">+</div>","null","","fixation","","","","","","","","",""
"memory-trial","212","371725","0.0-15.0-1.84","1737","2","""event"",""trial"",""time""
""fullscreenenter"",""1"",""1295""
","
","
","""event"",""trial"",""time""
""fullscreenenter"",""1"",""1295""
","
","","","","","","780.3000001907349","images/chair3.png","","","memory_trial","3","maybe_new","","","","","","",""
"html-keyboard-response","213","372231","0.0-15.0-0.85","1737","2","""event"",""trial"",""time""
""fullscreenenter"",""1"",""1295""
","
","
","""event"",""trial"",""time""
""fullscreenenter"",""1"",""1295""
","
","","","","","","null","<div style=""font-size:60px;"">+</div>","null","","fixation","","","","","","","","",""
"memory-trial","214","374167","0.0-15.0-1.85","1737","2","""event"",""trial"",""time""
""fullscreenenter"",""1"",""1295""
","
","
","""event"",""trial"",""time""
""fullscreenenter"",""1"",""1295""
","
","","","","","","930.6999998092651","images/banana1.png","","","memory_trial","2","maybe_old","","","","","","",""
"html-keyboard-response","215","374674","0.0-15.0-0.86","1737","2","""event"",""trial"",""time""
""fullscreenenter"",""1"",""1295""
","
","
","""event"",""trial"",""time""
""fullscreenenter"",""1"",""1295""
","
","","","","","","null","<div style=""font-size:60px;"">+</div>","null","","fixation","","","","","","","","",""
"memory-trial","216","376371","0.0-15.0-1.86","1737","2","""event"",""trial"",""time""
""fullscreenenter"",""1"",""1295""
","
","
","""event"",""trial"",""time""
""fullscreenenter"",""1"",""1295""
","
","","","","","","690.6999998092651","images/horse3.png","","","memory_trial","3","maybe_new","","","","","","",""
"html-keyboard-response","217","376876","0.0-15.0-0.87","1737","2","""event"",""trial"",""time""
""fullscreenenter"",""1"",""1295""
","
","
","""event"",""trial"",""time""
""fullscreenenter"",""1"",""1295""
","
","","","","","","null","<div style=""font-size:60px;"">+</div>","null","","fixation","","","","","","","","",""
"memory-trial","218","378780","0.0-15.0-1.87","1737","2","""event"",""trial"",""time""
""fullscreenenter"",""1"",""1295""
","
","
","""event"",""trial"",""time""
""fullscreenenter"",""1"",""1295""
","
","","","","","","897.3000001907349","images/straw5.png","","","memory_trial","2","maybe_old","","","","","","",""
"html-keyboard-response","219","379281","0.0-15.0-0.88","1737","2","""event"",""trial"",""time""
""fullscreenenter"",""1"",""1295""
","
","
","""event"",""trial"",""time""
""fullscreenenter"",""1"",""1295""
","
","","","","","","null","<div style=""font-size:60px;"">+</div>","null","","fixation","","","","","","","","",""
"memory-trial","220","381164","0.0-15.0-1.88","1737","2","""event"",""trial"",""time""
""fullscreenenter"",""1"",""1295""
","
","
","""event"",""trial"",""time""
""fullscreenenter"",""1"",""1295""
","
","","","","","","877.4000005722046","images/orange3.png","","","memory_trial","3","maybe_new","","","","","","",""
"html-keyboard-response","221","381671","0.0-15.0-0.89","1737","2","""event"",""trial"",""time""
""fullscreenenter"",""1"",""1295""
","
","
","""event"",""trial"",""time""
""fullscreenenter"",""1"",""1295""
","
","","","","","","null","<div style=""font-size:60px;"">+</div>","null","","fixation","","","","","","","","",""
"memory-trial","222","384012","0.0-15.0-1.89","1737","2","""event"",""trial"",""time""
""fullscreenenter"",""1"",""1295""
","
","
","""event"",""trial"",""time""
""fullscreenenter"",""1"",""1295""
","
","","","","","","1335.5","images/cow3.png","","","memory_trial","3","maybe_new","","","","","","",""
"html-keyboard-response","223","384518","0.0-15.0-0.90","1737","2","""event"",""trial"",""time""
""fullscreenenter"",""1"",""1295""
","
","
","""event"",""trial"",""time""
""fullscreenenter"",""1"",""1295""
","
","","","","","","null","<div style=""font-size:60px;"">+</div>","null","","fixation","","","","","","","","",""
"memory-trial","224","386167","0.0-15.0-1.90","1737","2","""event"",""trial"",""time""
""fullscreenenter"",""1"",""1295""
","
","
","""event"",""trial"",""time""
""fullscreenenter"",""1"",""1295""
","
","","","","","","643.6999998092651","images/sofa2.png","","","memory_trial","3","maybe_new","","","","","","",""
"html-keyboard-response","225","386673","0.0-15.0-0.91","1737","2","""event"",""trial"",""time""
""fullscreenenter"",""1"",""1295""
","
","
","""event"",""trial"",""time""
""fullscreenenter"",""1"",""1295""
","
","","","","","","null","<div style=""font-size:60px;"">+</div>","null","","fixation","","","","","","","","",""
"memory-trial","226","388268","0.0-15.0-1.91","1737","2","""event"",""trial"",""time""
""fullscreenenter"",""1"",""1295""
","
","
","""event"",""trial"",""time""
""fullscreenenter"",""1"",""1295""
","
","","","","","","587.1999998092651","images/cow4.png","","","memory_trial","3","maybe_new","","","","","","",""
"html-keyboard-response","227","388770","0.0-15.0-0.92","1737","2","""event"",""trial"",""time""
""fullscreenenter"",""1"",""1295""
","
","
","""event"",""trial"",""time""
""fullscreenenter"",""1"",""1295""
","
","","","","","","null","<div style=""font-size:60px;"">+</div>","null","","fixation","","","","","","","","",""
"memory-trial","228","390524","0.0-15.0-1.92","1737","2","""event"",""trial"",""time""
""fullscreenenter"",""1"",""1295""
","
","
","""event"",""trial"",""time""
""fullscreenenter"",""1"",""1295""
","
","","","","","","750.7000007629395","images/plane1.png","","","memory_trial","2","maybe_old","","","","","","",""
"html-keyboard-response","229","391030","0.0-15.0-0.93","1737","2","""event"",""trial"",""time""
""fullscreenenter"",""1"",""1295""
","
","
","""event"",""trial"",""time""
""fullscreenenter"",""1"",""1295""
","
","","","","","","null","<div style=""font-size:60px;"">+</div>","null","","fixation","","","","","","","","",""
"memory-trial","230","392799","0.0-15.0-1.93","1737","2","""event"",""trial"",""time""
""fullscreenenter"",""1"",""1295""
","
","
","""event"",""trial"",""time""
""fullscreenenter"",""1"",""1295""
","
","","","","","","764.9000005722046","images/cactus1.png","","","memory_trial","3","maybe_new","","","","","","",""
"html-keyboard-response","231","393304","0.0-15.0-0.94","1737","2","""event"",""trial"",""time""
""fullscreenenter"",""1"",""1295""
","
","
","""event"",""trial"",""time""
""fullscreenenter"",""1"",""1295""
","
","","","","","","null","<div style=""font-size:60px;"">+</div>","null","","fixation","","","","","","","","",""
"memory-trial","232","395457","0.0-15.0-1.94","1737","2","""event"",""trial"",""time""
""fullscreenenter"",""1"",""1295""
","
","
","""event"",""trial"",""time""
""fullscreenenter"",""1"",""1295""
","
","","","","","","1148.2999992370605","images/apple3.png","","","memory_trial","3","maybe_new","","","","","","",""
"html-keyboard-response","233","395963","0.0-15.0-0.95","1737","2","""event"",""trial"",""time""
""fullscreenenter"",""1"",""1295""
","
","
","""event"",""trial"",""time""
""fullscreenenter"",""1"",""1295""
","
","","","","","","null","<div style=""font-size:60px;"">+</div>","null","","fixation","","","","","","","","",""
"memory-trial","234","398108","0.0-15.0-1.95","1737","2","""event"",""trial"",""time""
""fullscreenenter"",""1"",""1295""
","
","
","""event"",""trial"",""time""
""fullscreenenter"",""1"",""1295""
","
","","","","","","1136.5","images/plane5.png","","","memory_trial","1","definitely_old","","","","","","",""
"html-keyboard-response","235","398614","0.0-15.0-0.96","1737","2","""event"",""trial"",""time""
""fullscreenenter"",""1"",""1295""
","
","
","""event"",""trial"",""time""
""fullscreenenter"",""1"",""1295""
","
","","","","","","null","<div style=""font-size:60px;"">+</div>","null","","fixation","","","","","","","","",""
"memory-trial","236","400404","0.0-15.0-1.96","1737","2","""event"",""trial"",""time""
""fullscreenenter"",""1"",""1295""
","
","
","""event"",""trial"",""time""
""fullscreenenter"",""1"",""1295""
","
","","","","","","782.8000001907349","images/rabbit3.png","","","memory_trial","2","maybe_old","","","","","","",""
"html-keyboard-response","237","400907","0.0-15.0-0.97","1737","2","""event"",""trial"",""time""
""fullscreenenter"",""1"",""1295""
","
","
","""event"",""trial"",""time""
""fullscreenenter"",""1"",""1295""
","
","","","","","","null","<div style=""font-size:60px;"">+</div>","null","","fixation","","","","","","","","",""
"memory-trial","238","402513","0.0-15.0-1.97","1737","2","""event"",""trial"",""time""
""fullscreenenter"",""1"",""1295""
","
","
","""event"",""trial"",""time""
""fullscreenenter"",""1"",""1295""
","
","","","","","","600.6999998092651","images/cactus5.png","","","memory_trial","3","maybe_new","","","","","","",""
"html-keyboard-response","239","403019","0.0-15.0-0.98","1737","2","""event"",""trial"",""time""
""fullscreenenter"",""1"",""1295""
","
","
","""event"",""trial"",""time""
""fullscreenenter"",""1"",""1295""
","
","","","","","","null","<div style=""font-size:60px;"">+</div>","null","","fixation","","","","","","","","",""
"memory-trial","240","404673","0.0-15.0-1.98","1737","2","""event"",""trial"",""time""
""fullscreenenter"",""1"",""1295""
","
","
","""event"",""trial"",""time""
""fullscreenenter"",""1"",""1295""
","
","","","","","","647.7999992370605","images/boat5.png","","","memory_trial","2","maybe_old","","","","","","",""
"html-keyboard-response","241","405179","0.0-15.0-0.99","1737","2","""event"",""trial"",""time""
""fullscreenenter"",""1"",""1295""
","
","
","""event"",""trial"",""time""
""fullscreenenter"",""1"",""1295""
","
","","","","","","null","<div style=""font-size:60px;"">+</div>","null","","fixation","","","","","","","","",""
"memory-trial","242","406739","0.0-15.0-1.99","1737","2","""event"",""trial"",""time""
""fullscreenenter"",""1"",""1295""
","
","
","""event"",""trial"",""time""
""fullscreenenter"",""1"",""1295""
","
","","","","","","554.3999996185303","images/sheep1.png","","","memory_trial","3","maybe_new","","","","","","",""
"html-keyboard-response","243","407243","0.0-15.0-0.100","1737","2","""event"",""trial"",""time""
""fullscreenenter"",""1"",""1295""
","
","
","""event"",""trial"",""time""
""fullscreenenter"",""1"",""1295""
","
","","","","","","null","<div style=""font-size:60px;"">+</div>","null","","fixation","","","","","","","","",""
"memory-trial","244","408779","0.0-15.0-1.100","1737","2","""event"",""trial"",""time""
""fullscreenenter"",""1"",""1295""
","
","
","""event"",""trial"",""time""
""fullscreenenter"",""1"",""1295""
","
","","","","","","530.8999996185303","images/truck2.png","","","memory_trial","2","maybe_old","","","","","","",""
"html-keyboard-response","245","409285","0.0-15.0-0.101","1737","2","""event"",""trial"",""time""
""fullscreenenter"",""1"",""1295""
","
","
","""event"",""trial"",""time""
""fullscreenenter"",""1"",""1295""
","
","","","","","","null","<div style=""font-size:60px;"">+</div>","null","","fixation","","","","","","","","",""
"memory-trial","246","411035","0.0-15.0-1.101","1737","2","""event"",""trial"",""time""
""fullscreenenter"",""1"",""1295""
","
","
","""event"",""trial"",""time""
""fullscreenenter"",""1"",""1295""
","
","","","","","","743","images/boat1.png","","","memory_trial","2","maybe_old","","","","","","",""
"html-button-response","247","413081","0.0-15.0-2.101-0.101","1737","2","""event"",""trial"",""time""
""fullscreenenter"",""1"",""1295""
","
","
","""event"",""trial"",""time""
""fullscreenenter"",""1"",""1295""
","
","","","","","","2044.3000001907349","<p> Take a break! </p><p> Click the button to continue. </p>","0","","break","","","","","","","","",""
"html-keyboard-response","248","413584","0.0-15.0-0.102","1737","2","""event"",""trial"",""time""
""fullscreenenter"",""1"",""1295""
","
","
","""event"",""trial"",""time""
""fullscreenenter"",""1"",""1295""
","
","","","","","","null","<div style=""font-size:60px;"">+</div>","null","","fixation","","","","","","","","",""
"memory-trial","249","415429","0.0-15.0-1.102","1737","2","""event"",""trial"",""time""
""fullscreenenter"",""1"",""1295""
","
","
","""event"",""trial"",""time""
""fullscreenenter"",""1"",""1295""
","
","","","","","","841.6000003814697","images/sofa1.png","","","memory_trial","3","maybe_new","","","","","","",""
"html-keyboard-response","250","415936","0.0-15.0-0.103","1737","2","""event"",""trial"",""time""
""fullscreenenter"",""1"",""1295""
","
","
","""event"",""trial"",""time""
""fullscreenenter"",""1"",""1295""
","
","","","","","","null","<div style=""font-size:60px;"">+</div>","null","","fixation","","","","","","","","",""
"memory-trial","251","417600","0.0-15.0-1.103","1737","2","""event"",""trial"",""time""
""fullscreenenter"",""1"",""1295""
","
","
","""event"",""trial"",""time""
""fullscreenenter"",""1"",""1295""
","
","","","","","","656","images/feline1.png","","","memory_trial","2","maybe_old","","","","","","",""
"html-keyboard-response","252","418106","0.0-15.0-0.104","1737","2","""event"",""trial"",""time""
""fullscreenenter"",""1"",""1295""
","
","
","""event"",""trial"",""time""
""fullscreenenter"",""1"",""1295""
","
","","","","","","null","<div style=""font-size:60px;"">+</div>","null","","fixation","","","","","","","","",""
"memory-trial","253","419781","0.0-15.0-1.104","1737","2","""event"",""trial"",""time""
""fullscreenenter"",""1"",""1295""
","
","
","""event"",""trial"",""time""
""fullscreenenter"",""1"",""1295""
","
","","","","","","671.1000003814697","images/rodent1.png","","","memory_trial","2","maybe_old","","","","","","",""
"html-keyboard-response","254","420288","0.0-15.0-0.105","1737","2","""event"",""trial"",""time""
""fullscreenenter"",""1"",""1295""
","
","
","""event"",""trial"",""time""
""fullscreenenter"",""1"",""1295""
","
","","","","","","null","<div style=""font-size:60px;"">+</div>","null","","fixation","","","","","","","","",""
"memory-trial","255","421995","0.0-15.0-1.105","1737","2","""event"",""trial"",""time""
""fullscreenenter"",""1"",""1295""
","
","
","""event"",""trial"",""time""
""fullscreenenter"",""1"",""1295""
","
","","","","","","700.9000005722046","images/chair5.png","","","memory_trial","2","maybe_old","","","","","","",""
"html-keyboard-response","256","422501","0.0-15.0-0.106","1737","2","""event"",""trial"",""time""
""fullscreenenter"",""1"",""1295""
","
","
","""event"",""trial"",""time""
""fullscreenenter"",""1"",""1295""
","
","","","","","","null","<div style=""font-size:60px;"">+</div>","null","","fixation","","","","","","","","",""
"memory-trial","257","423994","0.0-15.0-1.106","1737","2","""event"",""trial"",""time""
""fullscreenenter"",""1"",""1295""
","
","
","""event"",""trial"",""time""
""fullscreenenter"",""1"",""1295""
","
","","","","","","488.30000019073486","images/dog1.png","","","memory_trial","3","maybe_new","","","","","","",""
"html-keyboard-response","258","424500","0.0-15.0-0.107","1737","2","""event"",""trial"",""time""
""fullscreenenter"",""1"",""1295""
","
","
","""event"",""trial"",""time""
""fullscreenenter"",""1"",""1295""
","
","","","","","","null","<div style=""font-size:60px;"">+</div>","null","","fixation","","","","","","","","",""
"memory-trial","259","425984","0.0-15.0-1.107","1737","2","""event"",""trial"",""time""
""fullscreenenter"",""1"",""1295""
","
","
","""event"",""trial"",""time""
""fullscreenenter"",""1"",""1295""
","
","","","","","","475.5999994277954","images/goat4.png","","","memory_trial","3","maybe_new","","","","","","",""
"html-keyboard-response","260","426490","0.0-15.0-0.108","1737","2","""event"",""trial"",""time""
""fullscreenenter"",""1"",""1295""
","
","
","""event"",""trial"",""time""
""fullscreenenter"",""1"",""1295""
","
","","","","","","null","<div style=""font-size:60px;"">+</div>","null","","fixation","","","","","","","","",""
"memory-trial","261","428170","0.0-15.0-1.108","1737","2","""event"",""trial"",""time""
""fullscreenenter"",""1"",""1295""
","
","
","""event"",""trial"",""time""
""fullscreenenter"",""1"",""1295""
","
","","","","","","673.2999992370605","images/banana5.png","","","memory_trial","2","maybe_old","","","","","","",""
"html-keyboard-response","262","428677","0.0-15.0-0.109","1737","2","""event"",""trial"",""time""
""fullscreenenter"",""1"",""1295""
","
","
","""event"",""trial"",""time""
""fullscreenenter"",""1"",""1295""
","
","","","","","","null","<div style=""font-size:60px;"">+</div>","null","","fixation","","","","","","","","",""
"memory-trial","263","430309","0.0-15.0-1.109","1737","2","""event"",""trial"",""time""
""fullscreenenter"",""1"",""1295""
","
","
","""event"",""trial"",""time""
""fullscreenenter"",""1"",""1295""
","
","","","","","","625.2999992370605","images/straw3.png","","","memory_trial","2","maybe_old","","","","","","",""
"html-keyboard-response","264","430815","0.0-15.0-0.110","1737","2","""event"",""trial"",""time""
""fullscreenenter"",""1"",""1295""
","
","
","""event"",""trial"",""time""
""fullscreenenter"",""1"",""1295""
","
","","","","","","null","<div style=""font-size:60px;"">+</div>","null","","fixation","","","","","","","","",""
"memory-trial","265","432586","0.0-15.0-1.110","1737","2","""event"",""trial"",""time""
""fullscreenenter"",""1"",""1295""
","
","
","""event"",""trial"",""time""
""fullscreenenter"",""1"",""1295""
","
","","","","","","765.2999992370605","images/orange2.png","","","memory_trial","3","maybe_new","","","","","","",""
"html-keyboard-response","266","433088","0.0-15.0-0.111","1737","2","""event"",""trial"",""time""
""fullscreenenter"",""1"",""1295""
","
","
","""event"",""trial"",""time""
""fullscreenenter"",""1"",""1295""
","
","","","","","","null","<div style=""font-size:60px;"">+</div>","null","","fixation","","","","","","","","",""
"memory-trial","267","434596","0.0-15.0-1.111","1737","2","""event"",""trial"",""time""
""fullscreenenter"",""1"",""1295""
","
","
","""event"",""trial"",""time""
""fullscreenenter"",""1"",""1295""
","
","","","","","","502","images/dog5.png","","","memory_trial","3","maybe_new","","","","","","",""
"html-keyboard-response","268","435099","0.0-15.0-0.112","1737","2","""event"",""trial"",""time""
""fullscreenenter"",""1"",""1295""
","
","
","""event"",""trial"",""time""
""fullscreenenter"",""1"",""1295""
","
","","","","","","null","<div style=""font-size:60px;"">+</div>","null","","fixation","","","","","","","","",""
"memory-trial","269","436740","0.0-15.0-1.112","1737","2","""event"",""trial"",""time""
""fullscreenenter"",""1"",""1295""
","
","
","""event"",""trial"",""time""
""fullscreenenter"",""1"",""1295""
","
","","","","","","635.5","images/train2.png","","","memory_trial","2","maybe_old","","","","","","",""
"html-keyboard-response","270","437247","0.0-15.0-0.113","1737","2","""event"",""trial"",""time""
""fullscreenenter"",""1"",""1295""
","
","
","""event"",""trial"",""time""
""fullscreenenter"",""1"",""1295""
","
","","","","","","null","<div style=""font-size:60px;"">+</div>","null","","fixation","","","","","","","","",""
"memory-trial","271","439098","0.0-15.0-1.113","1737","2","""event"",""trial"",""time""
""fullscreenenter"",""1"",""1295""
","
","
","""event"",""trial"",""time""
""fullscreenenter"",""1"",""1295""
","
","","","","","","847","images/table3.png","","","memory_trial","2","maybe_old","","","","","","",""
"html-keyboard-response","272","439601","0.0-15.0-0.114","1737","2","""event"",""trial"",""time""
""fullscreenenter"",""1"",""1295""
","
","
","""event"",""trial"",""time""
""fullscreenenter"",""1"",""1295""
","
","","","","","","null","<div style=""font-size:60px;"">+</div>","null","","fixation","","","","","","","","",""
"memory-trial","273","441812","0.0-15.0-1.114","1737","2","""event"",""trial"",""time""
""fullscreenenter"",""1"",""1295""
","
","
","""event"",""trial"",""time""
""fullscreenenter"",""1"",""1295""
","
","","","","","","1204.5999994277954","images/boat4.png","","","memory_trial","2","maybe_old","","","","","","",""
"html-keyboard-response","274","442313","0.0-15.0-0.115","1737","2","""event"",""trial"",""time""
""fullscreenenter"",""1"",""1295""
","
","
","""event"",""trial"",""time""
""fullscreenenter"",""1"",""1295""
","
","","","","","","null","<div style=""font-size:60px;"">+</div>","null","","fixation","","","","","","","","",""
"memory-trial","275","444004","0.0-15.0-1.115","1737","2","""event"",""trial"",""time""
""fullscreenenter"",""1"",""1295""
","
","
","""event"",""trial"",""time""
""fullscreenenter"",""1"",""1295""
","
","","","","","","687.3999996185303","images/bed4.png","","","memory_trial","3","maybe_new","","","","","","",""
"html-keyboard-response","276","444505","0.0-15.0-0.116","1737","2","""event"",""trial"",""time""
""fullscreenenter"",""1"",""1295""
","
","
","""event"",""trial"",""time""
""fullscreenenter"",""1"",""1295""
","
","","","","","","null","<div style=""font-size:60px;"">+</div>","null","","fixation","","","","","","","","",""
"memory-trial","277","446057","0.0-15.0-1.116","1737","2","""event"",""trial"",""time""
""fullscreenenter"",""1"",""1295""
","
","
","""event"",""trial"",""time""
""fullscreenenter"",""1"",""1295""
","
","","","","","","546.3999996185303","images/table2.png","","","memory_trial","3","maybe_new","","","","","","",""
"html-keyboard-response","278","446561","0.0-15.0-0.117","1737","2","""event"",""trial"",""time""
""fullscreenenter"",""1"",""1295""
","
","
","""event"",""trial"",""time""
""fullscreenenter"",""1"",""1295""
","
","","","","","","null","<div style=""font-size:60px;"">+</div>","null","","fixation","","","","","","","","",""
"memory-trial","279","448385","0.0-15.0-1.117","1737","2","""event"",""trial"",""time""
""fullscreenenter"",""1"",""1295""
","
","
","""event"",""trial"",""time""
""fullscreenenter"",""1"",""1295""
","
","","","","","","818.3999996185303","images/banana3.png","","","memory_trial","3","maybe_new","","","","","","",""
"html-keyboard-response","280","448889","0.0-15.0-0.118","1737","2","""event"",""trial"",""time""
""fullscreenenter"",""1"",""1295""
","
","
","""event"",""trial"",""time""
""fullscreenenter"",""1"",""1295""
","
","","","","","","null","<div style=""font-size:60px;"">+</div>","null","","fixation","","","","","","","","",""
"memory-trial","281","450479","0.0-15.0-1.118","1737","2","""event"",""trial"",""time""
""fullscreenenter"",""1"",""1295""
","
","
","""event"",""trial"",""time""
""fullscreenenter"",""1"",""1295""
","
","","","","","","583.5","images/bed2.png","","","memory_trial","3","maybe_new","","","","","","",""
"html-keyboard-response","282","450985","0.0-15.0-0.119","1737","2","""event"",""trial"",""time""
""fullscreenenter"",""1"",""1295""
","
","
","""event"",""trial"",""time""
""fullscreenenter"",""1"",""1295""
","
","","","","","","null","<div style=""font-size:60px;"">+</div>","null","","fixation","","","","","","","","",""
"memory-trial","283","452404","0.0-15.0-1.119","1737","2","""event"",""trial"",""time""
""fullscreenenter"",""1"",""1295""
","
","
","""event"",""trial"",""time""
""fullscreenenter"",""1"",""1295""
","
","","","","","","415.5","images/cow5.png","","","memory_trial","3","maybe_new","","","","","","",""
"preload","284","459694","0.0-16.0","1737","2","""event"",""trial"",""time""
""fullscreenenter"",""1"",""1295""
","
","
","""event"",""trial"",""time""
""fullscreenenter"",""1"",""1295""
","
","true","false","[]","[]","[]","","","","","","","","","","","","","",""
"learning-instructions","285","464472","0.0-17.0-0.0-0.0-0.0","1737","2","""event"",""trial"",""time""
""fullscreenenter"",""1"",""1295""
","
","
","""event"",""trial"",""time""
""fullscreenenter"",""1"",""1295""
","
","","","","","","1014","<p> We're now going to ask you to put fuel in your vehicles again. </p>","","0","instructions","","","","","","","","",""
"learning-instructions","286","470925","0.0-17.0-0.0-0.0-0.1","1737","2","""event"",""trial"",""time""
""fullscreenenter"",""1"",""1295""
","
","
","""event"",""trial"",""time""
""fullscreenenter"",""1"",""1295""
","
","","","","","","411.6000003814697","<p> On each trial, you will see a vehicle. Select the fuel that you think will make the vehicle start. </p>","","0","instructions","","","","","","","","",""
"learning-instructions","287","478461","0.0-17.0-0.0-0.0-0.2","1737","2","""event"",""trial"",""time""
""fullscreenenter"",""1"",""1295""
","
","
","""event"",""trial"",""time""
""fullscreenenter"",""1"",""1295""
","
","","","","","","474.80000019073486","<p> To make your selection, think about what you learned last week. You will NOT receive any feedback about your choice. </p>","","0","instructions","","","","","","","","",""
"learning-instructions","288","486636","0.0-17.0-0.0-0.0-0.3","1737","2","""event"",""trial"",""time""
""fullscreenenter"",""1"",""1295""
","
","
","""event"",""trial"",""time""
""fullscreenenter"",""1"",""1295""
","
","","","","","","735.1999998092651","<p> You should use the 1 key to select the fuel on the left, the 2 key to select the fuel in the middle, and the 3 key to select the fuel on the right. </p><br><div class=""choice-mem-instructions-grid""> <div class=""choice-mem-option""><img src=""images/vehicles_choice1.png"" class=""choice-mem-option-img"" stage=""instructions"" position=""0"" ><div class=""choice-mem-option-text""> Press ""1."" </div></div><div class=""choice-mem-option""><img src=""images/vehicles_choice2.png"" class=""choice-mem-option-img"" stage=""instructions"" position=""1"" ><div class=""choice-mem-option-text""> Press ""2."" </div></div><div class=""choice-mem-option""><img src=""images/vehicles_choice3.png"" class=""choice-mem-option-img"" stage=""instructions"" position=""2"" ><div class=""choice-mem-option-text""> Press ""3."" </div></div></div>","","0","instructions","","","","","","","","",""
"learning-instructions","289","493382","0.0-17.0-0.0-0.0-0.4","1737","2","""event"",""trial"",""time""
""fullscreenenter"",""1"",""1295""
","
","
","""event"",""trial"",""time""
""fullscreenenter"",""1"",""1295""
","
","","","","","","479.3999996185303","<p> You will have 10 seconds to make each selection. Try to respond before time runs out! </p>","","0","instructions","","","","","","","","",""
"learning-instructions","290","496149","0.0-17.0-0.0-1.0","1737","2","""event"",""trial"",""time""
""fullscreenenter"",""1"",""1295""
","
","
","""event"",""trial"",""time""
""fullscreenenter"",""1"",""1295""
","
","","","","","","707.0999994277954","<p> You are now ready to begin the game. </p>","","0","instructions","","","","","","","","",""
"html-keyboard-response","291","496756","0.0-17.0-0.0-2.0-0.0","1737","2","""event"",""trial"",""time""
""fullscreenenter"",""1"",""1295""
","
","
","""event"",""trial"",""time""
""fullscreenenter"",""1"",""1295""
","
","","","","","","null","<div style=""font-size:60px;"">+</div>","null","","fixation","","","","","","","","",""
"choice-memory-trial","292","498697","0.0-17.0-0.0-2.0-1.0","1737","2","""event"",""trial"",""time""
""fullscreenenter"",""1"",""1295""
","
","
","""event"",""trial"",""time""
""fullscreenenter"",""1"",""1295""
","
","","","","","","927.8000001907349","images/truck1.png","","","choice_memory_trial","2","","","images/vehicles_choice1.png","images/vehicles_choice2.png","images/vehicles_choice3.png","[0,1,2]","images/vehicles_choice2.png","vehicles"
"html-keyboard-response","293","499199","0.0-17.0-0.0-2.0-0.1","1737","2","""event"",""trial"",""time""
""fullscreenenter"",""1"",""1295""
","
","
