"trial_type","trial_index","time_elapsed","internal_node_id","subject_id","task_version","interactions","blur_events","focus_events","fullscreenenter_events","fullscreenexit_events","success","timeout","failed_images","failed_audio","failed_video","rt","stimulus","response","button_pressed","task_part","key_press","answer","correct"
"pavlovia","0","4","0.0-0.0","6488","approach_avoid_sv1","""event"",""trial"",""time""
""fullscreenenter"",""1"",""7377""
","
","
","""event"",""trial"",""time""
""fullscreenenter"",""1"",""7377""
","
","","","","","","","","","","","","",""
"fullscreen","1","8333","0.0-1.0","6488","approach_avoid_sv1","""event"",""trial"",""time""
""fullscreenenter"",""1"",""7377""
","
","
","""event"",""trial"",""time""
""fullscreenenter"",""1"",""7377""
","
","true","","","","","","","","","","","",""
"preload","2","10995","0.0-2.0","6488","approach_avoid_sv1","""event"",""trial"",""time""
""fullscreenenter"",""1"",""7377""
","
","
","""event"",""trial"",""time""
""fullscreenenter"",""1"",""7377""
","
","true","false","[]","[]","[]","","","","","","","",""
"preload","3","12756","0.0-3.0","6488","approach_avoid_sv1","""event"",""trial"",""time""
""fullscreenenter"",""1"",""7377""
","
","
","""event"",""trial"",""time""
""fullscreenenter"",""1"",""7377""
","
","true","false","[]","[]","[]","","","","","","","",""
"preload","4","13014","0.0-4.0","6488","approach_avoid_sv1","""event"",""trial"",""time""
""fullscreenenter"",""1"",""7377""
","
","
","""event"",""trial"",""time""
""fullscreenenter"",""1"",""7377""
","
","true","false","[]","[]","[]","","","","","","","",""
"audio-keyboard-response","5","18560","0.0-5.0","6488","approach_avoid_sv1","""event"",""trial"",""time""
""fullscreenenter"",""1"",""7377""
","
","
","""event"",""trial"",""time""
""fullscreenenter"",""1"",""7377""
","
","","","","","","5312","audio/beep_loop.wav"," ","","","","",""
"audio-button-response","6","7035","0.0-6.0","6488","approach_avoid_sv1","""event"",""trial"",""time""
""fullscreenenter"",""1"",""7377""
","
","
","""event"",""trial"",""time""
""fullscreenenter"",""1"",""7377""
","
","","","","","","3445","audio/turtle.wav","3","","","","",""
"audio-button-response","7","9436","0.0-7.0","6488","approach_avoid_sv1","""event"",""trial"",""time""
""fullscreenenter"",""1"",""7377""
","
","
","""event"",""trial"",""time""
""fullscreenenter"",""1"",""7377""
","
","","","","","","1397","audio/shark.wav","2","","","","",""
"preload","8","13680","0.0-8.0","6488","approach_avoid_sv1","""event"",""trial"",""time""
""fullscreenenter"",""1"",""7377""
","
","
","""event"",""trial"",""time""
""fullscreenenter"",""1"",""7377""
","
","true","false","[]","[]","[]","","","","","","","",""
"learning-instructions","9","21621","0.0-9.0-0.0","6488","approach_avoid_sv1","""event"",""trial"",""time""
""fullscreenenter"",""1"",""7377""
","
","
","""event"",""trial"",""time""
""fullscreenenter"",""1"",""7377""
","
","","","","","","3466.199999988079","<p> Welcome back! </p><p> Last week, you had to make choices about lots of different items.  </p>","","0","instructions","","",""
"learning-instructions","10","27217","0.0-9.0-0.1","6488","approach_avoid_sv1","""event"",""trial"",""time""
""fullscreenenter"",""1"",""7377""
","
","
","""event"",""trial"",""time""
""fullscreenenter"",""1"",""7377""
","
","","","","","","1488.9000000357628","<p> Today, we are going to ask you to try to remember all the items. </p>","","0","instructions","","",""
"learning-instructions","11","38761","0.0-9.0-0.2","6488","approach_avoid_sv1","""event"",""trial"",""time""
""fullscreenenter"",""1"",""7377""
","
","
","""event"",""trial"",""time""
""fullscreenenter"",""1"",""7377""
","
","","","","","","1406.7999999523163","<p> On every trial, you will see an image. </p><p> The image may be an OLD image you saw during the games last week or it may be a NEW image that was not presented. </p>","","0","instructions","","",""
"learning-instructions","12","49420","0.0-9.0-0.3","6488","approach_avoid_sv1","""event"",""trial"",""time""
""fullscreenenter"",""1"",""7377""
","
","
","""event"",""trial"",""time""
""fullscreenenter"",""1"",""7377""
","
","","","","","","2165.800000011921","<p> You need to select whether the image is:  </p><p>  'Definitely old', 'Maybe old', 'Maybe new', or 'Definitely new.'  </p><div class=""mem-choice-instructions-grid""><div class=""choice-option"" id=""choice-option-1"" ><img src=""images/definitely_old_1.png"" id=""choice-option-img-1"" class=""choice-option-img"" stage=""1""></div><div class=""choice-option"" id=""choice-option-2"" ><img src=""images/maybe_old_1.png"" id=""choice-option-img-2"" class=""choice-option-img"" stage=""1""></div><div class=""choice-option"" id=""choice-option-3"" ><img src=""images/maybe_new_1.png"" id=""choice-option-img-3"" class=""choice-option-img"" stage=""1""></div><div class=""choice-option"" id=""choice-option-4"" > <img src=""images/definitely_new_1.png"" id=""choice-option-img-4"" class=""choice-option-img"" stage=""1""></div></div>","","0","instructions","","",""
"learning-instructions","13","57390","0.0-9.0-0.4","6488","approach_avoid_sv1","""event"",""trial"",""time""
""fullscreenenter"",""1"",""7377""
","
","
","""event"",""trial"",""time""
""fullscreenenter"",""1"",""7377""
","
","","","","","","1464.0999999642372","<p> You should use the 1, 2, 3, and 4 keys to make your responses.  </p><div class=""mem-choice-instructions-grid""><div class=""choice-option"" id=""choice-option-1"" ><img src=""images/definitely_old.png"" id=""choice-option-img-1"" class=""choice-option-img"" stage=""1""></div><div class=""choice-option"" id=""choice-option-2"" ><img src=""images/maybe_old.png"" id=""choice-option-img-2"" class=""choice-option-img"" stage=""1""></div><div class=""choice-option"" id=""choice-option-3"" ><img src=""images/maybe_new.png"" id=""choice-option-img-3"" class=""choice-option-img"" stage=""1""></div><div class=""choice-option"" id=""choice-option-4"" > <img src=""images/definitely_new.png"" id=""choice-option-img-4"" class=""choice-option-img"" stage=""1""></div></div>","","0","instructions","","",""
"learning-instructions","14","64658","0.0-9.0-0.5","6488","approach_avoid_sv1","""event"",""trial"",""time""
""fullscreenenter"",""1"",""7377""
","
","
","""event"",""trial"",""time""
""fullscreenenter"",""1"",""7377""
","
","","","","","","945.8000000119209","<p> You will have 10 seconds to make each response.  </p><p>  Make sure to respond before time runs out! </p>","","0","instructions","","",""
"learning-instructions","15","73056","0.0-9.0-0.6","6488","approach_avoid_sv1","""event"",""trial"",""time""
""fullscreenenter"",""1"",""7377""
","
","
","""event"",""trial"",""time""
""fullscreenenter"",""1"",""7377""
","
","","","","","","1321.699999988079","<p> Today, you will see each image ONCE only.  </p><p>  That means none of the images will repeat. </p>","","0","instructions","","",""
"learning-instructions","16","89631","0.0-9.0-0.7","6488","approach_avoid_sv1","""event"",""trial"",""time""
""fullscreenenter"",""1"",""7377""
","
","
","""event"",""trial"",""time""
""fullscreenenter"",""1"",""7377""
","
","","","","","","3911.699999988079","<p> Before you play the real game, it is time to practice. </p><p>  Just like in the real game, some of the images in the practice will be ones you have seen before. </p><p>  Others will be entirely new. </p>","","0","instructions","","",""
"html-button-response","17","92991","0.0-10.0","6488","approach_avoid_sv1","""event"",""trial"",""time""
""fullscreenenter"",""1"",""7377""
","
","
","""event"",""trial"",""time""
""fullscreenenter"",""1"",""7377""
","
","","","","","","3258.600000023842","<p> Ready to practice? </p><p> Remember, use the 1, 2, 3, and 4 keys to make your responses. </p>","0","","instructions","","",""
"html-keyboard-response","18","93594","0.0-11.0-0.0","6488","approach_avoid_sv1","""event"",""trial"",""time""
""fullscreenenter"",""1"",""7377""
","
","
","""event"",""trial"",""time""
""fullscreenenter"",""1"",""7377""
","
","","","","","","null","<div style=""font-size:60px;"">+</div>","null","","fixation","","",""
"memory-trial","19","98450","0.0-11.0-1.0","6488","approach_avoid_sv1","""event"",""trial"",""time""
""fullscreenenter"",""1"",""7377""
","
","
","""event"",""trial"",""time""
""fullscreenenter"",""1"",""7377""
","
","","","","","","3852.2999999523163","images/racket2.png","","","practice","1","definitely_old",""
"html-keyboard-response","20","98953","0.0-11.0-0.1","6488","approach_avoid_sv1","""event"",""trial"",""time""
""fullscreenenter"",""1"",""7377""
","
","
","""event"",""trial"",""time""
""fullscreenenter"",""1"",""7377""
","
","","","","","","null","<div style=""font-size:60px;"">+</div>","null","","fixation","","",""
"memory-trial","21","103699","0.0-11.0-1.1","6488","approach_avoid_sv1","""event"",""trial"",""time""
""fullscreenenter"",""1"",""7377""
","
","
","""event"",""trial"",""time""
""fullscreenenter"",""1"",""7377""
","
","","","","","","3744.199999988079","images/racket5.png","","","practice","1","definitely_old",""
"html-keyboard-response","22","104200","0.0-11.0-0.2","6488","approach_avoid_sv1","""event"",""trial"",""time""
""fullscreenenter"",""1"",""7377""
","
","
","""event"",""trial"",""time""
""fullscreenenter"",""1"",""7377""
","
","","","","","","null","<div style=""font-size:60px;"">+</div>","null","","fixation","","",""
"memory-trial","23","108589","0.0-11.0-1.2","6488","approach_avoid_sv1","""event"",""trial"",""time""
""fullscreenenter"",""1"",""7377""
","
","
","""event"",""trial"",""time""
""fullscreenenter"",""1"",""7377""
","
","","","","","","3386.5","images/ball3.png","","","practice","1","definitely_old",""
"html-keyboard-response","24","109090","0.0-11.0-0.3","6488","approach_avoid_sv1","""event"",""trial"",""time""
""fullscreenenter"",""1"",""7377""
","
","
","""event"",""trial"",""time""
""fullscreenenter"",""1"",""7377""
","
","","","","","","null","<div style=""font-size:60px;"">+</div>","null","","fixation","","",""
"memory-trial","25","111911","0.0-11.0-1.3","6488","approach_avoid_sv1","""event"",""trial"",""time""
""fullscreenenter"",""1"",""7377""
","
","
","""event"",""trial"",""time""
""fullscreenenter"",""1"",""7377""
","
","","","","","","1818.699999988079","images/racket3.png","","","practice","1","definitely_old",""
"html-keyboard-response","26","112413","0.0-11.0-0.4","6488","approach_avoid_sv1","""event"",""trial"",""time""
""fullscreenenter"",""1"",""7377""
","
","
","""event"",""trial"",""time""
""fullscreenenter"",""1"",""7377""
","
","","","","","","null","<div style=""font-size:60px;"">+</div>","null","","fixation","","",""
"memory-trial","27","116814","0.0-11.0-1.4","6488","approach_avoid_sv1","""event"",""trial"",""time""
""fullscreenenter"",""1"",""7377""
","
","
","""event"",""trial"",""time""
""fullscreenenter"",""1"",""7377""
","
","","","","","","3398.699999988079","images/ball2.png","","","practice","4","definitely_new",""
"html-keyboard-response","28","117316","0.0-11.0-0.5","6488","approach_avoid_sv1","""event"",""trial"",""time""
""fullscreenenter"",""1"",""7377""
","
","
","""event"",""trial"",""time""
""fullscreenenter"",""1"",""7377""
","
","","","","","","null","<div style=""font-size:60px;"">+</div>","null","","fixation","","",""
"memory-trial","29","122037","0.0-11.0-1.5","6488","approach_avoid_sv1","""event"",""trial"",""time""
""fullscreenenter"",""1"",""7377""
","
","
","""event"",""trial"",""time""
""fullscreenenter"",""1"",""7377""
","
","","","","","","3718.399999976158","images/racket1.png","","","practice","1","definitely_old",""
"html-keyboard-response","30","122539","0.0-11.0-0.6","6488","approach_avoid_sv1","""event"",""trial"",""time""
""fullscreenenter"",""1"",""7377""
","
","
","""event"",""trial"",""time""
""fullscreenenter"",""1"",""7377""
","
","","","","","","null","<div style=""font-size:60px;"">+</div>","null","","fixation","","",""
"memory-trial","31","127381","0.0-11.0-1.6","6488","approach_avoid_sv1","""event"",""trial"",""time""
""fullscreenenter"",""1"",""7377""
","
","
","""event"",""trial"",""time""
""fullscreenenter"",""1"",""7377""
","
","","","","","","3839.100000023842","images/ball1.png","","","practice","4","definitely_new",""
"html-keyboard-response","32","127882","0.0-11.0-0.7","6488","approach_avoid_sv1","""event"",""trial"",""time""
""fullscreenenter"",""1"",""7377""
","
","
","""event"",""trial"",""time""
""fullscreenenter"",""1"",""7377""
","
","","","","","","null","<div style=""font-size:60px;"">+</div>","null","","fixation","","",""
"memory-trial","33","133145","0.0-11.0-1.7","6488","approach_avoid_sv1","""event"",""trial"",""time""
""fullscreenenter"",""1"",""7377""
","
","
","""event"",""trial"",""time""
""fullscreenenter"",""1"",""7377""
","
","","","","","","4259.400000035763","images/ball5.png","","","practice","4","definitely_new",""
"learning-instructions","34","143546","0.0-12.0-0.0","6488","approach_avoid_sv1","""event"",""trial"",""time""
""fullscreenenter"",""1"",""7377""
","
","
","""event"",""trial"",""time""
""fullscreenenter"",""1"",""7377""
","
","","","","","","2602.800000011921","<p> Great! You have completed the practice. </p><p> Before you start, we're going to ask you a few questions about how the game works.  </p>","","0","instructions","","",""
"preload","35","145867","0.0-13.0","6488","approach_avoid_sv1","""event"",""trial"",""time""
""fullscreenenter"",""1"",""7377""
","
","
","""event"",""trial"",""time""
""fullscreenenter"",""1"",""7377""
","
","true","false","[]","[]","[]","","","","","","","",""
"comp-q","36","156342","0.0-14.0-0.0","6488","approach_avoid_sv1","""event"",""trial"",""time""
""fullscreenenter"",""1"",""7377""
","
","
","""event"",""trial"",""time""
""fullscreenenter"",""1"",""7377""
","
","","","","","","4636.100000023842","<p> <b> True or False? </b> </p><p> In this game, you will only see each image once. </p>","","0","comp_question","","","true"
"comp-q","37","166002","0.0-14.0-1.0","6488","approach_avoid_sv1","""event"",""trial"",""time""
""fullscreenenter"",""1"",""7377""
","
","
","""event"",""trial"",""time""
""fullscreenenter"",""1"",""7377""
","
","","","","","","3319.800000011921","<p> <b> That's right! </b> You will see many different images <i> one time each </i> in this game. </p>","","0","comp_answer","","",""
"comp-q","38","172322","0.0-15.0-0.0","6488","approach_avoid_sv1","""event"",""trial"",""time""
""fullscreenenter"",""1"",""7377""
","
","
","""event"",""trial"",""time""
""fullscreenenter"",""1"",""7377""
","
","","","","","","1320.3999999761581","<p> <b> True or False? </b> </p><p> You should use the mouse and click to make your response. </p>","","1","comp_question","","","true"
"comp-q","39","180391","0.0-15.0-1.0","6488","approach_avoid_sv1","""event"",""trial"",""time""
""fullscreenenter"",""1"",""7377""
","
","
","""event"",""trial"",""time""
""fullscreenenter"",""1"",""7377""
","
","","","","","","1569.8999999761581","<p><b> That's right! </b> You should use the '1', '2', '3', and '4' keys to make your response. </p>","","0","comp_answer","","",""
"comp-q","40","186758","0.0-16.0-0.0","6488","approach_avoid_sv1","""event"",""trial"",""time""
""fullscreenenter"",""1"",""7377""
","
","
","""event"",""trial"",""time""
""fullscreenenter"",""1"",""7377""
","
","","","","","","694.6999999880791","<p> <b> True or False? </b> </p><p> You will have as much time as you want to make each choice. </p>","","1","comp_question","","","true"
"comp-q","41","192977","0.0-16.0-1.0","6488","approach_avoid_sv1","""event"",""trial"",""time""
""fullscreenenter"",""1"",""7377""
","
","
","""event"",""trial"",""time""
""fullscreenenter"",""1"",""7377""
","
","","","","","","1525.9000000357628","<p> <b> That's right! </b> You will only have 10 seconds to make each choice. </p>","","0","comp_answer","","",""
"learning-instructions","42","204237","0.0-17.0","6488","approach_avoid_sv1","""event"",""trial"",""time""
""fullscreenenter"",""1"",""7377""
","
","
","""event"",""trial"",""time""
""fullscreenenter"",""1"",""7377""
","
","","","","","","2599.199999988079","<p> Great! You are now ready to begin the game. </p><p> Remember, use the 1, 2, 3, and 4 keys to make your responses. </p>","","0","instructions","","",""
"html-keyboard-response","43","204838","0.0-18.0-0.0","6488","approach_avoid_sv1","""event"",""trial"",""time""
""fullscreenenter"",""1"",""7377""
","
","
","""event"",""trial"",""time""
""fullscreenenter"",""1"",""7377""
","
","","","","","","null","<div style=""font-size:60px;"">+</div>","null","","fixation","","",""
"memory-trial","44","208423","0.0-18.0-1.0","6488","approach_avoid_sv1","""event"",""trial"",""time""
""fullscreenenter"",""1"",""7377""
","
","
","""event"",""trial"",""time""
""fullscreenenter"",""1"",""7377""
","
","","","","","","2581.5","images/bed2.png","","","memory_trial","1","definitely_old",""
"html-keyboard-response","45","208925","0.0-18.0-0.1","6488","approach_avoid_sv1","""event"",""trial"",""time""
""fullscreenenter"",""1"",""7377""
","
","
","""event"",""trial"",""time""
""fullscreenenter"",""1"",""7377""
","
","","","","","","null","<div style=""font-size:60px;"">+</div>","null","","fixation","","",""
"memory-trial","46","212136","0.0-18.0-1.1","6488","approach_avoid_sv1","""event"",""trial"",""time""
""fullscreenenter"",""1"",""7377""
","
","
","""event"",""trial"",""time""
""fullscreenenter"",""1"",""7377""
","
","","","","","","2208.699999988079","images/apple3.png","","","memory_trial","4","definitely_new",""
"html-keyboard-response","47","212638","0.0-18.0-0.2","6488","approach_avoid_sv1","""event"",""trial"",""time""
""fullscreenenter"",""1"",""7377""
","
","
","""event"",""trial"",""time""
""fullscreenenter"",""1"",""7377""
","
","","","","","","null","<div style=""font-size:60px;"">+</div>","null","","fixation","","",""
"memory-trial","48","215364","0.0-18.0-1.2","6488","approach_avoid_sv1","""event"",""trial"",""time""
""fullscreenenter"",""1"",""7377""
","
","
","""event"",""trial"",""time""
""fullscreenenter"",""1"",""7377""
","
","","","","","","1723.8999999761581","images/cat3.png","","","memory_trial","1","definitely_old",""
"html-keyboard-response","49","215867","0.0-18.0-0.3","6488","approach_avoid_sv1","""event"",""trial"",""time""
""fullscreenenter"",""1"",""7377""
","
","
","""event"",""trial"",""time""
""fullscreenenter"",""1"",""7377""
","
","","","","","","null","<div style=""font-size:60px;"">+</div>","null","","fixation","","",""
"memory-trial","50","218380","0.0-18.0-1.3","6488","approach_avoid_sv1","""event"",""trial"",""time""
""fullscreenenter"",""1"",""7377""
","
","
","""event"",""trial"",""time""
""fullscreenenter"",""1"",""7377""
","
","","","","","","1510.3999999761581","images/bush6.png","","","memory_trial","2","maybe_old",""
"html-keyboard-response","51","218881","0.0-18.0-0.4","6488","approach_avoid_sv1","""event"",""trial"",""time""
""fullscreenenter"",""1"",""7377""
","
","
","""event"",""trial"",""time""
""fullscreenenter"",""1"",""7377""
","
","","","","","","null","<div style=""font-size:60px;"">+</div>","null","","fixation","","",""
"memory-trial","52","222534","0.0-18.0-1.4","6488","approach_avoid_sv1","""event"",""trial"",""time""
""fullscreenenter"",""1"",""7377""
","
","
","""event"",""trial"",""time""
""fullscreenenter"",""1"",""7377""
","
","","","","","","2650.199999988079","images/plane7.png","","","memory_trial","1","definitely_old",""
"html-keyboard-response","53","223036","0.0-18.0-0.5","6488","approach_avoid_sv1","""event"",""trial"",""time""
""fullscreenenter"",""1"",""7377""
","
","
","""event"",""trial"",""time""
""fullscreenenter"",""1"",""7377""
","
","","","","","","null","<div style=""font-size:60px;"">+</div>","null","","fixation","","",""
"memory-trial","54","229449","0.0-18.0-1.5","6488","approach_avoid_sv1","""event"",""trial"",""time""
""fullscreenenter"",""1"",""7377""
","
","
","""event"",""trial"",""time""
""fullscreenenter"",""1"",""7377""
","
","","","","","","5411.099999964237","images/cactus8.png","","","memory_trial","3","maybe_new",""
"html-keyboard-response","55","229950","0.0-18.0-0.6","6488","approach_avoid_sv1","""event"",""trial"",""time""
""fullscreenenter"",""1"",""7377""
","
","
","""event"",""trial"",""time""
""fullscreenenter"",""1"",""7377""
","
","","","","","","null","<div style=""font-size:60px;"">+</div>","null","","fixation","","",""
"memory-trial","56","236040","0.0-18.0-1.6","6488","approach_avoid_sv1","""event"",""trial"",""time""
""fullscreenenter"",""1"",""7377""
","
","
","""event"",""trial"",""time""
""fullscreenenter"",""1"",""7377""
","
","","","","","","5087.400000035763","images/dog2.png","","","memory_trial","4","definitely_new",""
"html-keyboard-response","57","236542","0.0-18.0-0.7","6488","approach_avoid_sv1","""event"",""trial"",""time""
""fullscreenenter"",""1"",""7377""
","
","
","""event"",""trial"",""time""
""fullscreenenter"",""1"",""7377""
","
","","","","","","null","<div style=""font-size:60px;"">+</div>","null","","fixation","","",""
"memory-trial","58","239634","0.0-18.0-1.7","6488","approach_avoid_sv1","""event"",""trial"",""time""
""fullscreenenter"",""1"",""7377""
","
","
","""event"",""trial"",""time""
""fullscreenenter"",""1"",""7377""
","
","","","","","","2090.100000023842","images/table6.png","","","memory_trial","1","definitely_old",""
"html-keyboard-response","59","240136","0.0-18.0-0.8","6488","approach_avoid_sv1","""event"",""trial"",""time""
""fullscreenenter"",""1"",""7377""
","
","
","""event"",""trial"",""time""
""fullscreenenter"",""1"",""7377""
","
","","","","","","null","<div style=""font-size:60px;"">+</div>","null","","fixation","","",""
"memory-trial","60","243343","0.0-18.0-1.8","6488","approach_avoid_sv1","""event"",""trial"",""time""
""fullscreenenter"",""1"",""7377""
","
","
","""event"",""trial"",""time""
""fullscreenenter"",""1"",""7377""
","
","","","","","","2203.899999976158","images/chair2.png","","","memory_trial","1","definitely_old",""
"html-keyboard-response","61","243844","0.0-18.0-0.9","6488","approach_avoid_sv1","""event"",""trial"",""time""
""fullscreenenter"",""1"",""7377""
","
","
","""event"",""trial"",""time""
""fullscreenenter"",""1"",""7377""
","
","","","","","","null","<div style=""font-size:60px;"">+</div>","null","","fixation","","",""
"memory-trial","62","246915","0.0-18.0-1.9","6488","approach_avoid_sv1","""event"",""trial"",""time""
""fullscreenenter"",""1"",""7377""
","
","
","""event"",""trial"",""time""
""fullscreenenter"",""1"",""7377""
","
","","","","","","2069.100000023842","images/bush7.png","","","memory_trial","1","definitely_old",""
"html-keyboard-response","63","247416","0.0-18.0-0.10","6488","approach_avoid_sv1","""event"",""trial"",""time""
""fullscreenenter"",""1"",""7377""
","
","
","""event"",""trial"",""time""
""fullscreenenter"",""1"",""7377""
","
","","","","","","null","<div style=""font-size:60px;"">+</div>","null","","fixation","","",""
"memory-trial","64","250108","0.0-18.0-1.10","6488","approach_avoid_sv1","""event"",""trial"",""time""
""fullscreenenter"",""1"",""7377""
","
","
","""event"",""trial"",""time""
""fullscreenenter"",""1"",""7377""
","
","","","","","","1687.9000000357628","images/bush2.png","","","memory_trial","1","definitely_old",""
"html-keyboard-response","65","250609","0.0-18.0-0.11","6488","approach_avoid_sv1","""event"",""trial"",""time""
""fullscreenenter"",""1"",""7377""
","
","
","""event"",""trial"",""time""
""fullscreenenter"",""1"",""7377""
","
","","","","","","null","<div style=""font-size:60px;"">+</div>","null","","fixation","","",""
"memory-trial","66","254355","0.0-18.0-1.11","6488","approach_avoid_sv1","""event"",""trial"",""time""
""fullscreenenter"",""1"",""7377""
","
","
","""event"",""trial"",""time""
""fullscreenenter"",""1"",""7377""
","
","","","","","","2743.899999976158","images/cactus7.png","","","memory_trial","2","maybe_old",""
"html-keyboard-response","67","254856","0.0-18.0-0.12","6488","approach_avoid_sv1","""event"",""trial"",""time""
""fullscreenenter"",""1"",""7377""
","
","
","""event"",""trial"",""time""
""fullscreenenter"",""1"",""7377""
","
","","","","","","null","<div style=""font-size:60px;"">+</div>","null","","fixation","","",""
"memory-trial","68","259885","0.0-18.0-1.12","6488","approach_avoid_sv1","""event"",""trial"",""time""
""fullscreenenter"",""1"",""7377""
","
","
","""event"",""trial"",""time""
""fullscreenenter"",""1"",""7377""
","
","","","","","","4026.800000011921","images/plane2.png","","","memory_trial","4","definitely_new",""
"html-keyboard-response","69","260386","0.0-18.0-0.13","6488","approach_avoid_sv1","""event"",""trial"",""time""
""fullscreenenter"",""1"",""7377""
","
","
","""event"",""trial"",""time""
""fullscreenenter"",""1"",""7377""
","
","","","","","","null","<div style=""font-size:60px;"">+</div>","null","","fixation","","",""
"memory-trial","70","263511","0.0-18.0-1.13","6488","approach_avoid_sv1","""event"",""trial"",""time""
""fullscreenenter"",""1"",""7377""
","
","
","""event"",""trial"",""time""
""fullscreenenter"",""1"",""7377""
","
","","","","","","2122.300000011921","images/bed4.png","","","memory_trial","1","definitely_old",""
"html-keyboard-response","71","264013","0.0-18.0-0.14","6488","approach_avoid_sv1","""event"",""trial"",""time""
""fullscreenenter"",""1"",""7377""
","
","
","""event"",""trial"",""time""
""fullscreenenter"",""1"",""7377""
","
","","","","","","null","<div style=""font-size:60px;"">+</div>","null","","fixation","","",""
"memory-trial","72","268324","0.0-18.0-1.14","6488","approach_avoid_sv1","""event"",""trial"",""time""
""fullscreenenter"",""1"",""7377""
","
","
","""event"",""trial"",""time""
""fullscreenenter"",""1"",""7377""
","
","","","","","","3309.800000011921","images/straw6.png","","","memory_trial","1","definitely_old",""
"html-keyboard-response","73","268825","0.0-18.0-0.15","6488","approach_avoid_sv1","""event"",""trial"",""time""
""fullscreenenter"",""1"",""7377""
","
","
","""event"",""trial"",""time""
""fullscreenenter"",""1"",""7377""
","
","","","","","","null","<div style=""font-size:60px;"">+</div>","null","","fixation","","",""
"memory-trial","74","271766","0.0-18.0-1.15","6488","approach_avoid_sv1","""event"",""trial"",""time""
""fullscreenenter"",""1"",""7377""
","
","
","""event"",""trial"",""time""
""fullscreenenter"",""1"",""7377""
","
","","","","","","1938.300000011921","images/rodent3.png","","","memory_trial","1","definitely_old",""
"html-keyboard-response","75","272267","0.0-18.0-0.16","6488","approach_avoid_sv1","""event"",""trial"",""time""
""fullscreenenter"",""1"",""7377""
","
","
","""event"",""trial"",""time""
""fullscreenenter"",""1"",""7377""
","
","","","","","","null","<div style=""font-size:60px;"">+</div>","null","","fixation","","",""
"memory-trial","76","275549","0.0-18.0-1.16","6488","approach_avoid_sv1","""event"",""trial"",""time""
""fullscreenenter"",""1"",""7377""
","
","
","""event"",""trial"",""time""
""fullscreenenter"",""1"",""7377""
","
","","","","","","2278.599999964237","images/tree7.png","","","memory_trial","4","definitely_new",""
"html-keyboard-response","77","276050","0.0-18.0-0.17","6488","approach_avoid_sv1","""event"",""trial"",""time""
""fullscreenenter"",""1"",""7377""
","
","
","""event"",""trial"",""time""
""fullscreenenter"",""1"",""7377""
","
","","","","","","null","<div style=""font-size:60px;"">+</div>","null","","fixation","","",""
"memory-trial","78","279120","0.0-18.0-1.17","6488","approach_avoid_sv1","""event"",""trial"",""time""
""fullscreenenter"",""1"",""7377""
","
","
","""event"",""trial"",""time""
""fullscreenenter"",""1"",""7377""
","
","","","","","","2067.699999988079","images/bush5.png","","","memory_trial","4","definitely_new",""
"html-keyboard-response","79","279622","0.0-18.0-0.18","6488","approach_avoid_sv1","""event"",""trial"",""time""
""fullscreenenter"",""1"",""7377""
","
","
","""event"",""trial"",""time""
""fullscreenenter"",""1"",""7377""
","
","","","","","","null","<div style=""font-size:60px;"">+</div>","null","","fixation","","",""
"memory-trial","80","281949","0.0-18.0-1.18","6488","approach_avoid_sv1","""event"",""trial"",""time""
""fullscreenenter"",""1"",""7377""
","
","
","""event"",""trial"",""time""
""fullscreenenter"",""1"",""7377""
","
","","","","","","1324","images/table1.png","","","memory_trial","1","definitely_old",""
"html-keyboard-response","81","282451","0.0-18.0-0.19","6488","approach_avoid_sv1","""event"",""trial"",""time""
""fullscreenenter"",""1"",""7377""
","
","
","""event"",""trial"",""time""
""fullscreenenter"",""1"",""7377""
","
","","","","","","null","<div style=""font-size:60px;"">+</div>","null","","fixation","","",""
"memory-trial","82","285576","0.0-18.0-1.19","6488","approach_avoid_sv1","""event"",""trial"",""time""
""fullscreenenter"",""1"",""7377""
","
","
","""event"",""trial"",""time""
""fullscreenenter"",""1"",""7377""
","
","","","","","","2122.100000023842","images/boat7.png","","","memory_trial","4","definitely_new",""
"html-keyboard-response","83","286077","0.0-18.0-0.20","6488","approach_avoid_sv1","""event"",""trial"",""time""
""fullscreenenter"",""1"",""7377""
","
","
","""event"",""trial"",""time""
""fullscreenenter"",""1"",""7377""
","
","","","","","","null","<div style=""font-size:60px;"">+</div>","null","","fixation","","",""
"memory-trial","84","289694","0.0-18.0-1.20","6488","approach_avoid_sv1","""event"",""trial"",""time""
""fullscreenenter"",""1"",""7377""
","
","
","""event"",""trial"",""time""
""fullscreenenter"",""1"",""7377""
","
","","","","","","2613.600000023842","images/cat4.png","","","memory_trial","3","maybe_new",""
"html-keyboard-response","85","290196","0.0-18.0-0.21","6488","approach_avoid_sv1","""event"",""trial"",""time""
""fullscreenenter"",""1"",""7377""
","
","
","""event"",""trial"",""time""
""fullscreenenter"",""1"",""7377""
","
","","","","","","null","<div style=""font-size:60px;"">+</div>","null","","fixation","","",""
"memory-trial","86","295016","0.0-18.0-1.21","6488","approach_avoid_sv1","""event"",""trial"",""time""
""fullscreenenter"",""1"",""7377""
","
","
","""event"",""trial"",""time""
""fullscreenenter"",""1"",""7377""
","
","","","","","","3816.699999988079","images/bush1.png","","","memory_trial","4","definitely_new",""
"html-keyboard-response","87","295518","0.0-18.0-0.22","6488","approach_avoid_sv1","""event"",""trial"",""time""
""fullscreenenter"",""1"",""7377""
","
","
","""event"",""trial"",""time""
""fullscreenenter"",""1"",""7377""
","
","","","","","","null","<div style=""font-size:60px;"">+</div>","null","","fixation","","",""
"memory-trial","88","298120","0.0-18.0-1.22","6488","approach_avoid_sv1","""event"",""trial"",""time""
""fullscreenenter"",""1"",""7377""
","
","
","""event"",""trial"",""time""
""fullscreenenter"",""1"",""7377""
","
","","","","","","1599","images/tree2.png","","","memory_trial","4","definitely_new",""
"html-keyboard-response","89","298621","0.0-18.0-0.23","6488","approach_avoid_sv1","""event"",""trial"",""time""
""fullscreenenter"",""1"",""7377""
","
","
","""event"",""trial"",""time""
""fullscreenenter"",""1"",""7377""
","
","","","","","","null","<div style=""font-size:60px;"">+</div>","null","","fixation","","",""
"memory-trial","90","300765","0.0-18.0-1.23","6488","approach_avoid_sv1","""event"",""trial"",""time""
""fullscreenenter"",""1"",""7377""
","
","
","""event"",""trial"",""time""
""fullscreenenter"",""1"",""7377""
","
","","","","","","1141.6000000238419","images/straw8.png","","","memory_trial","4","definitely_new",""
"html-keyboard-response","91","301266","0.0-18.0-0.24","6488","approach_avoid_sv1","""event"",""trial"",""time""
""fullscreenenter"",""1"",""7377""
","
","
","""event"",""trial"",""time""
""fullscreenenter"",""1"",""7377""
","
","","","","","","null","<div style=""font-size:60px;"">+</div>","null","","fixation","","",""
"memory-trial","92","303969","0.0-18.0-1.24","6488","approach_avoid_sv1","""event"",""trial"",""time""
""fullscreenenter"",""1"",""7377""
","
","
","""event"",""trial"",""time""
""fullscreenenter"",""1"",""7377""
","
","","","","","","1700.199999988079","images/banana4.png","","","memory_trial","4","definitely_new",""
"html-keyboard-response","93","304471","0.0-18.0-0.25","6488","approach_avoid_sv1","""event"",""trial"",""time""
""fullscreenenter"",""1"",""7377""
","
","
","""event"",""trial"",""time""
""fullscreenenter"",""1"",""7377""
","
","","","","","","null","<div style=""font-size:60px;"">+</div>","null","","fixation","","",""
"memory-trial","94","306919","0.0-18.0-1.25","6488","approach_avoid_sv1","""event"",""trial"",""time""
""fullscreenenter"",""1"",""7377""
","
","
","""event"",""trial"",""time""
""fullscreenenter"",""1"",""7377""
","
","","","","","","1445.5","images/sheep4.png","","","memory_trial","1","definitely_old",""
"html-keyboard-response","95","307422","0.0-18.0-0.26","6488","approach_avoid_sv1","""event"",""trial"",""time""
""fullscreenenter"",""1"",""7377""
","
","
","""event"",""trial"",""time""
""fullscreenenter"",""1"",""7377""
","
","","","","","","null","<div style=""font-size:60px;"">+</div>","null","","fixation","","",""
"memory-trial","96","310380","0.0-18.0-1.26","6488","approach_avoid_sv1","""event"",""trial"",""time""
""fullscreenenter"",""1"",""7377""
","
","
","""event"",""trial"",""time""
""fullscreenenter"",""1"",""7377""
","
","","","","","","1955.300000011921","images/rodent7.png","","","memory_trial","4","definitely_new",""
"html-keyboard-response","97","310881","0.0-18.0-0.27","6488","approach_avoid_sv1","""event"",""trial"",""time""
""fullscreenenter"",""1"",""7377""
","
","
","""event"",""trial"",""time""
""fullscreenenter"",""1"",""7377""
","
","","","","","","null","<div style=""font-size:60px;"">+</div>","null","","fixation","","",""
"memory-trial","98","313406","0.0-18.0-1.27","6488","approach_avoid_sv1","""event"",""trial"",""time""
""fullscreenenter"",""1"",""7377""
","
","
","""event"",""trial"",""time""
""fullscreenenter"",""1"",""7377""
","
","","","","","","1520.8999999761581","images/flower3.png","","","memory_trial","1","definitely_old",""
"html-keyboard-response","99","313907","0.0-18.0-0.28","6488","approach_avoid_sv1","""event"",""trial"",""time""
""fullscreenenter"",""1"",""7377""
","
","
","""event"",""trial"",""time""
""fullscreenenter"",""1"",""7377""
","
","","","","","","null","<div style=""font-size:60px;"">+</div>","null","","fixation","","",""
"memory-trial","100","317720","0.0-18.0-1.28","6488","approach_avoid_sv1","""event"",""trial"",""time""
""fullscreenenter"",""1"",""7377""
","
","
","""event"",""trial"",""time""
""fullscreenenter"",""1"",""7377""
","
","","","","","","2811.099999964237","images/horse1.png","","","memory_trial","3","maybe_new",""
"html-keyboard-response","101","318220","0.0-18.0-0.29","6488","approach_avoid_sv1","""event"",""trial"",""time""
""fullscreenenter"",""1"",""7377""
","
","
","""event"",""trial"",""time""
""fullscreenenter"",""1"",""7377""
","
","","","","","","null","<div style=""font-size:60px;"">+</div>","null","","fixation","","",""
"memory-trial","102","321434","0.0-18.0-1.29","6488","approach_avoid_sv1","""event"",""trial"",""time""
""fullscreenenter"",""1"",""7377""
","
","
","""event"",""trial"",""time""
""fullscreenenter"",""1"",""7377""
","
","","","","","","2210.699999988079","images/cow2.png","","","memory_trial","1","definitely_old",""
"html-keyboard-response","103","321936","0.0-18.0-0.30","6488","approach_avoid_sv1","""event"",""trial"",""time""
""fullscreenenter"",""1"",""7377""
","
","
","""event"",""trial"",""time""
""fullscreenenter"",""1"",""7377""
","
","","","","","","null","<div style=""font-size:60px;"">+</div>","null","","fixation","","",""
"memory-trial","104","323976","0.0-18.0-1.30","6488","approach_avoid_sv1","""event"",""trial"",""time""
""fullscreenenter"",""1"",""7377""
","
","
","""event"",""trial"",""time""
""fullscreenenter"",""1"",""7377""
","
","","","","","","1039","images/table7.png","","","memory_trial","1","definitely_old",""
"html-keyboard-response","105","324478","0.0-18.0-0.31","6488","approach_avoid_sv1","""event"",""trial"",""time""
""fullscreenenter"",""1"",""7377""
","
","
","""event"",""trial"",""time""
""fullscreenenter"",""1"",""7377""
","
","","","","","","null","<div style=""font-size:60px;"">+</div>","null","","fixation","","",""
"memory-trial","106","326878","0.0-18.0-1.31","6488","approach_avoid_sv1","""event"",""trial"",""time""
""fullscreenenter"",""1"",""7377""
","
","
","""event"",""trial"",""time""
""fullscreenenter"",""1"",""7377""
","
","","","","","","1397.5","images/sheep5.png","","","memory_trial","3","maybe_new",""
"html-keyboard-response","107","327379","0.0-18.0-0.32","6488","approach_avoid_sv1","""event"",""trial"",""time""
""fullscreenenter"",""1"",""7377""
","
","
","""event"",""trial"",""time""
""fullscreenenter"",""1"",""7377""
","
","","","","","","null","<div style=""font-size:60px;"">+</div>","null","","fixation","","",""
"memory-trial","108","329476","0.0-18.0-1.32","6488","approach_avoid_sv1","""event"",""trial"",""time""
""fullscreenenter"",""1"",""7377""
","
","
","""event"",""trial"",""time""
""fullscreenenter"",""1"",""7377""
","
","","","","","","1095.6000000238419","images/goat5.png","","","memory_trial","4","definitely_new",""
"html-keyboard-response","109","329978","0.0-18.0-0.33","6488","approach_avoid_sv1","""event"",""trial"",""time""
""fullscreenenter"",""1"",""7377""
","
","
","""event"",""trial"",""time""
""fullscreenenter"",""1"",""7377""
","
","","","","","","null","<div style=""font-size:60px;"">+</div>","null","","fixation","","",""
"memory-trial","110","333593","0.0-18.0-1.33","6488","approach_avoid_sv1","""event"",""trial"",""time""
""fullscreenenter"",""1"",""7377""
","
","
","""event"",""trial"",""time""
""fullscreenenter"",""1"",""7377""
","
","","","","","","2613.800000011921","images/plane1.png","","","memory_trial","4","definitely_new",""
"html-keyboard-response","111","334094","0.0-18.0-0.34","6488","approach_avoid_sv1","""event"",""trial"",""time""
""fullscreenenter"",""1"",""7377""
","
","
","""event"",""trial"",""time""
""fullscreenenter"",""1"",""7377""
","
","","","","","","null","<div style=""font-size:60px;"">+</div>","null","","fixation","","",""
"memory-trial","112","335895","0.0-18.0-1.34","6488","approach_avoid_sv1","""event"",""trial"",""time""
""fullscreenenter"",""1"",""7377""
","
","
","""event"",""trial"",""time""
""fullscreenenter"",""1"",""7377""
","
","","","","","","798.1999999880791","images/bed5.png","","","memory_trial","1","definitely_old",""
"html-keyboard-response","113","336396","0.0-18.0-0.35","6488","approach_avoid_sv1","""event"",""trial"",""time""
""fullscreenenter"",""1"",""7377""
","
","
","""event"",""trial"",""time""
""fullscreenenter"",""1"",""7377""
","
","","","","","","null","<div style=""font-size:60px;"">+</div>","null","","fixation","","",""
"memory-trial","114","338559","0.0-18.0-1.35","6488","approach_avoid_sv1","""event"",""trial"",""time""
""fullscreenenter"",""1"",""7377""
","
","
","""event"",""trial"",""time""
""fullscreenenter"",""1"",""7377""
","
","","","","","","1161.4000000357628","images/orange4.png","","","memory_trial","1","definitely_old",""
"html-keyboard-response","115","339060","0.0-18.0-0.36","6488","approach_avoid_sv1","""event"",""trial"",""time""
""fullscreenenter"",""1"",""7377""
","
","
","""event"",""trial"",""time""
""fullscreenenter"",""1"",""7377""
","
","","","","","","null","<div style=""font-size:60px;"">+</div>","null","","fixation","","",""
"memory-trial","116","344030","0.0-18.0-1.36","6488","approach_avoid_sv1","""event"",""trial"",""time""
""fullscreenenter"",""1"",""7377""
","
","
","""event"",""trial"",""time""
""fullscreenenter"",""1"",""7377""
","
","","","","","","3966.800000011921","images/dog6.png","","","memory_trial","4","definitely_new",""
"html-keyboard-response","117","344531","0.0-18.0-0.37","6488","approach_avoid_sv1","""event"",""trial"",""time""
""fullscreenenter"",""1"",""7377""
","
","
","""event"",""trial"",""time""
""fullscreenenter"",""1"",""7377""
","
","","","","","","null","<div style=""font-size:60px;"">+</div>","null","","fixation","","",""
"memory-trial","118","347383","0.0-18.0-1.37","6488","approach_avoid_sv1","""event"",""trial"",""time""
""fullscreenenter"",""1"",""7377""
","
","
","""event"",""trial"",""time""
""fullscreenenter"",""1"",""7377""
","
","","","","","","1849.5","images/dog3.png","","","memory_trial","4","definitely_new",""
"html-keyboard-response","119","347885","0.0-18.0-0.38","6488","approach_avoid_sv1","""event"",""trial"",""time""
""fullscreenenter"",""1"",""7377""
","
","
","""event"",""trial"",""time""
""fullscreenenter"",""1"",""7377""
","
","","","","","","null","<div style=""font-size:60px;"">+</div>","null","","fixation","","",""
"memory-trial","120","350424","0.0-18.0-1.38","6488","approach_avoid_sv1","""event"",""trial"",""time""
""fullscreenenter"",""1"",""7377""
","
","
","""event"",""trial"",""time""
""fullscreenenter"",""1"",""7377""
","
","","","","","","1535.9000000357628","images/bush3.png","","","memory_trial","1","definitely_old",""
"html-keyboard-response","121","350926","0.0-18.0-0.39","6488","approach_avoid_sv1","""event"",""trial"",""time""
""fullscreenenter"",""1"",""7377""
","
","
","""event"",""trial"",""time""
""fullscreenenter"",""1"",""7377""
","
","","","","","","null","<div style=""font-size:60px;"">+</div>","null","","fixation","","",""
"memory-trial","122","353926","0.0-18.0-1.39","6488","approach_avoid_sv1","""event"",""trial"",""time""
""fullscreenenter"",""1"",""7377""
","
","
","""event"",""trial"",""time""
""fullscreenenter"",""1"",""7377""
","
","","","","","","1997.5","images/sheep1.png","","","memory_trial","4","definitely_new",""
"html-keyboard-response","123","354428","0.0-18.0-0.40","6488","approach_avoid_sv1","""event"",""trial"",""time""
""fullscreenenter"",""1"",""7377""
","
","
","""event"",""trial"",""time""
""fullscreenenter"",""1"",""7377""
","
","","","","","","null","<div style=""font-size:60px;"">+</div>","null","","fixation","","",""
"memory-trial","124","356862","0.0-18.0-1.40","6488","approach_avoid_sv1","""event"",""trial"",""time""
""fullscreenenter"",""1"",""7377""
","
","
","""event"",""trial"",""time""
""fullscreenenter"",""1"",""7377""
","
","","","","","","1431.199999988079","images/sofa8.png","","","memory_trial","4","definitely_new",""
"html-keyboard-response","125","357363","0.0-18.0-0.41","6488","approach_avoid_sv1","""event"",""trial"",""time""
""fullscreenenter"",""1"",""7377""
","
","
","""event"",""trial"",""time""
""fullscreenenter"",""1"",""7377""
","
","","","","","","null","<div style=""font-size:60px;"">+</div>","null","","fixation","","",""
"memory-trial","126","359560","0.0-18.0-1.41","6488","approach_avoid_sv1","""event"",""trial"",""time""
""fullscreenenter"",""1"",""7377""
","
","
","""event"",""trial"",""time""
""fullscreenenter"",""1"",""7377""
","
","","","","","","1193.699999988079","images/bed1.png","","","memory_trial","1","definitely_old",""
"html-button-response","127","376967","0.0-18.0-2.41-0.41","6488","approach_avoid_sv1","""event"",""trial"",""time""
""fullscreenenter"",""1"",""7377""
","
","
","""event"",""trial"",""time""
""fullscreenenter"",""1"",""7377""
","
","","","","","","17406.30000001192","<p> Take a break! </p><p> Click the button to continue. </p>","0","","break","","",""
"html-keyboard-response","128","377468","0.0-18.0-0.42","6488","approach_avoid_sv1","""event"",""trial"",""time""
""fullscreenenter"",""1"",""7377""
","
","
","""event"",""trial"",""time""
""fullscreenenter"",""1"",""7377""
","
","","","","","","null","<div style=""font-size:60px;"">+</div>","null","","fixation","","",""
"memory-trial","129","381652","0.0-18.0-1.42","6488","approach_avoid_sv1","""event"",""trial"",""time""
""fullscreenenter"",""1"",""7377""
","
","
","""event"",""trial"",""time""
""fullscreenenter"",""1"",""7377""
","
","","","","","","3180.900000035763","images/cat7.png","","","memory_trial","1","definitely_old",""
"html-keyboard-response","130","382153","0.0-18.0-0.43","6488","approach_avoid_sv1","""event"",""trial"",""time""
""fullscreenenter"",""1"",""7377""
","
","
","""event"",""trial"",""time""
""fullscreenenter"",""1"",""7377""
","
","","","","","","null","<div style=""font-size:60px;"">+</div>","null","","fixation","","",""
"memory-trial","131","384572","0.0-18.0-1.43","6488","approach_avoid_sv1","""event"",""trial"",""time""
""fullscreenenter"",""1"",""7377""
","
","
","""event"",""trial"",""time""
""fullscreenenter"",""1"",""7377""
","
","","","","","","1416.800000011921","images/sheep7.png","","","memory_trial","4","definitely_new",""
"html-keyboard-response","132","385074","0.0-18.0-0.44","6488","approach_avoid_sv1","""event"",""trial"",""time""
""fullscreenenter"",""1"",""7377""
","
","
","""event"",""trial"",""time""
""fullscreenenter"",""1"",""7377""
","
","","","","","","null","<div style=""font-size:60px;"">+</div>","null","","fixation","","",""
"memory-trial","133","387509","0.0-18.0-1.44","6488","approach_avoid_sv1","""event"",""trial"",""time""
""fullscreenenter"",""1"",""7377""
","
","
","""event"",""trial"",""time""
""fullscreenenter"",""1"",""7377""
","
","","","","","","1431.800000011921","images/apple4.png","","","memory_trial","1","definitely_old",""
"html-keyboard-response","134","388010","0.0-18.0-0.45","6488","approach_avoid_sv1","""event"",""trial"",""time""
""fullscreenenter"",""1"",""7377""
","
","
","""event"",""trial"",""time""
""fullscreenenter"",""1"",""7377""
","
","","","","","","null","<div style=""font-size:60px;"">+</div>","null","","fixation","","",""
"memory-trial","135","392842","0.0-18.0-1.45","6488","approach_avoid_sv1","""event"",""trial"",""time""
""fullscreenenter"",""1"",""7377""
","
","
","""event"",""trial"",""time""
""fullscreenenter"",""1"",""7377""
","
","","","","","","3829.600000023842","images/banana6.png","","","memory_trial","4","definitely_new",""
"html-keyboard-response","136","393343","0.0-18.0-0.46","6488","approach_avoid_sv1","""event"",""trial"",""time""
""fullscreenenter"",""1"",""7377""
","
","
","""event"",""trial"",""time""
""fullscreenenter"",""1"",""7377""
","
","","","","","","null","<div style=""font-size:60px;"">+</div>","null","","fixation","","",""
"memory-trial","137","396604","0.0-18.0-1.46","6488","approach_avoid_sv1","""event"",""trial"",""time""
""fullscreenenter"",""1"",""7377""
","
","
","""event"",""trial"",""time""
""fullscreenenter"",""1"",""7377""
","
","","","","","","2256.899999976158","images/rabbit7.png","","","memory_trial","4","definitely_new",""
"html-keyboard-response","138","397105","0.0-18.0-0.47","6488","approach_avoid_sv1","""event"",""trial"",""time""
""fullscreenenter"",""1"",""7377""
","
","
","""event"",""trial"",""time""
""fullscreenenter"",""1"",""7377""
","
","","","","","","null","<div style=""font-size:60px;"">+</div>","null","","fixation","","",""
"memory-trial","139","401083","0.0-18.0-1.47","6488","approach_avoid_sv1","""event"",""trial"",""time""
""fullscreenenter"",""1"",""7377""
","
","
","""event"",""trial"",""time""
""fullscreenenter"",""1"",""7377""
","
","","","","","","2974.100000023842","images/bed7.png","","","memory_trial","1","definitely_old",""
"html-keyboard-response","140","401584","0.0-18.0-0.48","6488","approach_avoid_sv1","""event"",""trial"",""time""
""fullscreenenter"",""1"",""7377""
","
","
","""event"",""trial"",""time""
""fullscreenenter"",""1"",""7377""
","
","","","","","","null","<div style=""font-size:60px;"">+</div>","null","","fixation","","",""
"memory-trial","141","405490","0.0-18.0-1.48","6488","approach_avoid_sv1","""event"",""trial"",""time""
""fullscreenenter"",""1"",""7377""
","
","
","""event"",""trial"",""time""
""fullscreenenter"",""1"",""7377""
","
","","","","","","2902.800000011921","images/truck6.png","","","memory_trial","2","maybe_old",""
"html-keyboard-response","142","405991","0.0-18.0-0.49","6488","approach_avoid_sv1","""event"",""trial"",""time""
""fullscreenenter"",""1"",""7377""
","
","
","""event"",""trial"",""time""
""fullscreenenter"",""1"",""7377""
","
","","","","","","null","<div style=""font-size:60px;"">+</div>","null","","fixation","","",""
"memory-trial","143","408226","0.0-18.0-1.49","6488","approach_avoid_sv1","""event"",""trial"",""time""
""fullscreenenter"",""1"",""7377""
","
","
","""event"",""trial"",""time""
""fullscreenenter"",""1"",""7377""
","
","","","","","","1231.1000000238419","images/boat4.png","","","memory_trial","2","maybe_old",""
"html-keyboard-response","144","408727","0.0-18.0-0.50","6488","approach_avoid_sv1","""event"",""trial"",""time""
""fullscreenenter"",""1"",""7377""
","
","
","""event"",""trial"",""time""
""fullscreenenter"",""1"",""7377""
","
","","","","","","null","<div style=""font-size:60px;"">+</div>","null","","fixation","","",""
"memory-trial","145","412333","0.0-18.0-1.50","6488","approach_avoid_sv1","""event"",""trial"",""time""
""fullscreenenter"",""1"",""7377""
","
","
","""event"",""trial"",""time""
""fullscreenenter"",""1"",""7377""
","
","","","","","","2602.699999988079","images/truck3.png","","","memory_trial","1","definitely_old",""
"html-keyboard-response","146","412835","0.0-18.0-0.51","6488","approach_avoid_sv1","""event"",""trial"",""time""
""fullscreenenter"",""1"",""7377""
","
","
","""event"",""trial"",""time""
""fullscreenenter"",""1"",""7377""
","
","","","","","","null","<div style=""font-size:60px;"">+</div>","null","","fixation","","",""
"memory-trial","147","415879","0.0-18.0-1.51","6488","approach_avoid_sv1","""event"",""trial"",""time""
""fullscreenenter"",""1"",""7377""
","
","
","""event"",""trial"",""time""
""fullscreenenter"",""1"",""7377""
","
","","","","","","2042.5","images/boat6.png","","","memory_trial","3","maybe_new",""
"html-keyboard-response","148","416381","0.0-18.0-0.52","6488","approach_avoid_sv1","""event"",""trial"",""time""
""fullscreenenter"",""1"",""7377""
","
","
","""event"",""trial"",""time""
""fullscreenenter"",""1"",""7377""
","
","","","","","","null","<div style=""font-size:60px;"">+</div>","null","","fixation","","",""
"memory-trial","149","418306","0.0-18.0-1.52","6488","approach_avoid_sv1","""event"",""trial"",""time""
""fullscreenenter"",""1"",""7377""
","
","
","""event"",""trial"",""time""
""fullscreenenter"",""1"",""7377""
","
","","","","","","922","images/cat1.png","","","memory_trial","2","maybe_old",""
"html-keyboard-response","150","418807","0.0-18.0-0.53","6488","approach_avoid_sv1","""event"",""trial"",""time""
""fullscreenenter"",""1"",""7377""
","
","
","""event"",""trial"",""time""
""fullscreenenter"",""1"",""7377""
","
","","","","","","null","<div style=""font-size:60px;"">+</div>","null","","fixation","","",""
"memory-trial","151","421737","0.0-18.0-1.53","6488","approach_avoid_sv1","""event"",""trial"",""time""
""fullscreenenter"",""1"",""7377""
","
","
","""event"",""trial"",""time""
""fullscreenenter"",""1"",""7377""
","
","","","","","","1928.800000011921","images/orange1.png","","","memory_trial","1","definitely_old",""
"html-keyboard-response","152","422239","0.0-18.0-0.54","6488","approach_avoid_sv1","""event"",""trial"",""time""
""fullscreenenter"",""1"",""7377""
","
","
","""event"",""trial"",""time""
""fullscreenenter"",""1"",""7377""
","
","","","","","","null","<div style=""font-size:60px;"">+</div>","null","","fixation","","",""
"memory-trial","153","424698","0.0-18.0-1.54","6488","approach_avoid_sv1","""event"",""trial"",""time""
""fullscreenenter"",""1"",""7377""
","
","
","""event"",""trial"",""time""
""fullscreenenter"",""1"",""7377""
","
","","","","","","1456.5","images/straw1.png","","","memory_trial","4","definitely_new",""
"html-keyboard-response","154","425201","0.0-18.0-0.55","6488","approach_avoid_sv1","""event"",""trial"",""time""
""fullscreenenter"",""1"",""7377""
","
","
","""event"",""trial"",""time""
""fullscreenenter"",""1"",""7377""
","
","","","","","","null","<div style=""font-size:60px;"">+</div>","null","","fixation","","",""
"memory-trial","155","427756","0.0-18.0-1.55","6488","approach_avoid_sv1","""event"",""trial"",""time""
""fullscreenenter"",""1"",""7377""
","
","
","""event"",""trial"",""time""
""fullscreenenter"",""1"",""7377""
","
","","","","","","1552.300000011921","images/chair5.png","","","memory_trial","1","definitely_old",""
"html-keyboard-response","156","428258","0.0-18.0-0.56","6488","approach_avoid_sv1","""event"",""trial"",""time""
""fullscreenenter"",""1"",""7377""
","
","
","""event"",""trial"",""time""
""fullscreenenter"",""1"",""7377""
","
","","","","","","null","<div style=""font-size:60px;"">+</div>","null","","fixation","","",""
"memory-trial","157","431743","0.0-18.0-1.56","6488","approach_avoid_sv1","""event"",""trial"",""time""
""fullscreenenter"",""1"",""7377""
","
","
","""event"",""trial"",""time""
""fullscreenenter"",""1"",""7377""
","
","","","","","","2482.800000011921","images/truck7.png","","","memory_trial","4","definitely_new",""
"html-keyboard-response","158","432245","0.0-18.0-0.57","6488","approach_avoid_sv1","""event"",""trial"",""time""
""fullscreenenter"",""1"",""7377""
","
","
","""event"",""trial"",""time""
""fullscreenenter"",""1"",""7377""
","
","","","","","","null","<div style=""font-size:60px;"">+</div>","null","","fixation","","",""
"memory-trial","159","434211","0.0-18.0-1.57","6488","approach_avoid_sv1","""event"",""trial"",""time""
""fullscreenenter"",""1"",""7377""
","
","
","""event"",""trial"",""time""
""fullscreenenter"",""1"",""7377""
","
","","","","","","964.0999999642372","images/bush8.png","","","memory_trial","1","definitely_old",""
"html-keyboard-response","160","434713","0.0-18.0-0.58","6488","approach_avoid_sv1","""event"",""trial"",""time""
""fullscreenenter"",""1"",""7377""
","
","
","""event"",""trial"",""time""
""fullscreenenter"",""1"",""7377""
","
","","","","","","null","<div style=""font-size:60px;"">+</div>","null","","fixation","","",""
"memory-trial","161","438241","0.0-18.0-1.58","6488","approach_avoid_sv1","""event"",""trial"",""time""
""fullscreenenter"",""1"",""7377""
","
","
","""event"",""trial"",""time""
""fullscreenenter"",""1"",""7377""
","
","","","","","","2524.199999988079","images/bed3.png","","","memory_trial","2","maybe_old",""
"html-keyboard-response","162","438742","0.0-18.0-0.59","6488","approach_avoid_sv1","""event"",""trial"",""time""
""fullscreenenter"",""1"",""7377""
","
","
","""event"",""trial"",""time""
""fullscreenenter"",""1"",""7377""
","
","","","","","","null","<div style=""font-size:60px;"">+</div>","null","","fixation","","",""
"memory-trial","163","444726","0.0-18.0-1.59","6488","approach_avoid_sv1","""event"",""trial"",""time""
""fullscreenenter"",""1"",""7377""
","
","
","""event"",""trial"",""time""
""fullscreenenter"",""1"",""7377""
","
","","","","","","4980.800000011921","images/banana8.png","","","memory_trial","4","definitely_new",""
"html-keyboard-response","164","445228","0.0-18.0-0.60","6488","approach_avoid_sv1","""event"",""trial"",""time""
""fullscreenenter"",""1"",""7377""
","
","
","""event"",""trial"",""time""
""fullscreenenter"",""1"",""7377""
","
","","","","","","null","<div style=""font-size:60px;"">+</div>","null","","fixation","","",""
"memory-trial","165","448391","0.0-18.0-1.60","6488","approach_avoid_sv1","""event"",""trial"",""time""
""fullscreenenter"",""1"",""7377""
","
","
","""event"",""trial"",""time""
""fullscreenenter"",""1"",""7377""
","
","","","","","","2160.2999999523163","images/cow6.png","","","memory_trial","1","definitely_old",""
"html-keyboard-response","166","448893","0.0-18.0-0.61","6488","approach_avoid_sv1","""event"",""trial"",""time""
""fullscreenenter"",""1"",""7377""
","
","
","""event"",""trial"",""time""
""fullscreenenter"",""1"",""7377""
","
","","","","","","null","<div style=""font-size:60px;"">+</div>","null","","fixation","","",""
"memory-trial","167","451667","0.0-18.0-1.61","6488","approach_avoid_sv1","""event"",""trial"",""time""
""fullscreenenter"",""1"",""7377""
","
","
","""event"",""trial"",""time""
""fullscreenenter"",""1"",""7377""
","
","","","","","","1770.800000011921","images/orange8.png","","","memory_trial","1","definitely_old",""
"html-keyboard-response","168","452168","0.0-18.0-0.62","6488","approach_avoid_sv1","""event"",""trial"",""time""
""fullscreenenter"",""1"",""7377""
","
","
","""event"",""trial"",""time""
""fullscreenenter"",""1"",""7377""
","
","","","","","","null","<div style=""font-size:60px;"">+</div>","null","","fixation","","",""
"memory-trial","169","456499","0.0-18.0-1.62","6488","approach_avoid_sv1","""event"",""trial"",""time""
""fullscreenenter"",""1"",""7377""
","
","
","""event"",""trial"",""time""
""fullscreenenter"",""1"",""7377""
","
","","","","","","3328.399999976158","images/boat8.png","","","memory_trial","1","definitely_old",""
"html-keyboard-response","170","457000","0.0-18.0-0.63","6488","approach_avoid_sv1","""event"",""trial"",""time""
""fullscreenenter"",""1"",""7377""
","
","
","""event"",""trial"",""time""
""fullscreenenter"",""1"",""7377""
","
","","","","","","null","<div style=""font-size:60px;"">+</div>","null","","fixation","","",""
"memory-trial","171","459163","0.0-18.0-1.63","6488","approach_avoid_sv1","""event"",""trial"",""time""
""fullscreenenter"",""1"",""7377""
","
","
","""event"",""trial"",""time""
""fullscreenenter"",""1"",""7377""
","
","","","","","","1160.5","images/truck4.png","","","memory_trial","3","maybe_new",""
"html-keyboard-response","172","459664","0.0-18.0-0.64","6488","approach_avoid_sv1","""event"",""trial"",""time""
""fullscreenenter"",""1"",""7377""
","
","
","""event"",""trial"",""time""
""fullscreenenter"",""1"",""7377""
","
","","","","","","null","<div style=""font-size:60px;"">+</div>","null","","fixation","","",""
"memory-trial","173","463684","0.0-18.0-1.64","6488","approach_avoid_sv1","""event"",""trial"",""time""
""fullscreenenter"",""1"",""7377""
","
","
","""event"",""trial"",""time""
""fullscreenenter"",""1"",""7377""
","
","","","","","","3015.5","images/rabbit4.png","","","memory_trial","1","definitely_old",""
"html-keyboard-response","174","464186","0.0-18.0-0.65","6488","approach_avoid_sv1","""event"",""trial"",""time""
""fullscreenenter"",""1"",""7377""
","
","
","""event"",""trial"",""time""
""fullscreenenter"",""1"",""7377""
","
","","","","","","null","<div style=""font-size:60px;"">+</div>","null","","fixation","","",""
"memory-trial","175","466443","0.0-18.0-1.65","6488","approach_avoid_sv1","""event"",""trial"",""time""
""fullscreenenter"",""1"",""7377""
","
","
","""event"",""trial"",""time""
""fullscreenenter"",""1"",""7377""
","
","","","","","","1254.5","images/cow5.png","","","memory_trial","2","maybe_old",""
"html-keyboard-response","176","466946","0.0-18.0-0.66","6488","approach_avoid_sv1","""event"",""trial"",""time""
""fullscreenenter"",""1"",""7377""
","
","
","""event"",""trial"",""time""
""fullscreenenter"",""1"",""7377""
","
","","","","","","null","<div style=""font-size:60px;"">+</div>","null","","fixation","","",""
"memory-trial","177","469435","0.0-18.0-1.66","6488","approach_avoid_sv1","""event"",""trial"",""time""
""fullscreenenter"",""1"",""7377""
","
","
","""event"",""trial"",""time""
""fullscreenenter"",""1"",""7377""
","
","","","","","","1486.9000000357628","images/flower7.png","","","memory_trial","2","maybe_old",""
"html-keyboard-response","178","469936","0.0-18.0-0.67","6488","approach_avoid_sv1","""event"",""trial"",""time""
""fullscreenenter"",""1"",""7377""
","
","
","""event"",""trial"",""time""
""fullscreenenter"",""1"",""7377""
","
","","","","","","null","<div style=""font-size:60px;"">+</div>","null","","fixation","","",""
"memory-trial","179","474678","0.0-18.0-1.67","6488","approach_avoid_sv1","""event"",""trial"",""time""
""fullscreenenter"",""1"",""7377""
","
","
","""event"",""trial"",""time""
""fullscreenenter"",""1"",""7377""
","
","","","","","","3740.100000023842","images/table8.png","","","memory_trial","1","definitely_old",""
"html-keyboard-response","180","475179","0.0-18.0-0.68","6488","approach_avoid_sv1","""event"",""trial"",""time""
""fullscreenenter"",""1"",""7377""
","
","
","""event"",""trial"",""time""
""fullscreenenter"",""1"",""7377""
","
","","","","","","null","<div style=""font-size:60px;"">+</div>","null","","fixation","","",""
"memory-trial","181","477847","0.0-18.0-1.68","6488","approach_avoid_sv1","""event"",""trial"",""time""
""fullscreenenter"",""1"",""7377""
","
","
","""event"",""trial"",""time""
""fullscreenenter"",""1"",""7377""
","
","","","","","","1666","images/goat4.png","","","memory_trial","4","definitely_new",""
"html-keyboard-response","182","478349","0.0-18.0-0.69","6488","approach_avoid_sv1","""event"",""trial"",""time""
""fullscreenenter"",""1"",""7377""
","
","
","""event"",""trial"",""time""
""fullscreenenter"",""1"",""7377""
","
","","","","","","null","<div style=""font-size:60px;"">+</div>","null","","fixation","","",""
"memory-trial","183","480908","0.0-18.0-1.69","6488","approach_avoid_sv1","""event"",""trial"",""time""
""fullscreenenter"",""1"",""7377""
","
","
","""event"",""trial"",""time""
""fullscreenenter"",""1"",""7377""
","
","","","","","","1555.699999988079","images/rodent4.png","","","memory_trial","1","definitely_old",""
"html-keyboard-response","184","481409","0.0-18.0-0.70","6488","approach_avoid_sv1","""event"",""trial"",""time""
""fullscreenenter"",""1"",""7377""
","
","
","""event"",""trial"",""time""
""fullscreenenter"",""1"",""7377""
","
","","","","","","null","<div style=""font-size:60px;"">+</div>","null","","fixation","","",""
"memory-trial","185","483685","0.0-18.0-1.70","6488","approach_avoid_sv1","""event"",""trial"",""time""
""fullscreenenter"",""1"",""7377""
","
","
","""event"",""trial"",""time""
""fullscreenenter"",""1"",""7377""
","
","","","","","","1273.199999988079","images/train7.png","","","memory_trial","1","definitely_old",""
"html-keyboard-response","186","484187","0.0-18.0-0.71","6488","approach_avoid_sv1","""event"",""trial"",""time""
""fullscreenenter"",""1"",""7377""
","
","
","""event"",""trial"",""time""
""fullscreenenter"",""1"",""7377""
","
","","","","","","null","<div style=""font-size:60px;"">+</div>","null","","fixation","","",""
"memory-trial","187","487421","0.0-18.0-1.71","6488","approach_avoid_sv1","""event"",""trial"",""time""
""fullscreenenter"",""1"",""7377""
","
","
","""event"",""trial"",""time""
""fullscreenenter"",""1"",""7377""
","
","","","","","","2231.399999976158","images/cat2.png","","","memory_trial","1","definitely_old",""
"html-keyboard-response","188","487922","0.0-18.0-0.72","6488","approach_avoid_sv1","""event"",""trial"",""time""
""fullscreenenter"",""1"",""7377""
","
","
","""event"",""trial"",""time""
""fullscreenenter"",""1"",""7377""
","
","","","","","","null","<div style=""font-size:60px;"">+</div>","null","","fixation","","",""
"memory-trial","189","491018","0.0-18.0-1.72","6488","approach_avoid_sv1","""event"",""trial"",""time""
""fullscreenenter"",""1"",""7377""
","
","
","""event"",""trial"",""time""
""fullscreenenter"",""1"",""7377""
","
","","","","","","2093.699999988079","images/tree3.png","","","memory_trial","4","definitely_new",""
"html-keyboard-response","190","491520","0.0-18.0-0.73","6488","approach_avoid_sv1","""event"",""trial"",""time""
""fullscreenenter"",""1"",""7377""
","
","
","""event"",""trial"",""time""
""fullscreenenter"",""1"",""7377""
","
","","","","","","null","<div style=""font-size:60px;"">+</div>","null","","fixation","","",""
"memory-trial","191","494022","0.0-18.0-1.73","6488","approach_avoid_sv1","""event"",""trial"",""time""
""fullscreenenter"",""1"",""7377""
","
","
","""event"",""trial"",""time""
""fullscreenenter"",""1"",""7377""
","
","","","","","","1498.800000011921","images/cat6.png","","","memory_trial","4","definitely_new",""
"html-keyboard-response","192","494524","0.0-18.0-0.74","6488","approach_avoid_sv1","""event"",""trial"",""time""
""fullscreenenter"",""1"",""7377""
","
","
","""event"",""trial"",""time""
""fullscreenenter"",""1"",""7377""
","
","","","","","","null","<div style=""font-size:60px;"">+</div>","null","","fixation","","",""
"memory-trial","193","496977","0.0-18.0-1.74","6488","approach_avoid_sv1","""event"",""trial"",""time""
""fullscreenenter"",""1"",""7377""
","
","
","""event"",""trial"",""time""
""fullscreenenter"",""1"",""7377""
","
","","","","","","1451.8999999761581","images/sheep6.png","","","memory_trial","1","definitely_old",""
"html-keyboard-response","194","497479","0.0-18.0-0.75","6488","approach_avoid_sv1","""event"",""trial"",""time""
""fullscreenenter"",""1"",""7377""
","
","
","""event"",""trial"",""time""
""fullscreenenter"",""1"",""7377""
","
","","","","","","null","<div style=""font-size:60px;"">+</div>","null","","fixation","","",""
"memory-trial","195","500683","0.0-18.0-1.75","6488","approach_avoid_sv1","""event"",""trial"",""time""
""fullscreenenter"",""1"",""7377""
","
","
","""event"",""trial"",""time""
""fullscreenenter"",""1"",""7377""
","
","","","","","","2200.400000035763","images/train4.png","","","memory_trial","1","definitely_old",""
"html-keyboard-response","196","501183","0.0-18.0-0.76","6488","approach_avoid_sv1","""event"",""trial"",""time""
""fullscreenenter"",""1"",""7377""
","
","
","""event"",""trial"",""time""
""fullscreenenter"",""1"",""7377""
","
","","","","","","null","<div style=""font-size:60px;"">+</div>","null","","fixation","","",""
"memory-trial","197","506700","0.0-18.0-1.76","6488","approach_avoid_sv1","""event"",""trial"",""time""
""fullscreenenter"",""1"",""7377""
","
","
","""event"",""trial"",""time""
""fullscreenenter"",""1"",""7377""
","
","","","","","","4512.699999988079","images/sofa1.png","","","memory_trial","2","maybe_old",""
"html-keyboard-response","198","507202","0.0-18.0-0.77","6488","approach_avoid_sv1","""event"",""trial"",""time""
""fullscreenenter"",""1"",""7377""
","
","
","""event"",""trial"",""time""
""fullscreenenter"",""1"",""7377""
","
","","","","","","null","<div style=""font-size:60px;"">+</div>","null","","fixation","","",""
"memory-trial","199","510088","0.0-18.0-1.77","6488","approach_avoid_sv1","""event"",""trial"",""time""
""fullscreenenter"",""1"",""7377""
","
","
","""event"",""trial"",""time""
""fullscreenenter"",""1"",""7377""
","
","","","","","","1883.1000000238419","images/goat6.png","","","memory_trial","2","maybe_old",""
"html-keyboard-response","200","510589","0.0-18.0-0.78","6488","approach_avoid_sv1","""event"",""trial"",""time""
""fullscreenenter"",""1"",""7377""
","
","
","""event"",""trial"",""time""
""fullscreenenter"",""1"",""7377""
","
","","","","","","null","<div style=""font-size:60px;"">+</div>","null","","fixation","","",""
"memory-trial","201","513367","0.0-18.0-1.78","6488","approach_avoid_sv1","""event"",""trial"",""time""
""fullscreenenter"",""1"",""7377""
","
","
","""event"",""trial"",""time""
""fullscreenenter"",""1"",""7377""
","
","","","","","","1774.5","images/table3.png","","","memory_trial","1","definitely_old",""
"html-keyboard-response","202","513869","0.0-18.0-0.79","6488","approach_avoid_sv1","""event"",""trial"",""time""
""fullscreenenter"",""1"",""7377""
","
","
","""event"",""trial"",""time""
""fullscreenenter"",""1"",""7377""
","
","","","","","","null","<div style=""font-size:60px;"">+</div>","null","","fixation","","",""
"memory-trial","203","516759","0.0-18.0-1.79","6488","approach_avoid_sv1","""event"",""trial"",""time""
""fullscreenenter"",""1"",""7377""
","
","
","""event"",""trial"",""time""
""fullscreenenter"",""1"",""7377""
","
","","","","","","1888.0999999642372","images/train5.png","","","memory_trial","1","definitely_old",""
"html-keyboard-response","204","517261","0.0-18.0-0.80","6488","approach_avoid_sv1","""event"",""trial"",""time""
""fullscreenenter"",""1"",""7377""
","
","
","""event"",""trial"",""time""
""fullscreenenter"",""1"",""7377""
","
","","","","","","null","<div style=""font-size:60px;"">+</div>","null","","fixation","","",""
"memory-trial","205","520756","0.0-18.0-1.80","6488","approach_avoid_sv1","""event"",""trial"",""time""
""fullscreenenter"",""1"",""7377""
","
","
","""event"",""trial"",""time""
""fullscreenenter"",""1"",""7377""
","
","","","","","","2492.900000035763","images/apple7.png","","","memory_trial","4","definitely_new",""
"html-keyboard-response","206","521257","0.0-18.0-0.81","6488","approach_avoid_sv1","""event"",""trial"",""time""
""fullscreenenter"",""1"",""7377""
","
","
","""event"",""trial"",""time""
""fullscreenenter"",""1"",""7377""
","
","","","","","","null","<div style=""font-size:60px;"">+</div>","null","","fixation","","",""
"memory-trial","207","523852","0.0-18.0-1.81","6488","approach_avoid_sv1","""event"",""trial"",""time""
""fullscreenenter"",""1"",""7377""
","
","
","""event"",""trial"",""time""
""fullscreenenter"",""1"",""7377""
","
","","","","","","1592.300000011921","images/cactus4.png","","","memory_trial","1","definitely_old",""
"html-keyboard-response","208","524353","0.0-18.0-0.82","6488","approach_avoid_sv1","""event"",""trial"",""time""
""fullscreenenter"",""1"",""7377""
","
","
","""event"",""trial"",""time""
""fullscreenenter"",""1"",""7377""
","
","","","","","","null","<div style=""font-size:60px;"">+</div>","null","","fixation","","",""
"memory-trial","209","527399","0.0-18.0-1.82","6488","approach_avoid_sv1","""event"",""trial"",""time""
""fullscreenenter"",""1"",""7377""
","
","
","""event"",""trial"",""time""
""fullscreenenter"",""1"",""7377""
","
","","","","","","2042.6000000238419","images/rabbit6.png","","","memory_trial","2","maybe_old",""
"html-keyboard-response","210","527901","0.0-18.0-0.83","6488","approach_avoid_sv1","""event"",""trial"",""time""
""fullscreenenter"",""1"",""7377""
","
","
","""event"",""trial"",""time""
""fullscreenenter"",""1"",""7377""
","
","","","","","","null","<div style=""font-size:60px;"">+</div>","null","","fixation","","",""
"memory-trial","211","530620","0.0-18.0-1.83","6488","approach_avoid_sv1","""event"",""trial"",""time""
""fullscreenenter"",""1"",""7377""
","
","
","""event"",""trial"",""time""
""fullscreenenter"",""1"",""7377""
","
","","","","","","1717.699999988079","images/horse4.png","","","memory_trial","1","definitely_old",""
"html-keyboard-response","212","531122","0.0-18.0-0.84","6488","approach_avoid_sv1","""event"",""trial"",""time""
""fullscreenenter"",""1"",""7377""
","
","
","""event"",""trial"",""time""
""fullscreenenter"",""1"",""7377""
","
","","","","","","null","<div style=""font-size:60px;"">+</div>","null","","fixation","","",""
"memory-trial","213","533563","0.0-18.0-1.84","6488","approach_avoid_sv1","""event"",""trial"",""time""
""fullscreenenter"",""1"",""7377""
","
","
","""event"",""trial"",""time""
""fullscreenenter"",""1"",""7377""
","
","","","","","","1438.4000000357628","images/table2.png","","","memory_trial","1","definitely_old",""
"html-keyboard-response","214","534064","0.0-18.0-0.85","6488","approach_avoid_sv1","""event"",""trial"",""time""
""fullscreenenter"",""1"",""7377""
","
","
","""event"",""trial"",""time""
""fullscreenenter"",""1"",""7377""
","
","","","","","","null","<div style=""font-size:60px;"">+</div>","null","","fixation","","",""
"memory-trial","215","536804","0.0-18.0-1.85","6488","approach_avoid_sv1","""event"",""trial"",""time""
""fullscreenenter"",""1"",""7377""
","
","
","""event"",""trial"",""time""
""fullscreenenter"",""1"",""7377""
","
","","","","","","1737.7000000476837","images/rodent1.png","","","memory_trial","1","definitely_old",""
"html-keyboard-response","216","537305","0.0-18.0-0.86","6488","approach_avoid_sv1","""event"",""trial"",""time""
""fullscreenenter"",""1"",""7377""
","
","
","""event"",""trial"",""time""
""fullscreenenter"",""1"",""7377""
","
","","","","","","null","<div style=""font-size:60px;"">+</div>","null","","fixation","","",""
"memory-trial","217","539909","0.0-18.0-1.86","6488","approach_avoid_sv1","""event"",""trial"",""time""
""fullscreenenter"",""1"",""7377""
","
","
","""event"",""trial"",""time""
""fullscreenenter"",""1"",""7377""
","
","","","","","","1601.699999988079","images/banana1.png","","","memory_trial","2","maybe_old",""
"html-keyboard-response","218","540411","0.0-18.0-0.87","6488","approach_avoid_sv1","""event"",""trial"",""time""
""fullscreenenter"",""1"",""7377""
","
","
","""event"",""trial"",""time""
""fullscreenenter"",""1"",""7377""
","
","","","","","","null","<div style=""font-size:60px;"">+</div>","null","","fixation","","",""
"memory-trial","219","544086","0.0-18.0-1.87","6488","approach_avoid_sv1","""event"",""trial"",""time""
""fullscreenenter"",""1"",""7377""
","
","
","""event"",""trial"",""time""
""fullscreenenter"",""1"",""7377""
","
","","","","","","2673.300000011921","images/goat2.png","","","memory_trial","4","definitely_new",""
"html-keyboard-response","220","544587","0.0-18.0-0.88","6488","approach_avoid_sv1","""event"",""trial"",""time""
""fullscreenenter"",""1"",""7377""
","
","
","""event"",""trial"",""time""
""fullscreenenter"",""1"",""7377""
","
","","","","","","null","<div style=""font-size:60px;"">+</div>","null","","fixation","","",""
"memory-trial","221","546734","0.0-18.0-1.88","6488","approach_avoid_sv1","""event"",""trial"",""time""
""fullscreenenter"",""1"",""7377""
","
","
","""event"",""trial"",""time""
""fullscreenenter"",""1"",""7377""
","
","","","","","","1144","images/sheep8.png","","","memory_trial","4","definitely_new",""
"html-keyboard-response","222","547236","0.0-18.0-0.89","6488","approach_avoid_sv1","""event"",""trial"",""time""
""fullscreenenter"",""1"",""7377""
","
","
","""event"",""trial"",""time""
""fullscreenenter"",""1"",""7377""
","
","","","","","","null","<div style=""font-size:60px;"">+</div>","null","","fixation","","",""
"memory-trial","223","549361","0.0-18.0-1.89","6488","approach_avoid_sv1","""event"",""trial"",""time""
""fullscreenenter"",""1"",""7377""
","
","
","""event"",""trial"",""time""
""fullscreenenter"",""1"",""7377""
","
","","","","","","1122.8999999761581","images/rabbit1.png","","","memory_trial","4","definitely_new",""
"html-keyboard-response","224","549862","0.0-18.0-0.90","6488","approach_avoid_sv1","""event"",""trial"",""time""
""fullscreenenter"",""1"",""7377""
","
","
","""event"",""trial"",""time""
""fullscreenenter"",""1"",""7377""
","
","","","","","","null","<div style=""font-size:60px;"">+</div>","null","","fixation","","",""
"memory-trial","225","552092","0.0-18.0-1.90","6488","approach_avoid_sv1","""event"",""trial"",""time""
""fullscreenenter"",""1"",""7377""
","
","
","""event"",""trial"",""time""
""fullscreenenter"",""1"",""7377""
","
","","","","","","1227.4000000357628","images/horse6.png","","","memory_trial","1","definitely_old",""
"html-keyboard-response","226","552593","0.0-18.0-0.91","6488","approach_avoid_sv1","""event"",""trial"",""time""
""fullscreenenter"",""1"",""7377""
","
","
","""event"",""trial"",""time""
""fullscreenenter"",""1"",""7377""
","
","","","","","","null","<div style=""font-size:60px;"">+</div>","null","","fixation","","",""
"memory-trial","227","555248","0.0-18.0-1.91","6488","approach_avoid_sv1","""event"",""trial"",""time""
""fullscreenenter"",""1"",""7377""
","
","
","""event"",""trial"",""time""
""fullscreenenter"",""1"",""7377""
","
","","","","","","1652.3999999761581","images/sofa5.png","","","memory_trial","1","definitely_old",""
"html-button-response","228","575427","0.0-18.0-2.91-0.91","6488","approach_avoid_sv1","""event"",""trial"",""time""
""fullscreenenter"",""1"",""7377""
","
","
","""event"",""trial"",""time""
""fullscreenenter"",""1"",""7377""
","
","","","","","","20177.69999998808","<p> Take a break! </p><p> Click the button to continue. </p>","0","","break","","",""
"html-keyboard-response","229","575928","0.0-18.0-0.92","6488","approach_avoid_sv1","""event"",""trial"",""time""
""fullscreenenter"",""1"",""7377""
","
","
","""event"",""trial"",""time""
""fullscreenenter"",""1"",""7377""
","
","","","","","","null","<div style=""font-size:60px;"">+</div>","null","","fixation","","",""
"memory-trial","230","580227","0.0-18.0-1.92","6488","approach_avoid_sv1","""event"",""trial"",""time""
""fullscreenenter"",""1"",""7377""
","
","
","""event"",""trial"",""time""
""fullscreenenter"",""1"",""7377""
","
","","","","","","3296.099999964237","images/dog8.png","","","memory_trial","4","definitely_new",""
"html-keyboard-response","231","580728","0.0-18.0-0.93","6488","approach_avoid_sv1","""event"",""trial"",""time""
""fullscreenenter"",""1"",""7377""
","
","
","""event"",""trial"",""time""
""fullscreenenter"",""1"",""7377""
","
","","","","","","null","<div style=""font-size:60px;"">+</div>","null","","fixation","","",""
"memory-trial","232","583739","0.0-18.0-1.93","6488","approach_avoid_sv1","""event"",""trial"",""time""
""fullscreenenter"",""1"",""7377""
","
","
","""event"",""trial"",""time""
""fullscreenenter"",""1"",""7377""
","
","","","","","","2008.2000000476837","images/goat7.png","","","memory_trial","1","definitely_old",""
"html-keyboard-response","233","584241","0.0-18.0-0.94","6488","approach_avoid_sv1","""event"",""trial"",""time""
""fullscreenenter"",""1"",""7377""
","
","
","""event"",""trial"",""time""
""fullscreenenter"",""1"",""7377""
","
","","","","","","null","<div style=""font-size:60px;"">+</div>","null","","fixation","","",""
"memory-trial","234","586658","0.0-18.0-1.94","6488","approach_avoid_sv1","""event"",""trial"",""time""
""fullscreenenter"",""1"",""7377""
","
","
","""event"",""trial"",""time""
""fullscreenenter"",""1"",""7377""
","
","","","","","","1413.7000000476837","images/train1.png","","","memory_trial","1","definitely_old",""
"html-keyboard-response","235","587160","0.0-18.0-0.95","6488","approach_avoid_sv1","""event"",""trial"",""time""
""fullscreenenter"",""1"",""7377""
","
","
","""event"",""trial"",""time""
""fullscreenenter"",""1"",""7377""
","
","","","","","","null","<div style=""font-size:60px;"">+</div>","null","","fixation","","",""
"memory-trial","236","589394","0.0-18.0-1.95","6488","approach_avoid_sv1","""event"",""trial"",""time""
""fullscreenenter"",""1"",""7377""
","
","
","""event"",""trial"",""time""
""fullscreenenter"",""1"",""7377""
","
","","","","","","1230.3999999761581","images/flower4.png","","","memory_trial","1","definitely_old",""
"html-keyboard-response","237","589895","0.0-18.0-0.96","6488","approach_avoid_sv1","""event"",""trial"",""time""
""fullscreenenter"",""1"",""7377""
","
","
","""event"",""trial"",""time""
""fullscreenenter"",""1"",""7377""
","
","","","","","","null","<div style=""font-size:60px;"">+</div>","null","","fixation","","",""
"memory-trial","238","591991","0.0-18.0-1.96","6488","approach_avoid_sv1","""event"",""trial"",""time""
""fullscreenenter"",""1"",""7377""
","
","
","""event"",""trial"",""time""
""fullscreenenter"",""1"",""7377""
","
","","","","","","1093.8999999761581","images/goat1.png","","","memory_trial","4","definitely_new",""
"html-keyboard-response","239","592493","0.0-18.0-0.97","6488","approach_avoid_sv1","""event"",""trial"",""time""
""fullscreenenter"",""1"",""7377""
","
","
","""event"",""trial"",""time""
""fullscreenenter"",""1"",""7377""
","
","","","","","","null","<div style=""font-size:60px;"">+</div>","null","","fixation","","",""
"memory-trial","240","594919","0.0-18.0-1.97","6488","approach_avoid_sv1","""event"",""trial"",""time""
""fullscreenenter"",""1"",""7377""
","
","
","""event"",""trial"",""time""
""fullscreenenter"",""1"",""7377""
","
","","","","","","1424.2999999523163","images/horse3.png","","","memory_trial","1","definitely_old",""
"html-keyboard-response","241","595421","0.0-18.0-0.98","6488","approach_avoid_sv1","""event"",""trial"",""time""
""fullscreenenter"",""1"",""7377""
","
","
","""event"",""trial"",""time""
""fullscreenenter"",""1"",""7377""
","
","","","","","","null","<div style=""font-size:60px;"">+</div>","null","","fixation","","",""
"memory-trial","242","598936","0.0-18.0-1.98","6488","approach_avoid_sv1","""event"",""trial"",""time""
""fullscreenenter"",""1"",""7377""
","
","
","""event"",""trial"",""time""
""fullscreenenter"",""1"",""7377""
","
","","","","","","2510.899999976158","images/banana2.png","","","memory_trial","4","definitely_new",""
"html-keyboard-response","243","599437","0.0-18.0-0.99","6488","approach_avoid_sv1","""event"",""trial"",""time""
""fullscreenenter"",""1"",""7377""
","
","
","""event"",""trial"",""time""
""fullscreenenter"",""1"",""7377""
","
","","","","","","null","<div style=""font-size:60px;"">+</div>","null","","fixation","","",""
"memory-trial","244","601641","0.0-18.0-1.99","6488","approach_avoid_sv1","""event"",""trial"",""time""
""fullscreenenter"",""1"",""7377""
","
","
","""event"",""trial"",""time""
""fullscreenenter"",""1"",""7377""
","
","","","","","","1201.199999988079","images/chair1.png","","","memory_trial","1","definitely_old",""
"html-keyboard-response","245","602142","0.0-18.0-0.100","6488","approach_avoid_sv1","""event"",""trial"",""time""
""fullscreenenter"",""1"",""7377""
","
","
","""event"",""trial"",""time""
""fullscreenenter"",""1"",""7377""
","
","","","","","","null","<div style=""font-size:60px;"">+</div>","null","","fixation","","",""
"memory-trial","246","606208","0.0-18.0-1.100","6488","approach_avoid_sv1","""event"",""trial"",""time""
""fullscreenenter"",""1"",""7377""
","
","
","""event"",""trial"",""time""
""fullscreenenter"",""1"",""7377""
","
","","","","","","3063.600000023842","images/horse7.png","","","memory_trial","4","definitely_new",""
"html-keyboard-response","247","606710","0.0-18.0-0.101","6488","approach_avoid_sv1","""event"",""trial"",""time""
""fullscreenenter"",""1"",""7377""
","
","
","""event"",""trial"",""time""
""fullscreenenter"",""1"",""7377""
","
","","","","","","null","<div style=""font-size:60px;"">+</div>","null","","fixation","","",""
"memory-trial","248","609551","0.0-18.0-1.101","6488","approach_avoid_sv1","""event"",""trial"",""time""
""fullscreenenter"",""1"",""7377""
","
","
","""event"",""trial"",""time""
""fullscreenenter"",""1"",""7377""
","
","","","","","","1837.3999999761581","images/apple2.png","","","memory_trial","4","definitely_new",""
"html-keyboard-response","249","610052","0.0-18.0-0.102","6488","approach_avoid_sv1","""event"",""trial"",""time""
""fullscreenenter"",""1"",""7377""
","
","
","""event"",""trial"",""time""
""fullscreenenter"",""1"",""7377""
","
","","","","","","null","<div style=""font-size:60px;"">+</div>","null","","fixation","","",""
"memory-trial","250","613362","0.0-18.0-1.102","6488","approach_avoid_sv1","""event"",""trial"",""time""
""fullscreenenter"",""1"",""7377""
","
","
","""event"",""trial"",""time""
""fullscreenenter"",""1"",""7377""
","
","","","","","","2307.300000011921","images/sheep2.png","","","memory_trial","4","definitely_new",""
"html-keyboard-response","251","613865","0.0-18.0-0.103","6488","approach_avoid_sv1","""event"",""trial"",""time""
""fullscreenenter"",""1"",""7377""
","
","
","""event"",""trial"",""time""
""fullscreenenter"",""1"",""7377""
","
","","","","","","null","<div style=""font-size:60px;"">+</div>","null","","fixation","","",""
"memory-trial","252","617153","0.0-18.0-1.103","6488","approach_avoid_sv1","""event"",""trial"",""time""
""fullscreenenter"",""1"",""7377""
","
","
","""event"",""trial"",""time""
""fullscreenenter"",""1"",""7377""
","
","","","","","","2286.699999988079","images/truck2.png","","","memory_trial","4","definitely_new",""
"html-keyboard-response","253","617654","0.0-18.0-0.104","6488","approach_avoid_sv1","""event"",""trial"",""time""
""fullscreenenter"",""1"",""7377""
","
","
","""event"",""trial"",""time""
""fullscreenenter"",""1"",""7377""
","
","","","","","","null","<div style=""font-size:60px;"">+</div>","null","","fixation","","",""
"memory-trial","254","620274","0.0-18.0-1.104","6488","approach_avoid_sv1","""event"",""trial"",""time""
""fullscreenenter"",""1"",""7377""
","
","
","""event"",""trial"",""time""
""fullscreenenter"",""1"",""7377""
","
","","","","","","1616.800000011921","images/truck8.png","","","memory_trial","3","maybe_new",""
"html-keyboard-response","255","620775","0.0-18.0-0.105","6488","approach_avoid_sv1","""event"",""trial"",""time""
""fullscreenenter"",""1"",""7377""
","
","
","""event"",""trial"",""time""
""fullscreenenter"",""1"",""7377""
","
","","","","","","null","<div style=""font-size:60px;"">+</div>","null","","fixation","","",""
"memory-trial","256","623175","0.0-18.0-1.105","6488","approach_avoid_sv1","""event"",""trial"",""time""
""fullscreenenter"",""1"",""7377""
","
","
","""event"",""trial"",""time""
""fullscreenenter"",""1"",""7377""
","
","","","","","","1397.5","images/bed6.png","","","memory_trial","1","definitely_old",""
"html-keyboard-response","257","623676","0.0-18.0-0.106","6488","approach_avoid_sv1","""event"",""trial"",""time""
""fullscreenenter"",""1"",""7377""
","
","
","""event"",""trial"",""time""
""fullscreenenter"",""1"",""7377""
","
","","","","","","null","<div style=""font-size:60px;"">+</div>","null","","fixation","","",""
"memory-trial","258","625062","0.0-18.0-1.106","6488","approach_avoid_sv1","""event"",""trial"",""time""
""fullscreenenter"",""1"",""7377""
","
","
","""event"",""trial"",""time""
""fullscreenenter"",""1"",""7377""
","
","","","","","","383.60000002384186","images/boat3.png","","","memory_trial","2","maybe_old",""
"html-keyboard-response","259","625564","0.0-18.0-0.107","6488","approach_avoid_sv1","""event"",""trial"",""time""
""fullscreenenter"",""1"",""7377""
","
","
","""event"",""trial"",""time""
""fullscreenenter"",""1"",""7377""
","
","","","","","","null","<div style=""font-size:60px;"">+</div>","null","","fixation","","",""
"memory-trial","260","627805","0.0-18.0-1.107","6488","approach_avoid_sv1","""event"",""trial"",""time""
""fullscreenenter"",""1"",""7377""
","
","
","""event"",""trial"",""time""
""fullscreenenter"",""1"",""7377""
","
","","","","","","1238.300000011921","images/chair6.png","","","memory_trial","1","definitely_old",""
"html-keyboard-response","261","628306","0.0-18.0-0.108","6488","approach_avoid_sv1","""event"",""trial"",""time""
""fullscreenenter"",""1"",""7377""
","
","
","""event"",""trial"",""time""
""fullscreenenter"",""1"",""7377""
","
","","","","","","null","<div style=""font-size:60px;"">+</div>","null","","fixation","","",""
"memory-trial","262","630912","0.0-18.0-1.108","6488","approach_avoid_sv1","""event"",""trial"",""time""
""fullscreenenter"",""1"",""7377""
","
","
","""event"",""trial"",""time""
""fullscreenenter"",""1"",""7377""
","
","","","","","","1602.5","images/plane5.png","","","memory_trial","1","definitely_old",""
"html-keyboard-response","263","631413","0.0-18.0-0.109","6488","approach_avoid_sv1","""event"",""trial"",""time""
""fullscreenenter"",""1"",""7377""
","
","
","""event"",""trial"",""time""
""fullscreenenter"",""1"",""7377""
","
","","","","","","null","<div style=""font-size:60px;"">+</div>","null","","fixation","","",""
"memory-trial","264","634336","0.0-18.0-1.109","6488","approach_avoid_sv1","""event"",""trial"",""time""
""fullscreenenter"",""1"",""7377""
","
","
","""event"",""trial"",""time""
""fullscreenenter"",""1"",""7377""
","
","","","","","","1920.5999999642372","images/bush4.png","","","memory_trial","2","maybe_old",""
"html-keyboard-response","265","634837","0.0-18.0-0.110","6488","approach_avoid_sv1","""event"",""trial"",""time""
""fullscreenenter"",""1"",""7377""
","
","
","""event"",""trial"",""time""
""fullscreenenter"",""1"",""7377""
","
","","","","","","null","<div style=""font-size:60px;"">+</div>","null","","fixation","","",""
"memory-trial","266","636890","0.0-18.0-1.110","6488","approach_avoid_sv1","""event"",""trial"",""time""
""fullscreenenter"",""1"",""7377""
","
","
","""event"",""trial"",""time""
""fullscreenenter"",""1"",""7377""
","
","","","","","","1050.199999988079","images/straw7.png","","","memory_trial","2","maybe_old",""
"html-keyboard-response","267","637392","0.0-18.0-0.111","6488","approach_avoid_sv1","""event"",""trial"",""time""
""fullscreenenter"",""1"",""7377""
","
","
","""event"",""trial"",""time""
""fullscreenenter"",""1"",""7377""
","
","","","","","","null","<div style=""font-size:60px;"">+</div>","null","","fixation","","",""
"memory-trial","268","639218","0.0-18.0-1.111","6488","approach_avoid_sv1","""event"",""trial"",""time""
""fullscreenenter"",""1"",""7377""
","
","
","""event"",""trial"",""time""
""fullscreenenter"",""1"",""7377""
","
","","","","","","822.8999999761581","images/horse5.png","","","memory_trial","3","maybe_new",""
"html-keyboard-response","269","639719","0.0-18.0-0.112","6488","approach_avoid_sv1","""event"",""trial"",""time""
""fullscreenenter"",""1"",""7377""
","
","
","""event"",""trial"",""time""
""fullscreenenter"",""1"",""7377""
","
","","","","","","null","<div style=""font-size:60px;"">+</div>","null","","fixation","","",""
"memory-trial","270","641754","0.0-18.0-1.112","6488","approach_avoid_sv1","""event"",""trial"",""time""
""fullscreenenter"",""1"",""7377""
","
","
","""event"",""trial"",""time""
""fullscreenenter"",""1"",""7377""
","
","","","","","","1031.3999999761581","images/bed8.png","","","memory_trial","1","definitely_old",""
"html-keyboard-response","271","642255","0.0-18.0-0.113","6488","approach_avoid_sv1","""event"",""trial"",""time""
""fullscreenenter"",""1"",""7377""
","
","
","""event"",""trial"",""time""
""fullscreenenter"",""1"",""7377""
","
","","","","","","null","<div style=""font-size:60px;"">+</div>","null","","fixation","","",""
"memory-trial","272","644973","0.0-18.0-1.113","6488","approach_avoid_sv1","""event"",""trial"",""time""
""fullscreenenter"",""1"",""7377""
","
","
","""event"",""trial"",""time""
""fullscreenenter"",""1"",""7377""
","
","","","","","","1715.699999988079","images/horse2.png","","","memory_trial","1","definitely_old",""
"html-keyboard-response","273","645476","0.0-18.0-0.114","6488","approach_avoid_sv1","""event"",""trial"",""time""
""fullscreenenter"",""1"",""7377""
","
","
","""event"",""trial"",""time""
""fullscreenenter"",""1"",""7377""
","
","","","","","","null","<div style=""font-size:60px;"">+</div>","null","","fixation","","",""
"memory-trial","274","647618","0.0-18.0-1.114","6488","approach_avoid_sv1","""event"",""trial"",""time""
""fullscreenenter"",""1"",""7377""
","
","
","""event"",""trial"",""time""
""fullscreenenter"",""1"",""7377""
","
","","","","","","1140","images/dog7.png","","","memory_trial","2","maybe_old",""
"html-keyboard-response","275","648120","0.0-18.0-0.115","6488","approach_avoid_sv1","""event"",""trial"",""time""
""fullscreenenter"",""1"",""7377""
","
","
","""event"",""trial"",""time""
""fullscreenenter"",""1"",""7377""
","
","","","","","","null","<div style=""font-size:60px;"">+</div>","null","","fixation","","",""
"memory-trial","276","649698","0.0-18.0-1.115","6488","approach_avoid_sv1","""event"",""trial"",""time""
""fullscreenenter"",""1"",""7377""
","
","
","""event"",""trial"",""time""
""fullscreenenter"",""1"",""7377""
","
","","","","","","575.1000000238419","images/straw3.png","","","memory_trial","3","maybe_new",""
"html-keyboard-response","277","650200","0.0-18.0-0.116","6488","approach_avoid_sv1","""event"",""trial"",""time""
""fullscreenenter"",""1"",""7377""
","
","
","""event"",""trial"",""time""
""fullscreenenter"",""1"",""7377""
","
","","","","","","null","<div style=""font-size:60px;"">+</div>","null","","fixation","","",""
"memory-trial","278","653264","0.0-18.0-1.116","6488","approach_avoid_sv1","""event"",""trial"",""time""
""fullscreenenter"",""1"",""7377""
","
","
","""event"",""trial"",""time""
""fullscreenenter"",""1"",""7377""
","
","","","","","","2061.100000023842","images/rabbit5.png","","","memory_trial","4","definitely_new",""
"html-keyboard-response","279","653765","0.0-18.0-0.117","6488","approach_avoid_sv1","""event"",""trial"",""time""
""fullscreenenter"",""1"",""7377""
","
","
","""event"",""trial"",""time""
""fullscreenenter"",""1"",""7377""
","
","","","","","","null","<div style=""font-size:60px;"">+</div>","null","","fixation","","",""
"memory-trial","280","655847","0.0-18.0-1.117","6488","approach_avoid_sv1","""event"",""trial"",""time""
""fullscreenenter"",""1"",""7377""
","
","
","""event"",""trial"",""time""
""fullscreenenter"",""1"",""7377""
","
","","","","","","1079.8999999761581","images/cow8.png","","","memory_trial","4","definitely_new",""
"html-keyboard-response","281","656349","0.0-18.0-0.118","6488","approach_avoid_sv1","""event"",""trial"",""time""
""fullscreenenter"",""1"",""7377""
","
","
","""event"",""trial"",""time""
""fullscreenenter"",""1"",""7377""
","
","","","","","","null","<div style=""font-size:60px;"">+</div>","null","","fixation","","",""
"memory-trial","282","658813","0.0-18.0-1.118","6488","approach_avoid_sv1","""event"",""trial"",""time""
""fullscreenenter"",""1"",""7377""
","
","
","""event"",""trial"",""time""
""fullscreenenter"",""1"",""7377""
","
","","","","","","1461.5","images/rodent2.png","","","memory_trial","4","definitely_new",""
"html-keyboard-response","283","659314","0.0-18.0-0.119","6488","approach_avoid_sv1","""event"",""trial"",""time""
""fullscreenenter"",""1"",""7377""
","
","
","""event"",""trial"",""time""
""fullscreenenter"",""1"",""7377""
","
","","","","","","null","<div style=""font-size:60px;"">+</div>","null","","fixation","","",""
"memory-trial","284","661930","0.0-18.0-1.119","6488","approach_avoid_sv1","""event"",""trial"",""time""
""fullscreenenter"",""1"",""7377""
","
","
","""event"",""trial"",""time""
""fullscreenenter"",""1"",""7377""
","
","","","","","","1612.8999999761581","images/cow3.png","","","memory_trial","1","definitely_old",""
"html-keyboard-response","285","662431","0.0-18.0-0.120","6488","approach_avoid_sv1","""event"",""trial"",""time""
""fullscreenenter"",""1"",""7377""
","
","
","""event"",""trial"",""time""
""fullscreenenter"",""1"",""7377""
","
","","","","","","null","<div style=""font-size:60px;"">+</div>","null","","fixation","","",""
"memory-trial","286","664965","0.0-18.0-1.120","6488","approach_avoid_sv1","""event"",""trial"",""time""
""fullscreenenter"",""1"",""7377""
","
","
","""event"",""trial"",""time""
""fullscreenenter"",""1"",""7377""
","
","","","","","","1531","images/orange5.png","","","memory_trial","4","definitely_new",""
"html-keyboard-response","287","665466","0.0-18.0-0.121","6488","approach_avoid_sv1","""event"",""trial"",""time""
""fullscreenenter"",""1"",""7377""
","
","
","""event"",""trial"",""time""
""fullscreenenter"",""1"",""7377""
","
","","","","","","null","<div style=""font-size:60px;"">+</div>","null","","fixation","","",""
"memory-trial","288","668182","0.0-18.0-1.121","6488","approach_avoid_sv1","""event"",""trial"",""time""
""fullscreenenter"",""1"",""7377""
","
","
","""event"",""trial"",""time""
""fullscreenenter"",""1"",""7377""
","
","","","","","","1714.3999999761581","images/train8.png","","","memory_trial","4","definitely_new",""
"html-keyboard-response","289","668683","0.0-18.0-0.122","6488","approach_avoid_sv1","""event"",""trial"",""time""
""fullscreenenter"",""1"",""7377""
","
","
","""event"",""trial"",""time""
""fullscreenenter"",""1"",""7377""
","
","","","","","","null","<div style=""font-size:60px;"">+</div>","null","","fixation","","",""
"memory-trial","290","671362","0.0-18.0-1.122","6488","approach_avoid_sv1","""event"",""trial"",""time""
""fullscreenenter"",""1"",""7377""
","
","
","""event"",""trial"",""time""
""fullscreenenter"",""1"",""7377""
","
","","","","","","1676","images/banana3.png","","","memory_trial","4","definitely_new",""
"html-keyboard-response","291","671863","0.0-18.0-0.123","6488","approach_avoid_sv1","""event"",""trial"",""time""
""fullscreenenter"",""1"",""7377""
","
","
","""event"",""trial"",""time""
""fullscreenenter"",""1"",""7377""
","
","","","","","","null","<div style=""font-size:60px;"">+</div>","null","","fixation","","",""
"memory-trial","292","675157","0.0-18.0-1.123","6488","approach_avoid_sv1","""event"",""trial"",""time""
""fullscreenenter"",""1"",""7377""
","
","
","""event"",""trial"",""time""
""fullscreenenter"",""1"",""7377""
","
","","","","","","2291.099999964237","images/plane4.png","","","memory_trial","1","definitely_old",""
"html-keyboard-response","293","675659","0.0-18.0-0.124","6488","approach_avoid_sv1","""event"",""trial"",""time""
""fullscreenenter"",""1"",""7377""
","
","
","""event"",""trial"",""time""
""fullscreenenter"",""1"",""7377""
","
","","","","","","null","<div style=""font-size:60px;"">+</div>","null","","fixation","","",""
"memory-trial","294","677988","0.0-18.0-1.124","6488","approach_avoid_sv1","""event"",""trial"",""time""
""fullscreenenter"",""1"",""7377""
","
","
","""event"",""trial"",""time""
""fullscreenenter"",""1"",""7377""
","
","","","","","","1326.5999999642372","images/rabbit8.png","","","memory_trial","2","maybe_old",""
"html-keyboard-response","295","678490","0.0-18.0-0.125","6488","approach_avoid_sv1","""event"",""trial"",""time""
""fullscreenenter"",""1"",""7377""
","
","
","""event"",""trial"",""time""
""fullscreenenter"",""1"",""7377""
","
","","","","","","null","<div style=""font-size:60px;"">+</div>","null","","fixation","","",""
"memory-trial","296","680278","0.0-18.0-1.125","6488","approach_avoid_sv1","""event"",""trial"",""time""
""fullscreenenter"",""1"",""7377""
","
","
","""event"",""trial"",""time""
""fullscreenenter"",""1"",""7377""
","
","","","","","","785.2000000476837","images/tree5.png","","","memory_trial","2","maybe_old",""
