"trial_type","trial_index","time_elapsed","internal_node_id","subject_id","task_version","interactions","blur_events","focus_events","fullscreenenter_events","fullscreenexit_events","success","timeout","failed_images","failed_audio","failed_video","rt","stimulus","response","button_pressed","task_part","key_press","answer","correct"
"pavlovia","0","1","0.0-0.0","5836","approach_avoid_sv1","""event"",""trial"",""time""
""fullscreenenter"",""1"",""1728""
","
","
","""event"",""trial"",""time""
""fullscreenenter"",""1"",""1728""
","
","","","","","","","","","","","","",""
"fullscreen","1","2721","0.0-1.0","5836","approach_avoid_sv1","""event"",""trial"",""time""
""fullscreenenter"",""1"",""1728""
","
","
","""event"",""trial"",""time""
""fullscreenenter"",""1"",""1728""
","
","true","","","","","","","","","","","",""
"preload","2","19141","0.0-2.0","5836","approach_avoid_sv1","""event"",""trial"",""time""
""fullscreenenter"",""1"",""1728""
","
","
","""event"",""trial"",""time""
""fullscreenenter"",""1"",""1728""
","
","true","false","[]","[]","[]","","","","","","","",""
"preload","3","45849","0.0-3.0","5836","approach_avoid_sv1","""event"",""trial"",""time""
""fullscreenenter"",""1"",""1728""
","
","
","""event"",""trial"",""time""
""fullscreenenter"",""1"",""1728""
","
","true","false","[]","[]","[]","","","","","","","",""
"preload","4","47521","0.0-4.0","5836","approach_avoid_sv1","""event"",""trial"",""time""
""fullscreenenter"",""1"",""1728""
","
","
","""event"",""trial"",""time""
""fullscreenenter"",""1"",""1728""
","
","true","false","[]","[]","[]","","","","","","","",""
"audio-keyboard-response","5","50628","0.0-5.0","5836","approach_avoid_sv1","""event"",""trial"",""time""
""fullscreenenter"",""1"",""1728""
","
","
","""event"",""trial"",""time""
""fullscreenenter"",""1"",""1728""
","
","","","","","","2757.333333333328","audio/beep_loop.wav"," ","","","","",""
"audio-button-response","6","52300","0.0-6.0","5836","approach_avoid_sv1","""event"",""trial"",""time""
""fullscreenenter"",""1"",""1728""
","
","
","""event"",""trial"",""time""
""fullscreenenter"",""1"",""1728""
","
","","","","","","1669","audio/turtle.wav","3","","","","",""
"audio-button-response","7","55052","0.0-7.0","5836","approach_avoid_sv1","""event"",""trial"",""time""
""fullscreenenter"",""1"",""1728""
","
","
","""event"",""trial"",""time""
""fullscreenenter"",""1"",""1728""
","
","","","","","","1744","audio/shark.wav","2","","","","",""
"preload","8","73626","0.0-8.0","5836","approach_avoid_sv1","""event"",""trial"",""time""
""fullscreenenter"",""1"",""1728""
","
","
","""event"",""trial"",""time""
""fullscreenenter"",""1"",""1728""
","
","true","false","[]","[]","[]","","","","","","","",""
"learning-instructions","9","79687","0.0-9.0-0.0","5836","approach_avoid_sv1","""event"",""trial"",""time""
""fullscreenenter"",""1"",""1728""
","
","
","""event"",""trial"",""time""
""fullscreenenter"",""1"",""1728""
","
","","","","","","1577.7999999523163","<p> Welcome back! </p><p> Last week, you had to make choices about lots of different items.  </p>","","0","instructions","","",""
"learning-instructions","10","84369","0.0-9.0-0.1","5836","approach_avoid_sv1","""event"",""trial"",""time""
""fullscreenenter"",""1"",""1728""
","
","
","""event"",""trial"",""time""
""fullscreenenter"",""1"",""1728""
","
","","","","","","570.3000000119209","<p> Today, we are going to ask you to try to remember all the items. </p>","","0","instructions","","",""
"learning-instructions","11","95435","0.0-9.0-0.2","5836","approach_avoid_sv1","""event"",""trial"",""time""
""fullscreenenter"",""1"",""1728""
","
","
","""event"",""trial"",""time""
""fullscreenenter"",""1"",""1728""
","
","","","","","","928.2000000476837","<p> On every trial, you will see an image. </p><p> The image may be an OLD image you saw during the games last week or it may be a NEW image that was not presented. </p>","","0","instructions","","",""
"learning-instructions","12","104519","0.0-9.0-0.3","5836","approach_avoid_sv1","""event"",""trial"",""time""
""fullscreenenter"",""1"",""1728""
","
","
","""event"",""trial"",""time""
""fullscreenenter"",""1"",""1728""
","
","","","","","","580.5","<p> You need to select whether the image is:  </p><p>  'Definitely old', 'Maybe old', 'Maybe new', or 'Definitely new.'  </p><div class=""mem-choice-instructions-grid""><div class=""choice-option"" id=""choice-option-1"" ><img src=""images/definitely_old_1.png"" id=""choice-option-img-1"" class=""choice-option-img"" stage=""1""></div><div class=""choice-option"" id=""choice-option-2"" ><img src=""images/maybe_old_1.png"" id=""choice-option-img-2"" class=""choice-option-img"" stage=""1""></div><div class=""choice-option"" id=""choice-option-3"" ><img src=""images/maybe_new_1.png"" id=""choice-option-img-3"" class=""choice-option-img"" stage=""1""></div><div class=""choice-option"" id=""choice-option-4"" > <img src=""images/definitely_new_1.png"" id=""choice-option-img-4"" class=""choice-option-img"" stage=""1""></div></div>","","0","instructions","","",""
"learning-instructions","13","111819","0.0-9.0-0.4","5836","approach_avoid_sv1","""event"",""trial"",""time""
""fullscreenenter"",""1"",""1728""
","
","
","""event"",""trial"",""time""
""fullscreenenter"",""1"",""1728""
","
","","","","","","787.8999999761581","<p> You should use the 1, 2, 3, and 4 keys to make your responses.  </p><div class=""mem-choice-instructions-grid""><div class=""choice-option"" id=""choice-option-1"" ><img src=""images/definitely_old.png"" id=""choice-option-img-1"" class=""choice-option-img"" stage=""1""></div><div class=""choice-option"" id=""choice-option-2"" ><img src=""images/maybe_old.png"" id=""choice-option-img-2"" class=""choice-option-img"" stage=""1""></div><div class=""choice-option"" id=""choice-option-3"" ><img src=""images/maybe_new.png"" id=""choice-option-img-3"" class=""choice-option-img"" stage=""1""></div><div class=""choice-option"" id=""choice-option-4"" > <img src=""images/definitely_new.png"" id=""choice-option-img-4"" class=""choice-option-img"" stage=""1""></div></div>","","0","instructions","","",""
"learning-instructions","14","119102","0.0-9.0-0.5","5836","approach_avoid_sv1","""event"",""trial"",""time""
""fullscreenenter"",""1"",""1728""
","
","
","""event"",""trial"",""time""
""fullscreenenter"",""1"",""1728""
","
","","","","","","958.1000000238419","<p> You will have 10 seconds to make each response.  </p><p>  Make sure to respond before time runs out! </p>","","0","instructions","","",""
"learning-instructions","15","126852","0.0-9.0-0.6","5836","approach_avoid_sv1","""event"",""trial"",""time""
""fullscreenenter"",""1"",""1728""
","
","
","""event"",""trial"",""time""
""fullscreenenter"",""1"",""1728""
","
","","","","","","676.5","<p> Today, you will see each image ONCE only.  </p><p>  That means none of the images will repeat. </p>","","0","instructions","","",""
"learning-instructions","16","140020","0.0-9.0-0.7","5836","approach_avoid_sv1","""event"",""trial"",""time""
""fullscreenenter"",""1"",""1728""
","
","
","""event"",""trial"",""time""
""fullscreenenter"",""1"",""1728""
","
","","","","","","492.30000001192093","<p> Before you play the real game, it is time to practice. </p><p>  Just like in the real game, some of the images in the practice will be ones you have seen before. </p><p>  Others will be entirely new. </p>","","0","instructions","","",""
"html-button-response","17","142102","0.0-10.0","5836","approach_avoid_sv1","""event"",""trial"",""time""
""fullscreenenter"",""1"",""1728""
","
","
","""event"",""trial"",""time""
""fullscreenenter"",""1"",""1728""
","
","","","","","","1973.5","<p> Ready to practice? </p><p> Remember, use the 1, 2, 3, and 4 keys to make your responses. </p>","0","","instructions","","",""
"html-keyboard-response","18","142711","0.0-11.0-0.0","5836","approach_avoid_sv1","""event"",""trial"",""time""
""fullscreenenter"",""1"",""1728""
","
","
","""event"",""trial"",""time""
""fullscreenenter"",""1"",""1728""
","
","","","","","","null","<div style=""font-size:60px;"">+</div>","null","","fixation","","",""
"memory-trial","19","149871","0.0-11.0-1.0","5836","approach_avoid_sv1","""event"",""trial"",""time""
""fullscreenenter"",""1"",""1728""
","
","
","""event"",""trial"",""time""
""fullscreenenter"",""1"",""1728""
","
","","","","","","6146.900000035763","images/racket1.png","","","practice","1","definitely_old",""
"html-keyboard-response","20","150378","0.0-11.0-0.1","5836","approach_avoid_sv1","""event"",""trial"",""time""
""fullscreenenter"",""1"",""1728""
","
","
","""event"",""trial"",""time""
""fullscreenenter"",""1"",""1728""
","
","","","","","","null","<div style=""font-size:60px;"">+</div>","null","","fixation","","",""
"memory-trial","21","154788","0.0-11.0-1.1","5836","approach_avoid_sv1","""event"",""trial"",""time""
""fullscreenenter"",""1"",""1728""
","
","
","""event"",""trial"",""time""
""fullscreenenter"",""1"",""1728""
","
","","","","","","3400.599999964237","images/ball2.png","","","practice","3","maybe_new",""
"html-keyboard-response","22","155290","0.0-11.0-0.2","5836","approach_avoid_sv1","""event"",""trial"",""time""
""fullscreenenter"",""1"",""1728""
","
","
","""event"",""trial"",""time""
""fullscreenenter"",""1"",""1728""
","
","","","","","","null","<div style=""font-size:60px;"">+</div>","null","","fixation","","",""
"memory-trial","23","159576","0.0-11.0-1.2","5836","approach_avoid_sv1","""event"",""trial"",""time""
""fullscreenenter"",""1"",""1728""
","
","
","""event"",""trial"",""time""
""fullscreenenter"",""1"",""1728""
","
","","","","","","3281.5","images/racket5.png","","","practice","4","definitely_new",""
"html-keyboard-response","24","160082","0.0-11.0-0.3","5836","approach_avoid_sv1","""event"",""trial"",""time""
""fullscreenenter"",""1"",""1728""
","
","
","""event"",""trial"",""time""
""fullscreenenter"",""1"",""1728""
","
","","","","","","null","<div style=""font-size:60px;"">+</div>","null","","fixation","","",""
"memory-trial","25","163203","0.0-11.0-1.3","5836","approach_avoid_sv1","""event"",""trial"",""time""
""fullscreenenter"",""1"",""1728""
","
","
","""event"",""trial"",""time""
""fullscreenenter"",""1"",""1728""
","
","","","","","","2113.100000023842","images/ball1.png","","","practice","1","definitely_old",""
"html-keyboard-response","26","163709","0.0-11.0-0.4","5836","approach_avoid_sv1","""event"",""trial"",""time""
""fullscreenenter"",""1"",""1728""
","
","
","""event"",""trial"",""time""
""fullscreenenter"",""1"",""1728""
","
","","","","","","null","<div style=""font-size:60px;"">+</div>","null","","fixation","","",""
"memory-trial","27","166974","0.0-11.0-1.4","5836","approach_avoid_sv1","""event"",""trial"",""time""
""fullscreenenter"",""1"",""1728""
","
","
","""event"",""trial"",""time""
""fullscreenenter"",""1"",""1728""
","
","","","","","","2258.600000023842","images/racket2.png","","","practice","4","definitely_new",""
"html-keyboard-response","28","167480","0.0-11.0-0.5","5836","approach_avoid_sv1","""event"",""trial"",""time""
""fullscreenenter"",""1"",""1728""
","
","
","""event"",""trial"",""time""
""fullscreenenter"",""1"",""1728""
","
","","","","","","null","<div style=""font-size:60px;"">+</div>","null","","fixation","","",""
"memory-trial","29","172864","0.0-11.0-1.5","5836","approach_avoid_sv1","""event"",""trial"",""time""
""fullscreenenter"",""1"",""1728""
","
","
","""event"",""trial"",""time""
""fullscreenenter"",""1"",""1728""
","
","","","","","","4377.399999976158","images/ball3.png","","","practice","3","maybe_new",""
"html-keyboard-response","30","173367","0.0-11.0-0.6","5836","approach_avoid_sv1","""event"",""trial"",""time""
""fullscreenenter"",""1"",""1728""
","
","
","""event"",""trial"",""time""
""fullscreenenter"",""1"",""1728""
","
","","","","","","null","<div style=""font-size:60px;"">+</div>","null","","fixation","","",""
"memory-trial","31","178565","0.0-11.0-1.6","5836","approach_avoid_sv1","""event"",""trial"",""time""
""fullscreenenter"",""1"",""1728""
","
","
","""event"",""trial"",""time""
""fullscreenenter"",""1"",""1728""
","
","","","","","","4190.099999964237","images/ball5.png","","","practice","4","definitely_new",""
"html-keyboard-response","32","179072","0.0-11.0-0.7","5836","approach_avoid_sv1","""event"",""trial"",""time""
""fullscreenenter"",""1"",""1728""
","
","
","""event"",""trial"",""time""
""fullscreenenter"",""1"",""1728""
","
","","","","","","null","<div style=""font-size:60px;"">+</div>","null","","fixation","","",""
"memory-trial","33","181995","0.0-11.0-1.7","5836","approach_avoid_sv1","""event"",""trial"",""time""
""fullscreenenter"",""1"",""1728""
","
","
","""event"",""trial"",""time""
""fullscreenenter"",""1"",""1728""
","
","","","","","","1918.6000000238419","images/racket3.png","","","practice","1","definitely_old",""
"learning-instructions","34","191368","0.0-12.0-0.0","5836","approach_avoid_sv1","""event"",""trial"",""time""
""fullscreenenter"",""1"",""1728""
","
","
","""event"",""trial"",""time""
""fullscreenenter"",""1"",""1728""
","
","","","","","","1707.300000011921","<p> Great! You have completed the practice. </p><p> Before you start, we're going to ask you a few questions about how the game works.  </p>","","0","instructions","","",""
"preload","35","199210","0.0-13.0","5836","approach_avoid_sv1","""event"",""trial"",""time""
""fullscreenenter"",""1"",""1728""
","
","
","""event"",""trial"",""time""
""fullscreenenter"",""1"",""1728""
","
","true","false","[]","[]","[]","","","","","","","",""
"comp-q","36","206468","0.0-14.0-0.0","5836","approach_avoid_sv1","""event"",""trial"",""time""
""fullscreenenter"",""1"",""1728""
","
","
","""event"",""trial"",""time""
""fullscreenenter"",""1"",""1728""
","
","","","","","","1426.199999988079","<p> <b> True or False? </b> </p><p> In this game, you will only see each image once. </p>","","0","comp_question","","","true"
"comp-q","37","214536","0.0-14.0-1.0","5836","approach_avoid_sv1","""event"",""trial"",""time""
""fullscreenenter"",""1"",""1728""
","
","
","""event"",""trial"",""time""
""fullscreenenter"",""1"",""1728""
","
","","","","","","1729.699999988079","<p> <b> That's right! </b> You will see many different images <i> one time each </i> in this game. </p>","","0","comp_answer","","",""
"comp-q","38","220885","0.0-15.0-0.0","5836","approach_avoid_sv1","""event"",""trial"",""time""
""fullscreenenter"",""1"",""1728""
","
","
","""event"",""trial"",""time""
""fullscreenenter"",""1"",""1728""
","
","","","","","","1338.1000000238419","<p> <b> True or False? </b> </p><p> You should use the mouse and click to make your response. </p>","","1","comp_question","","","true"
"comp-q","39","228318","0.0-15.0-1.0","5836","approach_avoid_sv1","""event"",""trial"",""time""
""fullscreenenter"",""1"",""1728""
","
","
","""event"",""trial"",""time""
""fullscreenenter"",""1"",""1728""
","
","","","","","","931.3999999761581","<p><b> That's right! </b> You should use the '1', '2', '3', and '4' keys to make your response. </p>","","0","comp_answer","","",""
"comp-q","40","235202","0.0-16.0-0.0","5836","approach_avoid_sv1","""event"",""trial"",""time""
""fullscreenenter"",""1"",""1728""
","
","
","""event"",""trial"",""time""
""fullscreenenter"",""1"",""1728""
","
","","","","","","1201.6000000238419","<p> <b> True or False? </b> </p><p> You will have as much time as you want to make each choice. </p>","","1","comp_question","","","true"
"comp-q","41","240734","0.0-16.0-1.0","5836","approach_avoid_sv1","""event"",""trial"",""time""
""fullscreenenter"",""1"",""1728""
","
","
","""event"",""trial"",""time""
""fullscreenenter"",""1"",""1728""
","
","","","","","","835.8000000119209","<p> <b> That's right! </b> You will only have 10 seconds to make each choice. </p>","","0","comp_answer","","",""
"learning-instructions","42","250718","0.0-17.0","5836","approach_avoid_sv1","""event"",""trial"",""time""
""fullscreenenter"",""1"",""1728""
","
","
","""event"",""trial"",""time""
""fullscreenenter"",""1"",""1728""
","
","","","","","","1314.7000000476837","<p> Great! You are now ready to begin the game. </p><p> Remember, use the 1, 2, 3, and 4 keys to make your responses. </p>","","0","instructions","","",""
"html-keyboard-response","43","251327","0.0-18.0-0.0","5836","approach_avoid_sv1","""event"",""trial"",""time""
""fullscreenenter"",""1"",""1728""
","
","
","""event"",""trial"",""time""
""fullscreenenter"",""1"",""1728""
","
","","","","","","null","<div style=""font-size:60px;"">+</div>","null","","fixation","","",""
"memory-trial","44","255087","0.0-18.0-1.0","5836","approach_avoid_sv1","""event"",""trial"",""time""
""fullscreenenter"",""1"",""1728""
","
","
","""event"",""trial"",""time""
""fullscreenenter"",""1"",""1728""
","
","","","","","","2747.600000023842","images/dog7.png","","","memory_trial","4","definitely_new",""
"html-keyboard-response","45","255593","0.0-18.0-0.1","5836","approach_avoid_sv1","""event"",""trial"",""time""
""fullscreenenter"",""1"",""1728""
","
","
","""event"",""trial"",""time""
""fullscreenenter"",""1"",""1728""
","
","","","","","","null","<div style=""font-size:60px;"">+</div>","null","","fixation","","",""
"memory-trial","46","258107","0.0-18.0-1.1","5836","approach_avoid_sv1","""event"",""trial"",""time""
""fullscreenenter"",""1"",""1728""
","
","
","""event"",""trial"",""time""
""fullscreenenter"",""1"",""1728""
","
","","","","","","1506.699999988079","images/orange6.png","","","memory_trial","1","definitely_old",""
"html-keyboard-response","47","258614","0.0-18.0-0.2","5836","approach_avoid_sv1","""event"",""trial"",""time""
""fullscreenenter"",""1"",""1728""
","
","
","""event"",""trial"",""time""
""fullscreenenter"",""1"",""1728""
","
","","","","","","null","<div style=""font-size:60px;"">+</div>","null","","fixation","","",""
"memory-trial","48","261222","0.0-18.0-1.2","5836","approach_avoid_sv1","""event"",""trial"",""time""
""fullscreenenter"",""1"",""1728""
","
","
","""event"",""trial"",""time""
""fullscreenenter"",""1"",""1728""
","
","","","","","","1601.2000000476837","images/flower4.png","","","memory_trial","4","definitely_new",""
"html-keyboard-response","49","261729","0.0-18.0-0.3","5836","approach_avoid_sv1","""event"",""trial"",""time""
""fullscreenenter"",""1"",""1728""
","
","
","""event"",""trial"",""time""
""fullscreenenter"",""1"",""1728""
","
","","","","","","null","<div style=""font-size:60px;"">+</div>","null","","fixation","","",""
"memory-trial","50","264465","0.0-18.0-1.3","5836","approach_avoid_sv1","""event"",""trial"",""time""
""fullscreenenter"",""1"",""1728""
","
","
","""event"",""trial"",""time""
""fullscreenenter"",""1"",""1728""
","
","","","","","","1726.300000011921","images/chair6.png","","","memory_trial","1","definitely_old",""
"html-keyboard-response","51","264971","0.0-18.0-0.4","5836","approach_avoid_sv1","""event"",""trial"",""time""
""fullscreenenter"",""1"",""1728""
","
","
","""event"",""trial"",""time""
""fullscreenenter"",""1"",""1728""
","
","","","","","","null","<div style=""font-size:60px;"">+</div>","null","","fixation","","",""
"memory-trial","52","267263","0.0-18.0-1.4","5836","approach_avoid_sv1","""event"",""trial"",""time""
""fullscreenenter"",""1"",""1728""
","
","
","""event"",""trial"",""time""
""fullscreenenter"",""1"",""1728""
","
","","","","","","1284.199999988079","images/train7.png","","","memory_trial","1","definitely_old",""
"html-keyboard-response","53","267769","0.0-18.0-0.5","5836","approach_avoid_sv1","""event"",""trial"",""time""
""fullscreenenter"",""1"",""1728""
","
","
","""event"",""trial"",""time""
""fullscreenenter"",""1"",""1728""
","
","","","","","","null","<div style=""font-size:60px;"">+</div>","null","","fixation","","",""
"memory-trial","54","270081","0.0-18.0-1.5","5836","approach_avoid_sv1","""event"",""trial"",""time""
""fullscreenenter"",""1"",""1728""
","
","
","""event"",""trial"",""time""
""fullscreenenter"",""1"",""1728""
","
","","","","","","1303.3999999761581","images/horse6.png","","","memory_trial","1","definitely_old",""
"html-keyboard-response","55","270586","0.0-18.0-0.6","5836","approach_avoid_sv1","""event"",""trial"",""time""
""fullscreenenter"",""1"",""1728""
","
","
","""event"",""trial"",""time""
""fullscreenenter"",""1"",""1728""
","
","","","","","","null","<div style=""font-size:60px;"">+</div>","null","","fixation","","",""
"memory-trial","56","274184","0.0-18.0-1.6","5836","approach_avoid_sv1","""event"",""trial"",""time""
""fullscreenenter"",""1"",""1728""
","
","
","""event"",""trial"",""time""
""fullscreenenter"",""1"",""1728""
","
","","","","","","2589.100000023842","images/train1.png","","","memory_trial","2","maybe_old",""
"html-keyboard-response","57","274690","0.0-18.0-0.7","5836","approach_avoid_sv1","""event"",""trial"",""time""
""fullscreenenter"",""1"",""1728""
","
","
","""event"",""trial"",""time""
""fullscreenenter"",""1"",""1728""
","
","","","","","","null","<div style=""font-size:60px;"">+</div>","null","","fixation","","",""
"memory-trial","58","276935","0.0-18.0-1.7","5836","approach_avoid_sv1","""event"",""trial"",""time""
""fullscreenenter"",""1"",""1728""
","
","
","""event"",""trial"",""time""
""fullscreenenter"",""1"",""1728""
","
","","","","","","1240.800000011921","images/rodent7.png","","","memory_trial","1","definitely_old",""
"html-keyboard-response","59","277437","0.0-18.0-0.8","5836","approach_avoid_sv1","""event"",""trial"",""time""
""fullscreenenter"",""1"",""1728""
","
","
","""event"",""trial"",""time""
""fullscreenenter"",""1"",""1728""
","
","","","","","","null","<div style=""font-size:60px;"">+</div>","null","","fixation","","",""
"memory-trial","60","279975","0.0-18.0-1.8","5836","approach_avoid_sv1","""event"",""trial"",""time""
""fullscreenenter"",""1"",""1728""
","
","
","""event"",""trial"",""time""
""fullscreenenter"",""1"",""1728""
","
","","","","","","1531.699999988079","images/plane3.png","","","memory_trial","1","definitely_old",""
"html-keyboard-response","61","280478","0.0-18.0-0.9","5836","approach_avoid_sv1","""event"",""trial"",""time""
""fullscreenenter"",""1"",""1728""
","
","
","""event"",""trial"",""time""
""fullscreenenter"",""1"",""1728""
","
","","","","","","null","<div style=""font-size:60px;"">+</div>","null","","fixation","","",""
"memory-trial","62","282318","0.0-18.0-1.9","5836","approach_avoid_sv1","""event"",""trial"",""time""
""fullscreenenter"",""1"",""1728""
","
","
","""event"",""trial"",""time""
""fullscreenenter"",""1"",""1728""
","
","","","","","","832","images/table5.png","","","memory_trial","1","definitely_old",""
"html-keyboard-response","63","282821","0.0-18.0-0.10","5836","approach_avoid_sv1","""event"",""trial"",""time""
""fullscreenenter"",""1"",""1728""
","
","
","""event"",""trial"",""time""
""fullscreenenter"",""1"",""1728""
","
","","","","","","null","<div style=""font-size:60px;"">+</div>","null","","fixation","","",""
"memory-trial","64","284729","0.0-18.0-1.10","5836","approach_avoid_sv1","""event"",""trial"",""time""
""fullscreenenter"",""1"",""1728""
","
","
","""event"",""trial"",""time""
""fullscreenenter"",""1"",""1728""
","
","","","","","","903.9000000357628","images/orange8.png","","","memory_trial","1","definitely_old",""
"html-keyboard-response","65","285230","0.0-18.0-0.11","5836","approach_avoid_sv1","""event"",""trial"",""time""
""fullscreenenter"",""1"",""1728""
","
","
","""event"",""trial"",""time""
""fullscreenenter"",""1"",""1728""
","
","","","","","","null","<div style=""font-size:60px;"">+</div>","null","","fixation","","",""
"memory-trial","66","289198","0.0-18.0-1.11","5836","approach_avoid_sv1","""event"",""trial"",""time""
""fullscreenenter"",""1"",""1728""
","
","
","""event"",""trial"",""time""
""fullscreenenter"",""1"",""1728""
","
","","","","","","2965.100000023842","images/banana6.png","","","memory_trial","4","definitely_new",""
"html-keyboard-response","67","289702","0.0-18.0-0.12","5836","approach_avoid_sv1","""event"",""trial"",""time""
""fullscreenenter"",""1"",""1728""
","
","
","""event"",""trial"",""time""
""fullscreenenter"",""1"",""1728""
","
","","","","","","null","<div style=""font-size:60px;"">+</div>","null","","fixation","","",""
"memory-trial","68","291811","0.0-18.0-1.12","5836","approach_avoid_sv1","""event"",""trial"",""time""
""fullscreenenter"",""1"",""1728""
","
","
","""event"",""trial"",""time""
""fullscreenenter"",""1"",""1728""
","
","","","","","","1099.4000000357628","images/cow4.png","","","memory_trial","1","definitely_old",""
"html-keyboard-response","69","292318","0.0-18.0-0.13","5836","approach_avoid_sv1","""event"",""trial"",""time""
""fullscreenenter"",""1"",""1728""
","
","
","""event"",""trial"",""time""
""fullscreenenter"",""1"",""1728""
","
","","","","","","null","<div style=""font-size:60px;"">+</div>","null","","fixation","","",""
"memory-trial","70","294163","0.0-18.0-1.13","5836","approach_avoid_sv1","""event"",""trial"",""time""
""fullscreenenter"",""1"",""1728""
","
","
","""event"",""trial"",""time""
""fullscreenenter"",""1"",""1728""
","
","","","","","","838.8999999761581","images/chair3.png","","","memory_trial","1","definitely_old",""
"html-keyboard-response","71","294670","0.0-18.0-0.14","5836","approach_avoid_sv1","""event"",""trial"",""time""
""fullscreenenter"",""1"",""1728""
","
","
","""event"",""trial"",""time""
""fullscreenenter"",""1"",""1728""
","
","","","","","","null","<div style=""font-size:60px;"">+</div>","null","","fixation","","",""
"memory-trial","72","297999","0.0-18.0-1.14","5836","approach_avoid_sv1","""event"",""trial"",""time""
""fullscreenenter"",""1"",""1728""
","
","
","""event"",""trial"",""time""
""fullscreenenter"",""1"",""1728""
","
","","","","","","2325.599999964237","images/plane2.png","","","memory_trial","4","definitely_new",""
"html-keyboard-response","73","298504","0.0-18.0-0.15","5836","approach_avoid_sv1","""event"",""trial"",""time""
""fullscreenenter"",""1"",""1728""
","
","
","""event"",""trial"",""time""
""fullscreenenter"",""1"",""1728""
","
","","","","","","null","<div style=""font-size:60px;"">+</div>","null","","fixation","","",""
"memory-trial","74","300446","0.0-18.0-1.15","5836","approach_avoid_sv1","""event"",""trial"",""time""
""fullscreenenter"",""1"",""1728""
","
","
","""event"",""trial"",""time""
""fullscreenenter"",""1"",""1728""
","
","","","","","","934.0999999642372","images/straw6.png","","","memory_trial","1","definitely_old",""
"html-keyboard-response","75","300952","0.0-18.0-0.16","5836","approach_avoid_sv1","""event"",""trial"",""time""
""fullscreenenter"",""1"",""1728""
","
","
","""event"",""trial"",""time""
""fullscreenenter"",""1"",""1728""
","
","","","","","","null","<div style=""font-size:60px;"">+</div>","null","","fixation","","",""
"memory-trial","76","302798","0.0-18.0-1.16","5836","approach_avoid_sv1","""event"",""trial"",""time""
""fullscreenenter"",""1"",""1728""
","
","
","""event"",""trial"",""time""
""fullscreenenter"",""1"",""1728""
","
","","","","","","838.6000000238419","images/rodent1.png","","","memory_trial","1","definitely_old",""
"html-keyboard-response","77","303304","0.0-18.0-0.17","5836","approach_avoid_sv1","""event"",""trial"",""time""
""fullscreenenter"",""1"",""1728""
","
","
","""event"",""trial"",""time""
""fullscreenenter"",""1"",""1728""
","
","","","","","","null","<div style=""font-size:60px;"">+</div>","null","","fixation","","",""
"memory-trial","78","307560","0.0-18.0-1.17","5836","approach_avoid_sv1","""event"",""trial"",""time""
""fullscreenenter"",""1"",""1728""
","
","
","""event"",""trial"",""time""
""fullscreenenter"",""1"",""1728""
","
","","","","","","3250.300000011921","images/train6.png","","","memory_trial","2","maybe_old",""
"html-keyboard-response","79","308061","0.0-18.0-0.18","5836","approach_avoid_sv1","""event"",""trial"",""time""
""fullscreenenter"",""1"",""1728""
","
","
","""event"",""trial"",""time""
""fullscreenenter"",""1"",""1728""
","
","","","","","","null","<div style=""font-size:60px;"">+</div>","null","","fixation","","",""
"memory-trial","80","310420","0.0-18.0-1.18","5836","approach_avoid_sv1","""event"",""trial"",""time""
""fullscreenenter"",""1"",""1728""
","
","
","""event"",""trial"",""time""
""fullscreenenter"",""1"",""1728""
","
","","","","","","1352.1000000238419","images/truck4.png","","","memory_trial","4","definitely_new",""
"html-keyboard-response","81","310926","0.0-18.0-0.19","5836","approach_avoid_sv1","""event"",""trial"",""time""
""fullscreenenter"",""1"",""1728""
","
","
","""event"",""trial"",""time""
""fullscreenenter"",""1"",""1728""
","
","","","","","","null","<div style=""font-size:60px;"">+</div>","null","","fixation","","",""
"memory-trial","82","315875","0.0-18.0-1.19","5836","approach_avoid_sv1","""event"",""trial"",""time""
""fullscreenenter"",""1"",""1728""
","
","
","""event"",""trial"",""time""
""fullscreenenter"",""1"",""1728""
","
","","","","","","3940.800000011921","images/goat8.png","","","memory_trial","4","definitely_new",""
"html-keyboard-response","83","316381","0.0-18.0-0.20","5836","approach_avoid_sv1","""event"",""trial"",""time""
""fullscreenenter"",""1"",""1728""
","
","
","""event"",""trial"",""time""
""fullscreenenter"",""1"",""1728""
","
","","","","","","null","<div style=""font-size:60px;"">+</div>","null","","fixation","","",""
"memory-trial","84","318269","0.0-18.0-1.20","5836","approach_avoid_sv1","""event"",""trial"",""time""
""fullscreenenter"",""1"",""1728""
","
","
","""event"",""trial"",""time""
""fullscreenenter"",""1"",""1728""
","
","","","","","","885.6999999880791","images/straw8.png","","","memory_trial","1","definitely_old",""
"html-keyboard-response","85","318776","0.0-18.0-0.21","5836","approach_avoid_sv1","""event"",""trial"",""time""
""fullscreenenter"",""1"",""1728""
","
","
","""event"",""trial"",""time""
""fullscreenenter"",""1"",""1728""
","
","","","","","","null","<div style=""font-size:60px;"">+</div>","null","","fixation","","",""
"memory-trial","86","321288","0.0-18.0-1.21","5836","approach_avoid_sv1","""event"",""trial"",""time""
""fullscreenenter"",""1"",""1728""
","
","
","""event"",""trial"",""time""
""fullscreenenter"",""1"",""1728""
","
","","","","","","1508.5999999642372","images/plane5.png","","","memory_trial","4","definitely_new",""
"html-keyboard-response","87","321789","0.0-18.0-0.22","5836","approach_avoid_sv1","""event"",""trial"",""time""
""fullscreenenter"",""1"",""1728""
","
","
","""event"",""trial"",""time""
""fullscreenenter"",""1"",""1728""
","
","","","","","","null","<div style=""font-size:60px;"">+</div>","null","","fixation","","",""
"memory-trial","88","328733","0.0-18.0-1.22","5836","approach_avoid_sv1","""event"",""trial"",""time""
""fullscreenenter"",""1"",""1728""
","
","
","""event"",""trial"",""time""
""fullscreenenter"",""1"",""1728""
","
","","","","","","5938.699999988079","images/banana8.png","","","memory_trial","2","maybe_old",""
"html-keyboard-response","89","329236","0.0-18.0-0.23","5836","approach_avoid_sv1","""event"",""trial"",""time""
""fullscreenenter"",""1"",""1728""
","
","
","""event"",""trial"",""time""
""fullscreenenter"",""1"",""1728""
","
","","","","","","null","<div style=""font-size:60px;"">+</div>","null","","fixation","","",""
"memory-trial","90","331928","0.0-18.0-1.23","5836","approach_avoid_sv1","""event"",""trial"",""time""
""fullscreenenter"",""1"",""1728""
","
","
","""event"",""trial"",""time""
""fullscreenenter"",""1"",""1728""
","
","","","","","","1687.6000000238419","images/sheep2.png","","","memory_trial","1","definitely_old",""
"html-keyboard-response","91","332434","0.0-18.0-0.24","5836","approach_avoid_sv1","""event"",""trial"",""time""
""fullscreenenter"",""1"",""1728""
","
","
","""event"",""trial"",""time""
""fullscreenenter"",""1"",""1728""
","
","","","","","","null","<div style=""font-size:60px;"">+</div>","null","","fixation","","",""
"memory-trial","92","335512","0.0-18.0-1.24","5836","approach_avoid_sv1","""event"",""trial"",""time""
""fullscreenenter"",""1"",""1728""
","
","
","""event"",""trial"",""time""
""fullscreenenter"",""1"",""1728""
","
","","","","","","2073.800000011921","images/cow1.png","","","memory_trial","4","definitely_new",""
"html-keyboard-response","93","336018","0.0-18.0-0.25","5836","approach_avoid_sv1","""event"",""trial"",""time""
""fullscreenenter"",""1"",""1728""
","
","
","""event"",""trial"",""time""
""fullscreenenter"",""1"",""1728""
","
","","","","","","null","<div style=""font-size:60px;"">+</div>","null","","fixation","","",""
"memory-trial","94","341922","0.0-18.0-1.25","5836","approach_avoid_sv1","""event"",""trial"",""time""
""fullscreenenter"",""1"",""1728""
","
","
","""event"",""trial"",""time""
""fullscreenenter"",""1"",""1728""
","
","","","","","","4897.799999952316","images/cow5.png","","","memory_trial","3","maybe_new",""
"html-keyboard-response","95","342428","0.0-18.0-0.26","5836","approach_avoid_sv1","""event"",""trial"",""time""
""fullscreenenter"",""1"",""1728""
","
","
","""event"",""trial"",""time""
""fullscreenenter"",""1"",""1728""
","
","","","","","","null","<div style=""font-size:60px;"">+</div>","null","","fixation","","",""
"memory-trial","96","348077","0.0-18.0-1.26","5836","approach_avoid_sv1","""event"",""trial"",""time""
""fullscreenenter"",""1"",""1728""
","
","
","""event"",""trial"",""time""
""fullscreenenter"",""1"",""1728""
","
","","","","","","4640.399999976158","images/rodent2.png","","","memory_trial","3","maybe_new",""
"html-keyboard-response","97","348582","0.0-18.0-0.27","5836","approach_avoid_sv1","""event"",""trial"",""time""
""fullscreenenter"",""1"",""1728""
","
","
","""event"",""trial"",""time""
""fullscreenenter"",""1"",""1728""
","
","","","","","","null","<div style=""font-size:60px;"">+</div>","null","","fixation","","",""
"memory-trial","98","351730","0.0-18.0-1.27","5836","approach_avoid_sv1","""event"",""trial"",""time""
""fullscreenenter"",""1"",""1728""
","
","
","""event"",""trial"",""time""
""fullscreenenter"",""1"",""1728""
","
","","","","","","2139.400000035763","images/truck8.png","","","memory_trial","4","definitely_new",""
"html-keyboard-response","99","352235","0.0-18.0-0.28","5836","approach_avoid_sv1","""event"",""trial"",""time""
""fullscreenenter"",""1"",""1728""
","
","
","""event"",""trial"",""time""
""fullscreenenter"",""1"",""1728""
","
","","","","","","null","<div style=""font-size:60px;"">+</div>","null","","fixation","","",""
"memory-trial","100","354589","0.0-18.0-1.28","5836","approach_avoid_sv1","""event"",""trial"",""time""
""fullscreenenter"",""1"",""1728""
","
","
","""event"",""trial"",""time""
""fullscreenenter"",""1"",""1728""
","
","","","","","","1346.199999988079","images/sofa1.png","","","memory_trial","4","definitely_new",""
"html-keyboard-response","101","355095","0.0-18.0-0.29","5836","approach_avoid_sv1","""event"",""trial"",""time""
""fullscreenenter"",""1"",""1728""
","
","
","""event"",""trial"",""time""
""fullscreenenter"",""1"",""1728""
","
","","","","","","null","<div style=""font-size:60px;"">+</div>","null","","fixation","","",""
"memory-trial","102","358319","0.0-18.0-1.29","5836","approach_avoid_sv1","""event"",""trial"",""time""
""fullscreenenter"",""1"",""1728""
","
","
","""event"",""trial"",""time""
""fullscreenenter"",""1"",""1728""
","
","","","","","","2216.699999988079","images/flower2.png","","","memory_trial","4","definitely_new",""
"html-keyboard-response","103","358823","0.0-18.0-0.30","5836","approach_avoid_sv1","""event"",""trial"",""time""
""fullscreenenter"",""1"",""1728""
","
","
","""event"",""trial"",""time""
""fullscreenenter"",""1"",""1728""
","
","","","","","","null","<div style=""font-size:60px;"">+</div>","null","","fixation","","",""
"memory-trial","104","363922","0.0-18.0-1.30","5836","approach_avoid_sv1","""event"",""trial"",""time""
""fullscreenenter"",""1"",""1728""
","
","
","""event"",""trial"",""time""
""fullscreenenter"",""1"",""1728""
","
","","","","","","4094.900000035763","images/banana1.png","","","memory_trial","1","definitely_old",""
"html-keyboard-response","105","364427","0.0-18.0-0.31","5836","approach_avoid_sv1","""event"",""trial"",""time""
""fullscreenenter"",""1"",""1728""
","
","
","""event"",""trial"",""time""
""fullscreenenter"",""1"",""1728""
","
","","","","","","null","<div style=""font-size:60px;"">+</div>","null","","fixation","","",""
"memory-trial","106","368178","0.0-18.0-1.31","5836","approach_avoid_sv1","""event"",""trial"",""time""
""fullscreenenter"",""1"",""1728""
","
","
","""event"",""trial"",""time""
""fullscreenenter"",""1"",""1728""
","
","","","","","","2745.699999988079","images/flower8.png","","","memory_trial","4","definitely_new",""
"html-keyboard-response","107","368684","0.0-18.0-0.32","5836","approach_avoid_sv1","""event"",""trial"",""time""
""fullscreenenter"",""1"",""1728""
","
","
","""event"",""trial"",""time""
""fullscreenenter"",""1"",""1728""
","
","","","","","","null","<div style=""font-size:60px;"">+</div>","null","","fixation","","",""
"memory-trial","108","374540","0.0-18.0-1.32","5836","approach_avoid_sv1","""event"",""trial"",""time""
""fullscreenenter"",""1"",""1728""
","
","
","""event"",""trial"",""time""
""fullscreenenter"",""1"",""1728""
","
","","","","","","4849.100000023842","images/tree3.png","","","memory_trial","4","definitely_new",""
"html-keyboard-response","109","375046","0.0-18.0-0.33","5836","approach_avoid_sv1","""event"",""trial"",""time""
""fullscreenenter"",""1"",""1728""
","
","
","""event"",""trial"",""time""
""fullscreenenter"",""1"",""1728""
","
","","","","","","null","<div style=""font-size:60px;"">+</div>","null","","fixation","","",""
"memory-trial","110","378673","0.0-18.0-1.33","5836","approach_avoid_sv1","""event"",""trial"",""time""
""fullscreenenter"",""1"",""1728""
","
","
","""event"",""trial"",""time""
""fullscreenenter"",""1"",""1728""
","
","","","","","","2621.2000000476837","images/sofa3.png","","","memory_trial","4","definitely_new",""
"html-keyboard-response","111","379180","0.0-18.0-0.34","5836","approach_avoid_sv1","""event"",""trial"",""time""
""fullscreenenter"",""1"",""1728""
","
","
","""event"",""trial"",""time""
""fullscreenenter"",""1"",""1728""
","
","","","","","","null","<div style=""font-size:60px;"">+</div>","null","","fixation","","",""
"memory-trial","112","384492","0.0-18.0-1.34","5836","approach_avoid_sv1","""event"",""trial"",""time""
""fullscreenenter"",""1"",""1728""
","
","
","""event"",""trial"",""time""
""fullscreenenter"",""1"",""1728""
","
","","","","","","4302.300000011921","images/boat4.png","","","memory_trial","2","maybe_old",""
"html-keyboard-response","113","384993","0.0-18.0-0.35","5836","approach_avoid_sv1","""event"",""trial"",""time""
""fullscreenenter"",""1"",""1728""
","
","
","""event"",""trial"",""time""
""fullscreenenter"",""1"",""1728""
","
","","","","","","null","<div style=""font-size:60px;"">+</div>","null","","fixation","","",""
"memory-trial","114","388550","0.0-18.0-1.35","5836","approach_avoid_sv1","""event"",""trial"",""time""
""fullscreenenter"",""1"",""1728""
","
","
","""event"",""trial"",""time""
""fullscreenenter"",""1"",""1728""
","
","","","","","","2548.5","images/straw5.png","","","memory_trial","4","definitely_new",""
"html-keyboard-response","115","389057","0.0-18.0-0.36","5836","approach_avoid_sv1","""event"",""trial"",""time""
""fullscreenenter"",""1"",""1728""
","
","
","""event"",""trial"",""time""
""fullscreenenter"",""1"",""1728""
","
","","","","","","null","<div style=""font-size:60px;"">+</div>","null","","fixation","","",""
"memory-trial","116","391809","0.0-18.0-1.36","5836","approach_avoid_sv1","""event"",""trial"",""time""
""fullscreenenter"",""1"",""1728""
","
","
","""event"",""trial"",""time""
""fullscreenenter"",""1"",""1728""
","
","","","","","","1746.5999999642372","images/rabbit5.png","","","memory_trial","1","definitely_old",""
"html-keyboard-response","117","392315","0.0-18.0-0.37","5836","approach_avoid_sv1","""event"",""trial"",""time""
""fullscreenenter"",""1"",""1728""
","
","
","""event"",""trial"",""time""
""fullscreenenter"",""1"",""1728""
","
","","","","","","null","<div style=""font-size:60px;"">+</div>","null","","fixation","","",""
"memory-trial","118","399777","0.0-18.0-1.37","5836","approach_avoid_sv1","""event"",""trial"",""time""
""fullscreenenter"",""1"",""1728""
","
","
","""event"",""trial"",""time""
""fullscreenenter"",""1"",""1728""
","
","","","","","","6453.600000023842","images/dog2.png","","","memory_trial","4","definitely_new",""
"html-keyboard-response","119","400283","0.0-18.0-0.38","5836","approach_avoid_sv1","""event"",""trial"",""time""
""fullscreenenter"",""1"",""1728""
","
","
","""event"",""trial"",""time""
""fullscreenenter"",""1"",""1728""
","
","","","","","","null","<div style=""font-size:60px;"">+</div>","null","","fixation","","",""
"memory-trial","120","402320","0.0-18.0-1.38","5836","approach_avoid_sv1","""event"",""trial"",""time""
""fullscreenenter"",""1"",""1728""
","
","
","""event"",""trial"",""time""
""fullscreenenter"",""1"",""1728""
","
","","","","","","1032.9000000357628","images/truck1.png","","","memory_trial","4","definitely_new",""
"html-keyboard-response","121","402826","0.0-18.0-0.39","5836","approach_avoid_sv1","""event"",""trial"",""time""
""fullscreenenter"",""1"",""1728""
","
","
","""event"",""trial"",""time""
""fullscreenenter"",""1"",""1728""
","
","","","","","","null","<div style=""font-size:60px;"">+</div>","null","","fixation","","",""
"memory-trial","122","406726","0.0-18.0-1.39","5836","approach_avoid_sv1","""event"",""trial"",""time""
""fullscreenenter"",""1"",""1728""
","
","
","""event"",""trial"",""time""
""fullscreenenter"",""1"",""1728""
","
","","","","","","2893.699999988079","images/table7.png","","","memory_trial","4","definitely_new",""
"html-keyboard-response","123","407232","0.0-18.0-0.40","5836","approach_avoid_sv1","""event"",""trial"",""time""
""fullscreenenter"",""1"",""1728""
","
","
","""event"",""trial"",""time""
""fullscreenenter"",""1"",""1728""
","
","","","","","","null","<div style=""font-size:60px;"">+</div>","null","","fixation","","",""
"memory-trial","124","409728","0.0-18.0-1.40","5836","approach_avoid_sv1","""event"",""trial"",""time""
""fullscreenenter"",""1"",""1728""
","
","
","""event"",""trial"",""time""
""fullscreenenter"",""1"",""1728""
","
","","","","","","1491.1000000238419","images/horse2.png","","","memory_trial","4","definitely_new",""
"html-keyboard-response","125","410235","0.0-18.0-0.41","5836","approach_avoid_sv1","""event"",""trial"",""time""
""fullscreenenter"",""1"",""1728""
","
","
","""event"",""trial"",""time""
""fullscreenenter"",""1"",""1728""
","
","","","","","","null","<div style=""font-size:60px;"">+</div>","null","","fixation","","",""
"memory-trial","126","413275","0.0-18.0-1.41","5836","approach_avoid_sv1","""event"",""trial"",""time""
""fullscreenenter"",""1"",""1728""
","
","
","""event"",""trial"",""time""
""fullscreenenter"",""1"",""1728""
","
","","","","","","2033.199999988079","images/boat2.png","","","memory_trial","1","definitely_old",""
"html-button-response","127","415550","0.0-18.0-2.41-0.41","5836","approach_avoid_sv1","""event"",""trial"",""time""
""fullscreenenter"",""1"",""1728""
","
","
","""event"",""trial"",""time""
""fullscreenenter"",""1"",""1728""
","
","","","","","","2273.5","<p> Take a break! </p><p> Click the button to continue. </p>","0","","break","","",""
"html-keyboard-response","128","416054","0.0-18.0-0.42","5836","approach_avoid_sv1","""event"",""trial"",""time""
""fullscreenenter"",""1"",""1728""
","
","
","""event"",""trial"",""time""
""fullscreenenter"",""1"",""1728""
","
","","","","","","null","<div style=""font-size:60px;"">+</div>","null","","fixation","","",""
"memory-trial","129","419430","0.0-18.0-1.42","5836","approach_avoid_sv1","""event"",""trial"",""time""
""fullscreenenter"",""1"",""1728""
","
","
","""event"",""trial"",""time""
""fullscreenenter"",""1"",""1728""
","
","","","","","","2367.699999988079","images/truck5.png","","","memory_trial","4","definitely_new",""
"html-keyboard-response","130","419936","0.0-18.0-0.43","5836","approach_avoid_sv1","""event"",""trial"",""time""
""fullscreenenter"",""1"",""1728""
","
","
","""event"",""trial"",""time""
""fullscreenenter"",""1"",""1728""
","
","","","","","","null","<div style=""font-size:60px;"">+</div>","null","","fixation","","",""
"memory-trial","131","422384","0.0-18.0-1.43","5836","approach_avoid_sv1","""event"",""trial"",""time""
""fullscreenenter"",""1"",""1728""
","
","
","""event"",""trial"",""time""
""fullscreenenter"",""1"",""1728""
","
","","","","","","1440","images/sheep3.png","","","memory_trial","1","definitely_old",""
"html-keyboard-response","132","422885","0.0-18.0-0.44","5836","approach_avoid_sv1","""event"",""trial"",""time""
""fullscreenenter"",""1"",""1728""
","
","
","""event"",""trial"",""time""
""fullscreenenter"",""1"",""1728""
","
","","","","","","null","<div style=""font-size:60px;"">+</div>","null","","fixation","","",""
"memory-trial","133","427317","0.0-18.0-1.44","5836","approach_avoid_sv1","""event"",""trial"",""time""
""fullscreenenter"",""1"",""1728""
","
","
","""event"",""trial"",""time""
""fullscreenenter"",""1"",""1728""
","
","","","","","","3428.300000011921","images/bed3.png","","","memory_trial","3","maybe_new",""
"html-keyboard-response","134","427824","0.0-18.0-0.45","5836","approach_avoid_sv1","""event"",""trial"",""time""
""fullscreenenter"",""1"",""1728""
","
","
","""event"",""trial"",""time""
""fullscreenenter"",""1"",""1728""
","
","","","","","","null","<div style=""font-size:60px;"">+</div>","null","","fixation","","",""
"memory-trial","135","433378","0.0-18.0-1.45","5836","approach_avoid_sv1","""event"",""trial"",""time""
""fullscreenenter"",""1"",""1728""
","
","
","""event"",""trial"",""time""
""fullscreenenter"",""1"",""1728""
","
","","","","","","4547.099999964237","images/cactus3.png","","","memory_trial","1","definitely_old",""
"html-keyboard-response","136","433882","0.0-18.0-0.46","5836","approach_avoid_sv1","""event"",""trial"",""time""
""fullscreenenter"",""1"",""1728""
","
","
","""event"",""trial"",""time""
""fullscreenenter"",""1"",""1728""
","
","","","","","","null","<div style=""font-size:60px;"">+</div>","null","","fixation","","",""
"memory-trial","137","436261","0.0-18.0-1.46","5836","approach_avoid_sv1","""event"",""trial"",""time""
""fullscreenenter"",""1"",""1728""
","
","
","""event"",""trial"",""time""
""fullscreenenter"",""1"",""1728""
","
","","","","","","1372.5999999642372","images/cactus1.png","","","memory_trial","1","definitely_old",""
"html-keyboard-response","138","436766","0.0-18.0-0.47","5836","approach_avoid_sv1","""event"",""trial"",""time""
""fullscreenenter"",""1"",""1728""
","
","
","""event"",""trial"",""time""
""fullscreenenter"",""1"",""1728""
","
","","","","","","null","<div style=""font-size:60px;"">+</div>","null","","fixation","","",""
"memory-trial","139","439034","0.0-18.0-1.47","5836","approach_avoid_sv1","""event"",""trial"",""time""
""fullscreenenter"",""1"",""1728""
","
","
","""event"",""trial"",""time""
""fullscreenenter"",""1"",""1728""
","
","","","","","","1261.6000000238419","images/train2.png","","","memory_trial","1","definitely_old",""
"html-keyboard-response","140","439541","0.0-18.0-0.48","5836","approach_avoid_sv1","""event"",""trial"",""time""
""fullscreenenter"",""1"",""1728""
","
","
","""event"",""trial"",""time""
""fullscreenenter"",""1"",""1728""
","
","","","","","","null","<div style=""font-size:60px;"">+</div>","null","","fixation","","",""
"memory-trial","141","441536","0.0-18.0-1.48","5836","approach_avoid_sv1","""event"",""trial"",""time""
""fullscreenenter"",""1"",""1728""
","
","
","""event"",""trial"",""time""
""fullscreenenter"",""1"",""1728""
","
","","","","","","992.1999999880791","images/table3.png","","","memory_trial","1","definitely_old",""
"html-keyboard-response","142","442041","0.0-18.0-0.49","5836","approach_avoid_sv1","""event"",""trial"",""time""
""fullscreenenter"",""1"",""1728""
","
","
","""event"",""trial"",""time""
""fullscreenenter"",""1"",""1728""
","
","","","","","","null","<div style=""font-size:60px;"">+</div>","null","","fixation","","",""
"memory-trial","143","445045","0.0-18.0-1.49","5836","approach_avoid_sv1","""event"",""trial"",""time""
""fullscreenenter"",""1"",""1728""
","
","
","""event"",""trial"",""time""
""fullscreenenter"",""1"",""1728""
","
","","","","","","1997.800000011921","images/goat6.png","","","memory_trial","4","definitely_new",""
"html-keyboard-response","144","445551","0.0-18.0-0.50","5836","approach_avoid_sv1","""event"",""trial"",""time""
""fullscreenenter"",""1"",""1728""
","
","
","""event"",""trial"",""time""
""fullscreenenter"",""1"",""1728""
","
","","","","","","null","<div style=""font-size:60px;"">+</div>","null","","fixation","","",""
"memory-trial","145","450511","0.0-18.0-1.50","5836","approach_avoid_sv1","""event"",""trial"",""time""
""fullscreenenter"",""1"",""1728""
","
","
","""event"",""trial"",""time""
""fullscreenenter"",""1"",""1728""
","
","","","","","","3954.600000023842","images/horse8.png","","","memory_trial","3","maybe_new",""
"html-keyboard-response","146","451017","0.0-18.0-0.51","5836","approach_avoid_sv1","""event"",""trial"",""time""
""fullscreenenter"",""1"",""1728""
","
","
","""event"",""trial"",""time""
""fullscreenenter"",""1"",""1728""
","
","","","","","","null","<div style=""font-size:60px;"">+</div>","null","","fixation","","",""
"memory-trial","147","453221","0.0-18.0-1.51","5836","approach_avoid_sv1","""event"",""trial"",""time""
""fullscreenenter"",""1"",""1728""
","
","
","""event"",""trial"",""time""
""fullscreenenter"",""1"",""1728""
","
","","","","","","1197.800000011921","images/bed8.png","","","memory_trial","1","definitely_old",""
"html-keyboard-response","148","453727","0.0-18.0-0.52","5836","approach_avoid_sv1","""event"",""trial"",""time""
""fullscreenenter"",""1"",""1728""
","
","
","""event"",""trial"",""time""
""fullscreenenter"",""1"",""1728""
","
","","","","","","null","<div style=""font-size:60px;"">+</div>","null","","fixation","","",""
"memory-trial","149","455583","0.0-18.0-1.52","5836","approach_avoid_sv1","""event"",""trial"",""time""
""fullscreenenter"",""1"",""1728""
","
","
","""event"",""trial"",""time""
""fullscreenenter"",""1"",""1728""
","
","","","","","","852.3999999761581","images/sheep6.png","","","memory_trial","1","definitely_old",""
"html-keyboard-response","150","456090","0.0-18.0-0.53","5836","approach_avoid_sv1","""event"",""trial"",""time""
""fullscreenenter"",""1"",""1728""
","
","
","""event"",""trial"",""time""
""fullscreenenter"",""1"",""1728""
","
","","","","","","null","<div style=""font-size:60px;"">+</div>","null","","fixation","","",""
"memory-trial","151","458735","0.0-18.0-1.53","5836","approach_avoid_sv1","""event"",""trial"",""time""
""fullscreenenter"",""1"",""1728""
","
","
","""event"",""trial"",""time""
""fullscreenenter"",""1"",""1728""
","
","","","","","","1638","images/dog1.png","","","memory_trial","4","definitely_new",""
"html-keyboard-response","152","459242","0.0-18.0-0.54","5836","approach_avoid_sv1","""event"",""trial"",""time""
""fullscreenenter"",""1"",""1728""
","
","
","""event"",""trial"",""time""
""fullscreenenter"",""1"",""1728""
","
","","","","","","null","<div style=""font-size:60px;"">+</div>","null","","fixation","","",""
"memory-trial","153","461525","0.0-18.0-1.54","5836","approach_avoid_sv1","""event"",""trial"",""time""
""fullscreenenter"",""1"",""1728""
","
","
","""event"",""trial"",""time""
""fullscreenenter"",""1"",""1728""
","
","","","","","","1274.4000000357628","images/boat3.png","","","memory_trial","1","definitely_old",""
"html-keyboard-response","154","462031","0.0-18.0-0.55","5836","approach_avoid_sv1","""event"",""trial"",""time""
""fullscreenenter"",""1"",""1728""
","
","
","""event"",""trial"",""time""
""fullscreenenter"",""1"",""1728""
","
","","","","","","null","<div style=""font-size:60px;"">+</div>","null","","fixation","","",""
"memory-trial","155","465135","0.0-18.0-1.55","5836","approach_avoid_sv1","""event"",""trial"",""time""
""fullscreenenter"",""1"",""1728""
","
","
","""event"",""trial"",""time""
""fullscreenenter"",""1"",""1728""
","
","","","","","","2097.5","images/sheep1.png","","","memory_trial","4","definitely_new",""
"html-keyboard-response","156","465641","0.0-18.0-0.56","5836","approach_avoid_sv1","""event"",""trial"",""time""
""fullscreenenter"",""1"",""1728""
","
","
","""event"",""trial"",""time""
""fullscreenenter"",""1"",""1728""
","
","","","","","","null","<div style=""font-size:60px;"">+</div>","null","","fixation","","",""
"memory-trial","157","467802","0.0-18.0-1.56","5836","approach_avoid_sv1","""event"",""trial"",""time""
""fullscreenenter"",""1"",""1728""
","
","
","""event"",""trial"",""time""
""fullscreenenter"",""1"",""1728""
","
","","","","","","1157.8999999761581","images/bush8.png","","","memory_trial","1","definitely_old",""
"html-keyboard-response","158","468308","0.0-18.0-0.57","5836","approach_avoid_sv1","""event"",""trial"",""time""
""fullscreenenter"",""1"",""1728""
","
","
","""event"",""trial"",""time""
""fullscreenenter"",""1"",""1728""
","
","","","","","","null","<div style=""font-size:60px;"">+</div>","null","","fixation","","",""
"memory-trial","159","471306","0.0-18.0-1.57","5836","approach_avoid_sv1","""event"",""trial"",""time""
""fullscreenenter"",""1"",""1728""
","
","
","""event"",""trial"",""time""
""fullscreenenter"",""1"",""1728""
","
","","","","","","1990.199999988079","images/cow8.png","","","memory_trial","4","definitely_new",""
"html-keyboard-response","160","471809","0.0-18.0-0.58","5836","approach_avoid_sv1","""event"",""trial"",""time""
""fullscreenenter"",""1"",""1728""
","
","
","""event"",""trial"",""time""
""fullscreenenter"",""1"",""1728""
","
","","","","","","null","<div style=""font-size:60px;"">+</div>","null","","fixation","","",""
"memory-trial","161","474004","0.0-18.0-1.58","5836","approach_avoid_sv1","""event"",""trial"",""time""
""fullscreenenter"",""1"",""1728""
","
","
","""event"",""trial"",""time""
""fullscreenenter"",""1"",""1728""
","
","","","","","","1189.199999988079","images/horse1.png","","","memory_trial","4","definitely_new",""
"html-keyboard-response","162","474506","0.0-18.0-0.59","5836","approach_avoid_sv1","""event"",""trial"",""time""
""fullscreenenter"",""1"",""1728""
","
","
","""event"",""trial"",""time""
""fullscreenenter"",""1"",""1728""
","
","","","","","","null","<div style=""font-size:60px;"">+</div>","null","","fixation","","",""
"memory-trial","163","480319","0.0-18.0-1.59","5836","approach_avoid_sv1","""event"",""trial"",""time""
""fullscreenenter"",""1"",""1728""
","
","
","""event"",""trial"",""time""
""fullscreenenter"",""1"",""1728""
","
","","","","","","4807","images/orange7.png","","","memory_trial","2","maybe_old",""
"html-keyboard-response","164","480822","0.0-18.0-0.60","5836","approach_avoid_sv1","""event"",""trial"",""time""
""fullscreenenter"",""1"",""1728""
","
","
","""event"",""trial"",""time""
""fullscreenenter"",""1"",""1728""
","
","","","","","","null","<div style=""font-size:60px;"">+</div>","null","","fixation","","",""
"memory-trial","165","483995","0.0-18.0-1.60","5836","approach_avoid_sv1","""event"",""trial"",""time""
""fullscreenenter"",""1"",""1728""
","
","
","""event"",""trial"",""time""
""fullscreenenter"",""1"",""1728""
","
","","","","","","2167.7999999523163","images/bush2.png","","","memory_trial","1","definitely_old",""
"html-keyboard-response","166","484499","0.0-18.0-0.61","5836","approach_avoid_sv1","""event"",""trial"",""time""
""fullscreenenter"",""1"",""1728""
","
","
","""event"",""trial"",""time""
""fullscreenenter"",""1"",""1728""
","
","","","","","","null","<div style=""font-size:60px;"">+</div>","null","","fixation","","",""
"memory-trial","167","490617","0.0-18.0-1.61","5836","approach_avoid_sv1","""event"",""trial"",""time""
""fullscreenenter"",""1"",""1728""
","
","
","""event"",""trial"",""time""
""fullscreenenter"",""1"",""1728""
","
","","","","","","5109.899999976158","images/goat4.png","","","memory_trial","4","definitely_new",""
"html-keyboard-response","168","491124","0.0-18.0-0.62","5836","approach_avoid_sv1","""event"",""trial"",""time""
""fullscreenenter"",""1"",""1728""
","
","
","""event"",""trial"",""time""
""fullscreenenter"",""1"",""1728""
","
","","","","","","null","<div style=""font-size:60px;"">+</div>","null","","fixation","","",""
"memory-trial","169","495785","0.0-18.0-1.62","5836","approach_avoid_sv1","""event"",""trial"",""time""
""fullscreenenter"",""1"",""1728""
","
","
","""event"",""trial"",""time""
""fullscreenenter"",""1"",""1728""
","
","","","","","","3654.100000023842","images/apple1.png","","","memory_trial","1","definitely_old",""
"html-keyboard-response","170","496291","0.0-18.0-0.63","5836","approach_avoid_sv1","""event"",""trial"",""time""
""fullscreenenter"",""1"",""1728""
","
","
","""event"",""trial"",""time""
""fullscreenenter"",""1"",""1728""
","
","","","","","","null","<div style=""font-size:60px;"">+</div>","null","","fixation","","",""
"memory-trial","171","498233","0.0-18.0-1.63","5836","approach_avoid_sv1","""event"",""trial"",""time""
""fullscreenenter"",""1"",""1728""
","
","
","""event"",""trial"",""time""
""fullscreenenter"",""1"",""1728""
","
","","","","","","934","images/cactus7.png","","","memory_trial","1","definitely_old",""
"html-keyboard-response","172","498738","0.0-18.0-0.64","5836","approach_avoid_sv1","""event"",""trial"",""time""
""fullscreenenter"",""1"",""1728""
","
","
","""event"",""trial"",""time""
""fullscreenenter"",""1"",""1728""
","
","","","","","","null","<div style=""font-size:60px;"">+</div>","null","","fixation","","",""
"memory-trial","173","501326","0.0-18.0-1.64","5836","approach_avoid_sv1","""event"",""trial"",""time""
""fullscreenenter"",""1"",""1728""
","
","
","""event"",""trial"",""time""
""fullscreenenter"",""1"",""1728""
","
","","","","","","1582.1000000238419","images/boat8.png","","","memory_trial","4","definitely_new",""
"html-keyboard-response","174","501833","0.0-18.0-0.65","5836","approach_avoid_sv1","""event"",""trial"",""time""
""fullscreenenter"",""1"",""1728""
","
","
","""event"",""trial"",""time""
""fullscreenenter"",""1"",""1728""
","
","","","","","","null","<div style=""font-size:60px;"">+</div>","null","","fixation","","",""
"memory-trial","175","504163","0.0-18.0-1.65","5836","approach_avoid_sv1","""event"",""trial"",""time""
""fullscreenenter"",""1"",""1728""
","
","
","""event"",""trial"",""time""
""fullscreenenter"",""1"",""1728""
","
","","","","","","1323.800000011921","images/bush6.png","","","memory_trial","1","definitely_old",""
"html-keyboard-response","176","504670","0.0-18.0-0.66","5836","approach_avoid_sv1","""event"",""trial"",""time""
""fullscreenenter"",""1"",""1728""
","
","
","""event"",""trial"",""time""
""fullscreenenter"",""1"",""1728""
","
","","","","","","null","<div style=""font-size:60px;"">+</div>","null","","fixation","","",""
"memory-trial","177","509973","0.0-18.0-1.66","5836","approach_avoid_sv1","""event"",""trial"",""time""
""fullscreenenter"",""1"",""1728""
","
","
","""event"",""trial"",""time""
""fullscreenenter"",""1"",""1728""
","
","","","","","","4299.199999988079","images/banana2.png","","","memory_trial","4","definitely_new",""
"html-keyboard-response","178","510478","0.0-18.0-0.67","5836","approach_avoid_sv1","""event"",""trial"",""time""
""fullscreenenter"",""1"",""1728""
","
","
","""event"",""trial"",""time""
""fullscreenenter"",""1"",""1728""
","
","","","","","","null","<div style=""font-size:60px;"">+</div>","null","","fixation","","",""
"memory-trial","179","513923","0.0-18.0-1.67","5836","approach_avoid_sv1","""event"",""trial"",""time""
""fullscreenenter"",""1"",""1728""
","
","
","""event"",""trial"",""time""
""fullscreenenter"",""1"",""1728""
","
","","","","","","2437.399999976158","images/sheep7.png","","","memory_trial","2","maybe_old",""
"html-keyboard-response","180","514430","0.0-18.0-0.68","5836","approach_avoid_sv1","""event"",""trial"",""time""
""fullscreenenter"",""1"",""1728""
","
","
","""event"",""trial"",""time""
""fullscreenenter"",""1"",""1728""
","
","","","","","","null","<div style=""font-size:60px;"">+</div>","null","","fixation","","",""
"memory-trial","181","519448","0.0-18.0-1.68","5836","approach_avoid_sv1","""event"",""trial"",""time""
""fullscreenenter"",""1"",""1728""
","
","
","""event"",""trial"",""time""
""fullscreenenter"",""1"",""1728""
","
","","","","","","4015.399999976158","images/tree1.png","","","memory_trial","2","maybe_old",""
"html-keyboard-response","182","519955","0.0-18.0-0.69","5836","approach_avoid_sv1","""event"",""trial"",""time""
""fullscreenenter"",""1"",""1728""
","
","
","""event"",""trial"",""time""
""fullscreenenter"",""1"",""1728""
","
","","","","","","null","<div style=""font-size:60px;"">+</div>","null","","fixation","","",""
"memory-trial","183","526211","0.0-18.0-1.69","5836","approach_avoid_sv1","""event"",""trial"",""time""
""fullscreenenter"",""1"",""1728""
","
","
","""event"",""trial"",""time""
""fullscreenenter"",""1"",""1728""
","
","","","","","","5250.099999964237","images/banana5.png","","","memory_trial","4","definitely_new",""
"html-keyboard-response","184","526715","0.0-18.0-0.70","5836","approach_avoid_sv1","""event"",""trial"",""time""
""fullscreenenter"",""1"",""1728""
","
","
","""event"",""trial"",""time""
""fullscreenenter"",""1"",""1728""
","
","","","","","","null","<div style=""font-size:60px;"">+</div>","null","","fixation","","",""
"memory-trial","185","529240","0.0-18.0-1.70","5836","approach_avoid_sv1","""event"",""trial"",""time""
""fullscreenenter"",""1"",""1728""
","
","
","""event"",""trial"",""time""
""fullscreenenter"",""1"",""1728""
","
","","","","","","1520.2000000476837","images/tree6.png","","","memory_trial","4","definitely_new",""
"html-keyboard-response","186","529741","0.0-18.0-0.71","5836","approach_avoid_sv1","""event"",""trial"",""time""
""fullscreenenter"",""1"",""1728""
","
","
","""event"",""trial"",""time""
""fullscreenenter"",""1"",""1728""
","
","","","","","","null","<div style=""font-size:60px;"">+</div>","null","","fixation","","",""
"memory-trial","187","531955","0.0-18.0-1.71","5836","approach_avoid_sv1","""event"",""trial"",""time""
""fullscreenenter"",""1"",""1728""
","
","
","""event"",""trial"",""time""
""fullscreenenter"",""1"",""1728""
","
","","","","","","1206.8999999761581","images/apple3.png","","","memory_trial","4","definitely_new",""
"html-keyboard-response","188","532461","0.0-18.0-0.72","5836","approach_avoid_sv1","""event"",""trial"",""time""
""fullscreenenter"",""1"",""1728""
","
","
","""event"",""trial"",""time""
""fullscreenenter"",""1"",""1728""
","
","","","","","","null","<div style=""font-size:60px;"">+</div>","null","","fixation","","",""
"memory-trial","189","535725","0.0-18.0-1.72","5836","approach_avoid_sv1","""event"",""trial"",""time""
""fullscreenenter"",""1"",""1728""
","
","
","""event"",""trial"",""time""
""fullscreenenter"",""1"",""1728""
","
","","","","","","2259.2000000476837","images/orange2.png","","","memory_trial","2","maybe_old",""
"html-keyboard-response","190","536232","0.0-18.0-0.73","5836","approach_avoid_sv1","""event"",""trial"",""time""
""fullscreenenter"",""1"",""1728""
","
","
","""event"",""trial"",""time""
""fullscreenenter"",""1"",""1728""
","
","","","","","","null","<div style=""font-size:60px;"">+</div>","null","","fixation","","",""
"memory-trial","191","541240","0.0-18.0-1.73","5836","approach_avoid_sv1","""event"",""trial"",""time""
""fullscreenenter"",""1"",""1728""
","
","
","""event"",""trial"",""time""
""fullscreenenter"",""1"",""1728""
","
","","","","","","4003.199999988079","images/cactus2.png","","","memory_trial","1","definitely_old",""
"html-keyboard-response","192","541746","0.0-18.0-0.74","5836","approach_avoid_sv1","""event"",""trial"",""time""
""fullscreenenter"",""1"",""1728""
","
","
","""event"",""trial"",""time""
""fullscreenenter"",""1"",""1728""
","
","","","","","","null","<div style=""font-size:60px;"">+</div>","null","","fixation","","",""
"memory-trial","193","545480","0.0-18.0-1.74","5836","approach_avoid_sv1","""event"",""trial"",""time""
""fullscreenenter"",""1"",""1728""
","
","
","""event"",""trial"",""time""
""fullscreenenter"",""1"",""1728""
","
","","","","","","2726.300000011921","images/sofa8.png","","","memory_trial","4","definitely_new",""
"html-keyboard-response","194","545986","0.0-18.0-0.75","5836","approach_avoid_sv1","""event"",""trial"",""time""
""fullscreenenter"",""1"",""1728""
","
","
","""event"",""trial"",""time""
""fullscreenenter"",""1"",""1728""
","
","","","","","","null","<div style=""font-size:60px;"">+</div>","null","","fixation","","",""
"memory-trial","195","552125","0.0-18.0-1.75","5836","approach_avoid_sv1","""event"",""trial"",""time""
""fullscreenenter"",""1"",""1728""
","
","
","""event"",""trial"",""time""
""fullscreenenter"",""1"",""1728""
","
","","","","","","5132.399999976158","images/rodent8.png","","","memory_trial","3","maybe_new",""
"html-keyboard-response","196","552632","0.0-18.0-0.76","5836","approach_avoid_sv1","""event"",""trial"",""time""
""fullscreenenter"",""1"",""1728""
","
","
","""event"",""trial"",""time""
""fullscreenenter"",""1"",""1728""
","
","","","","","","null","<div style=""font-size:60px;"">+</div>","null","","fixation","","",""
"memory-trial","197","561437","0.0-18.0-1.76","5836","approach_avoid_sv1","""event"",""trial"",""time""
""fullscreenenter"",""1"",""1728""
","
","
","""event"",""trial"",""time""
""fullscreenenter"",""1"",""1728""
","
","","","","","","7800.800000011921","images/straw7.png","","","memory_trial","2","maybe_old",""
"html-keyboard-response","198","561943","0.0-18.0-0.77","5836","approach_avoid_sv1","""event"",""trial"",""time""
""fullscreenenter"",""1"",""1728""
","
","
","""event"",""trial"",""time""
""fullscreenenter"",""1"",""1728""
","
","","","","","","null","<div style=""font-size:60px;"">+</div>","null","","fixation","","",""
"memory-trial","199","564269","0.0-18.0-1.77","5836","approach_avoid_sv1","""event"",""trial"",""time""
""fullscreenenter"",""1"",""1728""
","
","
","""event"",""trial"",""time""
""fullscreenenter"",""1"",""1728""
","
","","","","","","1320.7000000476837","images/truck3.png","","","memory_trial","4","definitely_new",""
"html-keyboard-response","200","564775","0.0-18.0-0.78","5836","approach_avoid_sv1","""event"",""trial"",""time""
""fullscreenenter"",""1"",""1728""
","
","
","""event"",""trial"",""time""
""fullscreenenter"",""1"",""1728""
","
","","","","","","null","<div style=""font-size:60px;"">+</div>","null","","fixation","","",""
"memory-trial","201","570114","0.0-18.0-1.78","5836","approach_avoid_sv1","""event"",""trial"",""time""
""fullscreenenter"",""1"",""1728""
","
","
","""event"",""trial"",""time""
""fullscreenenter"",""1"",""1728""
","
","","","","","","4331","images/sheep4.png","","","memory_trial","4","definitely_new",""
"html-keyboard-response","202","570620","0.0-18.0-0.79","5836","approach_avoid_sv1","""event"",""trial"",""time""
""fullscreenenter"",""1"",""1728""
","
","
","""event"",""trial"",""time""
""fullscreenenter"",""1"",""1728""
","
","","","","","","null","<div style=""font-size:60px;"">+</div>","null","","fixation","","",""
"memory-trial","203","573074","0.0-18.0-1.79","5836","approach_avoid_sv1","""event"",""trial"",""time""
""fullscreenenter"",""1"",""1728""
","
","
","""event"",""trial"",""time""
""fullscreenenter"",""1"",""1728""
","
","","","","","","1444.3999999761581","images/apple6.png","","","memory_trial","4","definitely_new",""
"html-keyboard-response","204","573580","0.0-18.0-0.80","5836","approach_avoid_sv1","""event"",""trial"",""time""
""fullscreenenter"",""1"",""1728""
","
","
","""event"",""trial"",""time""
""fullscreenenter"",""1"",""1728""
","
","","","","","","null","<div style=""font-size:60px;"">+</div>","null","","fixation","","",""
"memory-trial","205","575788","0.0-18.0-1.80","5836","approach_avoid_sv1","""event"",""trial"",""time""
""fullscreenenter"",""1"",""1728""
","
","
","""event"",""trial"",""time""
""fullscreenenter"",""1"",""1728""
","
","","","","","","1200.5","images/cactus6.png","","","memory_trial","4","definitely_new",""
"html-keyboard-response","206","576295","0.0-18.0-0.81","5836","approach_avoid_sv1","""event"",""trial"",""time""
""fullscreenenter"",""1"",""1728""
","
","
","""event"",""trial"",""time""
""fullscreenenter"",""1"",""1728""
","
","","","","","","null","<div style=""font-size:60px;"">+</div>","null","","fixation","","",""
"memory-trial","207","581260","0.0-18.0-1.81","5836","approach_avoid_sv1","""event"",""trial"",""time""
""fullscreenenter"",""1"",""1728""
","
","
","""event"",""trial"",""time""
""fullscreenenter"",""1"",""1728""
","
","","","","","","3956.900000035763","images/train3.png","","","memory_trial","3","maybe_new",""
"html-keyboard-response","208","581767","0.0-18.0-0.82","5836","approach_avoid_sv1","""event"",""trial"",""time""
""fullscreenenter"",""1"",""1728""
","
","
","""event"",""trial"",""time""
""fullscreenenter"",""1"",""1728""
","
","","","","","","null","<div style=""font-size:60px;"">+</div>","null","","fixation","","",""
"memory-trial","209","583870","0.0-18.0-1.82","5836","approach_avoid_sv1","""event"",""trial"",""time""
""fullscreenenter"",""1"",""1728""
","
","
","""event"",""trial"",""time""
""fullscreenenter"",""1"",""1728""
","
","","","","","","1095.699999988079","images/apple2.png","","","memory_trial","4","definitely_new",""
"html-keyboard-response","210","584375","0.0-18.0-0.83","5836","approach_avoid_sv1","""event"",""trial"",""time""
""fullscreenenter"",""1"",""1728""
","
","
","""event"",""trial"",""time""
""fullscreenenter"",""1"",""1728""
","
","","","","","","null","<div style=""font-size:60px;"">+</div>","null","","fixation","","",""
"memory-trial","211","586641","0.0-18.0-1.83","5836","approach_avoid_sv1","""event"",""trial"",""time""
""fullscreenenter"",""1"",""1728""
","
","
","""event"",""trial"",""time""
""fullscreenenter"",""1"",""1728""
","
","","","","","","1259","images/bed5.png","","","memory_trial","1","definitely_old",""
"html-keyboard-response","212","587148","0.0-18.0-0.84","5836","approach_avoid_sv1","""event"",""trial"",""time""
""fullscreenenter"",""1"",""1728""
","
","
","""event"",""trial"",""time""
""fullscreenenter"",""1"",""1728""
","
","","","","","","null","<div style=""font-size:60px;"">+</div>","null","","fixation","","",""
"memory-trial","213","595117","0.0-18.0-1.84","5836","approach_avoid_sv1","""event"",""trial"",""time""
""fullscreenenter"",""1"",""1728""
","
","
","""event"",""trial"",""time""
""fullscreenenter"",""1"",""1728""
","
","","","","","","6962.199999988079","images/cow7.png","","","memory_trial","2","maybe_old",""
"html-keyboard-response","214","595622","0.0-18.0-0.85","5836","approach_avoid_sv1","""event"",""trial"",""time""
""fullscreenenter"",""1"",""1728""
","
","
","""event"",""trial"",""time""
""fullscreenenter"",""1"",""1728""
","
","","","","","","null","<div style=""font-size:60px;"">+</div>","null","","fixation","","",""
"memory-trial","215","598423","0.0-18.0-1.85","5836","approach_avoid_sv1","""event"",""trial"",""time""
""fullscreenenter"",""1"",""1728""
","
","
","""event"",""trial"",""time""
""fullscreenenter"",""1"",""1728""
","
","","","","","","1794.199999988079","images/cactus8.png","","","memory_trial","1","definitely_old",""
"html-keyboard-response","216","598929","0.0-18.0-0.86","5836","approach_avoid_sv1","""event"",""trial"",""time""
""fullscreenenter"",""1"",""1728""
","
","
","""event"",""trial"",""time""
""fullscreenenter"",""1"",""1728""
","
","","","","","","null","<div style=""font-size:60px;"">+</div>","null","","fixation","","",""
"memory-trial","217","603432","0.0-18.0-1.86","5836","approach_avoid_sv1","""event"",""trial"",""time""
""fullscreenenter"",""1"",""1728""
","
","
","""event"",""trial"",""time""
""fullscreenenter"",""1"",""1728""
","
","","","","","","3494.800000011921","images/cat2.png","","","memory_trial","1","definitely_old",""
"html-keyboard-response","218","603938","0.0-18.0-0.87","5836","approach_avoid_sv1","""event"",""trial"",""time""
""fullscreenenter"",""1"",""1728""
","
","
","""event"",""trial"",""time""
""fullscreenenter"",""1"",""1728""
","
","","","","","","null","<div style=""font-size:60px;"">+</div>","null","","fixation","","",""
"memory-trial","219","609468","0.0-18.0-1.87","5836","approach_avoid_sv1","""event"",""trial"",""time""
""fullscreenenter"",""1"",""1728""
","
","
","""event"",""trial"",""time""
""fullscreenenter"",""1"",""1728""
","
","","","","","","4525.199999988079","images/chair2.png","","","memory_trial","3","maybe_new",""
"html-keyboard-response","220","609971","0.0-18.0-0.88","5836","approach_avoid_sv1","""event"",""trial"",""time""
""fullscreenenter"",""1"",""1728""
","
","
","""event"",""trial"",""time""
""fullscreenenter"",""1"",""1728""
","
","","","","","","null","<div style=""font-size:60px;"">+</div>","null","","fixation","","",""
"memory-trial","221","613558","0.0-18.0-1.88","5836","approach_avoid_sv1","""event"",""trial"",""time""
""fullscreenenter"",""1"",""1728""
","
","
","""event"",""trial"",""time""
""fullscreenenter"",""1"",""1728""
","
","","","","","","2583.699999988079","images/boat7.png","","","memory_trial","2","maybe_old",""
"html-keyboard-response","222","614065","0.0-18.0-0.89","5836","approach_avoid_sv1","""event"",""trial"",""time""
""fullscreenenter"",""1"",""1728""
","
","
","""event"",""trial"",""time""
""fullscreenenter"",""1"",""1728""
","
","","","","","","null","<div style=""font-size:60px;"">+</div>","null","","fixation","","",""
"memory-trial","223","617805","0.0-18.0-1.89","5836","approach_avoid_sv1","""event"",""trial"",""time""
""fullscreenenter"",""1"",""1728""
","
","
","""event"",""trial"",""time""
""fullscreenenter"",""1"",""1728""
","
","","","","","","2734.2000000476837","images/rodent4.png","","","memory_trial","1","definitely_old",""
"html-keyboard-response","224","618310","0.0-18.0-0.90","5836","approach_avoid_sv1","""event"",""trial"",""time""
""fullscreenenter"",""1"",""1728""
","
","
","""event"",""trial"",""time""
""fullscreenenter"",""1"",""1728""
","
","","","","","","null","<div style=""font-size:60px;"">+</div>","null","","fixation","","",""
"memory-trial","225","623734","0.0-18.0-1.90","5836","approach_avoid_sv1","""event"",""trial"",""time""
""fullscreenenter"",""1"",""1728""
","
","
","""event"",""trial"",""time""
""fullscreenenter"",""1"",""1728""
","
","","","","","","4418.600000023842","images/rabbit2.png","","","memory_trial","2","maybe_old",""
"html-keyboard-response","226","624240","0.0-18.0-0.91","5836","approach_avoid_sv1","""event"",""trial"",""time""
""fullscreenenter"",""1"",""1728""
","
","
","""event"",""trial"",""time""
""fullscreenenter"",""1"",""1728""
","
","","","","","","null","<div style=""font-size:60px;"">+</div>","null","","fixation","","",""
"memory-trial","227","626737","0.0-18.0-1.91","5836","approach_avoid_sv1","""event"",""trial"",""time""
""fullscreenenter"",""1"",""1728""
","
","
","""event"",""trial"",""time""
""fullscreenenter"",""1"",""1728""
","
","","","","","","1491.800000011921","images/goat5.png","","","memory_trial","4","definitely_new",""
"html-button-response","228","628935","0.0-18.0-2.91-0.91","5836","approach_avoid_sv1","""event"",""trial"",""time""
""fullscreenenter"",""1"",""1728""
","
","
","""event"",""trial"",""time""
""fullscreenenter"",""1"",""1728""
","
","","","","","","2193.900000035763","<p> Take a break! </p><p> Click the button to continue. </p>","0","","break","","",""
"html-keyboard-response","229","629438","0.0-18.0-0.92","5836","approach_avoid_sv1","""event"",""trial"",""time""
""fullscreenenter"",""1"",""1728""
","
","
","""event"",""trial"",""time""
""fullscreenenter"",""1"",""1728""
","
","","","","","","null","<div style=""font-size:60px;"">+</div>","null","","fixation","","",""
"memory-trial","230","633723","0.0-18.0-1.92","5836","approach_avoid_sv1","""event"",""trial"",""time""
""fullscreenenter"",""1"",""1728""
","
","
","""event"",""trial"",""time""
""fullscreenenter"",""1"",""1728""
","
","","","","","","3281.199999988079","images/cactus5.png","","","memory_trial","2","maybe_old",""
"html-keyboard-response","231","634228","0.0-18.0-0.93","5836","approach_avoid_sv1","""event"",""trial"",""time""
""fullscreenenter"",""1"",""1728""
","
","
","""event"",""trial"",""time""
""fullscreenenter"",""1"",""1728""
","
","","","","","","null","<div style=""font-size:60px;"">+</div>","null","","fixation","","",""
"memory-trial","232","636347","0.0-18.0-1.93","5836","approach_avoid_sv1","""event"",""trial"",""time""
""fullscreenenter"",""1"",""1728""
","
","
","""event"",""trial"",""time""
""fullscreenenter"",""1"",""1728""
","
","","","","","","1111.800000011921","images/truck6.png","","","memory_trial","4","definitely_new",""
"html-keyboard-response","233","636853","0.0-18.0-0.94","5836","approach_avoid_sv1","""event"",""trial"",""time""
""fullscreenenter"",""1"",""1728""
","
","
","""event"",""trial"",""time""
""fullscreenenter"",""1"",""1728""
","
","","","","","","null","<div style=""font-size:60px;"">+</div>","null","","fixation","","",""
"memory-trial","234","639366","0.0-18.0-1.94","5836","approach_avoid_sv1","""event"",""trial"",""time""
""fullscreenenter"",""1"",""1728""
","
","
","""event"",""trial"",""time""
""fullscreenenter"",""1"",""1728""
","
","","","","","","1504.699999988079","images/sofa5.png","","","memory_trial","4","definitely_new",""
"html-keyboard-response","235","639872","0.0-18.0-0.95","5836","approach_avoid_sv1","""event"",""trial"",""time""
""fullscreenenter"",""1"",""1728""
","
","
","""event"",""trial"",""time""
""fullscreenenter"",""1"",""1728""
","
","","","","","","null","<div style=""font-size:60px;"">+</div>","null","","fixation","","",""
"memory-trial","236","642069","0.0-18.0-1.95","5836","approach_avoid_sv1","""event"",""trial"",""time""
""fullscreenenter"",""1"",""1728""
","
","
","""event"",""trial"",""time""
""fullscreenenter"",""1"",""1728""
","
","","","","","","1191.5","images/rabbit8.png","","","memory_trial","1","definitely_old",""
"html-keyboard-response","237","642576","0.0-18.0-0.96","5836","approach_avoid_sv1","""event"",""trial"",""time""
""fullscreenenter"",""1"",""1728""
","
","
","""event"",""trial"",""time""
""fullscreenenter"",""1"",""1728""
","
","","","","","","null","<div style=""font-size:60px;"">+</div>","null","","fixation","","",""
"memory-trial","238","645541","0.0-18.0-1.96","5836","approach_avoid_sv1","""event"",""trial"",""time""
""fullscreenenter"",""1"",""1728""
","
","
","""event"",""trial"",""time""
""fullscreenenter"",""1"",""1728""
","
","","","","","","1960","images/sheep5.png","","","memory_trial","4","definitely_new",""
"html-keyboard-response","239","646048","0.0-18.0-0.97","5836","approach_avoid_sv1","""event"",""trial"",""time""
""fullscreenenter"",""1"",""1728""
","
","
","""event"",""trial"",""time""
""fullscreenenter"",""1"",""1728""
","
","","","","","","null","<div style=""font-size:60px;"">+</div>","null","","fixation","","",""
"memory-trial","240","649280","0.0-18.0-1.97","5836","approach_avoid_sv1","""event"",""trial"",""time""
""fullscreenenter"",""1"",""1728""
","
","
","""event"",""trial"",""time""
""fullscreenenter"",""1"",""1728""
","
","","","","","","2229.300000011921","images/boat5.png","","","memory_trial","4","definitely_new",""
"html-keyboard-response","241","649786","0.0-18.0-0.98","5836","approach_avoid_sv1","""event"",""trial"",""time""
""fullscreenenter"",""1"",""1728""
","
","
","""event"",""trial"",""time""
""fullscreenenter"",""1"",""1728""
","
","","","","","","null","<div style=""font-size:60px;"">+</div>","null","","fixation","","",""
"memory-trial","242","652451","0.0-18.0-1.98","5836","approach_avoid_sv1","""event"",""trial"",""time""
""fullscreenenter"",""1"",""1728""
","
","
","""event"",""trial"",""time""
""fullscreenenter"",""1"",""1728""
","
","","","","","","1657.199999988079","images/table4.png","","","memory_trial","2","maybe_old",""
"html-keyboard-response","243","652956","0.0-18.0-0.99","5836","approach_avoid_sv1","""event"",""trial"",""time""
""fullscreenenter"",""1"",""1728""
","
","
","""event"",""trial"",""time""
""fullscreenenter"",""1"",""1728""
","
","","","","","","null","<div style=""font-size:60px;"">+</div>","null","","fixation","","",""
"memory-trial","244","655242","0.0-18.0-1.99","5836","approach_avoid_sv1","""event"",""trial"",""time""
""fullscreenenter"",""1"",""1728""
","
","
","""event"",""trial"",""time""
""fullscreenenter"",""1"",""1728""
","
","","","","","","1278.3999999761581","images/rabbit6.png","","","memory_trial","4","definitely_new",""
"html-keyboard-response","245","655743","0.0-18.0-0.100","5836","approach_avoid_sv1","""event"",""trial"",""time""
""fullscreenenter"",""1"",""1728""
","
","
","""event"",""trial"",""time""
""fullscreenenter"",""1"",""1728""
","
","","","","","","null","<div style=""font-size:60px;"">+</div>","null","","fixation","","",""
"memory-trial","246","662074","0.0-18.0-1.100","5836","approach_avoid_sv1","""event"",""trial"",""time""
""fullscreenenter"",""1"",""1728""
","
","
","""event"",""trial"",""time""
""fullscreenenter"",""1"",""1728""
","
","","","","","","5327.5","images/tree4.png","","","memory_trial","4","definitely_new",""
"html-keyboard-response","247","662575","0.0-18.0-0.101","5836","approach_avoid_sv1","""event"",""trial"",""time""
""fullscreenenter"",""1"",""1728""
","
","
","""event"",""trial"",""time""
""fullscreenenter"",""1"",""1728""
","
","","","","","","null","<div style=""font-size:60px;"">+</div>","null","","fixation","","",""
"memory-trial","248","664864","0.0-18.0-1.101","5836","approach_avoid_sv1","""event"",""trial"",""time""
""fullscreenenter"",""1"",""1728""
","
","
","""event"",""trial"",""time""
""fullscreenenter"",""1"",""1728""
","
","","","","","","1280.3999999761581","images/bush5.png","","","memory_trial","4","definitely_new",""
"html-keyboard-response","249","665370","0.0-18.0-0.102","5836","approach_avoid_sv1","""event"",""trial"",""time""
""fullscreenenter"",""1"",""1728""
","
","
","""event"",""trial"",""time""
""fullscreenenter"",""1"",""1728""
","
","","","","","","null","<div style=""font-size:60px;"">+</div>","null","","fixation","","",""
"memory-trial","250","667799","0.0-18.0-1.102","5836","approach_avoid_sv1","""event"",""trial"",""time""
""fullscreenenter"",""1"",""1728""
","
","
","""event"",""trial"",""time""
""fullscreenenter"",""1"",""1728""
","
","","","","","","1421.6000000238419","images/apple8.png","","","memory_trial","4","definitely_new",""
"html-keyboard-response","251","668303","0.0-18.0-0.103","5836","approach_avoid_sv1","""event"",""trial"",""time""
""fullscreenenter"",""1"",""1728""
","
","
","""event"",""trial"",""time""
""fullscreenenter"",""1"",""1728""
","
","","","","","","null","<div style=""font-size:60px;"">+</div>","null","","fixation","","",""
"memory-trial","252","673727","0.0-18.0-1.103","5836","approach_avoid_sv1","""event"",""trial"",""time""
""fullscreenenter"",""1"",""1728""
","
","
","""event"",""trial"",""time""
""fullscreenenter"",""1"",""1728""
","
","","","","","","4416.900000035763","images/flower3.png","","","memory_trial","4","definitely_new",""
"html-keyboard-response","253","674234","0.0-18.0-0.104","5836","approach_avoid_sv1","""event"",""trial"",""time""
""fullscreenenter"",""1"",""1728""
","
","
","""event"",""trial"",""time""
""fullscreenenter"",""1"",""1728""
","
","","","","","","null","<div style=""font-size:60px;"">+</div>","null","","fixation","","",""
"memory-trial","254","679935","0.0-18.0-1.104","5836","approach_avoid_sv1","""event"",""trial"",""time""
""fullscreenenter"",""1"",""1728""
","
","
","""event"",""trial"",""time""
""fullscreenenter"",""1"",""1728""
","
","","","","","","4695.400000035763","images/plane8.png","","","memory_trial","3","maybe_new",""
"html-keyboard-response","255","680442","0.0-18.0-0.105","5836","approach_avoid_sv1","""event"",""trial"",""time""
""fullscreenenter"",""1"",""1728""
","
","
","""event"",""trial"",""time""
""fullscreenenter"",""1"",""1728""
","
","","","","","","null","<div style=""font-size:60px;"">+</div>","null","","fixation","","",""
"memory-trial","256","683098","0.0-18.0-1.105","5836","approach_avoid_sv1","""event"",""trial"",""time""
""fullscreenenter"",""1"",""1728""
","
","
","""event"",""trial"",""time""
""fullscreenenter"",""1"",""1728""
","
","","","","","","1647.5999999642372","images/table6.png","","","memory_trial","4","definitely_new",""
"html-keyboard-response","257","683604","0.0-18.0-0.106","5836","approach_avoid_sv1","""event"",""trial"",""time""
""fullscreenenter"",""1"",""1728""
","
","
","""event"",""trial"",""time""
""fullscreenenter"",""1"",""1728""
","
","","","","","","null","<div style=""font-size:60px;"">+</div>","null","","fixation","","",""
"memory-trial","258","685844","0.0-18.0-1.106","5836","approach_avoid_sv1","""event"",""trial"",""time""
""fullscreenenter"",""1"",""1728""
","
","
","""event"",""trial"",""time""
""fullscreenenter"",""1"",""1728""
","
","","","","","","1235.5999999642372","images/rodent3.png","","","memory_trial","4","definitely_new",""
"html-keyboard-response","259","686351","0.0-18.0-0.107","5836","approach_avoid_sv1","""event"",""trial"",""time""
""fullscreenenter"",""1"",""1728""
","
","
","""event"",""trial"",""time""
""fullscreenenter"",""1"",""1728""
","
","","","","","","null","<div style=""font-size:60px;"">+</div>","null","","fixation","","",""
"memory-trial","260","688868","0.0-18.0-1.107","5836","approach_avoid_sv1","""event"",""trial"",""time""
""fullscreenenter"",""1"",""1728""
","
","
","""event"",""trial"",""time""
""fullscreenenter"",""1"",""1728""
","
","","","","","","1508.800000011921","images/banana7.png","","","memory_trial","4","definitely_new",""
"html-keyboard-response","261","689375","0.0-18.0-0.108","5836","approach_avoid_sv1","""event"",""trial"",""time""
""fullscreenenter"",""1"",""1728""
","
","
","""event"",""trial"",""time""
""fullscreenenter"",""1"",""1728""
","
","","","","","","null","<div style=""font-size:60px;"">+</div>","null","","fixation","","",""
"memory-trial","262","692154","0.0-18.0-1.108","5836","approach_avoid_sv1","""event"",""trial"",""time""
""fullscreenenter"",""1"",""1728""
","
","
","""event"",""trial"",""time""
""fullscreenenter"",""1"",""1728""
","
","","","","","","1775.5","images/boat1.png","","","memory_trial","4","definitely_new",""
"html-keyboard-response","263","692660","0.0-18.0-0.109","5836","approach_avoid_sv1","""event"",""trial"",""time""
""fullscreenenter"",""1"",""1728""
","
","
","""event"",""trial"",""time""
""fullscreenenter"",""1"",""1728""
","
","","","","","","null","<div style=""font-size:60px;"">+</div>","null","","fixation","","",""
"memory-trial","264","694383","0.0-18.0-1.109","5836","approach_avoid_sv1","""event"",""trial"",""time""
""fullscreenenter"",""1"",""1728""
","
","
","""event"",""trial"",""time""
""fullscreenenter"",""1"",""1728""
","
","","","","","","718.2999999523163","images/goat2.png","","","memory_trial","4","definitely_new",""
"html-keyboard-response","265","694889","0.0-18.0-0.110","5836","approach_avoid_sv1","""event"",""trial"",""time""
""fullscreenenter"",""1"",""1728""
","
","
","""event"",""trial"",""time""
""fullscreenenter"",""1"",""1728""
","
","","","","","","null","<div style=""font-size:60px;"">+</div>","null","","fixation","","",""
"memory-trial","266","698164","0.0-18.0-1.110","5836","approach_avoid_sv1","""event"",""trial"",""time""
""fullscreenenter"",""1"",""1728""
","
","
","""event"",""trial"",""time""
""fullscreenenter"",""1"",""1728""
","
","","","","","","2267.2999999523163","images/cat5.png","","","memory_trial","1","definitely_old",""
"html-keyboard-response","267","698670","0.0-18.0-0.111","5836","approach_avoid_sv1","""event"",""trial"",""time""
""fullscreenenter"",""1"",""1728""
","
","
","""event"",""trial"",""time""
""fullscreenenter"",""1"",""1728""
","
","","","","","","null","<div style=""font-size:60px;"">+</div>","null","","fixation","","",""
"memory-trial","268","701609","0.0-18.0-1.111","5836","approach_avoid_sv1","""event"",""trial"",""time""
""fullscreenenter"",""1"",""1728""
","
","
","""event"",""trial"",""time""
""fullscreenenter"",""1"",""1728""
","
","","","","","","1930.800000011921","images/sofa2.png","","","memory_trial","4","definitely_new",""
"html-keyboard-response","269","702110","0.0-18.0-0.112","5836","approach_avoid_sv1","""event"",""trial"",""time""
""fullscreenenter"",""1"",""1728""
","
","
","""event"",""trial"",""time""
""fullscreenenter"",""1"",""1728""
","
","","","","","","null","<div style=""font-size:60px;"">+</div>","null","","fixation","","",""
"memory-trial","270","705433","0.0-18.0-1.112","5836","approach_avoid_sv1","""event"",""trial"",""time""
""fullscreenenter"",""1"",""1728""
","
","
","""event"",""trial"",""time""
""fullscreenenter"",""1"",""1728""
","
","","","","","","2317.199999988079","images/flower1.png","","","memory_trial","4","definitely_new",""
"html-keyboard-response","271","705940","0.0-18.0-0.113","5836","approach_avoid_sv1","""event"",""trial"",""time""
""fullscreenenter"",""1"",""1728""
","
","
","""event"",""trial"",""time""
""fullscreenenter"",""1"",""1728""
","
","","","","","","null","<div style=""font-size:60px;"">+</div>","null","","fixation","","",""
"memory-trial","272","709116","0.0-18.0-1.113","5836","approach_avoid_sv1","""event"",""trial"",""time""
""fullscreenenter"",""1"",""1728""
","
","
","""event"",""trial"",""time""
""fullscreenenter"",""1"",""1728""
","
","","","","","","2169.699999988079","images/rabbit4.png","","","memory_trial","1","definitely_old",""
"html-keyboard-response","273","709621","0.0-18.0-0.114","5836","approach_avoid_sv1","""event"",""trial"",""time""
""fullscreenenter"",""1"",""1728""
","
","
","""event"",""trial"",""time""
""fullscreenenter"",""1"",""1728""
","
","","","","","","null","<div style=""font-size:60px;"">+</div>","null","","fixation","","",""
"memory-trial","274","715636","0.0-18.0-1.114","5836","approach_avoid_sv1","""event"",""trial"",""time""
""fullscreenenter"",""1"",""1728""
","
","
","""event"",""trial"",""time""
""fullscreenenter"",""1"",""1728""
","
","","","","","","5008.100000023842","images/plane4.png","","","memory_trial","4","definitely_new",""
"html-keyboard-response","275","716142","0.0-18.0-0.115","5836","approach_avoid_sv1","""event"",""trial"",""time""
""fullscreenenter"",""1"",""1728""
","
","
","""event"",""trial"",""time""
""fullscreenenter"",""1"",""1728""
","
","","","","","","null","<div style=""font-size:60px;"">+</div>","null","","fixation","","",""
"memory-trial","276","721235","0.0-18.0-1.115","5836","approach_avoid_sv1","""event"",""trial"",""time""
""fullscreenenter"",""1"",""1728""
","
","
","""event"",""trial"",""time""
""fullscreenenter"",""1"",""1728""
","
","","","","","","4088.5","images/rabbit1.png","","","memory_trial","4","definitely_new",""
"html-keyboard-response","277","721739","0.0-18.0-0.116","5836","approach_avoid_sv1","""event"",""trial"",""time""
""fullscreenenter"",""1"",""1728""
","
","
","""event"",""trial"",""time""
""fullscreenenter"",""1"",""1728""
","
","","","","","","null","<div style=""font-size:60px;"">+</div>","null","","fixation","","",""
"memory-trial","278","725038","0.0-18.0-1.116","5836","approach_avoid_sv1","""event"",""trial"",""time""
""fullscreenenter"",""1"",""1728""
","
","
","""event"",""trial"",""time""
""fullscreenenter"",""1"",""1728""
","
","","","","","","2293.199999988079","images/straw2.png","","","memory_trial","4","definitely_new",""
"html-keyboard-response","279","725545","0.0-18.0-0.117","5836","approach_avoid_sv1","""event"",""trial"",""time""
""fullscreenenter"",""1"",""1728""
","
","
","""event"",""trial"",""time""
""fullscreenenter"",""1"",""1728""
","
","","","","","","null","<div style=""font-size:60px;"">+</div>","null","","fixation","","",""
"memory-trial","280","732174","0.0-18.0-1.117","5836","approach_avoid_sv1","""event"",""trial"",""time""
""fullscreenenter"",""1"",""1728""
","
","
","""event"",""trial"",""time""
""fullscreenenter"",""1"",""1728""
","
","","","","","","5621.899999976158","images/cow6.png","","","memory_trial","4","definitely_new",""
"html-keyboard-response","281","732680","0.0-18.0-0.118","5836","approach_avoid_sv1","""event"",""trial"",""time""
""fullscreenenter"",""1"",""1728""
","
","
","""event"",""trial"",""time""
""fullscreenenter"",""1"",""1728""
","
","","","","","","null","<div style=""font-size:60px;"">+</div>","null","","fixation","","",""
"memory-trial","282","737990","0.0-18.0-1.118","5836","approach_avoid_sv1","""event"",""trial"",""time""
""fullscreenenter"",""1"",""1728""
","
","
","""event"",""trial"",""time""
""fullscreenenter"",""1"",""1728""
","
","","","","","","4304.599999964237","images/goat1.png","","","memory_trial","4","definitely_new",""
"html-keyboard-response","283","738494","0.0-18.0-0.119","5836","approach_avoid_sv1","""event"",""trial"",""time""
""fullscreenenter"",""1"",""1728""
","
","
","""event"",""trial"",""time""
""fullscreenenter"",""1"",""1728""
","
","","","","","","null","<div style=""font-size:60px;"">+</div>","null","","fixation","","",""
"memory-trial","284","740688","0.0-18.0-1.119","5836","approach_avoid_sv1","""event"",""trial"",""time""
""fullscreenenter"",""1"",""1728""
","
","
","""event"",""trial"",""time""
""fullscreenenter"",""1"",""1728""
","
","","","","","","1188.3999999761581","images/rabbit7.png","","","memory_trial","4","definitely_new",""
"html-keyboard-response","285","741192","0.0-18.0-0.120","5836","approach_avoid_sv1","""event"",""trial"",""time""
""fullscreenenter"",""1"",""1728""
","
","
","""event"",""trial"",""time""
""fullscreenenter"",""1"",""1728""
","
","","","","","","null","<div style=""font-size:60px;"">+</div>","null","","fixation","","",""
"memory-trial","286","747192","0.0-18.0-1.120","5836","approach_avoid_sv1","""event"",""trial"",""time""
""fullscreenenter"",""1"",""1728""
","
","
","""event"",""trial"",""time""
""fullscreenenter"",""1"",""1728""
","
","","","","","","4995.899999976158","images/cat8.png","","","memory_trial","3","maybe_new",""
"html-keyboard-response","287","747699","0.0-18.0-0.121","5836","approach_avoid_sv1","""event"",""trial"",""time""
""fullscreenenter"",""1"",""1728""
","
","
","""event"",""trial"",""time""
""fullscreenenter"",""1"",""1728""
","
","","","","","","null","<div style=""font-size:60px;"">+</div>","null","","fixation","","",""
"memory-trial","288","749384","0.0-18.0-1.121","5836","approach_avoid_sv1","""event"",""trial"",""time""
""fullscreenenter"",""1"",""1728""
","
","
","""event"",""trial"",""time""
""fullscreenenter"",""1"",""1728""
","
","","","","","","677.1000000238419","images/train8.png","","","memory_trial","2","maybe_old",""
"html-keyboard-response","289","749886","0.0-18.0-0.122","5836","approach_avoid_sv1","""event"",""trial"",""time""
""fullscreenenter"",""1"",""1728""
","
","
","""event"",""trial"",""time""
""fullscreenenter"",""1"",""1728""
","
","","","","","","null","<div style=""font-size:60px;"">+</div>","null","","fixation","","",""
"memory-trial","290","754920","0.0-18.0-1.122","5836","approach_avoid_sv1","""event"",""trial"",""time""
""fullscreenenter"",""1"",""1728""
","
","
","""event"",""trial"",""time""
""fullscreenenter"",""1"",""1728""
","
","","","","","","4028.100000023842","images/flower6.png","","","memory_trial","4","definitely_new",""
"html-keyboard-response","291","755426","0.0-18.0-0.123","5836","approach_avoid_sv1","""event"",""trial"",""time""
""fullscreenenter"",""1"",""1728""
","
","
","""event"",""trial"",""time""
""fullscreenenter"",""1"",""1728""
","
","","","","","","null","<div style=""font-size:60px;"">+</div>","null","","fixation","","",""
"memory-trial","292","758184","0.0-18.0-1.123","5836","approach_avoid_sv1","""event"",""trial"",""time""
""fullscreenenter"",""1"",""1728""
","
","
","""event"",""trial"",""time""
""fullscreenenter"",""1"",""1728""
","
","","","","","","1750.9000000357628","images/cat1.png","","","memory_trial","1","definitely_old",""
"html-keyboard-response","293","758690","0.0-18.0-0.124","5836","approach_avoid_sv1","""event"",""trial"",""time""
""fullscreenenter"",""1"",""1728""
","
","
","""event"",""trial"",""time""
""fullscreenenter"",""1"",""1728""
","
","","","","","","null","<div style=""font-size:60px;"">+</div>","null","","fixation","","",""
"memory-trial","294","762738","0.0-18.0-1.124","5836","approach_avoid_sv1","""event"",""trial"",""time""
""fullscreenenter"",""1"",""1728""
","
","
","""event"",""trial"",""time""
""fullscreenenter"",""1"",""1728""
","
","","","","","","3041.199999988079","images/sofa7.png","","","memory_trial","4","definitely_new",""
"html-keyboard-response","295","763245","0.0-18.0-0.125","5836","approach_avoid_sv1","""event"",""trial"",""time""
""fullscreenenter"",""1"",""1728""
","
","
","""event"",""trial"",""time""
""fullscreenenter"",""1"",""1728""
","
","","","","","","null","<div style=""font-size:60px;"">+</div>","null","","fixation","","",""
"memory-trial","296","769810","0.0-18.0-1.125","5836","approach_avoid_sv1","""event"",""trial"",""time""
""fullscreenenter"",""1"",""1728""
","
","
","""event"",""trial"",""time""
""fullscreenenter"",""1"",""1728""
","
