"trial_type","trial_index","time_elapsed","internal_node_id","subject_id","task_version","interactions","blur_events","focus_events","fullscreenenter_events","fullscreenexit_events","success","timeout","failed_images","failed_audio","failed_video","rt","stimulus","response","button_pressed","task_part","key_press","answer","correct"
"pavlovia","0","8","0.0-0.0","5847","approach_avoid_sv1","""event"",""trial"",""time""
""fullscreenenter"",""1"",""11288""
","
","
","""event"",""trial"",""time""
""fullscreenenter"",""1"",""11288""
","
","","","","","","","","","","","","",""
"fullscreen","1","12276","0.0-1.0","5847","approach_avoid_sv1","""event"",""trial"",""time""
""fullscreenenter"",""1"",""11288""
","
","
","""event"",""trial"",""time""
""fullscreenenter"",""1"",""11288""
","
","true","","","","","","","","","","","",""
"preload","2","21383","0.0-2.0","5847","approach_avoid_sv1","""event"",""trial"",""time""
""fullscreenenter"",""1"",""11288""
","
","
","""event"",""trial"",""time""
""fullscreenenter"",""1"",""11288""
","
","true","false","[]","[]","[]","","","","","","","",""
"preload","3","28887","0.0-3.0","5847","approach_avoid_sv1","""event"",""trial"",""time""
""fullscreenenter"",""1"",""11288""
","
","
","""event"",""trial"",""time""
""fullscreenenter"",""1"",""11288""
","
","true","false","[]","[]","[]","","","","","","","",""
"preload","4","29928","0.0-4.0","5847","approach_avoid_sv1","""event"",""trial"",""time""
""fullscreenenter"",""1"",""11288""
","
","
","""event"",""trial"",""time""
""fullscreenenter"",""1"",""11288""
","
","true","false","[]","[]","[]","","","","","","","",""
"audio-keyboard-response","5","34064","0.0-5.0","5847","approach_avoid_sv1","""event"",""trial"",""time""
""fullscreenenter"",""1"",""11288""
","
","
","""event"",""trial"",""time""
""fullscreenenter"",""1"",""11288""
","
","","","","","","4128","audio/beep_loop.wav"," ","","","","",""
"audio-button-response","6","36268","0.0-6.0","5847","approach_avoid_sv1","""event"",""trial"",""time""
""fullscreenenter"",""1"",""11288""
","
","
","""event"",""trial"",""time""
""fullscreenenter"",""1"",""11288""
","
","","","","","","2189","audio/turtle.wav","3","","","","",""
"audio-button-response","7","38510","0.0-7.0","5847","approach_avoid_sv1","""event"",""trial"",""time""
""fullscreenenter"",""1"",""11288""
","
","
","""event"",""trial"",""time""
""fullscreenenter"",""1"",""11288""
","
","","","","","","1229","audio/shark.wav","2","","","","",""
"preload","8","50909","0.0-8.0","5847","approach_avoid_sv1","""event"",""trial"",""time""
""fullscreenenter"",""1"",""11288""
","
","
","""event"",""trial"",""time""
""fullscreenenter"",""1"",""11288""
","
","true","false","[]","[]","[]","","","","","","","",""
"learning-instructions","9","58855","0.0-9.0-0.0","5847","approach_avoid_sv1","""event"",""trial"",""time""
""fullscreenenter"",""1"",""11288""
","
","
","""event"",""trial"",""time""
""fullscreenenter"",""1"",""11288""
","
","","","","","","3464.300000011921","<p> Welcome back! </p><p> Last week, you had to make choices about lots of different items.  </p>","","0","instructions","","",""
"learning-instructions","10","65847","0.0-9.0-0.1","5847","approach_avoid_sv1","""event"",""trial"",""time""
""fullscreenenter"",""1"",""11288""
","
","
","""event"",""trial"",""time""
""fullscreenenter"",""1"",""11288""
","
","","","","","","2856.599999964237","<p> Today, we are going to ask you to try to remember all the items. </p>","","0","instructions","","",""
"learning-instructions","11","76931","0.0-9.0-0.2","5847","approach_avoid_sv1","""event"",""trial"",""time""
""fullscreenenter"",""1"",""11288""
","
","
","""event"",""trial"",""time""
""fullscreenenter"",""1"",""11288""
","
","","","","","","940.1999999880791","<p> On every trial, you will see an image. </p><p> The image may be an OLD image you saw during the games last week or it may be a NEW image that was not presented. </p>","","0","instructions","","",""
"learning-instructions","12","89981","0.0-9.0-0.3","5847","approach_avoid_sv1","""event"",""trial"",""time""
""fullscreenenter"",""1"",""11288""
","
","
","""event"",""trial"",""time""
""fullscreenenter"",""1"",""11288""
","
","","","","","","4539.100000023842","<p> You need to select whether the image is:  </p><p>  'Definitely old', 'Maybe old', 'Maybe new', or 'Definitely new.'  </p><div class=""mem-choice-instructions-grid""><div class=""choice-option"" id=""choice-option-1"" ><img src=""images/definitely_old_1.png"" id=""choice-option-img-1"" class=""choice-option-img"" stage=""1""></div><div class=""choice-option"" id=""choice-option-2"" ><img src=""images/maybe_old_1.png"" id=""choice-option-img-2"" class=""choice-option-img"" stage=""1""></div><div class=""choice-option"" id=""choice-option-3"" ><img src=""images/maybe_new_1.png"" id=""choice-option-img-3"" class=""choice-option-img"" stage=""1""></div><div class=""choice-option"" id=""choice-option-4"" > <img src=""images/definitely_new_1.png"" id=""choice-option-img-4"" class=""choice-option-img"" stage=""1""></div></div>","","0","instructions","","",""
"learning-instructions","13","101191","0.0-9.0-0.4","5847","approach_avoid_sv1","""event"",""trial"",""time""
""fullscreenenter"",""1"",""11288""
","
","
","""event"",""trial"",""time""
""fullscreenenter"",""1"",""11288""
","
","","","","","","4689.400000035763","<p> You should use the 1, 2, 3, and 4 keys to make your responses.  </p><div class=""mem-choice-instructions-grid""><div class=""choice-option"" id=""choice-option-1"" ><img src=""images/definitely_old.png"" id=""choice-option-img-1"" class=""choice-option-img"" stage=""1""></div><div class=""choice-option"" id=""choice-option-2"" ><img src=""images/maybe_old.png"" id=""choice-option-img-2"" class=""choice-option-img"" stage=""1""></div><div class=""choice-option"" id=""choice-option-3"" ><img src=""images/maybe_new.png"" id=""choice-option-img-3"" class=""choice-option-img"" stage=""1""></div><div class=""choice-option"" id=""choice-option-4"" > <img src=""images/definitely_new.png"" id=""choice-option-img-4"" class=""choice-option-img"" stage=""1""></div></div>","","0","instructions","","",""
"learning-instructions","14","108711","0.0-9.0-0.5","5847","approach_avoid_sv1","""event"",""trial"",""time""
""fullscreenenter"",""1"",""11288""
","
","
","""event"",""trial"",""time""
""fullscreenenter"",""1"",""11288""
","
","","","","","","1180.1000000238419","<p> You will have 10 seconds to make each response.  </p><p>  Make sure to respond before time runs out! </p>","","0","instructions","","",""
"learning-instructions","15","117255","0.0-9.0-0.6","5847","approach_avoid_sv1","""event"",""trial"",""time""
""fullscreenenter"",""1"",""11288""
","
","
","""event"",""trial"",""time""
""fullscreenenter"",""1"",""11288""
","
","","","","","","1464.4000000357628","<p> Today, you will see each image ONCE only.  </p><p>  That means none of the images will repeat. </p>","","0","instructions","","",""
"learning-instructions","16","131611","0.0-9.0-0.7","5847","approach_avoid_sv1","""event"",""trial"",""time""
""fullscreenenter"",""1"",""11288""
","
","
","""event"",""trial"",""time""
""fullscreenenter"",""1"",""11288""
","
","","","","","","1669.300000011921","<p> Before you play the real game, it is time to practice. </p><p>  Just like in the real game, some of the images in the practice will be ones you have seen before. </p><p>  Others will be entirely new. </p>","","0","instructions","","",""
"html-button-response","17","134028","0.0-10.0","5847","approach_avoid_sv1","""event"",""trial"",""time""
""fullscreenenter"",""1"",""11288""
","
","
","""event"",""trial"",""time""
""fullscreenenter"",""1"",""11288""
","
","","","","","","2305","<p> Ready to practice? </p><p> Remember, use the 1, 2, 3, and 4 keys to make your responses. </p>","0","","instructions","","",""
"html-keyboard-response","18","134658","0.0-11.0-0.0","5847","approach_avoid_sv1","""event"",""trial"",""time""
""fullscreenenter"",""1"",""11288""
","
","
","""event"",""trial"",""time""
""fullscreenenter"",""1"",""11288""
","
","","","","","","null","<div style=""font-size:60px;"">+</div>","null","","fixation","","",""
"memory-trial","19","136665","0.0-11.0-1.0","5847","approach_avoid_sv1","""event"",""trial"",""time""
""fullscreenenter"",""1"",""11288""
","
","
","""event"",""trial"",""time""
""fullscreenenter"",""1"",""11288""
","
","","","","","","1001.3999999761581","images/racket1.png","","","practice","1","definitely_old",""
"html-keyboard-response","20","137174","0.0-11.0-0.1","5847","approach_avoid_sv1","""event"",""trial"",""time""
""fullscreenenter"",""1"",""11288""
","
","
","""event"",""trial"",""time""
""fullscreenenter"",""1"",""11288""
","
","","","","","","null","<div style=""font-size:60px;"">+</div>","null","","fixation","","",""
"memory-trial","21","139913","0.0-11.0-1.1","5847","approach_avoid_sv1","""event"",""trial"",""time""
""fullscreenenter"",""1"",""11288""
","
","
","""event"",""trial"",""time""
""fullscreenenter"",""1"",""11288""
","
","","","","","","1733.699999988079","images/ball5.png","","","practice","4","definitely_new",""
"html-keyboard-response","22","140416","0.0-11.0-0.2","5847","approach_avoid_sv1","""event"",""trial"",""time""
""fullscreenenter"",""1"",""11288""
","
","
","""event"",""trial"",""time""
""fullscreenenter"",""1"",""11288""
","
","","","","","","null","<div style=""font-size:60px;"">+</div>","null","","fixation","","",""
"memory-trial","23","144791","0.0-11.0-1.2","5847","approach_avoid_sv1","""event"",""trial"",""time""
""fullscreenenter"",""1"",""11288""
","
","
","""event"",""trial"",""time""
""fullscreenenter"",""1"",""11288""
","
","","","","","","3349.5","images/ball2.png","","","practice","2","maybe_old",""
"html-keyboard-response","24","145307","0.0-11.0-0.3","5847","approach_avoid_sv1","""event"",""trial"",""time""
""fullscreenenter"",""1"",""11288""
","
","
","""event"",""trial"",""time""
""fullscreenenter"",""1"",""11288""
","
","","","","","","null","<div style=""font-size:60px;"">+</div>","null","","fixation","","",""
"memory-trial","25","148062","0.0-11.0-1.3","5847","approach_avoid_sv1","""event"",""trial"",""time""
""fullscreenenter"",""1"",""11288""
","
","
","""event"",""trial"",""time""
""fullscreenenter"",""1"",""11288""
","
","","","","","","1730.800000011921","images/ball3.png","","","practice","1","definitely_old",""
"html-keyboard-response","26","148569","0.0-11.0-0.4","5847","approach_avoid_sv1","""event"",""trial"",""time""
""fullscreenenter"",""1"",""11288""
","
","
","""event"",""trial"",""time""
""fullscreenenter"",""1"",""11288""
","
","","","","","","null","<div style=""font-size:60px;"">+</div>","null","","fixation","","",""
"memory-trial","27","150959","0.0-11.0-1.4","5847","approach_avoid_sv1","""event"",""trial"",""time""
""fullscreenenter"",""1"",""11288""
","
","
","""event"",""trial"",""time""
""fullscreenenter"",""1"",""11288""
","
","","","","","","1370.8999999761581","images/racket3.png","","","practice","1","definitely_old",""
"html-keyboard-response","28","151472","0.0-11.0-0.5","5847","approach_avoid_sv1","""event"",""trial"",""time""
""fullscreenenter"",""1"",""11288""
","
","
","""event"",""trial"",""time""
""fullscreenenter"",""1"",""11288""
","
","","","","","","null","<div style=""font-size:60px;"">+</div>","null","","fixation","","",""
"memory-trial","29","153861","0.0-11.0-1.5","5847","approach_avoid_sv1","""event"",""trial"",""time""
""fullscreenenter"",""1"",""11288""
","
","
","""event"",""trial"",""time""
""fullscreenenter"",""1"",""11288""
","
","","","","","","1368.5999999642372","images/ball1.png","","","practice","1","definitely_old",""
"html-keyboard-response","30","154378","0.0-11.0-0.6","5847","approach_avoid_sv1","""event"",""trial"",""time""
""fullscreenenter"",""1"",""11288""
","
","
","""event"",""trial"",""time""
""fullscreenenter"",""1"",""11288""
","
","","","","","","null","<div style=""font-size:60px;"">+</div>","null","","fixation","","",""
"memory-trial","31","156776","0.0-11.0-1.6","5847","approach_avoid_sv1","""event"",""trial"",""time""
""fullscreenenter"",""1"",""11288""
","
","
","""event"",""trial"",""time""
""fullscreenenter"",""1"",""11288""
","
","","","","","","1393.300000011921","images/racket5.png","","","practice","1","definitely_old",""
"html-keyboard-response","32","157282","0.0-11.0-0.7","5847","approach_avoid_sv1","""event"",""trial"",""time""
""fullscreenenter"",""1"",""11288""
","
","
","""event"",""trial"",""time""
""fullscreenenter"",""1"",""11288""
","
","","","","","","null","<div style=""font-size:60px;"">+</div>","null","","fixation","","",""
"memory-trial","33","159453","0.0-11.0-1.7","5847","approach_avoid_sv1","""event"",""trial"",""time""
""fullscreenenter"",""1"",""11288""
","
","
","""event"",""trial"",""time""
""fullscreenenter"",""1"",""11288""
","
","","","","","","1158.199999988079","images/racket2.png","","","practice","1","definitely_old",""
"learning-instructions","34","170304","0.0-12.0-0.0","5847","approach_avoid_sv1","""event"",""trial"",""time""
""fullscreenenter"",""1"",""11288""
","
","
","""event"",""trial"",""time""
""fullscreenenter"",""1"",""11288""
","
","","","","","","3542.300000011921","<p> Great! You have completed the practice. </p><p> Before you start, we're going to ask you a few questions about how the game works.  </p>","","0","instructions","","",""
"preload","35","191971","0.0-13.0","5847","approach_avoid_sv1","""event"",""trial"",""time""
""fullscreenenter"",""1"",""11288""
","
","
","""event"",""trial"",""time""
""fullscreenenter"",""1"",""11288""
","
","true","false","[]","[]","[]","","","","","","","",""
"comp-q","36","199196","0.0-14.0-0.0","5847","approach_avoid_sv1","""event"",""trial"",""time""
""fullscreenenter"",""1"",""11288""
","
","
","""event"",""trial"",""time""
""fullscreenenter"",""1"",""11288""
","
","","","","","","1396.199999988079","<p> <b> True or False? </b> </p><p> In this game, you will only see each image once. </p>","","0","comp_question","","","true"
"comp-q","37","206914","0.0-14.0-1.0","5847","approach_avoid_sv1","""event"",""trial"",""time""
""fullscreenenter"",""1"",""11288""
","
","
","""event"",""trial"",""time""
""fullscreenenter"",""1"",""11288""
","
","","","","","","1363.800000011921","<p> <b> That's right! </b> You will see many different images <i> one time each </i> in this game. </p>","","0","comp_answer","","",""
"comp-q","38","212914","0.0-15.0-0.0","5847","approach_avoid_sv1","""event"",""trial"",""time""
""fullscreenenter"",""1"",""11288""
","
","
","""event"",""trial"",""time""
""fullscreenenter"",""1"",""11288""
","
","","","","","","984.3999999761581","<p> <b> True or False? </b> </p><p> You should use the mouse and click to make your response. </p>","","1","comp_question","","","true"
"comp-q","39","220468","0.0-15.0-1.0","5847","approach_avoid_sv1","""event"",""trial"",""time""
""fullscreenenter"",""1"",""11288""
","
","
","""event"",""trial"",""time""
""fullscreenenter"",""1"",""11288""
","
","","","","","","1038.5","<p><b> That's right! </b> You should use the '1', '2', '3', and '4' keys to make your response. </p>","","0","comp_answer","","",""
"comp-q","40","226958","0.0-16.0-0.0","5847","approach_avoid_sv1","""event"",""trial"",""time""
""fullscreenenter"",""1"",""11288""
","
","
","""event"",""trial"",""time""
""fullscreenenter"",""1"",""11288""
","
","","","","","","808.8999999761581","<p> <b> True or False? </b> </p><p> You will have as much time as you want to make each choice. </p>","","1","comp_question","","","true"
"comp-q","41","232748","0.0-16.0-1.0","5847","approach_avoid_sv1","""event"",""trial"",""time""
""fullscreenenter"",""1"",""11288""
","
","
","""event"",""trial"",""time""
""fullscreenenter"",""1"",""11288""
","
","","","","","","1098.2000000476837","<p> <b> That's right! </b> You will only have 10 seconds to make each choice. </p>","","0","comp_answer","","",""
"learning-instructions","42","243395","0.0-17.0","5847","approach_avoid_sv1","""event"",""trial"",""time""
""fullscreenenter"",""1"",""11288""
","
","
","""event"",""trial"",""time""
""fullscreenenter"",""1"",""11288""
","
","","","","","","1964.5","<p> Great! You are now ready to begin the game. </p><p> Remember, use the 1, 2, 3, and 4 keys to make your responses. </p>","","0","instructions","","",""
"html-keyboard-response","43","244012","0.0-18.0-0.0","5847","approach_avoid_sv1","""event"",""trial"",""time""
""fullscreenenter"",""1"",""11288""
","
","
","""event"",""trial"",""time""
""fullscreenenter"",""1"",""11288""
","
","","","","","","null","<div style=""font-size:60px;"">+</div>","null","","fixation","","",""
"memory-trial","44","246306","0.0-18.0-1.0","5847","approach_avoid_sv1","""event"",""trial"",""time""
""fullscreenenter"",""1"",""11288""
","
","
","""event"",""trial"",""time""
""fullscreenenter"",""1"",""11288""
","
","","","","","","1273.5","images/apple2.png","","","memory_trial","1","definitely_old",""
"html-keyboard-response","45","246825","0.0-18.0-0.1","5847","approach_avoid_sv1","""event"",""trial"",""time""
""fullscreenenter"",""1"",""11288""
","
","
","""event"",""trial"",""time""
""fullscreenenter"",""1"",""11288""
","
","","","","","","null","<div style=""font-size:60px;"">+</div>","null","","fixation","","",""
"memory-trial","46","249928","0.0-18.0-1.1","5847","approach_avoid_sv1","""event"",""trial"",""time""
""fullscreenenter"",""1"",""11288""
","
","
","""event"",""trial"",""time""
""fullscreenenter"",""1"",""11288""
","
","","","","","","2083.199999988079","images/boat8.png","","","memory_trial","3","maybe_new",""
"html-keyboard-response","47","250444","0.0-18.0-0.2","5847","approach_avoid_sv1","""event"",""trial"",""time""
""fullscreenenter"",""1"",""11288""
","
","
","""event"",""trial"",""time""
""fullscreenenter"",""1"",""11288""
","
","","","","","","null","<div style=""font-size:60px;"">+</div>","null","","fixation","","",""
"memory-trial","48","252818","0.0-18.0-1.2","5847","approach_avoid_sv1","""event"",""trial"",""time""
""fullscreenenter"",""1"",""11288""
","
","
","""event"",""trial"",""time""
""fullscreenenter"",""1"",""11288""
","
","","","","","","1355.800000011921","images/rabbit7.png","","","memory_trial","1","definitely_old",""
"html-keyboard-response","49","253334","0.0-18.0-0.3","5847","approach_avoid_sv1","""event"",""trial"",""time""
""fullscreenenter"",""1"",""11288""
","
","
","""event"",""trial"",""time""
""fullscreenenter"",""1"",""11288""
","
","","","","","","null","<div style=""font-size:60px;"">+</div>","null","","fixation","","",""
"memory-trial","50","255608","0.0-18.0-1.3","5847","approach_avoid_sv1","""event"",""trial"",""time""
""fullscreenenter"",""1"",""11288""
","
","
","""event"",""trial"",""time""
""fullscreenenter"",""1"",""11288""
","
","","","","","","1256.5999999642372","images/chair3.png","","","memory_trial","1","definitely_old",""
"html-keyboard-response","51","256122","0.0-18.0-0.4","5847","approach_avoid_sv1","""event"",""trial"",""time""
""fullscreenenter"",""1"",""11288""
","
","
","""event"",""trial"",""time""
""fullscreenenter"",""1"",""11288""
","
","","","","","","null","<div style=""font-size:60px;"">+</div>","null","","fixation","","",""
"memory-trial","52","258142","0.0-18.0-1.4","5847","approach_avoid_sv1","""event"",""trial"",""time""
""fullscreenenter"",""1"",""11288""
","
","
","""event"",""trial"",""time""
""fullscreenenter"",""1"",""11288""
","
","","","","","","1003","images/cat8.png","","","memory_trial","1","definitely_old",""
"html-keyboard-response","53","258657","0.0-18.0-0.5","5847","approach_avoid_sv1","""event"",""trial"",""time""
""fullscreenenter"",""1"",""11288""
","
","
","""event"",""trial"",""time""
""fullscreenenter"",""1"",""11288""
","
","","","","","","null","<div style=""font-size:60px;"">+</div>","null","","fixation","","",""
"memory-trial","54","260458","0.0-18.0-1.5","5847","approach_avoid_sv1","""event"",""trial"",""time""
""fullscreenenter"",""1"",""11288""
","
","
","""event"",""trial"",""time""
""fullscreenenter"",""1"",""11288""
","
","","","","","","788.5999999642372","images/horse5.png","","","memory_trial","1","definitely_old",""
"html-keyboard-response","55","260979","0.0-18.0-0.6","5847","approach_avoid_sv1","""event"",""trial"",""time""
""fullscreenenter"",""1"",""11288""
","
","
","""event"",""trial"",""time""
""fullscreenenter"",""1"",""11288""
","
","","","","","","null","<div style=""font-size:60px;"">+</div>","null","","fixation","","",""
"memory-trial","56","262928","0.0-18.0-1.6","5847","approach_avoid_sv1","""event"",""trial"",""time""
""fullscreenenter"",""1"",""11288""
","
","
","""event"",""trial"",""time""
""fullscreenenter"",""1"",""11288""
","
","","","","","","937.8000000119209","images/straw3.png","","","memory_trial","1","definitely_old",""
"html-keyboard-response","57","263445","0.0-18.0-0.7","5847","approach_avoid_sv1","""event"",""trial"",""time""
""fullscreenenter"",""1"",""11288""
","
","
","""event"",""trial"",""time""
""fullscreenenter"",""1"",""11288""
","
","","","","","","null","<div style=""font-size:60px;"">+</div>","null","","fixation","","",""
"memory-trial","58","266664","0.0-18.0-1.7","5847","approach_avoid_sv1","""event"",""trial"",""time""
""fullscreenenter"",""1"",""11288""
","
","
","""event"",""trial"",""time""
""fullscreenenter"",""1"",""11288""
","
","","","","","","2199.199999988079","images/apple1.png","","","memory_trial","3","maybe_new",""
"html-keyboard-response","59","267176","0.0-18.0-0.8","5847","approach_avoid_sv1","""event"",""trial"",""time""
""fullscreenenter"",""1"",""11288""
","
","
","""event"",""trial"",""time""
""fullscreenenter"",""1"",""11288""
","
","","","","","","null","<div style=""font-size:60px;"">+</div>","null","","fixation","","",""
"memory-trial","60","270011","0.0-18.0-1.8","5847","approach_avoid_sv1","""event"",""trial"",""time""
""fullscreenenter"",""1"",""11288""
","
","
","""event"",""trial"",""time""
""fullscreenenter"",""1"",""11288""
","
","","","","","","1813.800000011921","images/orange6.png","","","memory_trial","1","definitely_old",""
"html-keyboard-response","61","270531","0.0-18.0-0.9","5847","approach_avoid_sv1","""event"",""trial"",""time""
""fullscreenenter"",""1"",""11288""
","
","
","""event"",""trial"",""time""
""fullscreenenter"",""1"",""11288""
","
","","","","","","null","<div style=""font-size:60px;"">+</div>","null","","fixation","","",""
"memory-trial","62","272579","0.0-18.0-1.9","5847","approach_avoid_sv1","""event"",""trial"",""time""
""fullscreenenter"",""1"",""11288""
","
","
","""event"",""trial"",""time""
""fullscreenenter"",""1"",""11288""
","
","","","","","","1037.3999999761581","images/orange4.png","","","memory_trial","1","definitely_old",""
"html-keyboard-response","63","273090","0.0-18.0-0.10","5847","approach_avoid_sv1","""event"",""trial"",""time""
""fullscreenenter"",""1"",""11288""
","
","
","""event"",""trial"",""time""
""fullscreenenter"",""1"",""11288""
","
","","","","","","null","<div style=""font-size:60px;"">+</div>","null","","fixation","","",""
"memory-trial","64","275230","0.0-18.0-1.10","5847","approach_avoid_sv1","""event"",""trial"",""time""
""fullscreenenter"",""1"",""11288""
","
","
","""event"",""trial"",""time""
""fullscreenenter"",""1"",""11288""
","
","","","","","","1124.300000011921","images/rodent2.png","","","memory_trial","1","definitely_old",""
"html-keyboard-response","65","275738","0.0-18.0-0.11","5847","approach_avoid_sv1","""event"",""trial"",""time""
""fullscreenenter"",""1"",""11288""
","
","
","""event"",""trial"",""time""
""fullscreenenter"",""1"",""11288""
","
","","","","","","null","<div style=""font-size:60px;"">+</div>","null","","fixation","","",""
"memory-trial","66","278744","0.0-18.0-1.11","5847","approach_avoid_sv1","""event"",""trial"",""time""
""fullscreenenter"",""1"",""11288""
","
","
","""event"",""trial"",""time""
""fullscreenenter"",""1"",""11288""
","
","","","","","","1984.7999999523163","images/dog3.png","","","memory_trial","1","definitely_old",""
"html-keyboard-response","67","279251","0.0-18.0-0.12","5847","approach_avoid_sv1","""event"",""trial"",""time""
""fullscreenenter"",""1"",""11288""
","
","
","""event"",""trial"",""time""
""fullscreenenter"",""1"",""11288""
","
","","","","","","null","<div style=""font-size:60px;"">+</div>","null","","fixation","","",""
"memory-trial","68","282202","0.0-18.0-1.12","5847","approach_avoid_sv1","""event"",""trial"",""time""
""fullscreenenter"",""1"",""11288""
","
","
","""event"",""trial"",""time""
""fullscreenenter"",""1"",""11288""
","
","","","","","","1938.5999999642372","images/train3.png","","","memory_trial","2","maybe_old",""
"html-keyboard-response","69","282715","0.0-18.0-0.13","5847","approach_avoid_sv1","""event"",""trial"",""time""
""fullscreenenter"",""1"",""11288""
","
","
","""event"",""trial"",""time""
""fullscreenenter"",""1"",""11288""
","
","","","","","","null","<div style=""font-size:60px;"">+</div>","null","","fixation","","",""
"memory-trial","70","284987","0.0-18.0-1.13","5847","approach_avoid_sv1","""event"",""trial"",""time""
""fullscreenenter"",""1"",""11288""
","
","
","""event"",""trial"",""time""
""fullscreenenter"",""1"",""11288""
","
","","","","","","1259.5","images/dog5.png","","","memory_trial","1","definitely_old",""
"html-keyboard-response","71","285500","0.0-18.0-0.14","5847","approach_avoid_sv1","""event"",""trial"",""time""
""fullscreenenter"",""1"",""11288""
","
","
","""event"",""trial"",""time""
""fullscreenenter"",""1"",""11288""
","
","","","","","","null","<div style=""font-size:60px;"">+</div>","null","","fixation","","",""
"memory-trial","72","287809","0.0-18.0-1.14","5847","approach_avoid_sv1","""event"",""trial"",""time""
""fullscreenenter"",""1"",""11288""
","
","
","""event"",""trial"",""time""
""fullscreenenter"",""1"",""11288""
","
","","","","","","1293.3999999761581","images/sofa1.png","","","memory_trial","1","definitely_old",""
"html-keyboard-response","73","288317","0.0-18.0-0.15","5847","approach_avoid_sv1","""event"",""trial"",""time""
""fullscreenenter"",""1"",""11288""
","
","
","""event"",""trial"",""time""
""fullscreenenter"",""1"",""11288""
","
","","","","","","null","<div style=""font-size:60px;"">+</div>","null","","fixation","","",""
"memory-trial","74","290815","0.0-18.0-1.15","5847","approach_avoid_sv1","""event"",""trial"",""time""
""fullscreenenter"",""1"",""11288""
","
","
","""event"",""trial"",""time""
""fullscreenenter"",""1"",""11288""
","
","","","","","","1484.3999999761581","images/train8.png","","","memory_trial","1","definitely_old",""
"html-keyboard-response","75","291323","0.0-18.0-0.16","5847","approach_avoid_sv1","""event"",""trial"",""time""
""fullscreenenter"",""1"",""11288""
","
","
","""event"",""trial"",""time""
""fullscreenenter"",""1"",""11288""
","
","","","","","","null","<div style=""font-size:60px;"">+</div>","null","","fixation","","",""
"memory-trial","76","293290","0.0-18.0-1.16","5847","approach_avoid_sv1","""event"",""trial"",""time""
""fullscreenenter"",""1"",""11288""
","
","
","""event"",""trial"",""time""
""fullscreenenter"",""1"",""11288""
","
","","","","","","956.3999999761581","images/cactus7.png","","","memory_trial","1","definitely_old",""
"html-keyboard-response","77","293807","0.0-18.0-0.17","5847","approach_avoid_sv1","""event"",""trial"",""time""
""fullscreenenter"",""1"",""11288""
","
","
","""event"",""trial"",""time""
""fullscreenenter"",""1"",""11288""
","
","","","","","","null","<div style=""font-size:60px;"">+</div>","null","","fixation","","",""
"memory-trial","78","296776","0.0-18.0-1.17","5847","approach_avoid_sv1","""event"",""trial"",""time""
""fullscreenenter"",""1"",""11288""
","
","
","""event"",""trial"",""time""
""fullscreenenter"",""1"",""11288""
","
","","","","","","1960.3999999761581","images/boat3.png","","","memory_trial","4","definitely_new",""
"html-keyboard-response","79","297284","0.0-18.0-0.18","5847","approach_avoid_sv1","""event"",""trial"",""time""
""fullscreenenter"",""1"",""11288""
","
","
","""event"",""trial"",""time""
""fullscreenenter"",""1"",""11288""
","
","","","","","","null","<div style=""font-size:60px;"">+</div>","null","","fixation","","",""
"memory-trial","80","300165","0.0-18.0-1.18","5847","approach_avoid_sv1","""event"",""trial"",""time""
""fullscreenenter"",""1"",""11288""
","
","
","""event"",""trial"",""time""
""fullscreenenter"",""1"",""11288""
","
","","","","","","1860.300000011921","images/plane1.png","","","memory_trial","4","definitely_new",""
"html-keyboard-response","81","300671","0.0-18.0-0.19","5847","approach_avoid_sv1","""event"",""trial"",""time""
""fullscreenenter"",""1"",""11288""
","
","
","""event"",""trial"",""time""
""fullscreenenter"",""1"",""11288""
","
","","","","","","null","<div style=""font-size:60px;"">+</div>","null","","fixation","","",""
"memory-trial","82","303292","0.0-18.0-1.19","5847","approach_avoid_sv1","""event"",""trial"",""time""
""fullscreenenter"",""1"",""11288""
","
","
","""event"",""trial"",""time""
""fullscreenenter"",""1"",""11288""
","
","","","","","","1606.3999999761581","images/truck5.png","","","memory_trial","3","maybe_new",""
"html-keyboard-response","83","303804","0.0-18.0-0.20","5847","approach_avoid_sv1","""event"",""trial"",""time""
""fullscreenenter"",""1"",""11288""
","
","
","""event"",""trial"",""time""
""fullscreenenter"",""1"",""11288""
","
","","","","","","null","<div style=""font-size:60px;"">+</div>","null","","fixation","","",""
"memory-trial","84","306249","0.0-18.0-1.20","5847","approach_avoid_sv1","""event"",""trial"",""time""
""fullscreenenter"",""1"",""11288""
","
","
","""event"",""trial"",""time""
""fullscreenenter"",""1"",""11288""
","
","","","","","","1427.4000000357628","images/plane8.png","","","memory_trial","3","maybe_new",""
"html-keyboard-response","85","306758","0.0-18.0-0.21","5847","approach_avoid_sv1","""event"",""trial"",""time""
""fullscreenenter"",""1"",""11288""
","
","
","""event"",""trial"",""time""
""fullscreenenter"",""1"",""11288""
","
","","","","","","null","<div style=""font-size:60px;"">+</div>","null","","fixation","","",""
"memory-trial","86","308877","0.0-18.0-1.21","5847","approach_avoid_sv1","""event"",""trial"",""time""
""fullscreenenter"",""1"",""11288""
","
","
","""event"",""trial"",""time""
""fullscreenenter"",""1"",""11288""
","
","","","","","","1106.6000000238419","images/cow2.png","","","memory_trial","1","definitely_old",""
"html-keyboard-response","87","309396","0.0-18.0-0.22","5847","approach_avoid_sv1","""event"",""trial"",""time""
""fullscreenenter"",""1"",""11288""
","
","
","""event"",""trial"",""time""
""fullscreenenter"",""1"",""11288""
","
","","","","","","null","<div style=""font-size:60px;"">+</div>","null","","fixation","","",""
"memory-trial","88","311911","0.0-18.0-1.22","5847","approach_avoid_sv1","""event"",""trial"",""time""
""fullscreenenter"",""1"",""11288""
","
","
","""event"",""trial"",""time""
""fullscreenenter"",""1"",""11288""
","
","","","","","","1495.300000011921","images/table8.png","","","memory_trial","4","definitely_new",""
"html-keyboard-response","89","312424","0.0-18.0-0.23","5847","approach_avoid_sv1","""event"",""trial"",""time""
""fullscreenenter"",""1"",""11288""
","
","
","""event"",""trial"",""time""
""fullscreenenter"",""1"",""11288""
","
","","","","","","null","<div style=""font-size:60px;"">+</div>","null","","fixation","","",""
"memory-trial","90","314886","0.0-18.0-1.23","5847","approach_avoid_sv1","""event"",""trial"",""time""
""fullscreenenter"",""1"",""11288""
","
","
","""event"",""trial"",""time""
""fullscreenenter"",""1"",""11288""
","
","","","","","","1444.300000011921","images/rodent4.png","","","memory_trial","1","definitely_old",""
"html-keyboard-response","91","315397","0.0-18.0-0.24","5847","approach_avoid_sv1","""event"",""trial"",""time""
""fullscreenenter"",""1"",""11288""
","
","
","""event"",""trial"",""time""
""fullscreenenter"",""1"",""11288""
","
","","","","","","null","<div style=""font-size:60px;"">+</div>","null","","fixation","","",""
"memory-trial","92","319293","0.0-18.0-1.24","5847","approach_avoid_sv1","""event"",""trial"",""time""
""fullscreenenter"",""1"",""11288""
","
","
","""event"",""trial"",""time""
""fullscreenenter"",""1"",""11288""
","
","","","","","","2881.599999964237","images/sheep6.png","","","memory_trial","2","maybe_old",""
"html-keyboard-response","93","319802","0.0-18.0-0.25","5847","approach_avoid_sv1","""event"",""trial"",""time""
""fullscreenenter"",""1"",""11288""
","
","
","""event"",""trial"",""time""
""fullscreenenter"",""1"",""11288""
","
","","","","","","null","<div style=""font-size:60px;"">+</div>","null","","fixation","","",""
"memory-trial","94","322266","0.0-18.0-1.25","5847","approach_avoid_sv1","""event"",""trial"",""time""
""fullscreenenter"",""1"",""11288""
","
","
","""event"",""trial"",""time""
""fullscreenenter"",""1"",""11288""
","
","","","","","","1453.2000000476837","images/bed4.png","","","memory_trial","1","definitely_old",""
"html-keyboard-response","95","322780","0.0-18.0-0.26","5847","approach_avoid_sv1","""event"",""trial"",""time""
""fullscreenenter"",""1"",""11288""
","
","
","""event"",""trial"",""time""
""fullscreenenter"",""1"",""11288""
","
","","","","","","null","<div style=""font-size:60px;"">+</div>","null","","fixation","","",""
"memory-trial","96","324889","0.0-18.0-1.26","5847","approach_avoid_sv1","""event"",""trial"",""time""
""fullscreenenter"",""1"",""11288""
","
","
","""event"",""trial"",""time""
""fullscreenenter"",""1"",""11288""
","
","","","","","","1085.4000000357628","images/banana8.png","","","memory_trial","1","definitely_old",""
"html-keyboard-response","97","325403","0.0-18.0-0.27","5847","approach_avoid_sv1","""event"",""trial"",""time""
""fullscreenenter"",""1"",""11288""
","
","
","""event"",""trial"",""time""
""fullscreenenter"",""1"",""11288""
","
","","","","","","null","<div style=""font-size:60px;"">+</div>","null","","fixation","","",""
"memory-trial","98","327441","0.0-18.0-1.27","5847","approach_avoid_sv1","""event"",""trial"",""time""
""fullscreenenter"",""1"",""11288""
","
","
","""event"",""trial"",""time""
""fullscreenenter"",""1"",""11288""
","
","","","","","","1028.800000011921","images/banana3.png","","","memory_trial","1","definitely_old",""
"html-keyboard-response","99","327950","0.0-18.0-0.28","5847","approach_avoid_sv1","""event"",""trial"",""time""
""fullscreenenter"",""1"",""11288""
","
","
","""event"",""trial"",""time""
""fullscreenenter"",""1"",""11288""
","
","","","","","","null","<div style=""font-size:60px;"">+</div>","null","","fixation","","",""
"memory-trial","100","332081","0.0-18.0-1.28","5847","approach_avoid_sv1","""event"",""trial"",""time""
""fullscreenenter"",""1"",""11288""
","
","
","""event"",""trial"",""time""
""fullscreenenter"",""1"",""11288""
","
","","","","","","3112.400000035763","images/truck6.png","","","memory_trial","4","definitely_new",""
"html-keyboard-response","101","332596","0.0-18.0-0.29","5847","approach_avoid_sv1","""event"",""trial"",""time""
""fullscreenenter"",""1"",""11288""
","
","
","""event"",""trial"",""time""
""fullscreenenter"",""1"",""11288""
","
","","","","","","null","<div style=""font-size:60px;"">+</div>","null","","fixation","","",""
"memory-trial","102","336502","0.0-18.0-1.29","5847","approach_avoid_sv1","""event"",""trial"",""time""
""fullscreenenter"",""1"",""11288""
","
","
","""event"",""trial"",""time""
""fullscreenenter"",""1"",""11288""
","
","","","","","","2898","images/bush2.png","","","memory_trial","2","maybe_old",""
"html-keyboard-response","103","337009","0.0-18.0-0.30","5847","approach_avoid_sv1","""event"",""trial"",""time""
""fullscreenenter"",""1"",""11288""
","
","
","""event"",""trial"",""time""
""fullscreenenter"",""1"",""11288""
","
","","","","","","null","<div style=""font-size:60px;"">+</div>","null","","fixation","","",""
"memory-trial","104","340231","0.0-18.0-1.30","5847","approach_avoid_sv1","""event"",""trial"",""time""
""fullscreenenter"",""1"",""11288""
","
","
","""event"",""trial"",""time""
""fullscreenenter"",""1"",""11288""
","
","","","","","","2213","images/goat8.png","","","memory_trial","4","definitely_new",""
"html-keyboard-response","105","340736","0.0-18.0-0.31","5847","approach_avoid_sv1","""event"",""trial"",""time""
""fullscreenenter"",""1"",""11288""
","
","
","""event"",""trial"",""time""
""fullscreenenter"",""1"",""11288""
","
","","","","","","null","<div style=""font-size:60px;"">+</div>","null","","fixation","","",""
"memory-trial","106","342779","0.0-18.0-1.31","5847","approach_avoid_sv1","""event"",""trial"",""time""
""fullscreenenter"",""1"",""11288""
","
","
","""event"",""trial"",""time""
""fullscreenenter"",""1"",""11288""
","
","","","","","","1024.8999999761581","images/bush7.png","","","memory_trial","4","definitely_new",""
"html-keyboard-response","107","343287","0.0-18.0-0.32","5847","approach_avoid_sv1","""event"",""trial"",""time""
""fullscreenenter"",""1"",""11288""
","
","
","""event"",""trial"",""time""
""fullscreenenter"",""1"",""11288""
","
","","","","","","null","<div style=""font-size:60px;"">+</div>","null","","fixation","","",""
"memory-trial","108","345275","0.0-18.0-1.32","5847","approach_avoid_sv1","""event"",""trial"",""time""
""fullscreenenter"",""1"",""11288""
","
","
","""event"",""trial"",""time""
""fullscreenenter"",""1"",""11288""
","
","","","","","","974.5999999642372","images/straw2.png","","","memory_trial","1","definitely_old",""
"html-keyboard-response","109","345784","0.0-18.0-0.33","5847","approach_avoid_sv1","""event"",""trial"",""time""
""fullscreenenter"",""1"",""11288""
","
","
","""event"",""trial"",""time""
""fullscreenenter"",""1"",""11288""
","
","","","","","","null","<div style=""font-size:60px;"">+</div>","null","","fixation","","",""
"memory-trial","110","347869","0.0-18.0-1.33","5847","approach_avoid_sv1","""event"",""trial"",""time""
""fullscreenenter"",""1"",""11288""
","
","
","""event"",""trial"",""time""
""fullscreenenter"",""1"",""11288""
","
","","","","","","1079.199999988079","images/flower8.png","","","memory_trial","1","definitely_old",""
"html-keyboard-response","111","348381","0.0-18.0-0.34","5847","approach_avoid_sv1","""event"",""trial"",""time""
""fullscreenenter"",""1"",""11288""
","
","
","""event"",""trial"",""time""
""fullscreenenter"",""1"",""11288""
","
","","","","","","null","<div style=""font-size:60px;"">+</div>","null","","fixation","","",""
"memory-trial","112","351180","0.0-18.0-1.34","5847","approach_avoid_sv1","""event"",""trial"",""time""
""fullscreenenter"",""1"",""11288""
","
","
","""event"",""trial"",""time""
""fullscreenenter"",""1"",""11288""
","
","","","","","","1781.7000000476837","images/apple6.png","","","memory_trial","4","definitely_new",""
"html-keyboard-response","113","351689","0.0-18.0-0.35","5847","approach_avoid_sv1","""event"",""trial"",""time""
""fullscreenenter"",""1"",""11288""
","
","
","""event"",""trial"",""time""
""fullscreenenter"",""1"",""11288""
","
","","","","","","null","<div style=""font-size:60px;"">+</div>","null","","fixation","","",""
"memory-trial","114","353972","0.0-18.0-1.35","5847","approach_avoid_sv1","""event"",""trial"",""time""
""fullscreenenter"",""1"",""11288""
","
","
","""event"",""trial"",""time""
""fullscreenenter"",""1"",""11288""
","
","","","","","","1267.5","images/tree6.png","","","memory_trial","4","definitely_new",""
"html-keyboard-response","115","354480","0.0-18.0-0.36","5847","approach_avoid_sv1","""event"",""trial"",""time""
""fullscreenenter"",""1"",""11288""
","
","
","""event"",""trial"",""time""
""fullscreenenter"",""1"",""11288""
","
","","","","","","null","<div style=""font-size:60px;"">+</div>","null","","fixation","","",""
"memory-trial","116","356284","0.0-18.0-1.36","5847","approach_avoid_sv1","""event"",""trial"",""time""
""fullscreenenter"",""1"",""11288""
","
","
","""event"",""trial"",""time""
""fullscreenenter"",""1"",""11288""
","
","","","","","","792.1000000238419","images/tree3.png","","","memory_trial","4","definitely_new",""
"html-keyboard-response","117","356798","0.0-18.0-0.37","5847","approach_avoid_sv1","""event"",""trial"",""time""
""fullscreenenter"",""1"",""11288""
","
","
","""event"",""trial"",""time""
""fullscreenenter"",""1"",""11288""
","
","","","","","","null","<div style=""font-size:60px;"">+</div>","null","","fixation","","",""
"memory-trial","118","359296","0.0-18.0-1.37","5847","approach_avoid_sv1","""event"",""trial"",""time""
""fullscreenenter"",""1"",""11288""
","
","
","""event"",""trial"",""time""
""fullscreenenter"",""1"",""11288""
","
","","","","","","1484.7999999523163","images/bush6.png","","","memory_trial","3","maybe_new",""
"html-keyboard-response","119","359812","0.0-18.0-0.38","5847","approach_avoid_sv1","""event"",""trial"",""time""
""fullscreenenter"",""1"",""11288""
","
","
","""event"",""trial"",""time""
""fullscreenenter"",""1"",""11288""
","
","","","","","","null","<div style=""font-size:60px;"">+</div>","null","","fixation","","",""
"memory-trial","120","363853","0.0-18.0-1.38","5847","approach_avoid_sv1","""event"",""trial"",""time""
""fullscreenenter"",""1"",""11288""
","
","
","""event"",""trial"",""time""
""fullscreenenter"",""1"",""11288""
","
","","","","","","3029.2999999523163","images/bed8.png","","","memory_trial","3","maybe_new",""
"html-keyboard-response","121","364365","0.0-18.0-0.39","5847","approach_avoid_sv1","""event"",""trial"",""time""
""fullscreenenter"",""1"",""11288""
","
","
","""event"",""trial"",""time""
""fullscreenenter"",""1"",""11288""
","
","","","","","","null","<div style=""font-size:60px;"">+</div>","null","","fixation","","",""
"memory-trial","122","366798","0.0-18.0-1.39","5847","approach_avoid_sv1","""event"",""trial"",""time""
""fullscreenenter"",""1"",""11288""
","
","
","""event"",""trial"",""time""
""fullscreenenter"",""1"",""11288""
","
","","","","","","1415.2999999523163","images/flower2.png","","","memory_trial","3","maybe_new",""
"html-keyboard-response","123","367306","0.0-18.0-0.40","5847","approach_avoid_sv1","""event"",""trial"",""time""
""fullscreenenter"",""1"",""11288""
","
","
","""event"",""trial"",""time""
""fullscreenenter"",""1"",""11288""
","
","","","","","","null","<div style=""font-size:60px;"">+</div>","null","","fixation","","",""
"memory-trial","124","369771","0.0-18.0-1.40","5847","approach_avoid_sv1","""event"",""trial"",""time""
""fullscreenenter"",""1"",""11288""
","
","
","""event"",""trial"",""time""
""fullscreenenter"",""1"",""11288""
","
","","","","","","1450.5","images/sofa5.png","","","memory_trial","3","maybe_new",""
"html-keyboard-response","125","370281","0.0-18.0-0.41","5847","approach_avoid_sv1","""event"",""trial"",""time""
""fullscreenenter"",""1"",""11288""
","
","
","""event"",""trial"",""time""
""fullscreenenter"",""1"",""11288""
","
","","","","","","null","<div style=""font-size:60px;"">+</div>","null","","fixation","","",""
"memory-trial","126","373858","0.0-18.0-1.41","5847","approach_avoid_sv1","""event"",""trial"",""time""
""fullscreenenter"",""1"",""11288""
","
","
","""event"",""trial"",""time""
""fullscreenenter"",""1"",""11288""
","
","","","","","","2570","images/banana6.png","","","memory_trial","3","maybe_new",""
"html-button-response","127","377221","0.0-18.0-2.41-0.41","5847","approach_avoid_sv1","""event"",""trial"",""time""
""fullscreenenter"",""1"",""11288""
","
","
","""event"",""trial"",""time""
""fullscreenenter"",""1"",""11288""
","
","","","","","","3362","<p> Take a break! </p><p> Click the button to continue. </p>","0","","break","","",""
"html-keyboard-response","128","377730","0.0-18.0-0.42","5847","approach_avoid_sv1","""event"",""trial"",""time""
""fullscreenenter"",""1"",""11288""
","
","
","""event"",""trial"",""time""
""fullscreenenter"",""1"",""11288""
","
","","","","","","null","<div style=""font-size:60px;"">+</div>","null","","fixation","","",""
"memory-trial","129","380111","0.0-18.0-1.42","5847","approach_avoid_sv1","""event"",""trial"",""time""
""fullscreenenter"",""1"",""11288""
","
","
","""event"",""trial"",""time""
""fullscreenenter"",""1"",""11288""
","
","","","","","","1364.9000000357628","images/dog6.png","","","memory_trial","1","definitely_old",""
"html-keyboard-response","130","380618","0.0-18.0-0.43","5847","approach_avoid_sv1","""event"",""trial"",""time""
""fullscreenenter"",""1"",""11288""
","
","
","""event"",""trial"",""time""
""fullscreenenter"",""1"",""11288""
","
","","","","","","null","<div style=""font-size:60px;"">+</div>","null","","fixation","","",""
"memory-trial","131","383530","0.0-18.0-1.43","5847","approach_avoid_sv1","""event"",""trial"",""time""
""fullscreenenter"",""1"",""11288""
","
","
","""event"",""trial"",""time""
""fullscreenenter"",""1"",""11288""
","
","","","","","","1897.699999988079","images/cow4.png","","","memory_trial","2","maybe_old",""
"html-keyboard-response","132","384044","0.0-18.0-0.44","5847","approach_avoid_sv1","""event"",""trial"",""time""
""fullscreenenter"",""1"",""11288""
","
","
","""event"",""trial"",""time""
""fullscreenenter"",""1"",""11288""
","
","","","","","","null","<div style=""font-size:60px;"">+</div>","null","","fixation","","",""
"memory-trial","133","386350","0.0-18.0-1.44","5847","approach_avoid_sv1","""event"",""trial"",""time""
""fullscreenenter"",""1"",""11288""
","
","
","""event"",""trial"",""time""
""fullscreenenter"",""1"",""11288""
","
","","","","","","1288.800000011921","images/orange1.png","","","memory_trial","1","definitely_old",""
"html-keyboard-response","134","386870","0.0-18.0-0.45","5847","approach_avoid_sv1","""event"",""trial"",""time""
""fullscreenenter"",""1"",""11288""
","
","
","""event"",""trial"",""time""
""fullscreenenter"",""1"",""11288""
","
","","","","","","null","<div style=""font-size:60px;"">+</div>","null","","fixation","","",""
"memory-trial","135","389793","0.0-18.0-1.45","5847","approach_avoid_sv1","""event"",""trial"",""time""
""fullscreenenter"",""1"",""11288""
","
","
","""event"",""trial"",""time""
""fullscreenenter"",""1"",""11288""
","
","","","","","","1910.800000011921","images/bed3.png","","","memory_trial","4","definitely_new",""
"html-keyboard-response","136","390306","0.0-18.0-0.46","5847","approach_avoid_sv1","""event"",""trial"",""time""
""fullscreenenter"",""1"",""11288""
","
","
","""event"",""trial"",""time""
""fullscreenenter"",""1"",""11288""
","
","","","","","","null","<div style=""font-size:60px;"">+</div>","null","","fixation","","",""
"memory-trial","137","393847","0.0-18.0-1.46","5847","approach_avoid_sv1","""event"",""trial"",""time""
""fullscreenenter"",""1"",""11288""
","
","
","""event"",""trial"",""time""
""fullscreenenter"",""1"",""11288""
","
","","","","","","2523.099999964237","images/cat4.png","","","memory_trial","2","maybe_old",""
"html-keyboard-response","138","394354","0.0-18.0-0.47","5847","approach_avoid_sv1","""event"",""trial"",""time""
""fullscreenenter"",""1"",""11288""
","
","
","""event"",""trial"",""time""
""fullscreenenter"",""1"",""11288""
","
","","","","","","null","<div style=""font-size:60px;"">+</div>","null","","fixation","","",""
"memory-trial","139","398100","0.0-18.0-1.47","5847","approach_avoid_sv1","""event"",""trial"",""time""
""fullscreenenter"",""1"",""11288""
","
","
","""event"",""trial"",""time""
""fullscreenenter"",""1"",""11288""
","
","","","","","","2735.800000011921","images/horse7.png","","","memory_trial","4","definitely_new",""
"html-keyboard-response","140","398609","0.0-18.0-0.48","5847","approach_avoid_sv1","""event"",""trial"",""time""
""fullscreenenter"",""1"",""11288""
","
","
","""event"",""trial"",""time""
""fullscreenenter"",""1"",""11288""
","
","","","","","","null","<div style=""font-size:60px;"">+</div>","null","","fixation","","",""
"memory-trial","141","401764","0.0-18.0-1.48","5847","approach_avoid_sv1","""event"",""trial"",""time""
""fullscreenenter"",""1"",""11288""
","
","
","""event"",""trial"",""time""
""fullscreenenter"",""1"",""11288""
","
","","","","","","2146","images/cactus4.png","","","memory_trial","4","definitely_new",""
"html-keyboard-response","142","402271","0.0-18.0-0.49","5847","approach_avoid_sv1","""event"",""trial"",""time""
""fullscreenenter"",""1"",""11288""
","
","
","""event"",""trial"",""time""
""fullscreenenter"",""1"",""11288""
","
","","","","","","null","<div style=""font-size:60px;"">+</div>","null","","fixation","","",""
"memory-trial","143","404288","0.0-18.0-1.49","5847","approach_avoid_sv1","""event"",""trial"",""time""
""fullscreenenter"",""1"",""11288""
","
","
","""event"",""trial"",""time""
""fullscreenenter"",""1"",""11288""
","
","","","","","","998.1000000238419","images/goat5.png","","","memory_trial","4","definitely_new",""
"html-keyboard-response","144","404791","0.0-18.0-0.50","5847","approach_avoid_sv1","""event"",""trial"",""time""
""fullscreenenter"",""1"",""11288""
","
","
","""event"",""trial"",""time""
""fullscreenenter"",""1"",""11288""
","
","","","","","","null","<div style=""font-size:60px;"">+</div>","null","","fixation","","",""
"memory-trial","145","406770","0.0-18.0-1.50","5847","approach_avoid_sv1","""event"",""trial"",""time""
""fullscreenenter"",""1"",""11288""
","
","
","""event"",""trial"",""time""
""fullscreenenter"",""1"",""11288""
","
","","","","","","961.9000000357628","images/apple8.png","","","memory_trial","4","definitely_new",""
"html-keyboard-response","146","407284","0.0-18.0-0.51","5847","approach_avoid_sv1","""event"",""trial"",""time""
""fullscreenenter"",""1"",""11288""
","
","
","""event"",""trial"",""time""
""fullscreenenter"",""1"",""11288""
","
","","","","","","null","<div style=""font-size:60px;"">+</div>","null","","fixation","","",""
"memory-trial","147","410121","0.0-18.0-1.51","5847","approach_avoid_sv1","""event"",""trial"",""time""
""fullscreenenter"",""1"",""11288""
","
","
","""event"",""trial"",""time""
""fullscreenenter"",""1"",""11288""
","
","","","","","","1825.2999999523163","images/table4.png","","","memory_trial","2","maybe_old",""
"html-keyboard-response","148","410638","0.0-18.0-0.52","5847","approach_avoid_sv1","""event"",""trial"",""time""
""fullscreenenter"",""1"",""11288""
","
","
","""event"",""trial"",""time""
""fullscreenenter"",""1"",""11288""
","
","","","","","","null","<div style=""font-size:60px;"">+</div>","null","","fixation","","",""
"memory-trial","149","413728","0.0-18.0-1.52","5847","approach_avoid_sv1","""event"",""trial"",""time""
""fullscreenenter"",""1"",""11288""
","
","
","""event"",""trial"",""time""
""fullscreenenter"",""1"",""11288""
","
","","","","","","2077.5","images/tree8.png","","","memory_trial","4","definitely_new",""
"html-keyboard-response","150","414235","0.0-18.0-0.53","5847","approach_avoid_sv1","""event"",""trial"",""time""
""fullscreenenter"",""1"",""11288""
","
","
","""event"",""trial"",""time""
""fullscreenenter"",""1"",""11288""
","
","","","","","","null","<div style=""font-size:60px;"">+</div>","null","","fixation","","",""
"memory-trial","151","417915","0.0-18.0-1.53","5847","approach_avoid_sv1","""event"",""trial"",""time""
""fullscreenenter"",""1"",""11288""
","
","
","""event"",""trial"",""time""
""fullscreenenter"",""1"",""11288""
","
","","","","","","2664.900000035763","images/bed6.png","","","memory_trial","2","maybe_old",""
"html-keyboard-response","152","418432","0.0-18.0-0.54","5847","approach_avoid_sv1","""event"",""trial"",""time""
""fullscreenenter"",""1"",""11288""
","
","
","""event"",""trial"",""time""
""fullscreenenter"",""1"",""11288""
","
","","","","","","null","<div style=""font-size:60px;"">+</div>","null","","fixation","","",""
"memory-trial","153","421043","0.0-18.0-1.54","5847","approach_avoid_sv1","""event"",""trial"",""time""
""fullscreenenter"",""1"",""11288""
","
","
","""event"",""trial"",""time""
""fullscreenenter"",""1"",""11288""
","
","","","","","","1595.6000000238419","images/cow6.png","","","memory_trial","1","definitely_old",""
"html-keyboard-response","154","421556","0.0-18.0-0.55","5847","approach_avoid_sv1","""event"",""trial"",""time""
""fullscreenenter"",""1"",""11288""
","
","
","""event"",""trial"",""time""
""fullscreenenter"",""1"",""11288""
","
","","","","","","null","<div style=""font-size:60px;"">+</div>","null","","fixation","","",""
"memory-trial","155","424210","0.0-18.0-1.55","5847","approach_avoid_sv1","""event"",""trial"",""time""
""fullscreenenter"",""1"",""11288""
","
","
","""event"",""trial"",""time""
""fullscreenenter"",""1"",""11288""
","
","","","","","","1638.8999999761581","images/flower3.png","","","memory_trial","4","definitely_new",""
"html-keyboard-response","156","424722","0.0-18.0-0.56","5847","approach_avoid_sv1","""event"",""trial"",""time""
""fullscreenenter"",""1"",""11288""
","
","
","""event"",""trial"",""time""
""fullscreenenter"",""1"",""11288""
","
","","","","","","null","<div style=""font-size:60px;"">+</div>","null","","fixation","","",""
"memory-trial","157","428161","0.0-18.0-1.56","5847","approach_avoid_sv1","""event"",""trial"",""time""
""fullscreenenter"",""1"",""11288""
","
","
","""event"",""trial"",""time""
""fullscreenenter"",""1"",""11288""
","
","","","","","","2422.899999976158","images/goat2.png","","","memory_trial","4","definitely_new",""
"html-keyboard-response","158","428678","0.0-18.0-0.57","5847","approach_avoid_sv1","""event"",""trial"",""time""
""fullscreenenter"",""1"",""11288""
","
","
","""event"",""trial"",""time""
""fullscreenenter"",""1"",""11288""
","
","","","","","","null","<div style=""font-size:60px;"">+</div>","null","","fixation","","",""
"memory-trial","159","432115","0.0-18.0-1.57","5847","approach_avoid_sv1","""event"",""trial"",""time""
""fullscreenenter"",""1"",""11288""
","
","
","""event"",""trial"",""time""
""fullscreenenter"",""1"",""11288""
","
","","","","","","2419.600000023842","images/train7.png","","","memory_trial","4","definitely_new",""
"html-keyboard-response","160","432627","0.0-18.0-0.58","5847","approach_avoid_sv1","""event"",""trial"",""time""
""fullscreenenter"",""1"",""11288""
","
","
","""event"",""trial"",""time""
""fullscreenenter"",""1"",""11288""
","
","","","","","","null","<div style=""font-size:60px;"">+</div>","null","","fixation","","",""
"memory-trial","161","435262","0.0-18.0-1.58","5847","approach_avoid_sv1","""event"",""trial"",""time""
""fullscreenenter"",""1"",""11288""
","
","
","""event"",""trial"",""time""
""fullscreenenter"",""1"",""11288""
","
","","","","","","1624.199999988079","images/tree2.png","","","memory_trial","4","definitely_new",""
"html-keyboard-response","162","435768","0.0-18.0-0.59","5847","approach_avoid_sv1","""event"",""trial"",""time""
""fullscreenenter"",""1"",""11288""
","
","
","""event"",""trial"",""time""
""fullscreenenter"",""1"",""11288""
","
","","","","","","null","<div style=""font-size:60px;"">+</div>","null","","fixation","","",""
"memory-trial","163","438325","0.0-18.0-1.59","5847","approach_avoid_sv1","""event"",""trial"",""time""
""fullscreenenter"",""1"",""11288""
","
","
","""event"",""trial"",""time""
""fullscreenenter"",""1"",""11288""
","
","","","","","","1546.199999988079","images/banana7.png","","","memory_trial","2","maybe_old",""
"html-keyboard-response","164","438833","0.0-18.0-0.60","5847","approach_avoid_sv1","""event"",""trial"",""time""
""fullscreenenter"",""1"",""11288""
","
","
","""event"",""trial"",""time""
""fullscreenenter"",""1"",""11288""
","
","","","","","","null","<div style=""font-size:60px;"">+</div>","null","","fixation","","",""
"memory-trial","165","441726","0.0-18.0-1.60","5847","approach_avoid_sv1","""event"",""trial"",""time""
""fullscreenenter"",""1"",""11288""
","
","
","""event"",""trial"",""time""
""fullscreenenter"",""1"",""11288""
","
","","","","","","1879.8999999761581","images/cow3.png","","","memory_trial","3","maybe_new",""
"html-keyboard-response","166","442231","0.0-18.0-0.61","5847","approach_avoid_sv1","""event"",""trial"",""time""
""fullscreenenter"",""1"",""11288""
","
","
","""event"",""trial"",""time""
""fullscreenenter"",""1"",""11288""
","
","","","","","","null","<div style=""font-size:60px;"">+</div>","null","","fixation","","",""
"memory-trial","167","444636","0.0-18.0-1.61","5847","approach_avoid_sv1","""event"",""trial"",""time""
""fullscreenenter"",""1"",""11288""
","
","
","""event"",""trial"",""time""
""fullscreenenter"",""1"",""11288""
","
","","","","","","1387.300000011921","images/flower6.png","","","memory_trial","3","maybe_new",""
"html-keyboard-response","168","445145","0.0-18.0-0.62","5847","approach_avoid_sv1","""event"",""trial"",""time""
""fullscreenenter"",""1"",""11288""
","
","
","""event"",""trial"",""time""
""fullscreenenter"",""1"",""11288""
","
","","","","","","null","<div style=""font-size:60px;"">+</div>","null","","fixation","","",""
"memory-trial","169","447074","0.0-18.0-1.62","5847","approach_avoid_sv1","""event"",""trial"",""time""
""fullscreenenter"",""1"",""11288""
","
","
","""event"",""trial"",""time""
""fullscreenenter"",""1"",""11288""
","
","","","","","","918.6999999880791","images/chair6.png","","","memory_trial","3","maybe_new",""
"html-keyboard-response","170","447590","0.0-18.0-0.63","5847","approach_avoid_sv1","""event"",""trial"",""time""
""fullscreenenter"",""1"",""11288""
","
","
","""event"",""trial"",""time""
""fullscreenenter"",""1"",""11288""
","
","","","","","","null","<div style=""font-size:60px;"">+</div>","null","","fixation","","",""
"memory-trial","171","450839","0.0-18.0-1.63","5847","approach_avoid_sv1","""event"",""trial"",""time""
""fullscreenenter"",""1"",""11288""
","
","
","""event"",""trial"",""time""
""fullscreenenter"",""1"",""11288""
","
","","","","","","2236.400000035763","images/orange2.png","","","memory_trial","3","maybe_new",""
"html-keyboard-response","172","451355","0.0-18.0-0.64","5847","approach_avoid_sv1","""event"",""trial"",""time""
""fullscreenenter"",""1"",""11288""
","
","
","""event"",""trial"",""time""
""fullscreenenter"",""1"",""11288""
","
","","","","","","null","<div style=""font-size:60px;"">+</div>","null","","fixation","","",""
"memory-trial","173","454247","0.0-18.0-1.64","5847","approach_avoid_sv1","""event"",""trial"",""time""
""fullscreenenter"",""1"",""11288""
","
","
","""event"",""trial"",""time""
""fullscreenenter"",""1"",""11288""
","
","","","","","","1878.5","images/plane3.png","","","memory_trial","2","maybe_old",""
"html-keyboard-response","174","454759","0.0-18.0-0.65","5847","approach_avoid_sv1","""event"",""trial"",""time""
""fullscreenenter"",""1"",""11288""
","
","
","""event"",""trial"",""time""
""fullscreenenter"",""1"",""11288""
","
","","","","","","null","<div style=""font-size:60px;"">+</div>","null","","fixation","","",""
"memory-trial","175","456770","0.0-18.0-1.65","5847","approach_avoid_sv1","""event"",""trial"",""time""
""fullscreenenter"",""1"",""11288""
","
","
","""event"",""trial"",""time""
""fullscreenenter"",""1"",""11288""
","
","","","","","","1000","images/bush3.png","","","memory_trial","2","maybe_old",""
"html-keyboard-response","176","457279","0.0-18.0-0.66","5847","approach_avoid_sv1","""event"",""trial"",""time""
""fullscreenenter"",""1"",""11288""
","
","
","""event"",""trial"",""time""
""fullscreenenter"",""1"",""11288""
","
","","","","","","null","<div style=""font-size:60px;"">+</div>","null","","fixation","","",""
"memory-trial","177","459939","0.0-18.0-1.66","5847","approach_avoid_sv1","""event"",""trial"",""time""
""fullscreenenter"",""1"",""11288""
","
","
","""event"",""trial"",""time""
""fullscreenenter"",""1"",""11288""
","
","","","","","","1642.3999999761581","images/goat4.png","","","memory_trial","1","definitely_old",""
"html-keyboard-response","178","460449","0.0-18.0-0.67","5847","approach_avoid_sv1","""event"",""trial"",""time""
""fullscreenenter"",""1"",""11288""
","
","
","""event"",""trial"",""time""
""fullscreenenter"",""1"",""11288""
","
","","","","","","null","<div style=""font-size:60px;"">+</div>","null","","fixation","","",""
"memory-trial","179","463627","0.0-18.0-1.67","5847","approach_avoid_sv1","""event"",""trial"",""time""
""fullscreenenter"",""1"",""11288""
","
","
","""event"",""trial"",""time""
""fullscreenenter"",""1"",""11288""
","
","","","","","","2160.7999999523163","images/banana4.png","","","memory_trial","4","definitely_new",""
"html-keyboard-response","180","464137","0.0-18.0-0.68","5847","approach_avoid_sv1","""event"",""trial"",""time""
""fullscreenenter"",""1"",""11288""
","
","
","""event"",""trial"",""time""
""fullscreenenter"",""1"",""11288""
","
","","","","","","null","<div style=""font-size:60px;"">+</div>","null","","fixation","","",""
"memory-trial","181","466282","0.0-18.0-1.68","5847","approach_avoid_sv1","""event"",""trial"",""time""
""fullscreenenter"",""1"",""11288""
","
","
","""event"",""trial"",""time""
""fullscreenenter"",""1"",""11288""
","
","","","","","","1127.2999999523163","images/chair4.png","","","memory_trial","4","definitely_new",""
"html-keyboard-response","182","466795","0.0-18.0-0.69","5847","approach_avoid_sv1","""event"",""trial"",""time""
""fullscreenenter"",""1"",""11288""
","
","
","""event"",""trial"",""time""
""fullscreenenter"",""1"",""11288""
","
","","","","","","null","<div style=""font-size:60px;"">+</div>","null","","fixation","","",""
"memory-trial","183","469187","0.0-18.0-1.69","5847","approach_avoid_sv1","""event"",""trial"",""time""
""fullscreenenter"",""1"",""11288""
","
","
","""event"",""trial"",""time""
""fullscreenenter"",""1"",""11288""
","
","","","","","","1372.5","images/rodent7.png","","","memory_trial","2","maybe_old",""
"html-keyboard-response","184","469695","0.0-18.0-0.70","5847","approach_avoid_sv1","""event"",""trial"",""time""
""fullscreenenter"",""1"",""11288""
","
","
","""event"",""trial"",""time""
""fullscreenenter"",""1"",""11288""
","
","","","","","","null","<div style=""font-size:60px;"">+</div>","null","","fixation","","",""
"memory-trial","185","471851","0.0-18.0-1.70","5847","approach_avoid_sv1","""event"",""trial"",""time""
""fullscreenenter"",""1"",""11288""
","
","
","""event"",""trial"",""time""
""fullscreenenter"",""1"",""11288""
","
","","","","","","1141.300000011921","images/table1.png","","","memory_trial","2","maybe_old",""
"html-keyboard-response","186","472359","0.0-18.0-0.71","5847","approach_avoid_sv1","""event"",""trial"",""time""
""fullscreenenter"",""1"",""11288""
","
","
","""event"",""trial"",""time""
""fullscreenenter"",""1"",""11288""
","
","","","","","","null","<div style=""font-size:60px;"">+</div>","null","","fixation","","",""
"memory-trial","187","475056","0.0-18.0-1.71","5847","approach_avoid_sv1","""event"",""trial"",""time""
""fullscreenenter"",""1"",""11288""
","
","
","""event"",""trial"",""time""
""fullscreenenter"",""1"",""11288""
","
","","","","","","1679.800000011921","images/horse4.png","","","memory_trial","3","maybe_new",""
"html-keyboard-response","188","475572","0.0-18.0-0.72","5847","approach_avoid_sv1","""event"",""trial"",""time""
""fullscreenenter"",""1"",""11288""
","
","
","""event"",""trial"",""time""
""fullscreenenter"",""1"",""11288""
","
","","","","","","null","<div style=""font-size:60px;"">+</div>","null","","fixation","","",""
"memory-trial","189","477791","0.0-18.0-1.72","5847","approach_avoid_sv1","""event"",""trial"",""time""
""fullscreenenter"",""1"",""11288""
","
","
","""event"",""trial"",""time""
""fullscreenenter"",""1"",""11288""
","
","","","","","","1206.6000000238419","images/sofa7.png","","","memory_trial","3","maybe_new",""
"html-keyboard-response","190","478312","0.0-18.0-0.73","5847","approach_avoid_sv1","""event"",""trial"",""time""
""fullscreenenter"",""1"",""11288""
","
","
","""event"",""trial"",""time""
""fullscreenenter"",""1"",""11288""
","
","","","","","","null","<div style=""font-size:60px;"">+</div>","null","","fixation","","",""
"memory-trial","191","480308","0.0-18.0-1.73","5847","approach_avoid_sv1","""event"",""trial"",""time""
""fullscreenenter"",""1"",""11288""
","
","
","""event"",""trial"",""time""
""fullscreenenter"",""1"",""11288""
","
","","","","","","984","images/bed7.png","","","memory_trial","4","definitely_new",""
"html-keyboard-response","192","480815","0.0-18.0-0.74","5847","approach_avoid_sv1","""event"",""trial"",""time""
""fullscreenenter"",""1"",""11288""
","
","
","""event"",""trial"",""time""
""fullscreenenter"",""1"",""11288""
","
","","","","","","null","<div style=""font-size:60px;"">+</div>","null","","fixation","","",""
"memory-trial","193","482649","0.0-18.0-1.74","5847","approach_avoid_sv1","""event"",""trial"",""time""
""fullscreenenter"",""1"",""11288""
","
","
","""event"",""trial"",""time""
""fullscreenenter"",""1"",""11288""
","
","","","","","","820.1999999880791","images/bush1.png","","","memory_trial","4","definitely_new",""
"html-keyboard-response","194","483157","0.0-18.0-0.75","5847","approach_avoid_sv1","""event"",""trial"",""time""
""fullscreenenter"",""1"",""11288""
","
","
","""event"",""trial"",""time""
""fullscreenenter"",""1"",""11288""
","
","","","","","","null","<div style=""font-size:60px;"">+</div>","null","","fixation","","",""
"memory-trial","195","485024","0.0-18.0-1.75","5847","approach_avoid_sv1","""event"",""trial"",""time""
""fullscreenenter"",""1"",""11288""
","
","
","""event"",""trial"",""time""
""fullscreenenter"",""1"",""11288""
","
","","","","","","853.1000000238419","images/table6.png","","","memory_trial","4","definitely_new",""
"html-keyboard-response","196","485539","0.0-18.0-0.76","5847","approach_avoid_sv1","""event"",""trial"",""time""
""fullscreenenter"",""1"",""11288""
","
","
","""event"",""trial"",""time""
""fullscreenenter"",""1"",""11288""
","
","","","","","","null","<div style=""font-size:60px;"">+</div>","null","","fixation","","",""
"memory-trial","197","487655","0.0-18.0-1.76","5847","approach_avoid_sv1","""event"",""trial"",""time""
""fullscreenenter"",""1"",""11288""
","
","
","""event"",""trial"",""time""
""fullscreenenter"",""1"",""11288""
","
","","","","","","1111","images/horse6.png","","","memory_trial","1","definitely_old",""
"html-keyboard-response","198","488165","0.0-18.0-0.77","5847","approach_avoid_sv1","""event"",""trial"",""time""
""fullscreenenter"",""1"",""11288""
","
","
","""event"",""trial"",""time""
""fullscreenenter"",""1"",""11288""
","
","","","","","","null","<div style=""font-size:60px;"">+</div>","null","","fixation","","",""
"memory-trial","199","490749","0.0-18.0-1.77","5847","approach_avoid_sv1","""event"",""trial"",""time""
""fullscreenenter"",""1"",""11288""
","
","
","""event"",""trial"",""time""
""fullscreenenter"",""1"",""11288""
","
","","","","","","1568.199999988079","images/table2.png","","","memory_trial","2","maybe_old",""
"html-keyboard-response","200","491257","0.0-18.0-0.78","5847","approach_avoid_sv1","""event"",""trial"",""time""
""fullscreenenter"",""1"",""11288""
","
","
","""event"",""trial"",""time""
""fullscreenenter"",""1"",""11288""
","
","","","","","","null","<div style=""font-size:60px;"">+</div>","null","","fixation","","",""
"memory-trial","201","493567","0.0-18.0-1.78","5847","approach_avoid_sv1","""event"",""trial"",""time""
""fullscreenenter"",""1"",""11288""
","
","
","""event"",""trial"",""time""
""fullscreenenter"",""1"",""11288""
","
","","","","","","1290.5","images/sofa4.png","","","memory_trial","1","definitely_old",""
"html-keyboard-response","202","494083","0.0-18.0-0.79","5847","approach_avoid_sv1","""event"",""trial"",""time""
""fullscreenenter"",""1"",""11288""
","
","
","""event"",""trial"",""time""
""fullscreenenter"",""1"",""11288""
","
","","","","","","null","<div style=""font-size:60px;"">+</div>","null","","fixation","","",""
"memory-trial","203","497102","0.0-18.0-1.79","5847","approach_avoid_sv1","""event"",""trial"",""time""
""fullscreenenter"",""1"",""11288""
","
","
","""event"",""trial"",""time""
""fullscreenenter"",""1"",""11288""
","
","","","","","","2009.6000000238419","images/sheep1.png","","","memory_trial","4","definitely_new",""
"html-keyboard-response","204","497606","0.0-18.0-0.80","5847","approach_avoid_sv1","""event"",""trial"",""time""
""fullscreenenter"",""1"",""11288""
","
","
","""event"",""trial"",""time""
""fullscreenenter"",""1"",""11288""
","
","","","","","","null","<div style=""font-size:60px;"">+</div>","null","","fixation","","",""
"memory-trial","205","500010","0.0-18.0-1.80","5847","approach_avoid_sv1","""event"",""trial"",""time""
""fullscreenenter"",""1"",""11288""
","
","
","""event"",""trial"",""time""
""fullscreenenter"",""1"",""11288""
","
","","","","","","1394.199999988079","images/banana5.png","","","memory_trial","2","maybe_old",""
"html-keyboard-response","206","500526","0.0-18.0-0.81","5847","approach_avoid_sv1","""event"",""trial"",""time""
""fullscreenenter"",""1"",""11288""
","
","
","""event"",""trial"",""time""
""fullscreenenter"",""1"",""11288""
","
","","","","","","null","<div style=""font-size:60px;"">+</div>","null","","fixation","","",""
"memory-trial","207","502920","0.0-18.0-1.81","5847","approach_avoid_sv1","""event"",""trial"",""time""
""fullscreenenter"",""1"",""11288""
","
","
","""event"",""trial"",""time""
""fullscreenenter"",""1"",""11288""
","
","","","","","","1381.5999999642372","images/bed2.png","","","memory_trial","4","definitely_new",""
"html-keyboard-response","208","503422","0.0-18.0-0.82","5847","approach_avoid_sv1","""event"",""trial"",""time""
""fullscreenenter"",""1"",""11288""
","
","
","""event"",""trial"",""time""
""fullscreenenter"",""1"",""11288""
","
","","","","","","null","<div style=""font-size:60px;"">+</div>","null","","fixation","","",""
"memory-trial","209","505605","0.0-18.0-1.82","5847","approach_avoid_sv1","""event"",""trial"",""time""
""fullscreenenter"",""1"",""11288""
","
","
","""event"",""trial"",""time""
""fullscreenenter"",""1"",""11288""
","
","","","","","","1167.699999988079","images/cactus5.png","","","memory_trial","4","definitely_new",""
"html-keyboard-response","210","506118","0.0-18.0-0.83","5847","approach_avoid_sv1","""event"",""trial"",""time""
""fullscreenenter"",""1"",""11288""
","
","
","""event"",""trial"",""time""
""fullscreenenter"",""1"",""11288""
","
","","","","","","null","<div style=""font-size:60px;"">+</div>","null","","fixation","","",""
"memory-trial","211","508479","0.0-18.0-1.83","5847","approach_avoid_sv1","""event"",""trial"",""time""
""fullscreenenter"",""1"",""11288""
","
","
","""event"",""trial"",""time""
""fullscreenenter"",""1"",""11288""
","
","","","","","","1352.300000011921","images/cow7.png","","","memory_trial","2","maybe_old",""
"html-keyboard-response","212","508983","0.0-18.0-0.84","5847","approach_avoid_sv1","""event"",""trial"",""time""
""fullscreenenter"",""1"",""11288""
","
","
","""event"",""trial"",""time""
""fullscreenenter"",""1"",""11288""
","
","","","","","","null","<div style=""font-size:60px;"">+</div>","null","","fixation","","",""
"memory-trial","213","511611","0.0-18.0-1.84","5847","approach_avoid_sv1","""event"",""trial"",""time""
""fullscreenenter"",""1"",""11288""
","
","
","""event"",""trial"",""time""
""fullscreenenter"",""1"",""11288""
","
","","","","","","1612","images/plane7.png","","","memory_trial","4","definitely_new",""
"html-keyboard-response","214","512123","0.0-18.0-0.85","5847","approach_avoid_sv1","""event"",""trial"",""time""
""fullscreenenter"",""1"",""11288""
","
","
","""event"",""trial"",""time""
""fullscreenenter"",""1"",""11288""
","
","","","","","","null","<div style=""font-size:60px;"">+</div>","null","","fixation","","",""
"memory-trial","215","514372","0.0-18.0-1.85","5847","approach_avoid_sv1","""event"",""trial"",""time""
""fullscreenenter"",""1"",""11288""
","
","
","""event"",""trial"",""time""
""fullscreenenter"",""1"",""11288""
","
","","","","","","1234.9000000357628","images/truck8.png","","","memory_trial","1","definitely_old",""
"html-keyboard-response","216","514882","0.0-18.0-0.86","5847","approach_avoid_sv1","""event"",""trial"",""time""
""fullscreenenter"",""1"",""11288""
","
","
","""event"",""trial"",""time""
""fullscreenenter"",""1"",""11288""
","
","","","","","","null","<div style=""font-size:60px;"">+</div>","null","","fixation","","",""
"memory-trial","217","517350","0.0-18.0-1.86","5847","approach_avoid_sv1","""event"",""trial"",""time""
""fullscreenenter"",""1"",""11288""
","
","
","""event"",""trial"",""time""
""fullscreenenter"",""1"",""11288""
","
","","","","","","1454.4000000357628","images/cat7.png","","","memory_trial","2","maybe_old",""
"html-keyboard-response","218","517858","0.0-18.0-0.87","5847","approach_avoid_sv1","""event"",""trial"",""time""
""fullscreenenter"",""1"",""11288""
","
","
","""event"",""trial"",""time""
""fullscreenenter"",""1"",""11288""
","
","","","","","","null","<div style=""font-size:60px;"">+</div>","null","","fixation","","",""
"memory-trial","219","519923","0.0-18.0-1.87","5847","approach_avoid_sv1","""event"",""trial"",""time""
""fullscreenenter"",""1"",""11288""
","
","
","""event"",""trial"",""time""
""fullscreenenter"",""1"",""11288""
","
","","","","","","1056.3999999761581","images/apple7.png","","","memory_trial","1","definitely_old",""
"html-keyboard-response","220","520438","0.0-18.0-0.88","5847","approach_avoid_sv1","""event"",""trial"",""time""
""fullscreenenter"",""1"",""11288""
","
","
","""event"",""trial"",""time""
""fullscreenenter"",""1"",""11288""
","
","","","","","","null","<div style=""font-size:60px;"">+</div>","null","","fixation","","",""
"memory-trial","221","524580","0.0-18.0-1.88","5847","approach_avoid_sv1","""event"",""trial"",""time""
""fullscreenenter"",""1"",""11288""
","
","
","""event"",""trial"",""time""
""fullscreenenter"",""1"",""11288""
","
","","","","","","3128.100000023842","images/straw5.png","","","memory_trial","3","maybe_new",""
"html-keyboard-response","222","525101","0.0-18.0-0.89","5847","approach_avoid_sv1","""event"",""trial"",""time""
""fullscreenenter"",""1"",""11288""
","
","
","""event"",""trial"",""time""
""fullscreenenter"",""1"",""11288""
","
","","","","","","null","<div style=""font-size:60px;"">+</div>","null","","fixation","","",""
"memory-trial","223","527065","0.0-18.0-1.89","5847","approach_avoid_sv1","""event"",""trial"",""time""
""fullscreenenter"",""1"",""11288""
","
","
","""event"",""trial"",""time""
""fullscreenenter"",""1"",""11288""
","
","","","","","","953.4000000357628","images/apple3.png","","","memory_trial","4","definitely_new",""
"html-keyboard-response","224","527579","0.0-18.0-0.90","5847","approach_avoid_sv1","""event"",""trial"",""time""
""fullscreenenter"",""1"",""11288""
","
","
","""event"",""trial"",""time""
""fullscreenenter"",""1"",""11288""
","
","","","","","","null","<div style=""font-size:60px;"">+</div>","null","","fixation","","",""
"memory-trial","225","529917","0.0-18.0-1.90","5847","approach_avoid_sv1","""event"",""trial"",""time""
""fullscreenenter"",""1"",""11288""
","
","
","""event"",""trial"",""time""
""fullscreenenter"",""1"",""11288""
","
","","","","","","1323.800000011921","images/cactus8.png","","","memory_trial","4","definitely_new",""
"html-keyboard-response","226","530435","0.0-18.0-0.91","5847","approach_avoid_sv1","""event"",""trial"",""time""
""fullscreenenter"",""1"",""11288""
","
","
","""event"",""trial"",""time""
""fullscreenenter"",""1"",""11288""
","
","","","","","","null","<div style=""font-size:60px;"">+</div>","null","","fixation","","",""
"memory-trial","227","532368","0.0-18.0-1.91","5847","approach_avoid_sv1","""event"",""trial"",""time""
""fullscreenenter"",""1"",""11288""
","
","
","""event"",""trial"",""time""
""fullscreenenter"",""1"",""11288""
","
","","","","","","925.6999999880791","images/flower4.png","","","memory_trial","4","definitely_new",""
"html-button-response","228","535868","0.0-18.0-2.91-0.91","5847","approach_avoid_sv1","""event"",""trial"",""time""
""fullscreenenter"",""1"",""11288""
","
","
","""event"",""trial"",""time""
""fullscreenenter"",""1"",""11288""
","
","","","","","","3499.099999964237","<p> Take a break! </p><p> Click the button to continue. </p>","0","","break","","",""
"html-keyboard-response","229","536381","0.0-18.0-0.92","5847","approach_avoid_sv1","""event"",""trial"",""time""
""fullscreenenter"",""1"",""11288""
","
","
","""event"",""trial"",""time""
""fullscreenenter"",""1"",""11288""
","
","","","","","","null","<div style=""font-size:60px;"">+</div>","null","","fixation","","",""
"memory-trial","230","538177","0.0-18.0-1.92","5847","approach_avoid_sv1","""event"",""trial"",""time""
""fullscreenenter"",""1"",""11288""
","
","
","""event"",""trial"",""time""
""fullscreenenter"",""1"",""11288""
","
","","","","","","782.6999999880791","images/flower7.png","","","memory_trial","4","definitely_new",""
"html-keyboard-response","231","538696","0.0-18.0-0.93","5847","approach_avoid_sv1","""event"",""trial"",""time""
""fullscreenenter"",""1"",""11288""
","
","
","""event"",""trial"",""time""
""fullscreenenter"",""1"",""11288""
","
","","","","","","null","<div style=""font-size:60px;"">+</div>","null","","fixation","","",""
"memory-trial","232","541527","0.0-18.0-1.93","5847","approach_avoid_sv1","""event"",""trial"",""time""
""fullscreenenter"",""1"",""11288""
","
","
","""event"",""trial"",""time""
""fullscreenenter"",""1"",""11288""
","
","","","","","","1821.300000011921","images/cow8.png","","","memory_trial","2","maybe_old",""
"html-keyboard-response","233","542031","0.0-18.0-0.94","5847","approach_avoid_sv1","""event"",""trial"",""time""
""fullscreenenter"",""1"",""11288""
","
","
","""event"",""trial"",""time""
""fullscreenenter"",""1"",""11288""
","
","","","","","","null","<div style=""font-size:60px;"">+</div>","null","","fixation","","",""
"memory-trial","234","544585","0.0-18.0-1.94","5847","approach_avoid_sv1","""event"",""trial"",""time""
""fullscreenenter"",""1"",""11288""
","
","
","""event"",""trial"",""time""
""fullscreenenter"",""1"",""11288""
","
","","","","","","1542.8999999761581","images/tree1.png","","","memory_trial","2","maybe_old",""
"html-keyboard-response","235","545101","0.0-18.0-0.95","5847","approach_avoid_sv1","""event"",""trial"",""time""
""fullscreenenter"",""1"",""11288""
","
","
","""event"",""trial"",""time""
""fullscreenenter"",""1"",""11288""
","
","","","","","","null","<div style=""font-size:60px;"">+</div>","null","","fixation","","",""
"memory-trial","236","547339","0.0-18.0-1.95","5847","approach_avoid_sv1","""event"",""trial"",""time""
""fullscreenenter"",""1"",""11288""
","
","
","""event"",""trial"",""time""
""fullscreenenter"",""1"",""11288""
","
","","","","","","1229.6000000238419","images/bed5.png","","","memory_trial","1","definitely_old",""
"html-keyboard-response","237","547854","0.0-18.0-0.96","5847","approach_avoid_sv1","""event"",""trial"",""time""
""fullscreenenter"",""1"",""11288""
","
","
","""event"",""trial"",""time""
""fullscreenenter"",""1"",""11288""
","
","","","","","","null","<div style=""font-size:60px;"">+</div>","null","","fixation","","",""
"memory-trial","238","550169","0.0-18.0-1.96","5847","approach_avoid_sv1","""event"",""trial"",""time""
""fullscreenenter"",""1"",""11288""
","
","
","""event"",""trial"",""time""
""fullscreenenter"",""1"",""11288""
","
","","","","","","1300.9000000357628","images/apple4.png","","","memory_trial","4","definitely_new",""
"html-keyboard-response","239","550685","0.0-18.0-0.97","5847","approach_avoid_sv1","""event"",""trial"",""time""
""fullscreenenter"",""1"",""11288""
","
","
","""event"",""trial"",""time""
""fullscreenenter"",""1"",""11288""
","
","","","","","","null","<div style=""font-size:60px;"">+</div>","null","","fixation","","",""
"memory-trial","240","553398","0.0-18.0-1.97","5847","approach_avoid_sv1","""event"",""trial"",""time""
""fullscreenenter"",""1"",""11288""
","
","
","""event"",""trial"",""time""
""fullscreenenter"",""1"",""11288""
","
","","","","","","1699.5","images/sofa6.png","","","memory_trial","2","maybe_old",""
"html-keyboard-response","241","553907","0.0-18.0-0.98","5847","approach_avoid_sv1","""event"",""trial"",""time""
""fullscreenenter"",""1"",""11288""
","
","
","""event"",""trial"",""time""
""fullscreenenter"",""1"",""11288""
","
","","","","","","null","<div style=""font-size:60px;"">+</div>","null","","fixation","","",""
"memory-trial","242","556771","0.0-18.0-1.98","5847","approach_avoid_sv1","""event"",""trial"",""time""
""fullscreenenter"",""1"",""11288""
","
","
","""event"",""trial"",""time""
""fullscreenenter"",""1"",""11288""
","
","","","","","","1851.699999988079","images/banana1.png","","","memory_trial","2","maybe_old",""
"html-keyboard-response","243","557278","0.0-18.0-0.99","5847","approach_avoid_sv1","""event"",""trial"",""time""
""fullscreenenter"",""1"",""11288""
","
","
","""event"",""trial"",""time""
""fullscreenenter"",""1"",""11288""
","
","","","","","","null","<div style=""font-size:60px;"">+</div>","null","","fixation","","",""
"memory-trial","244","560292","0.0-18.0-1.99","5847","approach_avoid_sv1","""event"",""trial"",""time""
""fullscreenenter"",""1"",""11288""
","
","
","""event"",""trial"",""time""
""fullscreenenter"",""1"",""11288""
","
","","","","","","2000.7000000476837","images/truck2.png","","","memory_trial","2","maybe_old",""
"html-keyboard-response","245","560800","0.0-18.0-0.100","5847","approach_avoid_sv1","""event"",""trial"",""time""
""fullscreenenter"",""1"",""11288""
","
","
","""event"",""trial"",""time""
""fullscreenenter"",""1"",""11288""
","
","","","","","","null","<div style=""font-size:60px;"">+</div>","null","","fixation","","",""
"memory-trial","246","562992","0.0-18.0-1.100","5847","approach_avoid_sv1","""event"",""trial"",""time""
""fullscreenenter"",""1"",""11288""
","
","
","""event"",""trial"",""time""
""fullscreenenter"",""1"",""11288""
","
","","","","","","1180","images/plane2.png","","","memory_trial","4","definitely_new",""
"html-keyboard-response","247","563499","0.0-18.0-0.101","5847","approach_avoid_sv1","""event"",""trial"",""time""
""fullscreenenter"",""1"",""11288""
","
","
","""event"",""trial"",""time""
""fullscreenenter"",""1"",""11288""
","
","","","","","","null","<div style=""font-size:60px;"">+</div>","null","","fixation","","",""
"memory-trial","248","565654","0.0-18.0-1.101","5847","approach_avoid_sv1","""event"",""trial"",""time""
""fullscreenenter"",""1"",""11288""
","
","
","""event"",""trial"",""time""
""fullscreenenter"",""1"",""11288""
","
","","","","","","1137.3999999761581","images/apple5.png","","","memory_trial","4","definitely_new",""
"html-keyboard-response","249","566175","0.0-18.0-0.102","5847","approach_avoid_sv1","""event"",""trial"",""time""
""fullscreenenter"",""1"",""11288""
","
","
","""event"",""trial"",""time""
""fullscreenenter"",""1"",""11288""
","
","","","","","","null","<div style=""font-size:60px;"">+</div>","null","","fixation","","",""
"memory-trial","250","568135","0.0-18.0-1.102","5847","approach_avoid_sv1","""event"",""trial"",""time""
""fullscreenenter"",""1"",""11288""
","
","
","""event"",""trial"",""time""
""fullscreenenter"",""1"",""11288""
","
","","","","","","942.3999999761581","images/dog4.png","","","memory_trial","1","definitely_old",""
"html-keyboard-response","251","568645","0.0-18.0-0.103","5847","approach_avoid_sv1","""event"",""trial"",""time""
""fullscreenenter"",""1"",""11288""
","
","
","""event"",""trial"",""time""
""fullscreenenter"",""1"",""11288""
","
","","","","","","null","<div style=""font-size:60px;"">+</div>","null","","fixation","","",""
"memory-trial","252","571015","0.0-18.0-1.103","5847","approach_avoid_sv1","""event"",""trial"",""time""
""fullscreenenter"",""1"",""11288""
","
","
","""event"",""trial"",""time""
""fullscreenenter"",""1"",""11288""
","
","","","","","","1365.5","images/straw1.png","","","memory_trial","1","definitely_old",""
"html-keyboard-response","253","571521","0.0-18.0-0.104","5847","approach_avoid_sv1","""event"",""trial"",""time""
""fullscreenenter"",""1"",""11288""
","
","
","""event"",""trial"",""time""
""fullscreenenter"",""1"",""11288""
","
","","","","","","null","<div style=""font-size:60px;"">+</div>","null","","fixation","","",""
"memory-trial","254","573447","0.0-18.0-1.104","5847","approach_avoid_sv1","""event"",""trial"",""time""
""fullscreenenter"",""1"",""11288""
","
","
","""event"",""trial"",""time""
""fullscreenenter"",""1"",""11288""
","
","","","","","","912","images/rabbit8.png","","","memory_trial","1","definitely_old",""
"html-keyboard-response","255","573962","0.0-18.0-0.105","5847","approach_avoid_sv1","""event"",""trial"",""time""
""fullscreenenter"",""1"",""11288""
","
","
","""event"",""trial"",""time""
""fullscreenenter"",""1"",""11288""
","
","","","","","","null","<div style=""font-size:60px;"">+</div>","null","","fixation","","",""
"memory-trial","256","576824","0.0-18.0-1.105","5847","approach_avoid_sv1","""event"",""trial"",""time""
""fullscreenenter"",""1"",""11288""
","
","
","""event"",""trial"",""time""
""fullscreenenter"",""1"",""11288""
","
","","","","","","1854.800000011921","images/banana2.png","","","memory_trial","2","maybe_old",""
"html-keyboard-response","257","577335","0.0-18.0-0.106","5847","approach_avoid_sv1","""event"",""trial"",""time""
""fullscreenenter"",""1"",""11288""
","
","
","""event"",""trial"",""time""
""fullscreenenter"",""1"",""11288""
","
","","","","","","null","<div style=""font-size:60px;"">+</div>","null","","fixation","","",""
"memory-trial","258","580688","0.0-18.0-1.106","5847","approach_avoid_sv1","""event"",""trial"",""time""
""fullscreenenter"",""1"",""11288""
","
","
","""event"",""trial"",""time""
""fullscreenenter"",""1"",""11288""
","
","","","","","","2343.199999988079","images/cactus1.png","","","memory_trial","3","maybe_new",""
"html-keyboard-response","259","581194","0.0-18.0-0.107","5847","approach_avoid_sv1","""event"",""trial"",""time""
""fullscreenenter"",""1"",""11288""
","
","
","""event"",""trial"",""time""
""fullscreenenter"",""1"",""11288""
","
","","","","","","null","<div style=""font-size:60px;"">+</div>","null","","fixation","","",""
"memory-trial","260","583237","0.0-18.0-1.107","5847","approach_avoid_sv1","""event"",""trial"",""time""
""fullscreenenter"",""1"",""11288""
","
","
","""event"",""trial"",""time""
""fullscreenenter"",""1"",""11288""
","
","","","","","","1028.5","images/rabbit6.png","","","memory_trial","1","definitely_old",""
"html-keyboard-response","261","583753","0.0-18.0-0.108","5847","approach_avoid_sv1","""event"",""trial"",""time""
""fullscreenenter"",""1"",""11288""
","
","
","""event"",""trial"",""time""
""fullscreenenter"",""1"",""11288""
","
","","","","","","null","<div style=""font-size:60px;"">+</div>","null","","fixation","","",""
"memory-trial","262","585517","0.0-18.0-1.108","5847","approach_avoid_sv1","""event"",""trial"",""time""
""fullscreenenter"",""1"",""11288""
","
","
","""event"",""trial"",""time""
""fullscreenenter"",""1"",""11288""
","
","","","","","","750.7000000476837","images/rodent1.png","","","memory_trial","1","definitely_old",""
"html-keyboard-response","263","586026","0.0-18.0-0.109","5847","approach_avoid_sv1","""event"",""trial"",""time""
""fullscreenenter"",""1"",""11288""
","
","
","""event"",""trial"",""time""
""fullscreenenter"",""1"",""11288""
","
","","","","","","null","<div style=""font-size:60px;"">+</div>","null","","fixation","","",""
"memory-trial","264","587858","0.0-18.0-1.109","5847","approach_avoid_sv1","""event"",""trial"",""time""
""fullscreenenter"",""1"",""11288""
","
","
","""event"",""trial"",""time""
""fullscreenenter"",""1"",""11288""
","
","","","","","","811.3999999761581","images/sheep4.png","","","memory_trial","1","definitely_old",""
"html-keyboard-response","265","588367","0.0-18.0-0.110","5847","approach_avoid_sv1","""event"",""trial"",""time""
""fullscreenenter"",""1"",""11288""
","
","
","""event"",""trial"",""time""
""fullscreenenter"",""1"",""11288""
","
","","","","","","null","<div style=""font-size:60px;"">+</div>","null","","fixation","","",""
"memory-trial","266","591511","0.0-18.0-1.110","5847","approach_avoid_sv1","""event"",""trial"",""time""
""fullscreenenter"",""1"",""11288""
","
","
","""event"",""trial"",""time""
""fullscreenenter"",""1"",""11288""
","
","","","","","","2137","images/plane6.png","","","memory_trial","2","maybe_old",""
"html-keyboard-response","267","592028","0.0-18.0-0.111","5847","approach_avoid_sv1","""event"",""trial"",""time""
""fullscreenenter"",""1"",""11288""
","
","
","""event"",""trial"",""time""
""fullscreenenter"",""1"",""11288""
","
","","","","","","null","<div style=""font-size:60px;"">+</div>","null","","fixation","","",""
"memory-trial","268","594892","0.0-18.0-1.111","5847","approach_avoid_sv1","""event"",""trial"",""time""
""fullscreenenter"",""1"",""11288""
","
","
","""event"",""trial"",""time""
""fullscreenenter"",""1"",""11288""
","
","","","","","","1845.3999999761581","images/straw4.png","","","memory_trial","4","definitely_new",""
"html-keyboard-response","269","595403","0.0-18.0-0.112","5847","approach_avoid_sv1","""event"",""trial"",""time""
""fullscreenenter"",""1"",""11288""
","
","
","""event"",""trial"",""time""
""fullscreenenter"",""1"",""11288""
","
","","","","","","null","<div style=""font-size:60px;"">+</div>","null","","fixation","","",""
"memory-trial","270","597362","0.0-18.0-1.112","5847","approach_avoid_sv1","""event"",""trial"",""time""
""fullscreenenter"",""1"",""11288""
","
","
","""event"",""trial"",""time""
""fullscreenenter"",""1"",""11288""
","
","","","","","","950.3999999761581","images/truck1.png","","","memory_trial","4","definitely_new",""
"html-keyboard-response","271","597871","0.0-18.0-0.113","5847","approach_avoid_sv1","""event"",""trial"",""time""
""fullscreenenter"",""1"",""11288""
","
","
","""event"",""trial"",""time""
""fullscreenenter"",""1"",""11288""
","
","","","","","","null","<div style=""font-size:60px;"">+</div>","null","","fixation","","",""
"memory-trial","272","599754","0.0-18.0-1.113","5847","approach_avoid_sv1","""event"",""trial"",""time""
""fullscreenenter"",""1"",""11288""
","
","
","""event"",""trial"",""time""
""fullscreenenter"",""1"",""11288""
","
","","","","","","869.1999999880791","images/plane4.png","","","memory_trial","4","definitely_new",""
"html-keyboard-response","273","600270","0.0-18.0-0.114","5847","approach_avoid_sv1","""event"",""trial"",""time""
""fullscreenenter"",""1"",""11288""
","
","
","""event"",""trial"",""time""
""fullscreenenter"",""1"",""11288""
","
","","","","","","null","<div style=""font-size:60px;"">+</div>","null","","fixation","","",""
"memory-trial","274","602280","0.0-18.0-1.114","5847","approach_avoid_sv1","""event"",""trial"",""time""
""fullscreenenter"",""1"",""11288""
","
","
","""event"",""trial"",""time""
""fullscreenenter"",""1"",""11288""
","
","","","","","","1005.8000000119209","images/rodent8.png","","","memory_trial","4","definitely_new",""
"html-keyboard-response","275","602790","0.0-18.0-0.115","5847","approach_avoid_sv1","""event"",""trial"",""time""
""fullscreenenter"",""1"",""11288""
","
","
","""event"",""trial"",""time""
""fullscreenenter"",""1"",""11288""
","
","","","","","","null","<div style=""font-size:60px;"">+</div>","null","","fixation","","",""
"memory-trial","276","604757","0.0-18.0-1.115","5847","approach_avoid_sv1","""event"",""trial"",""time""
""fullscreenenter"",""1"",""11288""
","
","
","""event"",""trial"",""time""
""fullscreenenter"",""1"",""11288""
","
","","","","","","950.3000000119209","images/cat2.png","","","memory_trial","4","definitely_new",""
"html-keyboard-response","277","605264","0.0-18.0-0.116","5847","approach_avoid_sv1","""event"",""trial"",""time""
""fullscreenenter"",""1"",""11288""
","
","
","""event"",""trial"",""time""
""fullscreenenter"",""1"",""11288""
","
","","","","","","null","<div style=""font-size:60px;"">+</div>","null","","fixation","","",""
"memory-trial","278","610024","0.0-18.0-1.116","5847","approach_avoid_sv1","""event"",""trial"",""time""
""fullscreenenter"",""1"",""11288""
","
","
","""event"",""trial"",""time""
""fullscreenenter"",""1"",""11288""
","
","","","","","","3748.399999976158","images/bush4.png","","","memory_trial","4","definitely_new",""
"html-keyboard-response","279","610532","0.0-18.0-0.117","5847","approach_avoid_sv1","""event"",""trial"",""time""
""fullscreenenter"",""1"",""11288""
","
","
","""event"",""trial"",""time""
""fullscreenenter"",""1"",""11288""
","
","","","","","","null","<div style=""font-size:60px;"">+</div>","null","","fixation","","",""
"memory-trial","280","612732","0.0-18.0-1.117","5847","approach_avoid_sv1","""event"",""trial"",""time""
""fullscreenenter"",""1"",""11288""
","
","
","""event"",""trial"",""time""
""fullscreenenter"",""1"",""11288""
","
","","","","","","1181.699999988079","images/rabbit4.png","","","memory_trial","4","definitely_new",""
"html-keyboard-response","281","613242","0.0-18.0-0.118","5847","approach_avoid_sv1","""event"",""trial"",""time""
""fullscreenenter"",""1"",""11288""
","
","
","""event"",""trial"",""time""
""fullscreenenter"",""1"",""11288""
","
","","","","","","null","<div style=""font-size:60px;"">+</div>","null","","fixation","","",""
"memory-trial","282","616070","0.0-18.0-1.118","5847","approach_avoid_sv1","""event"",""trial"",""time""
""fullscreenenter"",""1"",""11288""
","
","
","""event"",""trial"",""time""
""fullscreenenter"",""1"",""11288""
","
","","","","","","1817.8999999761581","images/horse3.png","","","memory_trial","1","definitely_old",""
"html-keyboard-response","283","616586","0.0-18.0-0.119","5847","approach_avoid_sv1","""event"",""trial"",""time""
""fullscreenenter"",""1"",""11288""
","
","
","""event"",""trial"",""time""
""fullscreenenter"",""1"",""11288""
","
","","","","","","null","<div style=""font-size:60px;"">+</div>","null","","fixation","","",""
"memory-trial","284","619233","0.0-18.0-1.119","5847","approach_avoid_sv1","""event"",""trial"",""time""
""fullscreenenter"",""1"",""11288""
","
","
","""event"",""trial"",""time""
""fullscreenenter"",""1"",""11288""
","
","","","","","","1636.199999988079","images/sheep5.png","","","memory_trial","4","definitely_new",""
"html-keyboard-response","285","619742","0.0-18.0-0.120","5847","approach_avoid_sv1","""event"",""trial"",""time""
""fullscreenenter"",""1"",""11288""
","
","
","""event"",""trial"",""time""
""fullscreenenter"",""1"",""11288""
","
","","","","","","null","<div style=""font-size:60px;"">+</div>","null","","fixation","","",""
"memory-trial","286","623412","0.0-18.0-1.120","5847","approach_avoid_sv1","""event"",""trial"",""time""
""fullscreenenter"",""1"",""11288""
","
","
","""event"",""trial"",""time""
""fullscreenenter"",""1"",""11288""
","
","","","","","","2653.399999976158","images/tree7.png","","","memory_trial","3","maybe_new",""
"html-keyboard-response","287","623923","0.0-18.0-0.121","5847","approach_avoid_sv1","""event"",""trial"",""time""
""fullscreenenter"",""1"",""11288""
","
","
","""event"",""trial"",""time""
""fullscreenenter"",""1"",""11288""
","
","","","","","","null","<div style=""font-size:60px;"">+</div>","null","","fixation","","",""
"memory-trial","288","627272","0.0-18.0-1.121","5847","approach_avoid_sv1","""event"",""trial"",""time""
""fullscreenenter"",""1"",""11288""
","
","
","""event"",""trial"",""time""
""fullscreenenter"",""1"",""11288""
","
","","","","","","2336.5","images/horse2.png","","","memory_trial","2","maybe_old",""
"html-keyboard-response","289","627775","0.0-18.0-0.122","5847","approach_avoid_sv1","""event"",""trial"",""time""
""fullscreenenter"",""1"",""11288""
","
","
","""event"",""trial"",""time""
""fullscreenenter"",""1"",""11288""
","
","","","","","","null","<div style=""font-size:60px;"">+</div>","null","","fixation","","",""
"memory-trial","290","630272","0.0-18.0-1.122","5847","approach_avoid_sv1","""event"",""trial"",""time""
""fullscreenenter"",""1"",""11288""
","
","
","""event"",""trial"",""time""
""fullscreenenter"",""1"",""11288""
","
","","","","","","1491.300000011921","images/goat7.png","","","memory_trial","4","definitely_new",""
"html-keyboard-response","291","630789","0.0-18.0-0.123","5847","approach_avoid_sv1","""event"",""trial"",""time""
""fullscreenenter"",""1"",""11288""
","
","
","""event"",""trial"",""time""
""fullscreenenter"",""1"",""11288""
","
","","","","","","null","<div style=""font-size:60px;"">+</div>","null","","fixation","","",""
"memory-trial","292","633021","0.0-18.0-1.123","5847","approach_avoid_sv1","""event"",""trial"",""time""
""fullscreenenter"",""1"",""11288""
","
","
","""event"",""trial"",""time""
""fullscreenenter"",""1"",""11288""
","
","","","","","","1213.7999999523163","images/cow5.png","","","memory_trial","1","definitely_old",""
"html-keyboard-response","293","633528","0.0-18.0-0.124","5847","approach_avoid_sv1","""event"",""trial"",""time""
""fullscreenenter"",""1"",""11288""
","
","
","""event"",""trial"",""time""
""fullscreenenter"",""1"",""11288""
","
","","","","","","null","<div style=""font-size:60px;"">+</div>","null","","fixation","","",""
"memory-trial","294","636358","0.0-18.0-1.124","5847","approach_avoid_sv1","""event"",""trial"",""time""
""fullscreenenter"",""1"",""11288""
","
","
","""event"",""trial"",""time""
""fullscreenenter"",""1"",""11288""
","
","","","","","","1818.199999988079","images/horse8.png","","","memory_trial","2","maybe_old",""
"html-keyboard-response","295","636870","0.0-18.0-0.125","5847","approach_avoid_sv1","""event"",""trial"",""time""
""fullscreenenter"",""1"",""11288""
","
","
","""event"",""trial"",""time""
""fullscreenenter"",""1"",""11288""
","
