"trial_type","trial_index","time_elapsed","internal_node_id","subject_id","task_version","interactions","blur_events","focus_events","fullscreenenter_events","fullscreenexit_events","success","timeout","failed_images","failed_audio","failed_video","rt","stimulus","response","button_pressed","task_part","key_press","answer","correct"
"pavlovia","0","2","0.0-0.0","5953","approach_avoid_sv1","""event"",""trial"",""time""
""fullscreenenter"",""1"",""1977""
","
","
","""event"",""trial"",""time""
""fullscreenenter"",""1"",""1977""
","
","","","","","","","","","","","","",""
"fullscreen","1","2982","0.0-1.0","5953","approach_avoid_sv1","""event"",""trial"",""time""
""fullscreenenter"",""1"",""1977""
","
","
","""event"",""trial"",""time""
""fullscreenenter"",""1"",""1977""
","
","true","","","","","","","","","","","",""
"preload","2","5168","0.0-2.0","5953","approach_avoid_sv1","""event"",""trial"",""time""
""fullscreenenter"",""1"",""1977""
","
","
","""event"",""trial"",""time""
""fullscreenenter"",""1"",""1977""
","
","true","false","[]","[]","[]","","","","","","","",""
"preload","3","6461","0.0-3.0","5953","approach_avoid_sv1","""event"",""trial"",""time""
""fullscreenenter"",""1"",""1977""
","
","
","""event"",""trial"",""time""
""fullscreenenter"",""1"",""1977""
","
","true","false","[]","[]","[]","","","","","","","",""
"preload","4","6653","0.0-4.0","5953","approach_avoid_sv1","""event"",""trial"",""time""
""fullscreenenter"",""1"",""1977""
","
","
","""event"",""trial"",""time""
""fullscreenenter"",""1"",""1977""
","
","true","false","[]","[]","[]","","","","","","","",""
"audio-keyboard-response","5","9202","0.0-5.0","5953","approach_avoid_sv1","""event"",""trial"",""time""
""fullscreenenter"",""1"",""1977""
","
","
","""event"",""trial"",""time""
""fullscreenenter"",""1"",""1977""
","
","","","","","","2549.333333333333","audio/beep_loop.wav"," ","","","","",""
"audio-button-response","6","10456","0.0-6.0","5953","approach_avoid_sv1","""event"",""trial"",""time""
""fullscreenenter"",""1"",""1977""
","
","
","""event"",""trial"",""time""
""fullscreenenter"",""1"",""1977""
","
","","","","","","1261","audio/turtle.wav","3","","","","",""
"audio-button-response","7","12355","0.0-7.0","5953","approach_avoid_sv1","""event"",""trial"",""time""
""fullscreenenter"",""1"",""1977""
","
","
","""event"",""trial"",""time""
""fullscreenenter"",""1"",""1977""
","
","","","","","","891","audio/shark.wav","2","","","","",""
"preload","8","15069","0.0-8.0","5953","approach_avoid_sv1","""event"",""trial"",""time""
""fullscreenenter"",""1"",""1977""
","
","
","""event"",""trial"",""time""
""fullscreenenter"",""1"",""1977""
","
","true","false","[]","[]","[]","","","","","","","",""
"learning-instructions","9","24804","0.0-9.0-0.0","5953","approach_avoid_sv1","""event"",""trial"",""time""
""fullscreenenter"",""1"",""1977""
","
","
","""event"",""trial"",""time""
""fullscreenenter"",""1"",""1977""
","
","","","","","","5257.800000011921","<p> Welcome back! </p><p> Last week, you had to make choices about lots of different items.  </p>","","0","instructions","","",""
"learning-instructions","10","29293","0.0-9.0-0.1","5953","approach_avoid_sv1","""event"",""trial"",""time""
""fullscreenenter"",""1"",""1977""
","
","
","""event"",""trial"",""time""
""fullscreenenter"",""1"",""1977""
","
","","","","","","367.40000000596046","<p> Today, we are going to ask you to try to remember all the items. </p>","","0","instructions","","",""
"learning-instructions","11","43011","0.0-9.0-0.2","5953","approach_avoid_sv1","""event"",""trial"",""time""
""fullscreenenter"",""1"",""1977""
","
","
","""event"",""trial"",""time""
""fullscreenenter"",""1"",""1977""
","
","","","","","","3574.699999988079","<p> On every trial, you will see an image. </p><p> The image may be an OLD image you saw during the games last week or it may be a NEW image that was not presented. </p>","","0","instructions","","",""
"learning-instructions","12","51917","0.0-9.0-0.3","5953","approach_avoid_sv1","""event"",""trial"",""time""
""fullscreenenter"",""1"",""1977""
","
","
","""event"",""trial"",""time""
""fullscreenenter"",""1"",""1977""
","
","","","","","","409.90000000596046","<p> You need to select whether the image is:  </p><p>  'Definitely old', 'Maybe old', 'Maybe new', or 'Definitely new.'  </p><div class=""mem-choice-instructions-grid""><div class=""choice-option"" id=""choice-option-1"" ><img src=""images/definitely_old_1.png"" id=""choice-option-img-1"" class=""choice-option-img"" stage=""1""></div><div class=""choice-option"" id=""choice-option-2"" ><img src=""images/maybe_old_1.png"" id=""choice-option-img-2"" class=""choice-option-img"" stage=""1""></div><div class=""choice-option"" id=""choice-option-3"" ><img src=""images/maybe_new_1.png"" id=""choice-option-img-3"" class=""choice-option-img"" stage=""1""></div><div class=""choice-option"" id=""choice-option-4"" > <img src=""images/definitely_new_1.png"" id=""choice-option-img-4"" class=""choice-option-img"" stage=""1""></div></div>","","0","instructions","","",""
"learning-instructions","13","58856","0.0-9.0-0.4","5953","approach_avoid_sv1","""event"",""trial"",""time""
""fullscreenenter"",""1"",""1977""
","
","
","""event"",""trial"",""time""
""fullscreenenter"",""1"",""1977""
","
","","","","","","419.09999999403954","<p> You should use the 1, 2, 3, and 4 keys to make your responses.  </p><div class=""mem-choice-instructions-grid""><div class=""choice-option"" id=""choice-option-1"" ><img src=""images/definitely_old.png"" id=""choice-option-img-1"" class=""choice-option-img"" stage=""1""></div><div class=""choice-option"" id=""choice-option-2"" ><img src=""images/maybe_old.png"" id=""choice-option-img-2"" class=""choice-option-img"" stage=""1""></div><div class=""choice-option"" id=""choice-option-3"" ><img src=""images/maybe_new.png"" id=""choice-option-img-3"" class=""choice-option-img"" stage=""1""></div><div class=""choice-option"" id=""choice-option-4"" > <img src=""images/definitely_new.png"" id=""choice-option-img-4"" class=""choice-option-img"" stage=""1""></div></div>","","0","instructions","","",""
"learning-instructions","14","65521","0.0-9.0-0.5","5953","approach_avoid_sv1","""event"",""trial"",""time""
""fullscreenenter"",""1"",""1977""
","
","
","""event"",""trial"",""time""
""fullscreenenter"",""1"",""1977""
","
","","","","","","324.5","<p> You will have 10 seconds to make each response.  </p><p>  Make sure to respond before time runs out! </p>","","0","instructions","","",""
"learning-instructions","15","72911","0.0-9.0-0.6","5953","approach_avoid_sv1","""event"",""trial"",""time""
""fullscreenenter"",""1"",""1977""
","
","
","""event"",""trial"",""time""
""fullscreenenter"",""1"",""1977""
","
","","","","","","303.7999999821186","<p> Today, you will see each image ONCE only.  </p><p>  That means none of the images will repeat. </p>","","0","instructions","","",""
"learning-instructions","16","86267","0.0-9.0-0.7","5953","approach_avoid_sv1","""event"",""trial"",""time""
""fullscreenenter"",""1"",""1977""
","
","
","""event"",""trial"",""time""
""fullscreenenter"",""1"",""1977""
","
","","","","","","680.6999999880791","<p> Before you play the real game, it is time to practice. </p><p>  Just like in the real game, some of the images in the practice will be ones you have seen before. </p><p>  Others will be entirely new. </p>","","0","instructions","","",""
"html-button-response","17","90947","0.0-10.0","5953","approach_avoid_sv1","""event"",""trial"",""time""
""fullscreenenter"",""1"",""1977""
","
","
","""event"",""trial"",""time""
""fullscreenenter"",""1"",""1977""
","
","","","","","","4571.0999999940395","<p> Ready to practice? </p><p> Remember, use the 1, 2, 3, and 4 keys to make your responses. </p>","0","","instructions","","",""
"html-keyboard-response","18","91574","0.0-11.0-0.0","5953","approach_avoid_sv1","""event"",""trial"",""time""
""fullscreenenter"",""1"",""1977""
","
","
","""event"",""trial"",""time""
""fullscreenenter"",""1"",""1977""
","
","","","","","","null","<div style=""font-size:60px;"">+</div>","null","","fixation","","",""
"memory-trial","19","94935","0.0-11.0-1.0","5953","approach_avoid_sv1","""event"",""trial"",""time""
""fullscreenenter"",""1"",""1977""
","
","
","""event"",""trial"",""time""
""fullscreenenter"",""1"",""1977""
","
","","","","","","2345.2000000178814","images/ball2.png","","","practice","1","definitely_old",""
"html-keyboard-response","20","95441","0.0-11.0-0.1","5953","approach_avoid_sv1","""event"",""trial"",""time""
""fullscreenenter"",""1"",""1977""
","
","
","""event"",""trial"",""time""
""fullscreenenter"",""1"",""1977""
","
","","","","","","null","<div style=""font-size:60px;"">+</div>","null","","fixation","","",""
"memory-trial","21","97885","0.0-11.0-1.1","5953","approach_avoid_sv1","""event"",""trial"",""time""
""fullscreenenter"",""1"",""1977""
","
","
","""event"",""trial"",""time""
""fullscreenenter"",""1"",""1977""
","
","","","","","","1424.300000011921","images/ball3.png","","","practice","1","definitely_old",""
"html-keyboard-response","22","98393","0.0-11.0-0.2","5953","approach_avoid_sv1","""event"",""trial"",""time""
""fullscreenenter"",""1"",""1977""
","
","
","""event"",""trial"",""time""
""fullscreenenter"",""1"",""1977""
","
","","","","","","null","<div style=""font-size:60px;"">+</div>","null","","fixation","","",""
"memory-trial","23","100757","0.0-11.0-1.2","5953","approach_avoid_sv1","""event"",""trial"",""time""
""fullscreenenter"",""1"",""1977""
","
","
","""event"",""trial"",""time""
""fullscreenenter"",""1"",""1977""
","
","","","","","","1345.5","images/ball1.png","","","practice","2","maybe_old",""
"html-keyboard-response","24","101276","0.0-11.0-0.3","5953","approach_avoid_sv1","""event"",""trial"",""time""
""fullscreenenter"",""1"",""1977""
","
","
","""event"",""trial"",""time""
""fullscreenenter"",""1"",""1977""
","
","","","","","","null","<div style=""font-size:60px;"">+</div>","null","","fixation","","",""
"memory-trial","25","103221","0.0-11.0-1.3","5953","approach_avoid_sv1","""event"",""trial"",""time""
""fullscreenenter"",""1"",""1977""
","
","
","""event"",""trial"",""time""
""fullscreenenter"",""1"",""1977""
","
","","","","","","936.5","images/racket5.png","","","practice","4","definitely_new",""
"html-keyboard-response","26","103729","0.0-11.0-0.4","5953","approach_avoid_sv1","""event"",""trial"",""time""
""fullscreenenter"",""1"",""1977""
","
","
","""event"",""trial"",""time""
""fullscreenenter"",""1"",""1977""
","
","","","","","","null","<div style=""font-size:60px;"">+</div>","null","","fixation","","",""
"memory-trial","27","106841","0.0-11.0-1.4","5953","approach_avoid_sv1","""event"",""trial"",""time""
""fullscreenenter"",""1"",""1977""
","
","
","""event"",""trial"",""time""
""fullscreenenter"",""1"",""1977""
","
","","","","","","2094.7999999821186","images/racket2.png","","","practice","4","definitely_new",""
"html-keyboard-response","28","107345","0.0-11.0-0.5","5953","approach_avoid_sv1","""event"",""trial"",""time""
""fullscreenenter"",""1"",""1977""
","
","
","""event"",""trial"",""time""
""fullscreenenter"",""1"",""1977""
","
","","","","","","null","<div style=""font-size:60px;"">+</div>","null","","fixation","","",""
"memory-trial","29","110269","0.0-11.0-1.5","5953","approach_avoid_sv1","""event"",""trial"",""time""
""fullscreenenter"",""1"",""1977""
","
","
","""event"",""trial"",""time""
""fullscreenenter"",""1"",""1977""
","
","","","","","","1901.300000011921","images/racket1.png","","","practice","2","maybe_old",""
"html-keyboard-response","30","110777","0.0-11.0-0.6","5953","approach_avoid_sv1","""event"",""trial"",""time""
""fullscreenenter"",""1"",""1977""
","
","
","""event"",""trial"",""time""
""fullscreenenter"",""1"",""1977""
","
","","","","","","null","<div style=""font-size:60px;"">+</div>","null","","fixation","","",""
"memory-trial","31","113193","0.0-11.0-1.6","5953","approach_avoid_sv1","""event"",""trial"",""time""
""fullscreenenter"",""1"",""1977""
","
","
","""event"",""trial"",""time""
""fullscreenenter"",""1"",""1977""
","
","","","","","","1404.3999999761581","images/racket3.png","","","practice","1","definitely_old",""
"html-keyboard-response","32","113711","0.0-11.0-0.7","5953","approach_avoid_sv1","""event"",""trial"",""time""
""fullscreenenter"",""1"",""1977""
","
","
","""event"",""trial"",""time""
""fullscreenenter"",""1"",""1977""
","
","","","","","","null","<div style=""font-size:60px;"">+</div>","null","","fixation","","",""
"memory-trial","33","116103","0.0-11.0-1.7","5953","approach_avoid_sv1","""event"",""trial"",""time""
""fullscreenenter"",""1"",""1977""
","
","
","""event"",""trial"",""time""
""fullscreenenter"",""1"",""1977""
","
","","","","","","1389.699999988079","images/ball5.png","","","practice","2","maybe_old",""
"learning-instructions","34","124030","0.0-12.0-0.0","5953","approach_avoid_sv1","""event"",""trial"",""time""
""fullscreenenter"",""1"",""1977""
","
","
","""event"",""trial"",""time""
""fullscreenenter"",""1"",""1977""
","
","","","","","","627.0999999940395","<p> Great! You have completed the practice. </p><p> Before you start, we're going to ask you a few questions about how the game works.  </p>","","0","instructions","","",""
"preload","35","125308","0.0-13.0","5953","approach_avoid_sv1","""event"",""trial"",""time""
""fullscreenenter"",""1"",""1977""
","
","
","""event"",""trial"",""time""
""fullscreenenter"",""1"",""1977""
","
","true","false","[]","[]","[]","","","","","","","",""
"comp-q","36","132279","0.0-14.0-0.0","5953","approach_avoid_sv1","""event"",""trial"",""time""
""fullscreenenter"",""1"",""1977""
","
","
","""event"",""trial"",""time""
""fullscreenenter"",""1"",""1977""
","
","","","","","","1146.9000000059605","<p> <b> True or False? </b> </p><p> In this game, you will only see each image once. </p>","","0","comp_question","","","true"
"comp-q","37","139675","0.0-14.0-1.0","5953","approach_avoid_sv1","""event"",""trial"",""time""
""fullscreenenter"",""1"",""1977""
","
","
","""event"",""trial"",""time""
""fullscreenenter"",""1"",""1977""
","
","","","","","","1062.4000000059605","<p> <b> That's right! </b> You will see many different images <i> one time each </i> in this game. </p>","","0","comp_answer","","",""
"comp-q","38","145250","0.0-15.0-0.0","5953","approach_avoid_sv1","""event"",""trial"",""time""
""fullscreenenter"",""1"",""1977""
","
","
","""event"",""trial"",""time""
""fullscreenenter"",""1"",""1977""
","
","","","","","","567.5","<p> <b> True or False? </b> </p><p> You should use the mouse and click to make your response. </p>","","1","comp_question","","","true"
"comp-q","39","153741","0.0-15.0-1.0","5953","approach_avoid_sv1","""event"",""trial"",""time""
""fullscreenenter"",""1"",""1977""
","
","
","""event"",""trial"",""time""
""fullscreenenter"",""1"",""1977""
","
","","","","","","1988","<p><b> That's right! </b> You should use the '1', '2', '3', and '4' keys to make your response. </p>","","0","comp_answer","","",""
"comp-q","40","160229","0.0-16.0-0.0","5953","approach_avoid_sv1","""event"",""trial"",""time""
""fullscreenenter"",""1"",""1977""
","
","
","""event"",""trial"",""time""
""fullscreenenter"",""1"",""1977""
","
","","","","","","796","<p> <b> True or False? </b> </p><p> You will have as much time as you want to make each choice. </p>","","1","comp_question","","","true"
"comp-q","41","165816","0.0-16.0-1.0","5953","approach_avoid_sv1","""event"",""trial"",""time""
""fullscreenenter"",""1"",""1977""
","
","
","""event"",""trial"",""time""
""fullscreenenter"",""1"",""1977""
","
","","","","","","883.7999999821186","<p> <b> That's right! </b> You will only have 10 seconds to make each choice. </p>","","0","comp_answer","","",""
"learning-instructions","42","176189","0.0-17.0","5953","approach_avoid_sv1","""event"",""trial"",""time""
""fullscreenenter"",""1"",""1977""
","
","
","""event"",""trial"",""time""
""fullscreenenter"",""1"",""1977""
","
","","","","","","1696.0999999940395","<p> Great! You are now ready to begin the game. </p><p> Remember, use the 1, 2, 3, and 4 keys to make your responses. </p>","","0","instructions","","",""
"html-keyboard-response","43","176805","0.0-18.0-0.0","5953","approach_avoid_sv1","""event"",""trial"",""time""
""fullscreenenter"",""1"",""1977""
","
","
","""event"",""trial"",""time""
""fullscreenenter"",""1"",""1977""
","
","","","","","","null","<div style=""font-size:60px;"">+</div>","null","","fixation","","",""
"memory-trial","44","179609","0.0-18.0-1.0","5953","approach_avoid_sv1","""event"",""trial"",""time""
""fullscreenenter"",""1"",""1977""
","
","
","""event"",""trial"",""time""
""fullscreenenter"",""1"",""1977""
","
","","","","","","1797.800000011921","images/sheep7.png","","","memory_trial","2","maybe_old",""
"html-keyboard-response","45","180115","0.0-18.0-0.1","5953","approach_avoid_sv1","""event"",""trial"",""time""
""fullscreenenter"",""1"",""1977""
","
","
","""event"",""trial"",""time""
""fullscreenenter"",""1"",""1977""
","
","","","","","","null","<div style=""font-size:60px;"">+</div>","null","","fixation","","",""
"memory-trial","46","182191","0.0-18.0-1.1","5953","approach_avoid_sv1","""event"",""trial"",""time""
""fullscreenenter"",""1"",""1977""
","
","
","""event"",""trial"",""time""
""fullscreenenter"",""1"",""1977""
","
","","","","","","1061.4000000059605","images/rodent4.png","","","memory_trial","4","definitely_new",""
"html-keyboard-response","47","182696","0.0-18.0-0.2","5953","approach_avoid_sv1","""event"",""trial"",""time""
""fullscreenenter"",""1"",""1977""
","
","
","""event"",""trial"",""time""
""fullscreenenter"",""1"",""1977""
","
","","","","","","null","<div style=""font-size:60px;"">+</div>","null","","fixation","","",""
"memory-trial","48","184975","0.0-18.0-1.2","5953","approach_avoid_sv1","""event"",""trial"",""time""
""fullscreenenter"",""1"",""1977""
","
","
","""event"",""trial"",""time""
""fullscreenenter"",""1"",""1977""
","
","","","","","","1256.4000000059605","images/tree5.png","","","memory_trial","1","definitely_old",""
"html-keyboard-response","49","185486","0.0-18.0-0.3","5953","approach_avoid_sv1","""event"",""trial"",""time""
""fullscreenenter"",""1"",""1977""
","
","
","""event"",""trial"",""time""
""fullscreenenter"",""1"",""1977""
","
","","","","","","null","<div style=""font-size:60px;"">+</div>","null","","fixation","","",""
"memory-trial","50","188879","0.0-18.0-1.3","5953","approach_avoid_sv1","""event"",""trial"",""time""
""fullscreenenter"",""1"",""1977""
","
","
","""event"",""trial"",""time""
""fullscreenenter"",""1"",""1977""
","
","","","","","","2382.7000000178814","images/goat2.png","","","memory_trial","3","maybe_new",""
"html-keyboard-response","51","189385","0.0-18.0-0.4","5953","approach_avoid_sv1","""event"",""trial"",""time""
""fullscreenenter"",""1"",""1977""
","
","
","""event"",""trial"",""time""
""fullscreenenter"",""1"",""1977""
","
","","","","","","null","<div style=""font-size:60px;"">+</div>","null","","fixation","","",""
"memory-trial","52","192079","0.0-18.0-1.4","5953","approach_avoid_sv1","""event"",""trial"",""time""
""fullscreenenter"",""1"",""1977""
","
","
","""event"",""trial"",""time""
""fullscreenenter"",""1"",""1977""
","
","","","","","","1681.7999999821186","images/banana7.png","","","memory_trial","2","maybe_old",""
"html-keyboard-response","53","192585","0.0-18.0-0.5","5953","approach_avoid_sv1","""event"",""trial"",""time""
""fullscreenenter"",""1"",""1977""
","
","
","""event"",""trial"",""time""
""fullscreenenter"",""1"",""1977""
","
","","","","","","null","<div style=""font-size:60px;"">+</div>","null","","fixation","","",""
"memory-trial","54","194378","0.0-18.0-1.5","5953","approach_avoid_sv1","""event"",""trial"",""time""
""fullscreenenter"",""1"",""1977""
","
","
","""event"",""trial"",""time""
""fullscreenenter"",""1"",""1977""
","
","","","","","","787.9000000059605","images/table8.png","","","memory_trial","1","definitely_old",""
"html-keyboard-response","55","194885","0.0-18.0-0.6","5953","approach_avoid_sv1","""event"",""trial"",""time""
""fullscreenenter"",""1"",""1977""
","
","
","""event"",""trial"",""time""
""fullscreenenter"",""1"",""1977""
","
","","","","","","null","<div style=""font-size:60px;"">+</div>","null","","fixation","","",""
"memory-trial","56","196679","0.0-18.0-1.6","5953","approach_avoid_sv1","""event"",""trial"",""time""
""fullscreenenter"",""1"",""1977""
","
","
","""event"",""trial"",""time""
""fullscreenenter"",""1"",""1977""
","
","","","","","","780.8999999761581","images/rodent3.png","","","memory_trial","4","definitely_new",""
"html-keyboard-response","57","197185","0.0-18.0-0.7","5953","approach_avoid_sv1","""event"",""trial"",""time""
""fullscreenenter"",""1"",""1977""
","
","
","""event"",""trial"",""time""
""fullscreenenter"",""1"",""1977""
","
","","","","","","null","<div style=""font-size:60px;"">+</div>","null","","fixation","","",""
"memory-trial","58","200330","0.0-18.0-1.7","5953","approach_avoid_sv1","""event"",""trial"",""time""
""fullscreenenter"",""1"",""1977""
","
","
","""event"",""trial"",""time""
""fullscreenenter"",""1"",""1977""
","
","","","","","","2133.0999999940395","images/sheep6.png","","","memory_trial","2","maybe_old",""
"html-keyboard-response","59","200836","0.0-18.0-0.8","5953","approach_avoid_sv1","""event"",""trial"",""time""
""fullscreenenter"",""1"",""1977""
","
","
","""event"",""trial"",""time""
""fullscreenenter"",""1"",""1977""
","
","","","","","","null","<div style=""font-size:60px;"">+</div>","null","","fixation","","",""
"memory-trial","60","202664","0.0-18.0-1.8","5953","approach_avoid_sv1","""event"",""trial"",""time""
""fullscreenenter"",""1"",""1977""
","
","
","""event"",""trial"",""time""
""fullscreenenter"",""1"",""1977""
","
","","","","","","811","images/truck1.png","","","memory_trial","1","definitely_old",""
"html-keyboard-response","61","203174","0.0-18.0-0.9","5953","approach_avoid_sv1","""event"",""trial"",""time""
""fullscreenenter"",""1"",""1977""
","
","
","""event"",""trial"",""time""
""fullscreenenter"",""1"",""1977""
","
","","","","","","null","<div style=""font-size:60px;"">+</div>","null","","fixation","","",""
"memory-trial","62","204920","0.0-18.0-1.9","5953","approach_avoid_sv1","""event"",""trial"",""time""
""fullscreenenter"",""1"",""1977""
","
","
","""event"",""trial"",""time""
""fullscreenenter"",""1"",""1977""
","
","","","","","","741.8000000119209","images/cactus6.png","","","memory_trial","1","definitely_old",""
"html-keyboard-response","63","205423","0.0-18.0-0.10","5953","approach_avoid_sv1","""event"",""trial"",""time""
""fullscreenenter"",""1"",""1977""
","
","
","""event"",""trial"",""time""
""fullscreenenter"",""1"",""1977""
","
","","","","","","null","<div style=""font-size:60px;"">+</div>","null","","fixation","","",""
"memory-trial","64","207616","0.0-18.0-1.10","5953","approach_avoid_sv1","""event"",""trial"",""time""
""fullscreenenter"",""1"",""1977""
","
","
","""event"",""trial"",""time""
""fullscreenenter"",""1"",""1977""
","
","","","","","","1187.9000000059605","images/bush7.png","","","memory_trial","1","definitely_old",""
"html-keyboard-response","65","208120","0.0-18.0-0.11","5953","approach_avoid_sv1","""event"",""trial"",""time""
""fullscreenenter"",""1"",""1977""
","
","
","""event"",""trial"",""time""
""fullscreenenter"",""1"",""1977""
","
","","","","","","null","<div style=""font-size:60px;"">+</div>","null","","fixation","","",""
"memory-trial","66","211376","0.0-18.0-1.11","5953","approach_avoid_sv1","""event"",""trial"",""time""
""fullscreenenter"",""1"",""1977""
","
","
","""event"",""trial"",""time""
""fullscreenenter"",""1"",""1977""
","
","","","","","","2249.800000011921","images/horse3.png","","","memory_trial","4","definitely_new",""
"html-keyboard-response","67","211880","0.0-18.0-0.12","5953","approach_avoid_sv1","""event"",""trial"",""time""
""fullscreenenter"",""1"",""1977""
","
","
","""event"",""trial"",""time""
""fullscreenenter"",""1"",""1977""
","
","","","","","","null","<div style=""font-size:60px;"">+</div>","null","","fixation","","",""
"memory-trial","68","214025","0.0-18.0-1.12","5953","approach_avoid_sv1","""event"",""trial"",""time""
""fullscreenenter"",""1"",""1977""
","
","
","""event"",""trial"",""time""
""fullscreenenter"",""1"",""1977""
","
","","","","","","1138.699999988079","images/sofa6.png","","","memory_trial","4","definitely_new",""
"html-keyboard-response","69","214528","0.0-18.0-0.13","5953","approach_avoid_sv1","""event"",""trial"",""time""
""fullscreenenter"",""1"",""1977""
","
","
","""event"",""trial"",""time""
""fullscreenenter"",""1"",""1977""
","
","","","","","","null","<div style=""font-size:60px;"">+</div>","null","","fixation","","",""
"memory-trial","70","217655","0.0-18.0-1.13","5953","approach_avoid_sv1","""event"",""trial"",""time""
""fullscreenenter"",""1"",""1977""
","
","
","""event"",""trial"",""time""
""fullscreenenter"",""1"",""1977""
","
","","","","","","2119.9000000059605","images/cow1.png","","","memory_trial","1","definitely_old",""
"html-keyboard-response","71","218160","0.0-18.0-0.14","5953","approach_avoid_sv1","""event"",""trial"",""time""
""fullscreenenter"",""1"",""1977""
","
","
","""event"",""trial"",""time""
""fullscreenenter"",""1"",""1977""
","
","","","","","","null","<div style=""font-size:60px;"">+</div>","null","","fixation","","",""
"memory-trial","72","220841","0.0-18.0-1.14","5953","approach_avoid_sv1","""event"",""trial"",""time""
""fullscreenenter"",""1"",""1977""
","
","
","""event"",""trial"",""time""
""fullscreenenter"",""1"",""1977""
","
","","","","","","1673.800000011921","images/horse7.png","","","memory_trial","3","maybe_new",""
"html-keyboard-response","73","221344","0.0-18.0-0.15","5953","approach_avoid_sv1","""event"",""trial"",""time""
""fullscreenenter"",""1"",""1977""
","
","
","""event"",""trial"",""time""
""fullscreenenter"",""1"",""1977""
","
","","","","","","null","<div style=""font-size:60px;"">+</div>","null","","fixation","","",""
"memory-trial","74","223465","0.0-18.0-1.15","5953","approach_avoid_sv1","""event"",""trial"",""time""
""fullscreenenter"",""1"",""1977""
","
","
","""event"",""trial"",""time""
""fullscreenenter"",""1"",""1977""
","
","","","","","","1114.9000000059605","images/boat6.png","","","memory_trial","4","definitely_new",""
"html-keyboard-response","75","223967","0.0-18.0-0.16","5953","approach_avoid_sv1","""event"",""trial"",""time""
""fullscreenenter"",""1"",""1977""
","
","
","""event"",""trial"",""time""
""fullscreenenter"",""1"",""1977""
","
","","","","","","null","<div style=""font-size:60px;"">+</div>","null","","fixation","","",""
"memory-trial","76","225776","0.0-18.0-1.16","5953","approach_avoid_sv1","""event"",""trial"",""time""
""fullscreenenter"",""1"",""1977""
","
","
","""event"",""trial"",""time""
""fullscreenenter"",""1"",""1977""
","
","","","","","","801.0999999940395","images/train3.png","","","memory_trial","1","definitely_old",""
"html-keyboard-response","77","226280","0.0-18.0-0.17","5953","approach_avoid_sv1","""event"",""trial"",""time""
""fullscreenenter"",""1"",""1977""
","
","
","""event"",""trial"",""time""
""fullscreenenter"",""1"",""1977""
","
","","","","","","null","<div style=""font-size:60px;"">+</div>","null","","fixation","","",""
"memory-trial","78","228528","0.0-18.0-1.17","5953","approach_avoid_sv1","""event"",""trial"",""time""
""fullscreenenter"",""1"",""1977""
","
","
","""event"",""trial"",""time""
""fullscreenenter"",""1"",""1977""
","
","","","","","","1243.4000000059605","images/sofa4.png","","","memory_trial","4","definitely_new",""
"html-keyboard-response","79","229032","0.0-18.0-0.18","5953","approach_avoid_sv1","""event"",""trial"",""time""
""fullscreenenter"",""1"",""1977""
","
","
","""event"",""trial"",""time""
""fullscreenenter"",""1"",""1977""
","
","","","","","","null","<div style=""font-size:60px;"">+</div>","null","","fixation","","",""
"memory-trial","80","230744","0.0-18.0-1.18","5953","approach_avoid_sv1","""event"",""trial"",""time""
""fullscreenenter"",""1"",""1977""
","
","
","""event"",""trial"",""time""
""fullscreenenter"",""1"",""1977""
","
","","","","","","709.7000000178814","images/boat7.png","","","memory_trial","4","definitely_new",""
"html-keyboard-response","81","231248","0.0-18.0-0.19","5953","approach_avoid_sv1","""event"",""trial"",""time""
""fullscreenenter"",""1"",""1977""
","
","
","""event"",""trial"",""time""
""fullscreenenter"",""1"",""1977""
","
","","","","","","null","<div style=""font-size:60px;"">+</div>","null","","fixation","","",""
"memory-trial","82","233328","0.0-18.0-1.19","5953","approach_avoid_sv1","""event"",""trial"",""time""
""fullscreenenter"",""1"",""1977""
","
","
","""event"",""trial"",""time""
""fullscreenenter"",""1"",""1977""
","
","","","","","","1070.2999999821186","images/bed1.png","","","memory_trial","1","definitely_old",""
"html-keyboard-response","83","233832","0.0-18.0-0.20","5953","approach_avoid_sv1","""event"",""trial"",""time""
""fullscreenenter"",""1"",""1977""
","
","
","""event"",""trial"",""time""
""fullscreenenter"",""1"",""1977""
","
","","","","","","null","<div style=""font-size:60px;"">+</div>","null","","fixation","","",""
"memory-trial","84","235968","0.0-18.0-1.20","5953","approach_avoid_sv1","""event"",""trial"",""time""
""fullscreenenter"",""1"",""1977""
","
","
","""event"",""trial"",""time""
""fullscreenenter"",""1"",""1977""
","
","","","","","","1132.5999999940395","images/straw4.png","","","memory_trial","2","maybe_old",""
"html-keyboard-response","85","236472","0.0-18.0-0.21","5953","approach_avoid_sv1","""event"",""trial"",""time""
""fullscreenenter"",""1"",""1977""
","
","
","""event"",""trial"",""time""
""fullscreenenter"",""1"",""1977""
","
","","","","","","null","<div style=""font-size:60px;"">+</div>","null","","fixation","","",""
"memory-trial","86","238689","0.0-18.0-1.21","5953","approach_avoid_sv1","""event"",""trial"",""time""
""fullscreenenter"",""1"",""1977""
","
","
","""event"",""trial"",""time""
""fullscreenenter"",""1"",""1977""
","
","","","","","","1209.300000011921","images/chair1.png","","","memory_trial","3","maybe_new",""
"html-keyboard-response","87","239192","0.0-18.0-0.22","5953","approach_avoid_sv1","""event"",""trial"",""time""
""fullscreenenter"",""1"",""1977""
","
","
","""event"",""trial"",""time""
""fullscreenenter"",""1"",""1977""
","
","","","","","","null","<div style=""font-size:60px;"">+</div>","null","","fixation","","",""
"memory-trial","88","242071","0.0-18.0-1.22","5953","approach_avoid_sv1","""event"",""trial"",""time""
""fullscreenenter"",""1"",""1977""
","
","
","""event"",""trial"",""time""
""fullscreenenter"",""1"",""1977""
","
","","","","","","1877.5999999940395","images/horse2.png","","","memory_trial","3","maybe_new",""
"html-keyboard-response","89","242576","0.0-18.0-0.23","5953","approach_avoid_sv1","""event"",""trial"",""time""
""fullscreenenter"",""1"",""1977""
","
","
","""event"",""trial"",""time""
""fullscreenenter"",""1"",""1977""
","
","","","","","","null","<div style=""font-size:60px;"">+</div>","null","","fixation","","",""
"memory-trial","90","245743","0.0-18.0-1.23","5953","approach_avoid_sv1","""event"",""trial"",""time""
""fullscreenenter"",""1"",""1977""
","
","
","""event"",""trial"",""time""
""fullscreenenter"",""1"",""1977""
","
","","","","","","2160.4000000059605","images/cat4.png","","","memory_trial","1","definitely_old",""
"html-keyboard-response","91","246248","0.0-18.0-0.24","5953","approach_avoid_sv1","""event"",""trial"",""time""
""fullscreenenter"",""1"",""1977""
","
","
","""event"",""trial"",""time""
""fullscreenenter"",""1"",""1977""
","
","","","","","","null","<div style=""font-size:60px;"">+</div>","null","","fixation","","",""
"memory-trial","92","248840","0.0-18.0-1.24","5953","approach_avoid_sv1","""event"",""trial"",""time""
""fullscreenenter"",""1"",""1977""
","
","
","""event"",""trial"",""time""
""fullscreenenter"",""1"",""1977""
","
","","","","","","1585.0999999940395","images/truck6.png","","","memory_trial","4","definitely_new",""
"html-keyboard-response","93","249345","0.0-18.0-0.25","5953","approach_avoid_sv1","""event"",""trial"",""time""
""fullscreenenter"",""1"",""1977""
","
","
","""event"",""trial"",""time""
""fullscreenenter"",""1"",""1977""
","
","","","","","","null","<div style=""font-size:60px;"">+</div>","null","","fixation","","",""
"memory-trial","94","251407","0.0-18.0-1.25","5953","approach_avoid_sv1","""event"",""trial"",""time""
""fullscreenenter"",""1"",""1977""
","
","
","""event"",""trial"",""time""
""fullscreenenter"",""1"",""1977""
","
","","","","","","1058.0999999940395","images/straw5.png","","","memory_trial","1","definitely_old",""
"html-keyboard-response","95","251911","0.0-18.0-0.26","5953","approach_avoid_sv1","""event"",""trial"",""time""
""fullscreenenter"",""1"",""1977""
","
","
","""event"",""trial"",""time""
""fullscreenenter"",""1"",""1977""
","
","","","","","","null","<div style=""font-size:60px;"">+</div>","null","","fixation","","",""
"memory-trial","96","254464","0.0-18.0-1.26","5953","approach_avoid_sv1","""event"",""trial"",""time""
""fullscreenenter"",""1"",""1977""
","
","
","""event"",""trial"",""time""
""fullscreenenter"",""1"",""1977""
","
","","","","","","1543.699999988079","images/orange1.png","","","memory_trial","3","maybe_new",""
"html-keyboard-response","97","254967","0.0-18.0-0.27","5953","approach_avoid_sv1","""event"",""trial"",""time""
""fullscreenenter"",""1"",""1977""
","
","
","""event"",""trial"",""time""
""fullscreenenter"",""1"",""1977""
","
","","","","","","null","<div style=""font-size:60px;"">+</div>","null","","fixation","","",""
"memory-trial","98","257135","0.0-18.0-1.27","5953","approach_avoid_sv1","""event"",""trial"",""time""
""fullscreenenter"",""1"",""1977""
","
","
","""event"",""trial"",""time""
""fullscreenenter"",""1"",""1977""
","
","","","","","","1164.9000000059605","images/bush2.png","","","memory_trial","4","definitely_new",""
"html-keyboard-response","99","257640","0.0-18.0-0.28","5953","approach_avoid_sv1","""event"",""trial"",""time""
""fullscreenenter"",""1"",""1977""
","
","
","""event"",""trial"",""time""
""fullscreenenter"",""1"",""1977""
","
","","","","","","null","<div style=""font-size:60px;"">+</div>","null","","fixation","","",""
"memory-trial","100","259544","0.0-18.0-1.28","5953","approach_avoid_sv1","""event"",""trial"",""time""
""fullscreenenter"",""1"",""1977""
","
","
","""event"",""trial"",""time""
""fullscreenenter"",""1"",""1977""
","
","","","","","","895","images/plane8.png","","","memory_trial","1","definitely_old",""
"html-keyboard-response","101","260048","0.0-18.0-0.29","5953","approach_avoid_sv1","""event"",""trial"",""time""
""fullscreenenter"",""1"",""1977""
","
","
","""event"",""trial"",""time""
""fullscreenenter"",""1"",""1977""
","
","","","","","","null","<div style=""font-size:60px;"">+</div>","null","","fixation","","",""
"memory-trial","102","262432","0.0-18.0-1.29","5953","approach_avoid_sv1","""event"",""trial"",""time""
""fullscreenenter"",""1"",""1977""
","
","
","""event"",""trial"",""time""
""fullscreenenter"",""1"",""1977""
","
","","","","","","1380.0999999940395","images/chair6.png","","","memory_trial","1","definitely_old",""
"html-keyboard-response","103","262935","0.0-18.0-0.30","5953","approach_avoid_sv1","""event"",""trial"",""time""
""fullscreenenter"",""1"",""1977""
","
","
","""event"",""trial"",""time""
""fullscreenenter"",""1"",""1977""
","
","","","","","","null","<div style=""font-size:60px;"">+</div>","null","","fixation","","",""
"memory-trial","104","265536","0.0-18.0-1.30","5953","approach_avoid_sv1","""event"",""trial"",""time""
""fullscreenenter"",""1"",""1977""
","
","
","""event"",""trial"",""time""
""fullscreenenter"",""1"",""1977""
","
","","","","","","1595.7000000178814","images/apple1.png","","","memory_trial","4","definitely_new",""
"html-keyboard-response","105","266040","0.0-18.0-0.31","5953","approach_avoid_sv1","""event"",""trial"",""time""
""fullscreenenter"",""1"",""1977""
","
","
","""event"",""trial"",""time""
""fullscreenenter"",""1"",""1977""
","
","","","","","","null","<div style=""font-size:60px;"">+</div>","null","","fixation","","",""
"memory-trial","106","267856","0.0-18.0-1.31","5953","approach_avoid_sv1","""event"",""trial"",""time""
""fullscreenenter"",""1"",""1977""
","
","
","""event"",""trial"",""time""
""fullscreenenter"",""1"",""1977""
","
","","","","","","809.2000000178814","images/chair3.png","","","memory_trial","1","definitely_old",""
"html-keyboard-response","107","268360","0.0-18.0-0.32","5953","approach_avoid_sv1","""event"",""trial"",""time""
""fullscreenenter"",""1"",""1977""
","
","
","""event"",""trial"",""time""
""fullscreenenter"",""1"",""1977""
","
","","","","","","null","<div style=""font-size:60px;"">+</div>","null","","fixation","","",""
"memory-trial","108","270152","0.0-18.0-1.32","5953","approach_avoid_sv1","""event"",""trial"",""time""
""fullscreenenter"",""1"",""1977""
","
","
","""event"",""trial"",""time""
""fullscreenenter"",""1"",""1977""
","
","","","","","","782.0999999940395","images/flower5.png","","","memory_trial","4","definitely_new",""
"html-keyboard-response","109","270655","0.0-18.0-0.33","5953","approach_avoid_sv1","""event"",""trial"",""time""
""fullscreenenter"",""1"",""1977""
","
","
","""event"",""trial"",""time""
""fullscreenenter"",""1"",""1977""
","
","","","","","","null","<div style=""font-size:60px;"">+</div>","null","","fixation","","",""
"memory-trial","110","272264","0.0-18.0-1.33","5953","approach_avoid_sv1","""event"",""trial"",""time""
""fullscreenenter"",""1"",""1977""
","
","
","""event"",""trial"",""time""
""fullscreenenter"",""1"",""1977""
","
","","","","","","602.0999999940395","images/boat1.png","","","memory_trial","4","definitely_new",""
"html-keyboard-response","111","272768","0.0-18.0-0.34","5953","approach_avoid_sv1","""event"",""trial"",""time""
""fullscreenenter"",""1"",""1977""
","
","
","""event"",""trial"",""time""
""fullscreenenter"",""1"",""1977""
","
","","","","","","null","<div style=""font-size:60px;"">+</div>","null","","fixation","","",""
"memory-trial","112","274575","0.0-18.0-1.34","5953","approach_avoid_sv1","""event"",""trial"",""time""
""fullscreenenter"",""1"",""1977""
","
","
","""event"",""trial"",""time""
""fullscreenenter"",""1"",""1977""
","
","","","","","","798.4000000059605","images/apple8.png","","","memory_trial","1","definitely_old",""
"html-keyboard-response","113","275080","0.0-18.0-0.35","5953","approach_avoid_sv1","""event"",""trial"",""time""
""fullscreenenter"",""1"",""1977""
","
","
","""event"",""trial"",""time""
""fullscreenenter"",""1"",""1977""
","
","","","","","","null","<div style=""font-size:60px;"">+</div>","null","","fixation","","",""
"memory-trial","114","276759","0.0-18.0-1.35","5953","approach_avoid_sv1","""event"",""trial"",""time""
""fullscreenenter"",""1"",""1977""
","
","
","""event"",""trial"",""time""
""fullscreenenter"",""1"",""1977""
","
","","","","","","673.0999999940395","images/banana3.png","","","memory_trial","1","definitely_old",""
"html-keyboard-response","115","277264","0.0-18.0-0.36","5953","approach_avoid_sv1","""event"",""trial"",""time""
""fullscreenenter"",""1"",""1977""
","
","
","""event"",""trial"",""time""
""fullscreenenter"",""1"",""1977""
","
","","","","","","null","<div style=""font-size:60px;"">+</div>","null","","fixation","","",""
"memory-trial","116","280352","0.0-18.0-1.36","5953","approach_avoid_sv1","""event"",""trial"",""time""
""fullscreenenter"",""1"",""1977""
","
","
","""event"",""trial"",""time""
""fullscreenenter"",""1"",""1977""
","
","","","","","","2084.5","images/table6.png","","","memory_trial","3","maybe_new",""
"html-keyboard-response","117","280857","0.0-18.0-0.37","5953","approach_avoid_sv1","""event"",""trial"",""time""
""fullscreenenter"",""1"",""1977""
","
","
","""event"",""trial"",""time""
""fullscreenenter"",""1"",""1977""
","
","","","","","","null","<div style=""font-size:60px;"">+</div>","null","","fixation","","",""
"memory-trial","118","282856","0.0-18.0-1.37","5953","approach_avoid_sv1","""event"",""trial"",""time""
""fullscreenenter"",""1"",""1977""
","
","
","""event"",""trial"",""time""
""fullscreenenter"",""1"",""1977""
","
","","","","","","990.7999999821186","images/bush5.png","","","memory_trial","1","definitely_old",""
"html-keyboard-response","119","283361","0.0-18.0-0.38","5953","approach_avoid_sv1","""event"",""trial"",""time""
""fullscreenenter"",""1"",""1977""
","
","
","""event"",""trial"",""time""
""fullscreenenter"",""1"",""1977""
","
","","","","","","null","<div style=""font-size:60px;"">+</div>","null","","fixation","","",""
"memory-trial","120","285368","0.0-18.0-1.38","5953","approach_avoid_sv1","""event"",""trial"",""time""
""fullscreenenter"",""1"",""1977""
","
","
","""event"",""trial"",""time""
""fullscreenenter"",""1"",""1977""
","
","","","","","","998.4000000059605","images/orange8.png","","","memory_trial","4","definitely_new",""
"html-keyboard-response","121","285872","0.0-18.0-0.39","5953","approach_avoid_sv1","""event"",""trial"",""time""
""fullscreenenter"",""1"",""1977""
","
","
","""event"",""trial"",""time""
""fullscreenenter"",""1"",""1977""
","
","","","","","","null","<div style=""font-size:60px;"">+</div>","null","","fixation","","",""
"memory-trial","122","287696","0.0-18.0-1.39","5953","approach_avoid_sv1","""event"",""trial"",""time""
""fullscreenenter"",""1"",""1977""
","
","
","""event"",""trial"",""time""
""fullscreenenter"",""1"",""1977""
","
","","","","","","821.8999999761581","images/truck3.png","","","memory_trial","4","definitely_new",""
"html-keyboard-response","123","288200","0.0-18.0-0.40","5953","approach_avoid_sv1","""event"",""trial"",""time""
""fullscreenenter"",""1"",""1977""
","
","
","""event"",""trial"",""time""
""fullscreenenter"",""1"",""1977""
","
","","","","","","null","<div style=""font-size:60px;"">+</div>","null","","fixation","","",""
"memory-trial","124","289816","0.0-18.0-1.40","5953","approach_avoid_sv1","""event"",""trial"",""time""
""fullscreenenter"",""1"",""1977""
","
","
","""event"",""trial"",""time""
""fullscreenenter"",""1"",""1977""
","
","","","","","","607.5","images/train4.png","","","memory_trial","1","definitely_old",""
"html-keyboard-response","125","290320","0.0-18.0-0.41","5953","approach_avoid_sv1","""event"",""trial"",""time""
""fullscreenenter"",""1"",""1977""
","
","
","""event"",""trial"",""time""
""fullscreenenter"",""1"",""1977""
","
","","","","","","null","<div style=""font-size:60px;"">+</div>","null","","fixation","","",""
"memory-trial","126","293560","0.0-18.0-1.41","5953","approach_avoid_sv1","""event"",""trial"",""time""
""fullscreenenter"",""1"",""1977""
","
","
","""event"",""trial"",""time""
""fullscreenenter"",""1"",""1977""
","
","","","","","","2236","images/rabbit3.png","","","memory_trial","3","maybe_new",""
"html-button-response","127","295805","0.0-18.0-2.41-0.41","5953","approach_avoid_sv1","""event"",""trial"",""time""
""fullscreenenter"",""1"",""1977""
","
","
","""event"",""trial"",""time""
""fullscreenenter"",""1"",""1977""
","
","","","","","","2244.5","<p> Take a break! </p><p> Click the button to continue. </p>","0","","break","","",""
"html-keyboard-response","128","296312","0.0-18.0-0.42","5953","approach_avoid_sv1","""event"",""trial"",""time""
""fullscreenenter"",""1"",""1977""
","
","
","""event"",""trial"",""time""
""fullscreenenter"",""1"",""1977""
","
","","","","","","null","<div style=""font-size:60px;"">+</div>","null","","fixation","","",""
"memory-trial","129","298288","0.0-18.0-1.42","5953","approach_avoid_sv1","""event"",""trial"",""time""
""fullscreenenter"",""1"",""1977""
","
","
","""event"",""trial"",""time""
""fullscreenenter"",""1"",""1977""
","
","","","","","","970.0999999940395","images/sofa2.png","","","memory_trial","4","definitely_new",""
"html-keyboard-response","130","298792","0.0-18.0-0.43","5953","approach_avoid_sv1","""event"",""trial"",""time""
""fullscreenenter"",""1"",""1977""
","
","
","""event"",""trial"",""time""
""fullscreenenter"",""1"",""1977""
","
","","","","","","null","<div style=""font-size:60px;"">+</div>","null","","fixation","","",""
"memory-trial","131","301124","0.0-18.0-1.43","5953","approach_avoid_sv1","""event"",""trial"",""time""
""fullscreenenter"",""1"",""1977""
","
","
","""event"",""trial"",""time""
""fullscreenenter"",""1"",""1977""
","
","","","","","","1317.9000000059605","images/table7.png","","","memory_trial","2","maybe_old",""
"html-keyboard-response","132","301632","0.0-18.0-0.44","5953","approach_avoid_sv1","""event"",""trial"",""time""
""fullscreenenter"",""1"",""1977""
","
","
","""event"",""trial"",""time""
""fullscreenenter"",""1"",""1977""
","
","","","","","","null","<div style=""font-size:60px;"">+</div>","null","","fixation","","",""
"memory-trial","133","303520","0.0-18.0-1.44","5953","approach_avoid_sv1","""event"",""trial"",""time""
""fullscreenenter"",""1"",""1977""
","
","
","""event"",""trial"",""time""
""fullscreenenter"",""1"",""1977""
","
","","","","","","881.4000000059605","images/straw7.png","","","memory_trial","1","definitely_old",""
"html-keyboard-response","134","304024","0.0-18.0-0.45","5953","approach_avoid_sv1","""event"",""trial"",""time""
""fullscreenenter"",""1"",""1977""
","
","
","""event"",""trial"",""time""
""fullscreenenter"",""1"",""1977""
","
","","","","","","null","<div style=""font-size:60px;"">+</div>","null","","fixation","","",""
"memory-trial","135","305625","0.0-18.0-1.45","5953","approach_avoid_sv1","""event"",""trial"",""time""
""fullscreenenter"",""1"",""1977""
","
","
","""event"",""trial"",""time""
""fullscreenenter"",""1"",""1977""
","
","","","","","","594.0999999940395","images/straw6.png","","","memory_trial","1","definitely_old",""
"html-keyboard-response","136","306128","0.0-18.0-0.46","5953","approach_avoid_sv1","""event"",""trial"",""time""
""fullscreenenter"",""1"",""1977""
","
","
","""event"",""trial"",""time""
""fullscreenenter"",""1"",""1977""
","
","","","","","","null","<div style=""font-size:60px;"">+</div>","null","","fixation","","",""
"memory-trial","137","308072","0.0-18.0-1.46","5953","approach_avoid_sv1","""event"",""trial"",""time""
""fullscreenenter"",""1"",""1977""
","
","
","""event"",""trial"",""time""
""fullscreenenter"",""1"",""1977""
","
","","","","","","937.0999999940395","images/cat7.png","","","memory_trial","1","definitely_old",""
"html-keyboard-response","138","308576","0.0-18.0-0.47","5953","approach_avoid_sv1","""event"",""trial"",""time""
""fullscreenenter"",""1"",""1977""
","
","
","""event"",""trial"",""time""
""fullscreenenter"",""1"",""1977""
","
","","","","","","null","<div style=""font-size:60px;"">+</div>","null","","fixation","","",""
"memory-trial","139","310912","0.0-18.0-1.47","5953","approach_avoid_sv1","""event"",""trial"",""time""
""fullscreenenter"",""1"",""1977""
","
","
","""event"",""trial"",""time""
""fullscreenenter"",""1"",""1977""
","
","","","","","","1327.5999999940395","images/table4.png","","","memory_trial","4","definitely_new",""
"html-keyboard-response","140","311416","0.0-18.0-0.48","5953","approach_avoid_sv1","""event"",""trial"",""time""
""fullscreenenter"",""1"",""1977""
","
","
","""event"",""trial"",""time""
""fullscreenenter"",""1"",""1977""
","
","","","","","","null","<div style=""font-size:60px;"">+</div>","null","","fixation","","",""
"memory-trial","141","313145","0.0-18.0-1.48","5953","approach_avoid_sv1","""event"",""trial"",""time""
""fullscreenenter"",""1"",""1977""
","
","
","""event"",""trial"",""time""
""fullscreenenter"",""1"",""1977""
","
","","","","","","718.7000000178814","images/horse6.png","","","memory_trial","1","definitely_old",""
"html-keyboard-response","142","313647","0.0-18.0-0.49","5953","approach_avoid_sv1","""event"",""trial"",""time""
""fullscreenenter"",""1"",""1977""
","
","
","""event"",""trial"",""time""
""fullscreenenter"",""1"",""1977""
","
","","","","","","null","<div style=""font-size:60px;"">+</div>","null","","fixation","","",""
"memory-trial","143","315616","0.0-18.0-1.49","5953","approach_avoid_sv1","""event"",""trial"",""time""
""fullscreenenter"",""1"",""1977""
","
","
","""event"",""trial"",""time""
""fullscreenenter"",""1"",""1977""
","
","","","","","","964.2999999821186","images/train8.png","","","memory_trial","4","definitely_new",""
"html-keyboard-response","144","316120","0.0-18.0-0.50","5953","approach_avoid_sv1","""event"",""trial"",""time""
""fullscreenenter"",""1"",""1977""
","
","
","""event"",""trial"",""time""
""fullscreenenter"",""1"",""1977""
","
","","","","","","null","<div style=""font-size:60px;"">+</div>","null","","fixation","","",""
"memory-trial","145","318472","0.0-18.0-1.50","5953","approach_avoid_sv1","""event"",""trial"",""time""
""fullscreenenter"",""1"",""1977""
","
","
","""event"",""trial"",""time""
""fullscreenenter"",""1"",""1977""
","
","","","","","","1346.9000000059605","images/dog5.png","","","memory_trial","3","maybe_new",""
"html-keyboard-response","146","318976","0.0-18.0-0.51","5953","approach_avoid_sv1","""event"",""trial"",""time""
""fullscreenenter"",""1"",""1977""
","
","
","""event"",""trial"",""time""
""fullscreenenter"",""1"",""1977""
","
","","","","","","null","<div style=""font-size:60px;"">+</div>","null","","fixation","","",""
"memory-trial","147","320976","0.0-18.0-1.51","5953","approach_avoid_sv1","""event"",""trial"",""time""
""fullscreenenter"",""1"",""1977""
","
","
","""event"",""trial"",""time""
""fullscreenenter"",""1"",""1977""
","
","","","","","","994.4000000059605","images/cow3.png","","","memory_trial","2","maybe_old",""
"html-keyboard-response","148","321480","0.0-18.0-0.52","5953","approach_avoid_sv1","""event"",""trial"",""time""
""fullscreenenter"",""1"",""1977""
","
","
","""event"",""trial"",""time""
""fullscreenenter"",""1"",""1977""
","
","","","","","","null","<div style=""font-size:60px;"">+</div>","null","","fixation","","",""
"memory-trial","149","323447","0.0-18.0-1.52","5953","approach_avoid_sv1","""event"",""trial"",""time""
""fullscreenenter"",""1"",""1977""
","
","
","""event"",""trial"",""time""
""fullscreenenter"",""1"",""1977""
","
","","","","","","965","images/cat3.png","","","memory_trial","1","definitely_old",""
"html-keyboard-response","150","323951","0.0-18.0-0.53","5953","approach_avoid_sv1","""event"",""trial"",""time""
""fullscreenenter"",""1"",""1977""
","
","
","""event"",""trial"",""time""
""fullscreenenter"",""1"",""1977""
","
","","","","","","null","<div style=""font-size:60px;"">+</div>","null","","fixation","","",""
"memory-trial","151","326065","0.0-18.0-1.53","5953","approach_avoid_sv1","""event"",""trial"",""time""
""fullscreenenter"",""1"",""1977""
","
","
","""event"",""trial"",""time""
""fullscreenenter"",""1"",""1977""
","
","","","","","","1103.699999988079","images/cow7.png","","","memory_trial","2","maybe_old",""
"html-keyboard-response","152","326567","0.0-18.0-0.54","5953","approach_avoid_sv1","""event"",""trial"",""time""
""fullscreenenter"",""1"",""1977""
","
","
","""event"",""trial"",""time""
""fullscreenenter"",""1"",""1977""
","
","","","","","","null","<div style=""font-size:60px;"">+</div>","null","","fixation","","",""
"memory-trial","153","328464","0.0-18.0-1.54","5953","approach_avoid_sv1","""event"",""trial"",""time""
""fullscreenenter"",""1"",""1977""
","
","
","""event"",""trial"",""time""
""fullscreenenter"",""1"",""1977""
","
","","","","","","890.2999999821186","images/rodent6.png","","","memory_trial","4","definitely_new",""
"html-keyboard-response","154","328967","0.0-18.0-0.55","5953","approach_avoid_sv1","""event"",""trial"",""time""
""fullscreenenter"",""1"",""1977""
","
","
","""event"",""trial"",""time""
""fullscreenenter"",""1"",""1977""
","
","","","","","","null","<div style=""font-size:60px;"">+</div>","null","","fixation","","",""
"memory-trial","155","330656","0.0-18.0-1.55","5953","approach_avoid_sv1","""event"",""trial"",""time""
""fullscreenenter"",""1"",""1977""
","
","
","""event"",""trial"",""time""
""fullscreenenter"",""1"",""1977""
","
","","","","","","682.7999999821186","images/boat2.png","","","memory_trial","4","definitely_new",""
"html-keyboard-response","156","331160","0.0-18.0-0.56","5953","approach_avoid_sv1","""event"",""trial"",""time""
""fullscreenenter"",""1"",""1977""
","
","
","""event"",""trial"",""time""
""fullscreenenter"",""1"",""1977""
","
","","","","","","null","<div style=""font-size:60px;"">+</div>","null","","fixation","","",""
"memory-trial","157","332863","0.0-18.0-1.56","5953","approach_avoid_sv1","""event"",""trial"",""time""
""fullscreenenter"",""1"",""1977""
","
","
","""event"",""trial"",""time""
""fullscreenenter"",""1"",""1977""
","
","","","","","","700.5999999940395","images/apple3.png","","","memory_trial","1","definitely_old",""
"html-keyboard-response","158","333368","0.0-18.0-0.57","5953","approach_avoid_sv1","""event"",""trial"",""time""
""fullscreenenter"",""1"",""1977""
","
","
","""event"",""trial"",""time""
""fullscreenenter"",""1"",""1977""
","
","","","","","","null","<div style=""font-size:60px;"">+</div>","null","","fixation","","",""
"memory-trial","159","335560","0.0-18.0-1.57","5953","approach_avoid_sv1","""event"",""trial"",""time""
""fullscreenenter"",""1"",""1977""
","
","
","""event"",""trial"",""time""
""fullscreenenter"",""1"",""1977""
","
","","","","","","1188","images/tree7.png","","","memory_trial","1","definitely_old",""
"html-keyboard-response","160","336078","0.0-18.0-0.58","5953","approach_avoid_sv1","""event"",""trial"",""time""
""fullscreenenter"",""1"",""1977""
","
","
","""event"",""trial"",""time""
""fullscreenenter"",""1"",""1977""
","
","","","","","","null","<div style=""font-size:60px;"">+</div>","null","","fixation","","",""
"memory-trial","161","338192","0.0-18.0-1.58","5953","approach_avoid_sv1","""event"",""trial"",""time""
""fullscreenenter"",""1"",""1977""
","
","
","""event"",""trial"",""time""
""fullscreenenter"",""1"",""1977""
","
","","","","","","1111.800000011921","images/dog1.png","","","memory_trial","2","maybe_old",""
"html-keyboard-response","162","338696","0.0-18.0-0.59","5953","approach_avoid_sv1","""event"",""trial"",""time""
""fullscreenenter"",""1"",""1977""
","
","
","""event"",""trial"",""time""
""fullscreenenter"",""1"",""1977""
","
","","","","","","null","<div style=""font-size:60px;"">+</div>","null","","fixation","","",""
"memory-trial","163","340816","0.0-18.0-1.59","5953","approach_avoid_sv1","""event"",""trial"",""time""
""fullscreenenter"",""1"",""1977""
","
","
","""event"",""trial"",""time""
""fullscreenenter"",""1"",""1977""
","
","","","","","","1117","images/plane3.png","","","memory_trial","2","maybe_old",""
"html-keyboard-response","164","341319","0.0-18.0-0.60","5953","approach_avoid_sv1","""event"",""trial"",""time""
""fullscreenenter"",""1"",""1977""
","
","
","""event"",""trial"",""time""
""fullscreenenter"",""1"",""1977""
","
","","","","","","null","<div style=""font-size:60px;"">+</div>","null","","fixation","","",""
"memory-trial","165","343296","0.0-18.0-1.60","5953","approach_avoid_sv1","""event"",""trial"",""time""
""fullscreenenter"",""1"",""1977""
","
","
","""event"",""trial"",""time""
""fullscreenenter"",""1"",""1977""
","
","","","","","","971.4000000059605","images/table1.png","","","memory_trial","2","maybe_old",""
"html-keyboard-response","166","343800","0.0-18.0-0.61","5953","approach_avoid_sv1","""event"",""trial"",""time""
""fullscreenenter"",""1"",""1977""
","
","
","""event"",""trial"",""time""
""fullscreenenter"",""1"",""1977""
","
","","","","","","null","<div style=""font-size:60px;"">+</div>","null","","fixation","","",""
"memory-trial","167","345559","0.0-18.0-1.61","5953","approach_avoid_sv1","""event"",""trial"",""time""
""fullscreenenter"",""1"",""1977""
","
","
","""event"",""trial"",""time""
""fullscreenenter"",""1"",""1977""
","
","","","","","","754.0999999940395","images/chair7.png","","","memory_trial","1","definitely_old",""
"html-keyboard-response","168","346064","0.0-18.0-0.62","5953","approach_avoid_sv1","""event"",""trial"",""time""
""fullscreenenter"",""1"",""1977""
","
","
","""event"",""trial"",""time""
""fullscreenenter"",""1"",""1977""
","
","","","","","","null","<div style=""font-size:60px;"">+</div>","null","","fixation","","",""
"memory-trial","169","347625","0.0-18.0-1.62","5953","approach_avoid_sv1","""event"",""trial"",""time""
""fullscreenenter"",""1"",""1977""
","
","
","""event"",""trial"",""time""
""fullscreenenter"",""1"",""1977""
","
","","","","","","553","images/straw1.png","","","memory_trial","1","definitely_old",""
"html-keyboard-response","170","348128","0.0-18.0-0.63","5953","approach_avoid_sv1","""event"",""trial"",""time""
""fullscreenenter"",""1"",""1977""
","
","
","""event"",""trial"",""time""
""fullscreenenter"",""1"",""1977""
","
","","","","","","null","<div style=""font-size:60px;"">+</div>","null","","fixation","","",""
"memory-trial","171","349880","0.0-18.0-1.63","5953","approach_avoid_sv1","""event"",""trial"",""time""
""fullscreenenter"",""1"",""1977""
","
","
","""event"",""trial"",""time""
""fullscreenenter"",""1"",""1977""
","
","","","","","","747.3000000119209","images/flower6.png","","","memory_trial","4","definitely_new",""
"html-keyboard-response","172","350385","0.0-18.0-0.64","5953","approach_avoid_sv1","""event"",""trial"",""time""
""fullscreenenter"",""1"",""1977""
","
","
","""event"",""trial"",""time""
""fullscreenenter"",""1"",""1977""
","
","","","","","","null","<div style=""font-size:60px;"">+</div>","null","","fixation","","",""
"memory-trial","173","352592","0.0-18.0-1.64","5953","approach_avoid_sv1","""event"",""trial"",""time""
""fullscreenenter"",""1"",""1977""
","
","
","""event"",""trial"",""time""
""fullscreenenter"",""1"",""1977""
","
","","","","","","1203.199999988079","images/tree2.png","","","memory_trial","1","definitely_old",""
"html-keyboard-response","174","353097","0.0-18.0-0.65","5953","approach_avoid_sv1","""event"",""trial"",""time""
""fullscreenenter"",""1"",""1977""
","
","
","""event"",""trial"",""time""
""fullscreenenter"",""1"",""1977""
","
","","","","","","null","<div style=""font-size:60px;"">+</div>","null","","fixation","","",""
"memory-trial","175","354712","0.0-18.0-1.65","5953","approach_avoid_sv1","""event"",""trial"",""time""
""fullscreenenter"",""1"",""1977""
","
","
","""event"",""trial"",""time""
""fullscreenenter"",""1"",""1977""
","
","","","","","","612.0999999940395","images/flower3.png","","","memory_trial","4","definitely_new",""
"html-keyboard-response","176","355217","0.0-18.0-0.66","5953","approach_avoid_sv1","""event"",""trial"",""time""
""fullscreenenter"",""1"",""1977""
","
","
","""event"",""trial"",""time""
""fullscreenenter"",""1"",""1977""
","
","","","","","","null","<div style=""font-size:60px;"">+</div>","null","","fixation","","",""
"memory-trial","177","357600","0.0-18.0-1.66","5953","approach_avoid_sv1","""event"",""trial"",""time""
""fullscreenenter"",""1"",""1977""
","
","
","""event"",""trial"",""time""
""fullscreenenter"",""1"",""1977""
","
","","","","","","1377.9000000059605","images/sheep5.png","","","memory_trial","3","maybe_new",""
"html-keyboard-response","178","358112","0.0-18.0-0.67","5953","approach_avoid_sv1","""event"",""trial"",""time""
""fullscreenenter"",""1"",""1977""
","
","
","""event"",""trial"",""time""
""fullscreenenter"",""1"",""1977""
","
","","","","","","null","<div style=""font-size:60px;"">+</div>","null","","fixation","","",""
"memory-trial","179","360049","0.0-18.0-1.67","5953","approach_avoid_sv1","""event"",""trial"",""time""
""fullscreenenter"",""1"",""1977""
","
","
","""event"",""trial"",""time""
""fullscreenenter"",""1"",""1977""
","
","","","","","","929.3000000119209","images/table5.png","","","memory_trial","1","definitely_old",""
"html-keyboard-response","180","360551","0.0-18.0-0.68","5953","approach_avoid_sv1","""event"",""trial"",""time""
""fullscreenenter"",""1"",""1977""
","
","
","""event"",""trial"",""time""
""fullscreenenter"",""1"",""1977""
","
","","","","","","null","<div style=""font-size:60px;"">+</div>","null","","fixation","","",""
"memory-trial","181","362625","0.0-18.0-1.68","5953","approach_avoid_sv1","""event"",""trial"",""time""
""fullscreenenter"",""1"",""1977""
","
","
","""event"",""trial"",""time""
""fullscreenenter"",""1"",""1977""
","
","","","","","","1070.2000000178814","images/chair2.png","","","memory_trial","4","definitely_new",""
"html-keyboard-response","182","363128","0.0-18.0-0.69","5953","approach_avoid_sv1","""event"",""trial"",""time""
""fullscreenenter"",""1"",""1977""
","
","
","""event"",""trial"",""time""
""fullscreenenter"",""1"",""1977""
","
","","","","","","null","<div style=""font-size:60px;"">+</div>","null","","fixation","","",""
"memory-trial","183","365008","0.0-18.0-1.69","5953","approach_avoid_sv1","""event"",""trial"",""time""
""fullscreenenter"",""1"",""1977""
","
","
","""event"",""trial"",""time""
""fullscreenenter"",""1"",""1977""
","
","","","","","","871.0999999940395","images/goat3.png","","","memory_trial","4","definitely_new",""
"html-keyboard-response","184","365511","0.0-18.0-0.70","5953","approach_avoid_sv1","""event"",""trial"",""time""
""fullscreenenter"",""1"",""1977""
","
","
","""event"",""trial"",""time""
""fullscreenenter"",""1"",""1977""
","
","","","","","","null","<div style=""font-size:60px;"">+</div>","null","","fixation","","",""
"memory-trial","185","367768","0.0-18.0-1.70","5953","approach_avoid_sv1","""event"",""trial"",""time""
""fullscreenenter"",""1"",""1977""
","
","
","""event"",""trial"",""time""
""fullscreenenter"",""1"",""1977""
","
","","","","","","1249.9000000059605","images/dog4.png","","","memory_trial","1","definitely_old",""
"html-keyboard-response","186","368271","0.0-18.0-0.71","5953","approach_avoid_sv1","""event"",""trial"",""time""
""fullscreenenter"",""1"",""1977""
","
","
","""event"",""trial"",""time""
""fullscreenenter"",""1"",""1977""
","
","","","","","","null","<div style=""font-size:60px;"">+</div>","null","","fixation","","",""
"memory-trial","187","369984","0.0-18.0-1.71","5953","approach_avoid_sv1","""event"",""trial"",""time""
""fullscreenenter"",""1"",""1977""
","
","
","""event"",""trial"",""time""
""fullscreenenter"",""1"",""1977""
","
","","","","","","710.5999999940395","images/sofa3.png","","","memory_trial","4","definitely_new",""
"html-keyboard-response","188","370488","0.0-18.0-0.72","5953","approach_avoid_sv1","""event"",""trial"",""time""
""fullscreenenter"",""1"",""1977""
","
","
","""event"",""trial"",""time""
""fullscreenenter"",""1"",""1977""
","
","","","","","","null","<div style=""font-size:60px;"">+</div>","null","","fixation","","",""
"memory-trial","189","372464","0.0-18.0-1.72","5953","approach_avoid_sv1","""event"",""trial"",""time""
""fullscreenenter"",""1"",""1977""
","
","
","""event"",""trial"",""time""
""fullscreenenter"",""1"",""1977""
","
","","","","","","969","images/cow6.png","","","memory_trial","2","maybe_old",""
"html-keyboard-response","190","372968","0.0-18.0-0.73","5953","approach_avoid_sv1","""event"",""trial"",""time""
""fullscreenenter"",""1"",""1977""
","
","
","""event"",""trial"",""time""
""fullscreenenter"",""1"",""1977""
","
","","","","","","null","<div style=""font-size:60px;"">+</div>","null","","fixation","","",""
"memory-trial","191","374945","0.0-18.0-1.73","5953","approach_avoid_sv1","""event"",""trial"",""time""
""fullscreenenter"",""1"",""1977""
","
","
","""event"",""trial"",""time""
""fullscreenenter"",""1"",""1977""
","
","","","","","","968.7000000178814","images/dog8.png","","","memory_trial","2","maybe_old",""
"html-keyboard-response","192","375447","0.0-18.0-0.74","5953","approach_avoid_sv1","""event"",""trial"",""time""
""fullscreenenter"",""1"",""1977""
","
","
","""event"",""trial"",""time""
""fullscreenenter"",""1"",""1977""
","
","","","","","","null","<div style=""font-size:60px;"">+</div>","null","","fixation","","",""
"memory-trial","193","377136","0.0-18.0-1.74","5953","approach_avoid_sv1","""event"",""trial"",""time""
""fullscreenenter"",""1"",""1977""
","
","
","""event"",""trial"",""time""
""fullscreenenter"",""1"",""1977""
","
","","","","","","679.4000000059605","images/sofa5.png","","","memory_trial","4","definitely_new",""
"html-keyboard-response","194","377640","0.0-18.0-0.75","5953","approach_avoid_sv1","""event"",""trial"",""time""
""fullscreenenter"",""1"",""1977""
","
","
","""event"",""trial"",""time""
""fullscreenenter"",""1"",""1977""
","
","","","","","","null","<div style=""font-size:60px;"">+</div>","null","","fixation","","",""
"memory-trial","195","380080","0.0-18.0-1.75","5953","approach_avoid_sv1","""event"",""trial"",""time""
""fullscreenenter"",""1"",""1977""
","
","
","""event"",""trial"",""time""
""fullscreenenter"",""1"",""1977""
","
","","","","","","1431","images/horse5.png","","","memory_trial","3","maybe_new",""
"html-keyboard-response","196","380587","0.0-18.0-0.76","5953","approach_avoid_sv1","""event"",""trial"",""time""
""fullscreenenter"",""1"",""1977""
","
","
","""event"",""trial"",""time""
""fullscreenenter"",""1"",""1977""
","
","","","","","","null","<div style=""font-size:60px;"">+</div>","null","","fixation","","",""
"memory-trial","197","382737","0.0-18.0-1.76","5953","approach_avoid_sv1","""event"",""trial"",""time""
""fullscreenenter"",""1"",""1977""
","
","
","""event"",""trial"",""time""
""fullscreenenter"",""1"",""1977""
","
","","","","","","1144.0999999940395","images/bush4.png","","","memory_trial","4","definitely_new",""
"html-keyboard-response","198","383244","0.0-18.0-0.77","5953","approach_avoid_sv1","""event"",""trial"",""time""
""fullscreenenter"",""1"",""1977""
","
","
","""event"",""trial"",""time""
""fullscreenenter"",""1"",""1977""
","
","","","","","","null","<div style=""font-size:60px;"">+</div>","null","","fixation","","",""
"memory-trial","199","385120","0.0-18.0-1.77","5953","approach_avoid_sv1","""event"",""trial"",""time""
""fullscreenenter"",""1"",""1977""
","
","
","""event"",""trial"",""time""
""fullscreenenter"",""1"",""1977""
","
","","","","","","867.8000000119209","images/dog7.png","","","memory_trial","1","definitely_old",""
"html-keyboard-response","200","385624","0.0-18.0-0.78","5953","approach_avoid_sv1","""event"",""trial"",""time""
""fullscreenenter"",""1"",""1977""
","
","
","""event"",""trial"",""time""
""fullscreenenter"",""1"",""1977""
","
","","","","","","null","<div style=""font-size:60px;"">+</div>","null","","fixation","","",""
"memory-trial","201","388007","0.0-18.0-1.78","5953","approach_avoid_sv1","""event"",""trial"",""time""
""fullscreenenter"",""1"",""1977""
","
","
","""event"",""trial"",""time""
""fullscreenenter"",""1"",""1977""
","
","","","","","","1380","images/apple6.png","","","memory_trial","1","definitely_old",""
"html-keyboard-response","202","388512","0.0-18.0-0.79","5953","approach_avoid_sv1","""event"",""trial"",""time""
""fullscreenenter"",""1"",""1977""
","
","
","""event"",""trial"",""time""
""fullscreenenter"",""1"",""1977""
","
","","","","","","null","<div style=""font-size:60px;"">+</div>","null","","fixation","","",""
"memory-trial","203","390176","0.0-18.0-1.79","5953","approach_avoid_sv1","""event"",""trial"",""time""
""fullscreenenter"",""1"",""1977""
","
","
","""event"",""trial"",""time""
""fullscreenenter"",""1"",""1977""
","
","","","","","","654.6999999880791","images/apple5.png","","","memory_trial","1","definitely_old",""
"html-keyboard-response","204","390680","0.0-18.0-0.80","5953","approach_avoid_sv1","""event"",""trial"",""time""
""fullscreenenter"",""1"",""1977""
","
","
","""event"",""trial"",""time""
""fullscreenenter"",""1"",""1977""
","
","","","","","","null","<div style=""font-size:60px;"">+</div>","null","","fixation","","",""
"memory-trial","205","392296","0.0-18.0-1.80","5953","approach_avoid_sv1","""event"",""trial"",""time""
""fullscreenenter"",""1"",""1977""
","
","
","""event"",""trial"",""time""
""fullscreenenter"",""1"",""1977""
","
","","","","","","613.3000000119209","images/boat4.png","","","memory_trial","4","definitely_new",""
"html-keyboard-response","206","392800","0.0-18.0-0.81","5953","approach_avoid_sv1","""event"",""trial"",""time""
""fullscreenenter"",""1"",""1977""
","
","
","""event"",""trial"",""time""
""fullscreenenter"",""1"",""1977""
","
","","","","","","null","<div style=""font-size:60px;"">+</div>","null","","fixation","","",""
"memory-trial","207","396008","0.0-18.0-1.81","5953","approach_avoid_sv1","""event"",""trial"",""time""
""fullscreenenter"",""1"",""1977""
","
","
","""event"",""trial"",""time""
""fullscreenenter"",""1"",""1977""
","
","","","","","","2204.5999999940395","images/cactus8.png","","","memory_trial","1","definitely_old",""
"html-keyboard-response","208","396511","0.0-18.0-0.82","5953","approach_avoid_sv1","""event"",""trial"",""time""
""fullscreenenter"",""1"",""1977""
","
","
","""event"",""trial"",""time""
""fullscreenenter"",""1"",""1977""
","
","","","","","","null","<div style=""font-size:60px;"">+</div>","null","","fixation","","",""
"memory-trial","209","398112","0.0-18.0-1.82","5953","approach_avoid_sv1","""event"",""trial"",""time""
""fullscreenenter"",""1"",""1977""
","
","
","""event"",""trial"",""time""
""fullscreenenter"",""1"",""1977""
","
","","","","","","597.9000000059605","images/flower8.png","","","memory_trial","4","definitely_new",""
"html-keyboard-response","210","398616","0.0-18.0-0.83","5953","approach_avoid_sv1","""event"",""trial"",""time""
""fullscreenenter"",""1"",""1977""
","
","
","""event"",""trial"",""time""
""fullscreenenter"",""1"",""1977""
","
","","","","","","null","<div style=""font-size:60px;"">+</div>","null","","fixation","","",""
"memory-trial","211","401472","0.0-18.0-1.83","5953","approach_avoid_sv1","""event"",""trial"",""time""
""fullscreenenter"",""1"",""1977""
","
","
","""event"",""trial"",""time""
""fullscreenenter"",""1"",""1977""
","
","","","","","","1849.7000000178814","images/bush6.png","","","memory_trial","2","maybe_old",""
"html-keyboard-response","212","401976","0.0-18.0-0.84","5953","approach_avoid_sv1","""event"",""trial"",""time""
""fullscreenenter"",""1"",""1977""
","
","
","""event"",""trial"",""time""
""fullscreenenter"",""1"",""1977""
","
","","","","","","null","<div style=""font-size:60px;"">+</div>","null","","fixation","","",""
"memory-trial","213","405088","0.0-18.0-1.84","5953","approach_avoid_sv1","""event"",""trial"",""time""
""fullscreenenter"",""1"",""1977""
","
","
","""event"",""trial"",""time""
""fullscreenenter"",""1"",""1977""
","
","","","","","","2109","images/sheep1.png","","","memory_trial","3","maybe_new",""
"html-keyboard-response","214","405591","0.0-18.0-0.85","5953","approach_avoid_sv1","""event"",""trial"",""time""
""fullscreenenter"",""1"",""1977""
","
","
","""event"",""trial"",""time""
""fullscreenenter"",""1"",""1977""
","
","","","","","","null","<div style=""font-size:60px;"">+</div>","null","","fixation","","",""
"memory-trial","215","407848","0.0-18.0-1.85","5953","approach_avoid_sv1","""event"",""trial"",""time""
""fullscreenenter"",""1"",""1977""
","
","
","""event"",""trial"",""time""
""fullscreenenter"",""1"",""1977""
","
","","","","","","1247.5","images/sheep3.png","","","memory_trial","2","maybe_old",""
"html-keyboard-response","216","408352","0.0-18.0-0.86","5953","approach_avoid_sv1","""event"",""trial"",""time""
""fullscreenenter"",""1"",""1977""
","
","
","""event"",""trial"",""time""
""fullscreenenter"",""1"",""1977""
","
","","","","","","null","<div style=""font-size:60px;"">+</div>","null","","fixation","","",""
"memory-trial","217","410992","0.0-18.0-1.86","5953","approach_avoid_sv1","""event"",""trial"",""time""
""fullscreenenter"",""1"",""1977""
","
","
","""event"",""trial"",""time""
""fullscreenenter"",""1"",""1977""
","
","","","","","","1634.7999999821186","images/goat5.png","","","memory_trial","2","maybe_old",""
"html-keyboard-response","218","411496","0.0-18.0-0.87","5953","approach_avoid_sv1","""event"",""trial"",""time""
""fullscreenenter"",""1"",""1977""
","
","
","""event"",""trial"",""time""
""fullscreenenter"",""1"",""1977""
","
","","","","","","null","<div style=""font-size:60px;"">+</div>","null","","fixation","","",""
"memory-trial","219","413281","0.0-18.0-1.87","5953","approach_avoid_sv1","""event"",""trial"",""time""
""fullscreenenter"",""1"",""1977""
","
","
","""event"",""trial"",""time""
""fullscreenenter"",""1"",""1977""
","
","","","","","","776.9000000059605","images/bed5.png","","","memory_trial","1","definitely_old",""
"html-keyboard-response","220","413785","0.0-18.0-0.88","5953","approach_avoid_sv1","""event"",""trial"",""time""
""fullscreenenter"",""1"",""1977""
","
","
","""event"",""trial"",""time""
""fullscreenenter"",""1"",""1977""
","
","","","","","","null","<div style=""font-size:60px;"">+</div>","null","","fixation","","",""
"memory-trial","221","416186","0.0-18.0-1.88","5953","approach_avoid_sv1","""event"",""trial"",""time""
""fullscreenenter"",""1"",""1977""
","
","
","""event"",""trial"",""time""
""fullscreenenter"",""1"",""1977""
","
","","","","","","1397","images/sheep2.png","","","memory_trial","1","definitely_old",""
"html-keyboard-response","222","416689","0.0-18.0-0.89","5953","approach_avoid_sv1","""event"",""trial"",""time""
""fullscreenenter"",""1"",""1977""
","
","
","""event"",""trial"",""time""
""fullscreenenter"",""1"",""1977""
","
","","","","","","null","<div style=""font-size:60px;"">+</div>","null","","fixation","","",""
"memory-trial","223","418616","0.0-18.0-1.89","5953","approach_avoid_sv1","""event"",""trial"",""time""
""fullscreenenter"",""1"",""1977""
","
","
","""event"",""trial"",""time""
""fullscreenenter"",""1"",""1977""
","
","","","","","","920.5","images/goat1.png","","","memory_trial","3","maybe_new",""
"html-keyboard-response","224","419120","0.0-18.0-0.90","5953","approach_avoid_sv1","""event"",""trial"",""time""
""fullscreenenter"",""1"",""1977""
","
","
","""event"",""trial"",""time""
""fullscreenenter"",""1"",""1977""
","
","","","","","","null","<div style=""font-size:60px;"">+</div>","null","","fixation","","",""
"memory-trial","225","421128","0.0-18.0-1.90","5953","approach_avoid_sv1","""event"",""trial"",""time""
""fullscreenenter"",""1"",""1977""
","
","
","""event"",""trial"",""time""
""fullscreenenter"",""1"",""1977""
","
","","","","","","1004.7000000178814","images/cow2.png","","","memory_trial","1","definitely_old",""
"html-keyboard-response","226","421632","0.0-18.0-0.91","5953","approach_avoid_sv1","""event"",""trial"",""time""
""fullscreenenter"",""1"",""1977""
","
","
","""event"",""trial"",""time""
""fullscreenenter"",""1"",""1977""
","
","","","","","","null","<div style=""font-size:60px;"">+</div>","null","","fixation","","",""
"memory-trial","227","423640","0.0-18.0-1.91","5953","approach_avoid_sv1","""event"",""trial"",""time""
""fullscreenenter"",""1"",""1977""
","
","
","""event"",""trial"",""time""
""fullscreenenter"",""1"",""1977""
","
","","","","","","1006.9000000059605","images/rabbit5.png","","","memory_trial","2","maybe_old",""
"html-button-response","228","425686","0.0-18.0-2.91-0.91","5953","approach_avoid_sv1","""event"",""trial"",""time""
""fullscreenenter"",""1"",""1977""
","
","
","""event"",""trial"",""time""
""fullscreenenter"",""1"",""1977""
","
","","","","","","2044.699999988079","<p> Take a break! </p><p> Click the button to continue. </p>","0","","break","","",""
"html-keyboard-response","229","426192","0.0-18.0-0.92","5953","approach_avoid_sv1","""event"",""trial"",""time""
""fullscreenenter"",""1"",""1977""
","
","
","""event"",""trial"",""time""
""fullscreenenter"",""1"",""1977""
","
","","","","","","null","<div style=""font-size:60px;"">+</div>","null","","fixation","","",""
"memory-trial","230","428305","0.0-18.0-1.92","5953","approach_avoid_sv1","""event"",""trial"",""time""
""fullscreenenter"",""1"",""1977""
","
","
","""event"",""trial"",""time""
""fullscreenenter"",""1"",""1977""
","
","","","","","","1106","images/straw2.png","","","memory_trial","1","definitely_old",""
"html-keyboard-response","231","428808","0.0-18.0-0.93","5953","approach_avoid_sv1","""event"",""trial"",""time""
""fullscreenenter"",""1"",""1977""
","
","
","""event"",""trial"",""time""
""fullscreenenter"",""1"",""1977""
","
","","","","","","null","<div style=""font-size:60px;"">+</div>","null","","fixation","","",""
"memory-trial","232","431272","0.0-18.0-1.93","5953","approach_avoid_sv1","""event"",""trial"",""time""
""fullscreenenter"",""1"",""1977""
","
","
","""event"",""trial"",""time""
""fullscreenenter"",""1"",""1977""
","
","","","","","","1460.0999999940395","images/cat6.png","","","memory_trial","3","maybe_new",""
"html-keyboard-response","233","431776","0.0-18.0-0.94","5953","approach_avoid_sv1","""event"",""trial"",""time""
""fullscreenenter"",""1"",""1977""
","
","
","""event"",""trial"",""time""
""fullscreenenter"",""1"",""1977""
","
","","","","","","null","<div style=""font-size:60px;"">+</div>","null","","fixation","","",""
"memory-trial","234","433592","0.0-18.0-1.94","5953","approach_avoid_sv1","""event"",""trial"",""time""
""fullscreenenter"",""1"",""1977""
","
","
","""event"",""trial"",""time""
""fullscreenenter"",""1"",""1977""
","
","","","","","","813.1999999880791","images/straw3.png","","","memory_trial","1","definitely_old",""
"html-keyboard-response","235","434096","0.0-18.0-0.95","5953","approach_avoid_sv1","""event"",""trial"",""time""
""fullscreenenter"",""1"",""1977""
","
","
","""event"",""trial"",""time""
""fullscreenenter"",""1"",""1977""
","
","","","","","","null","<div style=""font-size:60px;"">+</div>","null","","fixation","","",""
"memory-trial","236","435696","0.0-18.0-1.95","5953","approach_avoid_sv1","""event"",""trial"",""time""
""fullscreenenter"",""1"",""1977""
","
","
","""event"",""trial"",""time""
""fullscreenenter"",""1"",""1977""
","
","","","","","","597.2999999821186","images/banana1.png","","","memory_trial","1","definitely_old",""
"html-keyboard-response","237","436200","0.0-18.0-0.96","5953","approach_avoid_sv1","""event"",""trial"",""time""
""fullscreenenter"",""1"",""1977""
","
","
","""event"",""trial"",""time""
""fullscreenenter"",""1"",""1977""
","
","","","","","","null","<div style=""font-size:60px;"">+</div>","null","","fixation","","",""
"memory-trial","238","438065","0.0-18.0-1.96","5953","approach_avoid_sv1","""event"",""trial"",""time""
""fullscreenenter"",""1"",""1977""
","
","
","""event"",""trial"",""time""
""fullscreenenter"",""1"",""1977""
","
","","","","","","859.7000000178814","images/chair8.png","","","memory_trial","1","definitely_old",""
"html-keyboard-response","239","438568","0.0-18.0-0.97","5953","approach_avoid_sv1","""event"",""trial"",""time""
""fullscreenenter"",""1"",""1977""
","
","
","""event"",""trial"",""time""
""fullscreenenter"",""1"",""1977""
","
","","","","","","null","<div style=""font-size:60px;"">+</div>","null","","fixation","","",""
"memory-trial","240","441345","0.0-18.0-1.97","5953","approach_avoid_sv1","""event"",""trial"",""time""
""fullscreenenter"",""1"",""1977""
","
","
","""event"",""trial"",""time""
""fullscreenenter"",""1"",""1977""
","
","","","","","","1770.2000000178814","images/cat2.png","","","memory_trial","2","maybe_old",""
"html-keyboard-response","241","441848","0.0-18.0-0.98","5953","approach_avoid_sv1","""event"",""trial"",""time""
""fullscreenenter"",""1"",""1977""
","
","
","""event"",""trial"",""time""
""fullscreenenter"",""1"",""1977""
","
","","","","","","null","<div style=""font-size:60px;"">+</div>","null","","fixation","","",""
"memory-trial","242","443888","0.0-18.0-1.98","5953","approach_avoid_sv1","""event"",""trial"",""time""
""fullscreenenter"",""1"",""1977""
","
","
","""event"",""trial"",""time""
""fullscreenenter"",""1"",""1977""
","
","","","","","","1033.5","images/cow4.png","","","memory_trial","2","maybe_old",""
"html-keyboard-response","243","444392","0.0-18.0-0.99","5953","approach_avoid_sv1","""event"",""trial"",""time""
""fullscreenenter"",""1"",""1977""
","
","
","""event"",""trial"",""time""
""fullscreenenter"",""1"",""1977""
","
","","","","","","null","<div style=""font-size:60px;"">+</div>","null","","fixation","","",""
"memory-trial","244","445952","0.0-18.0-1.99","5953","approach_avoid_sv1","""event"",""trial"",""time""
""fullscreenenter"",""1"",""1977""
","
","
","""event"",""trial"",""time""
""fullscreenenter"",""1"",""1977""
","
","","","","","","553.0999999940395","images/apple2.png","","","memory_trial","1","definitely_old",""
"html-keyboard-response","245","446457","0.0-18.0-0.100","5953","approach_avoid_sv1","""event"",""trial"",""time""
""fullscreenenter"",""1"",""1977""
","
","
","""event"",""trial"",""time""
""fullscreenenter"",""1"",""1977""
","
","","","","","","null","<div style=""font-size:60px;"">+</div>","null","","fixation","","",""
"memory-trial","246","448577","0.0-18.0-1.100","5953","approach_avoid_sv1","""event"",""trial"",""time""
""fullscreenenter"",""1"",""1977""
","
","
","""event"",""trial"",""time""
""fullscreenenter"",""1"",""1977""
","
","","","","","","1116.5","images/rabbit2.png","","","memory_trial","1","definitely_old",""
"html-keyboard-response","247","449080","0.0-18.0-0.101","5953","approach_avoid_sv1","""event"",""trial"",""time""
""fullscreenenter"",""1"",""1977""
","
","
","""event"",""trial"",""time""
""fullscreenenter"",""1"",""1977""
","
","","","","","","null","<div style=""font-size:60px;"">+</div>","null","","fixation","","",""
"memory-trial","248","450912","0.0-18.0-1.101","5953","approach_avoid_sv1","""event"",""trial"",""time""
""fullscreenenter"",""1"",""1977""
","
","
","""event"",""trial"",""time""
""fullscreenenter"",""1"",""1977""
","
","","","","","","830.3999999761581","images/orange4.png","","","memory_trial","4","definitely_new",""
"html-keyboard-response","249","451415","0.0-18.0-0.102","5953","approach_avoid_sv1","""event"",""trial"",""time""
""fullscreenenter"",""1"",""1977""
","
","
","""event"",""trial"",""time""
""fullscreenenter"",""1"",""1977""
","
","","","","","","null","<div style=""font-size:60px;"">+</div>","null","","fixation","","",""
"memory-trial","250","453345","0.0-18.0-1.102","5953","approach_avoid_sv1","""event"",""trial"",""time""
""fullscreenenter"",""1"",""1977""
","
","
","""event"",""trial"",""time""
""fullscreenenter"",""1"",""1977""
","
","","","","","","924.3000000119209","images/cow8.png","","","memory_trial","2","maybe_old",""
"html-keyboard-response","251","453848","0.0-18.0-0.103","5953","approach_avoid_sv1","""event"",""trial"",""time""
""fullscreenenter"",""1"",""1977""
","
","
","""event"",""trial"",""time""
""fullscreenenter"",""1"",""1977""
","
","","","","","","null","<div style=""font-size:60px;"">+</div>","null","","fixation","","",""
"memory-trial","252","456081","0.0-18.0-1.103","5953","approach_avoid_sv1","""event"",""trial"",""time""
""fullscreenenter"",""1"",""1977""
","
","
","""event"",""trial"",""time""
""fullscreenenter"",""1"",""1977""
","
","","","","","","1224","images/banana6.png","","","memory_trial","2","maybe_old",""
"html-keyboard-response","253","456585","0.0-18.0-0.104","5953","approach_avoid_sv1","""event"",""trial"",""time""
""fullscreenenter"",""1"",""1977""
","
","
","""event"",""trial"",""time""
""fullscreenenter"",""1"",""1977""
","
","","","","","","null","<div style=""font-size:60px;"">+</div>","null","","fixation","","",""
"memory-trial","254","458496","0.0-18.0-1.104","5953","approach_avoid_sv1","""event"",""trial"",""time""
""fullscreenenter"",""1"",""1977""
","
","
","""event"",""trial"",""time""
""fullscreenenter"",""1"",""1977""
","
","","","","","","909","images/table3.png","","","memory_trial","1","definitely_old",""
"html-keyboard-response","255","459001","0.0-18.0-0.105","5953","approach_avoid_sv1","""event"",""trial"",""time""
""fullscreenenter"",""1"",""1977""
","
","
","""event"",""trial"",""time""
""fullscreenenter"",""1"",""1977""
","
","","","","","","null","<div style=""font-size:60px;"">+</div>","null","","fixation","","",""
"memory-trial","256","460631","0.0-18.0-1.105","5953","approach_avoid_sv1","""event"",""trial"",""time""
""fullscreenenter"",""1"",""1977""
","
","
","""event"",""trial"",""time""
""fullscreenenter"",""1"",""1977""
","
","","","","","","622.3999999761581","images/boat5.png","","","memory_trial","4","definitely_new",""
"html-keyboard-response","257","461137","0.0-18.0-0.106","5953","approach_avoid_sv1","""event"",""trial"",""time""
""fullscreenenter"",""1"",""1977""
","
","
","""event"",""trial"",""time""
""fullscreenenter"",""1"",""1977""
","
","","","","","","null","<div style=""font-size:60px;"">+</div>","null","","fixation","","",""
"memory-trial","258","463368","0.0-18.0-1.106","5953","approach_avoid_sv1","""event"",""trial"",""time""
""fullscreenenter"",""1"",""1977""
","
","
","""event"",""trial"",""time""
""fullscreenenter"",""1"",""1977""
","
","","","","","","1227.199999988079","images/cat8.png","","","memory_trial","2","maybe_old",""
"html-keyboard-response","259","463872","0.0-18.0-0.107","5953","approach_avoid_sv1","""event"",""trial"",""time""
""fullscreenenter"",""1"",""1977""
","
","
","""event"",""trial"",""time""
""fullscreenenter"",""1"",""1977""
","
","","","","","","null","<div style=""font-size:60px;"">+</div>","null","","fixation","","",""
"memory-trial","260","465624","0.0-18.0-1.107","5953","approach_avoid_sv1","""event"",""trial"",""time""
""fullscreenenter"",""1"",""1977""
","
","
","""event"",""trial"",""time""
""fullscreenenter"",""1"",""1977""
","
","","","","","","748.5999999940395","images/horse4.png","","","memory_trial","1","definitely_old",""
"html-keyboard-response","261","466127","0.0-18.0-0.108","5953","approach_avoid_sv1","""event"",""trial"",""time""
""fullscreenenter"",""1"",""1977""
","
","
","""event"",""trial"",""time""
""fullscreenenter"",""1"",""1977""
","
","","","","","","null","<div style=""font-size:60px;"">+</div>","null","","fixation","","",""
"memory-trial","262","468640","0.0-18.0-1.108","5953","approach_avoid_sv1","""event"",""trial"",""time""
""fullscreenenter"",""1"",""1977""
","
","
","""event"",""trial"",""time""
""fullscreenenter"",""1"",""1977""
","
","","","","","","1509.5999999940395","images/bed8.png","","","memory_trial","4","definitely_new",""
"html-keyboard-response","263","469145","0.0-18.0-0.109","5953","approach_avoid_sv1","""event"",""trial"",""time""
""fullscreenenter"",""1"",""1977""
","
","
","""event"",""trial"",""time""
""fullscreenenter"",""1"",""1977""
","
","","","","","","null","<div style=""font-size:60px;"">+</div>","null","","fixation","","",""
"memory-trial","264","471193","0.0-18.0-1.109","5953","approach_avoid_sv1","""event"",""trial"",""time""
""fullscreenenter"",""1"",""1977""
","
","
","""event"",""trial"",""time""
""fullscreenenter"",""1"",""1977""
","
","","","","","","1040.199999988079","images/truck5.png","","","memory_trial","1","definitely_old",""
"html-keyboard-response","265","471696","0.0-18.0-0.110","5953","approach_avoid_sv1","""event"",""trial"",""time""
""fullscreenenter"",""1"",""1977""
","
","
","""event"",""trial"",""time""
""fullscreenenter"",""1"",""1977""
","
","","","","","","null","<div style=""font-size:60px;"">+</div>","null","","fixation","","",""
"memory-trial","266","473272","0.0-18.0-1.110","5953","approach_avoid_sv1","""event"",""trial"",""time""
""fullscreenenter"",""1"",""1977""
","
","
","""event"",""trial"",""time""
""fullscreenenter"",""1"",""1977""
","
","","","","","","574.7000000178814","images/flower2.png","","","memory_trial","4","definitely_new",""
"html-keyboard-response","267","473776","0.0-18.0-0.111","5953","approach_avoid_sv1","""event"",""trial"",""time""
""fullscreenenter"",""1"",""1977""
","
","
","""event"",""trial"",""time""
""fullscreenenter"",""1"",""1977""
","
","","","","","","null","<div style=""font-size:60px;"">+</div>","null","","fixation","","",""
"memory-trial","268","476000","0.0-18.0-1.111","5953","approach_avoid_sv1","""event"",""trial"",""time""
""fullscreenenter"",""1"",""1977""
","
","
","""event"",""trial"",""time""
""fullscreenenter"",""1"",""1977""
","
","","","","","","1218.199999988079","images/bed2.png","","","memory_trial","3","maybe_new",""
"html-keyboard-response","269","476505","0.0-18.0-0.112","5953","approach_avoid_sv1","""event"",""trial"",""time""
""fullscreenenter"",""1"",""1977""
","
","
","""event"",""trial"",""time""
""fullscreenenter"",""1"",""1977""
","
","","","","","","null","<div style=""font-size:60px;"">+</div>","null","","fixation","","",""
"memory-trial","270","478712","0.0-18.0-1.112","5953","approach_avoid_sv1","""event"",""trial"",""time""
""fullscreenenter"",""1"",""1977""
","
","
","""event"",""trial"",""time""
""fullscreenenter"",""1"",""1977""
","
","","","","","","1198.300000011921","images/chair5.png","","","memory_trial","3","maybe_new",""
"html-keyboard-response","271","479217","0.0-18.0-0.113","5953","approach_avoid_sv1","""event"",""trial"",""time""
""fullscreenenter"",""1"",""1977""
","
","
","""event"",""trial"",""time""
""fullscreenenter"",""1"",""1977""
","
","","","","","","null","<div style=""font-size:60px;"">+</div>","null","","fixation","","",""
"memory-trial","272","482248","0.0-18.0-1.113","5953","approach_avoid_sv1","""event"",""trial"",""time""
""fullscreenenter"",""1"",""1977""
","
","
","""event"",""trial"",""time""
""fullscreenenter"",""1"",""1977""
","
","","","","","","2028.3999999761581","images/bush3.png","","","memory_trial","2","maybe_old",""
"html-keyboard-response","273","482751","0.0-18.0-0.114","5953","approach_avoid_sv1","""event"",""trial"",""time""
""fullscreenenter"",""1"",""1977""
","
","
","""event"",""trial"",""time""
""fullscreenenter"",""1"",""1977""
","
","","","","","","null","<div style=""font-size:60px;"">+</div>","null","","fixation","","",""
"memory-trial","274","485559","0.0-18.0-1.114","5953","approach_avoid_sv1","""event"",""trial"",""time""
""fullscreenenter"",""1"",""1977""
","
","
","""event"",""trial"",""time""
""fullscreenenter"",""1"",""1977""
","
","","","","","","1803","images/plane2.png","","","memory_trial","2","maybe_old",""
"html-keyboard-response","275","486065","0.0-18.0-0.115","5953","approach_avoid_sv1","""event"",""trial"",""time""
""fullscreenenter"",""1"",""1977""
","
","
","""event"",""trial"",""time""
""fullscreenenter"",""1"",""1977""
","
","","","","","","null","<div style=""font-size:60px;"">+</div>","null","","fixation","","",""
"memory-trial","276","487881","0.0-18.0-1.115","5953","approach_avoid_sv1","""event"",""trial"",""time""
""fullscreenenter"",""1"",""1977""
","
","
","""event"",""trial"",""time""
""fullscreenenter"",""1"",""1977""
","
","","","","","","806.1999999880791","images/truck4.png","","","memory_trial","1","definitely_old",""
"html-keyboard-response","277","488384","0.0-18.0-0.116","5953","approach_avoid_sv1","""event"",""trial"",""time""
""fullscreenenter"",""1"",""1977""
","
","
","""event"",""trial"",""time""
""fullscreenenter"",""1"",""1977""
","
","","","","","","null","<div style=""font-size:60px;"">+</div>","null","","fixation","","",""
"memory-trial","278","490936","0.0-18.0-1.116","5953","approach_avoid_sv1","""event"",""trial"",""time""
""fullscreenenter"",""1"",""1977""
","
","
","""event"",""trial"",""time""
""fullscreenenter"",""1"",""1977""
","
","","","","","","1543.5","images/rabbit4.png","","","memory_trial","1","definitely_old",""
"html-keyboard-response","279","491440","0.0-18.0-0.117","5953","approach_avoid_sv1","""event"",""trial"",""time""
""fullscreenenter"",""1"",""1977""
","
","
","""event"",""trial"",""time""
""fullscreenenter"",""1"",""1977""
","
","","","","","","null","<div style=""font-size:60px;"">+</div>","null","","fixation","","",""
"memory-trial","280","493232","0.0-18.0-1.117","5953","approach_avoid_sv1","""event"",""trial"",""time""
""fullscreenenter"",""1"",""1977""
","
","
","""event"",""trial"",""time""
""fullscreenenter"",""1"",""1977""
","
","","","","","","788.9000000059605","images/rodent2.png","","","memory_trial","4","definitely_new",""
"html-keyboard-response","281","493736","0.0-18.0-0.118","5953","approach_avoid_sv1","""event"",""trial"",""time""
""fullscreenenter"",""1"",""1977""
","
","
","""event"",""trial"",""time""
""fullscreenenter"",""1"",""1977""
","
","","","","","","null","<div style=""font-size:60px;"">+</div>","null","","fixation","","",""
"memory-trial","282","495584","0.0-18.0-1.118","5953","approach_avoid_sv1","""event"",""trial"",""time""
""fullscreenenter"",""1"",""1977""
","
","
","""event"",""trial"",""time""
""fullscreenenter"",""1"",""1977""
","
","","","","","","840.5","images/train6.png","","","memory_trial","1","definitely_old",""
"html-keyboard-response","283","496088","0.0-18.0-0.119","5953","approach_avoid_sv1","""event"",""trial"",""time""
""fullscreenenter"",""1"",""1977""
","
","
","""event"",""trial"",""time""
""fullscreenenter"",""1"",""1977""
","
","","","","","","null","<div style=""font-size:60px;"">+</div>","null","","fixation","","",""
"memory-trial","284","497905","0.0-18.0-1.119","5953","approach_avoid_sv1","""event"",""trial"",""time""
""fullscreenenter"",""1"",""1977""
","
","
","""event"",""trial"",""time""
""fullscreenenter"",""1"",""1977""
","
","","","","","","811.5","images/goat8.png","","","memory_trial","3","maybe_new",""
"html-keyboard-response","285","498408","0.0-18.0-0.120","5953","approach_avoid_sv1","""event"",""trial"",""time""
""fullscreenenter"",""1"",""1977""
","
","
","""event"",""trial"",""time""
""fullscreenenter"",""1"",""1977""
","
","","","","","","null","<div style=""font-size:60px;"">+</div>","null","","fixation","","",""
"memory-trial","286","501024","0.0-18.0-1.120","5953","approach_avoid_sv1","""event"",""trial"",""time""
""fullscreenenter"",""1"",""1977""
","
","
","""event"",""trial"",""time""
""fullscreenenter"",""1"",""1977""
","
","","","","","","1606.4000000059605","images/banana8.png","","","memory_trial","1","definitely_old",""
"html-keyboard-response","287","501528","0.0-18.0-0.121","5953","approach_avoid_sv1","""event"",""trial"",""time""
""fullscreenenter"",""1"",""1977""
","
","
","""event"",""trial"",""time""
""fullscreenenter"",""1"",""1977""
","
","","","","","","null","<div style=""font-size:60px;"">+</div>","null","","fixation","","",""
"memory-trial","288","504040","0.0-18.0-1.121","5953","approach_avoid_sv1","""event"",""trial"",""time""
""fullscreenenter"",""1"",""1977""
","
","
","""event"",""trial"",""time""
""fullscreenenter"",""1"",""1977""
","
","","","","","","1503.199999988079","images/cat1.png","","","memory_trial","3","maybe_new",""
"html-keyboard-response","289","504545","0.0-18.0-0.122","5953","approach_avoid_sv1","""event"",""trial"",""time""
""fullscreenenter"",""1"",""1977""
","
","
","""event"",""trial"",""time""
""fullscreenenter"",""1"",""1977""
","
","","","","","","null","<div style=""font-size:60px;"">+</div>","null","","fixation","","",""
"memory-trial","290","506657","0.0-18.0-1.122","5953","approach_avoid_sv1","""event"",""trial"",""time""
""fullscreenenter"",""1"",""1977""
","
","
","""event"",""trial"",""time""
""fullscreenenter"",""1"",""1977""
","
","","","","","","1107.7000000178814","images/rabbit8.png","","","memory_trial","1","definitely_old",""
"html-keyboard-response","291","507160","0.0-18.0-0.123","5953","approach_avoid_sv1","""event"",""trial"",""time""
""fullscreenenter"",""1"",""1977""
","
","
","""event"",""trial"",""time""
""fullscreenenter"",""1"",""1977""
","
","","","","","","null","<div style=""font-size:60px;"">+</div>","null","","fixation","","",""
"memory-trial","292","509944","0.0-18.0-1.123","5953","approach_avoid_sv1","""event"",""trial"",""time""
""fullscreenenter"",""1"",""1977""
","
","
","""event"",""trial"",""time""
""fullscreenenter"",""1"",""1977""
","
","","","","","","1777.9000000059605","images/plane6.png","","","memory_trial","3","maybe_new",""
"html-keyboard-response","293","510448","0.0-18.0-0.124","5953","approach_avoid_sv1","""event"",""trial"",""time""
""fullscreenenter"",""1"",""1977""
","
","
","""event"",""trial"",""time""
""fullscreenenter"",""1"",""1977""
","
","","","","","","null","<div style=""font-size:60px;"">+</div>","null","","fixation","","",""
"memory-trial","294","512488","0.0-18.0-1.124","5953","approach_avoid_sv1","""event"",""trial"",""time""
""fullscreenenter"",""1"",""1977""
","
","
","""event"",""trial"",""time""
""fullscreenenter"",""1"",""1977""
","
","","","","","","1038.0999999940395","images/sheep8.png","","","memory_trial","1","definitely_old",""
"html-keyboard-response","295","512992","0.0-18.0-0.125","5953","approach_avoid_sv1","""event"",""trial"",""time""
""fullscreenenter"",""1"",""1977""
","
","
","""event"",""trial"",""time""
""fullscreenenter"",""1"",""1977""
","
","","","","","","null","<div style=""font-size:60px;"">+</div>","null","","fixation","","",""
"memory-trial","296","514952","0.0-18.0-1.125","5953","approach_avoid_sv1","""event"",""trial"",""time""
""fullscreenenter"",""1"",""1977""
","
","
","""event"",""trial"",""time""
""fullscreenenter"",""1"",""1977""
","
","","","","","","955.1999999880791","images/banana4.png","","","memory_trial","2","maybe_old",""
"html-keyboard-response","297","515456","0.0-18.0-0.126","5953","approach_avoid_sv1","""event"",""trial"",""time""
""fullscreenenter"",""1"",""1977""
","
","
","""event"",""trial"",""time""
""fullscreenenter"",""1"",""1977""
","
