"trial_type","trial_index","time_elapsed","internal_node_id","subject_id","task_version","interactions","blur_events","focus_events","fullscreenenter_events","fullscreenexit_events","success","timeout","failed_images","failed_audio","failed_video","rt","stimulus","response","button_pressed","task_part","key_press","answer","correct"
"pavlovia","0","8","0.0-0.0","6365","approach_avoid_sv1","""event"",""trial"",""time""
""fullscreenenter"",""1"",""2201""
","
","
","""event"",""trial"",""time""
""fullscreenenter"",""1"",""2201""
","
","","","","","","","","","","","","",""
"fullscreen","1","3200","0.0-1.0","6365","approach_avoid_sv1","""event"",""trial"",""time""
""fullscreenenter"",""1"",""2201""
","
","
","""event"",""trial"",""time""
""fullscreenenter"",""1"",""2201""
","
","true","","","","","","","","","","","",""
"preload","2","5629","0.0-2.0","6365","approach_avoid_sv1","""event"",""trial"",""time""
""fullscreenenter"",""1"",""2201""
","
","
","""event"",""trial"",""time""
""fullscreenenter"",""1"",""2201""
","
","true","false","[]","[]","[]","","","","","","","",""
"preload","3","6880","0.0-3.0","6365","approach_avoid_sv1","""event"",""trial"",""time""
""fullscreenenter"",""1"",""2201""
","
","
","""event"",""trial"",""time""
""fullscreenenter"",""1"",""2201""
","
","true","false","[]","[]","[]","","","","","","","",""
"preload","4","7305","0.0-4.0","6365","approach_avoid_sv1","""event"",""trial"",""time""
""fullscreenenter"",""1"",""2201""
","
","
","""event"",""trial"",""time""
""fullscreenenter"",""1"",""2201""
","
","true","false","[]","[]","[]","","","","","","","",""
"audio-keyboard-response","5","9519","0.0-5.0","6365","approach_avoid_sv1","""event"",""trial"",""time""
""fullscreenenter"",""1"",""2201""
","
","
","""event"",""trial"",""time""
""fullscreenenter"",""1"",""2201""
","
","","","","","","2181.3333333333335","audio/beep_loop.wav"," ","","","","",""
"audio-button-response","6","11120","0.0-6.0","6365","approach_avoid_sv1","""event"",""trial"",""time""
""fullscreenenter"",""1"",""2201""
","
","
","""event"",""trial"",""time""
""fullscreenenter"",""1"",""2201""
","
","","","","","","1600","audio/turtle.wav","3","","","","",""
"audio-button-response","7","13215","0.0-7.0","6365","approach_avoid_sv1","""event"",""trial"",""time""
""fullscreenenter"",""1"",""2201""
","
","
","""event"",""trial"",""time""
""fullscreenenter"",""1"",""2201""
","
","","","","","","1069","audio/shark.wav","2","","","","",""
"preload","8","16448","0.0-8.0","6365","approach_avoid_sv1","""event"",""trial"",""time""
""fullscreenenter"",""1"",""2201""
","
","
","""event"",""trial"",""time""
""fullscreenenter"",""1"",""2201""
","
","true","false","[]","[]","[]","","","","","","","",""
"learning-instructions","9","23857","0.0-9.0-0.0","6365","approach_avoid_sv1","""event"",""trial"",""time""
""fullscreenenter"",""1"",""2201""
","
","
","""event"",""trial"",""time""
""fullscreenenter"",""1"",""2201""
","
","","","","","","2929.9000000059605","<p> Welcome back! </p><p> Last week, you had to make choices about lots of different items.  </p>","","0","instructions","","",""
"learning-instructions","10","28430","0.0-9.0-0.1","6365","approach_avoid_sv1","""event"",""trial"",""time""
""fullscreenenter"",""1"",""2201""
","
","
","""event"",""trial"",""time""
""fullscreenenter"",""1"",""2201""
","
","","","","","","452.40000000596046","<p> Today, we are going to ask you to try to remember all the items. </p>","","0","instructions","","",""
"learning-instructions","11","38929","0.0-9.0-0.2","6365","approach_avoid_sv1","""event"",""trial"",""time""
""fullscreenenter"",""1"",""2201""
","
","
","""event"",""trial"",""time""
""fullscreenenter"",""1"",""2201""
","
","","","","","","361.59999999403954","<p> On every trial, you will see an image. </p><p> The image may be an OLD image you saw during the games last week or it may be a NEW image that was not presented. </p>","","0","instructions","","",""
"learning-instructions","12","47514","0.0-9.0-0.3","6365","approach_avoid_sv1","""event"",""trial"",""time""
""fullscreenenter"",""1"",""2201""
","
","
","""event"",""trial"",""time""
""fullscreenenter"",""1"",""2201""
","
","","","","","","76.6000000089407","<p> You need to select whether the image is:  </p><p>  'Definitely old', 'Maybe old', 'Maybe new', or 'Definitely new.'  </p><div class=""mem-choice-instructions-grid""><div class=""choice-option"" id=""choice-option-1"" ><img src=""images/definitely_old_1.png"" id=""choice-option-img-1"" class=""choice-option-img"" stage=""1""></div><div class=""choice-option"" id=""choice-option-2"" ><img src=""images/maybe_old_1.png"" id=""choice-option-img-2"" class=""choice-option-img"" stage=""1""></div><div class=""choice-option"" id=""choice-option-3"" ><img src=""images/maybe_new_1.png"" id=""choice-option-img-3"" class=""choice-option-img"" stage=""1""></div><div class=""choice-option"" id=""choice-option-4"" > <img src=""images/definitely_new_1.png"" id=""choice-option-img-4"" class=""choice-option-img"" stage=""1""></div></div>","","0","instructions","","",""
"learning-instructions","13","56439","0.0-9.0-0.4","6365","approach_avoid_sv1","""event"",""trial"",""time""
""fullscreenenter"",""1"",""2201""
","
","
","""event"",""trial"",""time""
""fullscreenenter"",""1"",""2201""
","
","","","","","","2401.1000000089407","<p> You should use the 1, 2, 3, and 4 keys to make your responses.  </p><div class=""mem-choice-instructions-grid""><div class=""choice-option"" id=""choice-option-1"" ><img src=""images/definitely_old.png"" id=""choice-option-img-1"" class=""choice-option-img"" stage=""1""></div><div class=""choice-option"" id=""choice-option-2"" ><img src=""images/maybe_old.png"" id=""choice-option-img-2"" class=""choice-option-img"" stage=""1""></div><div class=""choice-option"" id=""choice-option-3"" ><img src=""images/maybe_new.png"" id=""choice-option-img-3"" class=""choice-option-img"" stage=""1""></div><div class=""choice-option"" id=""choice-option-4"" > <img src=""images/definitely_new.png"" id=""choice-option-img-4"" class=""choice-option-img"" stage=""1""></div></div>","","0","instructions","","",""
"learning-instructions","14","63303","0.0-9.0-0.5","6365","approach_avoid_sv1","""event"",""trial"",""time""
""fullscreenenter"",""1"",""2201""
","
","
","""event"",""trial"",""time""
""fullscreenenter"",""1"",""2201""
","
","","","","","","525.7999999970198","<p> You will have 10 seconds to make each response.  </p><p>  Make sure to respond before time runs out! </p>","","0","instructions","","",""
"learning-instructions","15","70794","0.0-9.0-0.6","6365","approach_avoid_sv1","""event"",""trial"",""time""
""fullscreenenter"",""1"",""2201""
","
","
","""event"",""trial"",""time""
""fullscreenenter"",""1"",""2201""
","
","","","","","","407.5","<p> Today, you will see each image ONCE only.  </p><p>  That means none of the images will repeat. </p>","","0","instructions","","",""
"learning-instructions","16","84246","0.0-9.0-0.7","6365","approach_avoid_sv1","""event"",""trial"",""time""
""fullscreenenter"",""1"",""2201""
","
","
","""event"",""trial"",""time""
""fullscreenenter"",""1"",""2201""
","
","","","","","","770.7000000029802","<p> Before you play the real game, it is time to practice. </p><p>  Just like in the real game, some of the images in the practice will be ones you have seen before. </p><p>  Others will be entirely new. </p>","","0","instructions","","",""
"html-button-response","17","86390","0.0-10.0","6365","approach_avoid_sv1","""event"",""trial"",""time""
""fullscreenenter"",""1"",""2201""
","
","
","""event"",""trial"",""time""
""fullscreenenter"",""1"",""2201""
","
","","","","","","2033.0999999940395","<p> Ready to practice? </p><p> Remember, use the 1, 2, 3, and 4 keys to make your responses. </p>","0","","instructions","","",""
"html-keyboard-response","18","87015","0.0-11.0-0.0","6365","approach_avoid_sv1","""event"",""trial"",""time""
""fullscreenenter"",""1"",""2201""
","
","
","""event"",""trial"",""time""
""fullscreenenter"",""1"",""2201""
","
","","","","","","null","<div style=""font-size:60px;"">+</div>","null","","fixation","","",""
"memory-trial","19","89830","0.0-11.0-1.0","6365","approach_avoid_sv1","""event"",""trial"",""time""
""fullscreenenter"",""1"",""2201""
","
","
","""event"",""trial"",""time""
""fullscreenenter"",""1"",""2201""
","
","","","","","","1798.5999999940395","images/ball2.png","","","practice","4","definitely_new",""
"html-keyboard-response","20","90344","0.0-11.0-0.1","6365","approach_avoid_sv1","""event"",""trial"",""time""
""fullscreenenter"",""1"",""2201""
","
","
","""event"",""trial"",""time""
""fullscreenenter"",""1"",""2201""
","
","","","","","","null","<div style=""font-size:60px;"">+</div>","null","","fixation","","",""
"memory-trial","21","92713","0.0-11.0-1.1","6365","approach_avoid_sv1","""event"",""trial"",""time""
""fullscreenenter"",""1"",""2201""
","
","
","""event"",""trial"",""time""
""fullscreenenter"",""1"",""2201""
","
","","","","","","1353.0999999940395","images/ball1.png","","","practice","4","definitely_new",""
"html-keyboard-response","22","93229","0.0-11.0-0.2","6365","approach_avoid_sv1","""event"",""trial"",""time""
""fullscreenenter"",""1"",""2201""
","
","
","""event"",""trial"",""time""
""fullscreenenter"",""1"",""2201""
","
","","","","","","null","<div style=""font-size:60px;"">+</div>","null","","fixation","","",""
"memory-trial","23","96617","0.0-11.0-1.2","6365","approach_avoid_sv1","""event"",""trial"",""time""
""fullscreenenter"",""1"",""2201""
","
","
","""event"",""trial"",""time""
""fullscreenenter"",""1"",""2201""
","
","","","","","","2376","images/racket5.png","","","practice","2","maybe_old",""
"html-keyboard-response","24","97125","0.0-11.0-0.3","6365","approach_avoid_sv1","""event"",""trial"",""time""
""fullscreenenter"",""1"",""2201""
","
","
","""event"",""trial"",""time""
""fullscreenenter"",""1"",""2201""
","
","","","","","","null","<div style=""font-size:60px;"">+</div>","null","","fixation","","",""
"memory-trial","25","100870","0.0-11.0-1.3","6365","approach_avoid_sv1","""event"",""trial"",""time""
""fullscreenenter"",""1"",""2201""
","
","
","""event"",""trial"",""time""
""fullscreenenter"",""1"",""2201""
","
","","","","","","2737.7000000029802","images/ball3.png","","","practice","3","maybe_new",""
"html-keyboard-response","26","101383","0.0-11.0-0.4","6365","approach_avoid_sv1","""event"",""trial"",""time""
""fullscreenenter"",""1"",""2201""
","
","
","""event"",""trial"",""time""
""fullscreenenter"",""1"",""2201""
","
","","","","","","null","<div style=""font-size:60px;"">+</div>","null","","fixation","","",""
"memory-trial","27","103903","0.0-11.0-1.4","6365","approach_avoid_sv1","""event"",""trial"",""time""
""fullscreenenter"",""1"",""2201""
","
","
","""event"",""trial"",""time""
""fullscreenenter"",""1"",""2201""
","
","","","","","","1509.4000000059605","images/racket1.png","","","practice","1","definitely_old",""
"html-keyboard-response","28","104409","0.0-11.0-0.5","6365","approach_avoid_sv1","""event"",""trial"",""time""
""fullscreenenter"",""1"",""2201""
","
","
","""event"",""trial"",""time""
""fullscreenenter"",""1"",""2201""
","
","","","","","","null","<div style=""font-size:60px;"">+</div>","null","","fixation","","",""
"memory-trial","29","108893","0.0-11.0-1.5","6365","approach_avoid_sv1","""event"",""trial"",""time""
""fullscreenenter"",""1"",""2201""
","
","
","""event"",""trial"",""time""
""fullscreenenter"",""1"",""2201""
","
","","","","","","3477.699999988079","images/racket3.png","","","practice","1","definitely_old",""
"html-keyboard-response","30","109397","0.0-11.0-0.6","6365","approach_avoid_sv1","""event"",""trial"",""time""
""fullscreenenter"",""1"",""2201""
","
","
","""event"",""trial"",""time""
""fullscreenenter"",""1"",""2201""
","
","","","","","","null","<div style=""font-size:60px;"">+</div>","null","","fixation","","",""
"memory-trial","31","111523","0.0-11.0-1.6","6365","approach_avoid_sv1","""event"",""trial"",""time""
""fullscreenenter"",""1"",""2201""
","
","
","""event"",""trial"",""time""
""fullscreenenter"",""1"",""2201""
","
","","","","","","1111.5999999940395","images/racket2.png","","","practice","4","definitely_new",""
"html-keyboard-response","32","112035","0.0-11.0-0.7","6365","approach_avoid_sv1","""event"",""trial"",""time""
""fullscreenenter"",""1"",""2201""
","
","
","""event"",""trial"",""time""
""fullscreenenter"",""1"",""2201""
","
","","","","","","null","<div style=""font-size:60px;"">+</div>","null","","fixation","","",""
"memory-trial","33","114679","0.0-11.0-1.7","6365","approach_avoid_sv1","""event"",""trial"",""time""
""fullscreenenter"",""1"",""2201""
","
","
","""event"",""trial"",""time""
""fullscreenenter"",""1"",""2201""
","
","","","","","","1639.5","images/ball5.png","","","practice","1","definitely_old",""
"learning-instructions","34","122623","0.0-12.0-0.0","6365","approach_avoid_sv1","""event"",""trial"",""time""
""fullscreenenter"",""1"",""2201""
","
","
","""event"",""trial"",""time""
""fullscreenenter"",""1"",""2201""
","
","","","","","","644","<p> Great! You have completed the practice. </p><p> Before you start, we're going to ask you a few questions about how the game works.  </p>","","0","instructions","","",""
"preload","35","124002","0.0-13.0","6365","approach_avoid_sv1","""event"",""trial"",""time""
""fullscreenenter"",""1"",""2201""
","
","
","""event"",""trial"",""time""
""fullscreenenter"",""1"",""2201""
","
","true","false","[]","[]","[]","","","","","","","",""
"comp-q","36","130640","0.0-14.0-0.0","6365","approach_avoid_sv1","""event"",""trial"",""time""
""fullscreenenter"",""1"",""2201""
","
","
","""event"",""trial"",""time""
""fullscreenenter"",""1"",""2201""
","
","","","","","","809.5999999940395","<p> <b> True or False? </b> </p><p> In this game, you will only see each image once. </p>","","0","comp_question","","","true"
"comp-q","37","138064","0.0-14.0-1.0","6365","approach_avoid_sv1","""event"",""trial"",""time""
""fullscreenenter"",""1"",""2201""
","
","
","""event"",""trial"",""time""
""fullscreenenter"",""1"",""2201""
","
","","","","","","1083.4000000059605","<p> <b> That's right! </b> You will see many different images <i> one time each </i> in this game. </p>","","0","comp_answer","","",""
"comp-q","38","143548","0.0-15.0-0.0","6365","approach_avoid_sv1","""event"",""trial"",""time""
""fullscreenenter"",""1"",""2201""
","
","
","""event"",""trial"",""time""
""fullscreenenter"",""1"",""2201""
","
","","","","","","466.20000000298023","<p> <b> True or False? </b> </p><p> You should use the mouse and click to make your response. </p>","","1","comp_question","","","true"
"comp-q","39","151542","0.0-15.0-1.0","6365","approach_avoid_sv1","""event"",""trial"",""time""
""fullscreenenter"",""1"",""2201""
","
","
","""event"",""trial"",""time""
""fullscreenenter"",""1"",""2201""
","
","","","","","","1491","<p><b> That's right! </b> You should use the '1', '2', '3', and '4' keys to make your response. </p>","","0","comp_answer","","",""
"comp-q","40","157777","0.0-16.0-0.0","6365","approach_avoid_sv1","""event"",""trial"",""time""
""fullscreenenter"",""1"",""2201""
","
","
","""event"",""trial"",""time""
""fullscreenenter"",""1"",""2201""
","
","","","","","","556.2999999970198","<p> <b> True or False? </b> </p><p> You will have as much time as you want to make each choice. </p>","","1","comp_question","","","true"
"comp-q","41","163068","0.0-16.0-1.0","6365","approach_avoid_sv1","""event"",""trial"",""time""
""fullscreenenter"",""1"",""2201""
","
","
","""event"",""trial"",""time""
""fullscreenenter"",""1"",""2201""
","
","","","","","","586.7000000029802","<p> <b> That's right! </b> You will only have 10 seconds to make each choice. </p>","","0","comp_answer","","",""
"learning-instructions","42","241786","0.0-17.0","6365","approach_avoid_sv1","""event"",""trial"",""time""
""fullscreenenter"",""1"",""2201""
","
","
","""event"",""trial"",""time""
""fullscreenenter"",""1"",""2201""
","
","","","","","","70053.09999999404","<p> Great! You are now ready to begin the game. </p><p> Remember, use the 1, 2, 3, and 4 keys to make your responses. </p>","","0","instructions","","",""
"html-keyboard-response","43","242400","0.0-18.0-0.0","6365","approach_avoid_sv1","""event"",""trial"",""time""
""fullscreenenter"",""1"",""2201""
","
","
","""event"",""trial"",""time""
""fullscreenenter"",""1"",""2201""
","
","","","","","","null","<div style=""font-size:60px;"">+</div>","null","","fixation","","",""
"memory-trial","44","245187","0.0-18.0-1.0","6365","approach_avoid_sv1","""event"",""trial"",""time""
""fullscreenenter"",""1"",""2201""
","
","
","""event"",""trial"",""time""
""fullscreenenter"",""1"",""2201""
","
","","","","","","1775.5999999940395","images/banana6.png","","","memory_trial","1","definitely_old",""
"html-keyboard-response","45","245695","0.0-18.0-0.1","6365","approach_avoid_sv1","""event"",""trial"",""time""
""fullscreenenter"",""1"",""2201""
","
","
","""event"",""trial"",""time""
""fullscreenenter"",""1"",""2201""
","
","","","","","","null","<div style=""font-size:60px;"">+</div>","null","","fixation","","",""
"memory-trial","46","248233","0.0-18.0-1.1","6365","approach_avoid_sv1","""event"",""trial"",""time""
""fullscreenenter"",""1"",""2201""
","
","
","""event"",""trial"",""time""
""fullscreenenter"",""1"",""2201""
","
","","","","","","1534.5","images/horse2.png","","","memory_trial","4","definitely_new",""
"html-keyboard-response","47","248742","0.0-18.0-0.2","6365","approach_avoid_sv1","""event"",""trial"",""time""
""fullscreenenter"",""1"",""2201""
","
","
","""event"",""trial"",""time""
""fullscreenenter"",""1"",""2201""
","
","","","","","","null","<div style=""font-size:60px;"">+</div>","null","","fixation","","",""
"memory-trial","48","252804","0.0-18.0-1.2","6365","approach_avoid_sv1","""event"",""trial"",""time""
""fullscreenenter"",""1"",""2201""
","
","
","""event"",""trial"",""time""
""fullscreenenter"",""1"",""2201""
","
","","","","","","3042.7999999970198","images/bed5.png","","","memory_trial","4","definitely_new",""
"html-keyboard-response","49","253310","0.0-18.0-0.3","6365","approach_avoid_sv1","""event"",""trial"",""time""
""fullscreenenter"",""1"",""2201""
","
","
","""event"",""trial"",""time""
""fullscreenenter"",""1"",""2201""
","
","","","","","","null","<div style=""font-size:60px;"">+</div>","null","","fixation","","",""
"memory-trial","50","255388","0.0-18.0-1.3","6365","approach_avoid_sv1","""event"",""trial"",""time""
""fullscreenenter"",""1"",""2201""
","
","
","""event"",""trial"",""time""
""fullscreenenter"",""1"",""2201""
","
","","","","","","1072.7999999970198","images/apple2.png","","","memory_trial","1","definitely_old",""
"html-keyboard-response","51","255897","0.0-18.0-0.4","6365","approach_avoid_sv1","""event"",""trial"",""time""
""fullscreenenter"",""1"",""2201""
","
","
","""event"",""trial"",""time""
""fullscreenenter"",""1"",""2201""
","
","","","","","","null","<div style=""font-size:60px;"">+</div>","null","","fixation","","",""
"memory-trial","52","258233","0.0-18.0-1.4","6365","approach_avoid_sv1","""event"",""trial"",""time""
""fullscreenenter"",""1"",""2201""
","
","
","""event"",""trial"",""time""
""fullscreenenter"",""1"",""2201""
","
","","","","","","1328.2999999970198","images/orange3.png","","","memory_trial","4","definitely_new",""
"html-keyboard-response","53","258747","0.0-18.0-0.5","6365","approach_avoid_sv1","""event"",""trial"",""time""
""fullscreenenter"",""1"",""2201""
","
","
","""event"",""trial"",""time""
""fullscreenenter"",""1"",""2201""
","
","","","","","","null","<div style=""font-size:60px;"">+</div>","null","","fixation","","",""
"memory-trial","54","262163","0.0-18.0-1.5","6365","approach_avoid_sv1","""event"",""trial"",""time""
""fullscreenenter"",""1"",""2201""
","
","
","""event"",""trial"",""time""
""fullscreenenter"",""1"",""2201""
","
","","","","","","2401.699999988079","images/bed3.png","","","memory_trial","3","maybe_new",""
"html-keyboard-response","55","262680","0.0-18.0-0.6","6365","approach_avoid_sv1","""event"",""trial"",""time""
""fullscreenenter"",""1"",""2201""
","
","
","""event"",""trial"",""time""
""fullscreenenter"",""1"",""2201""
","
","","","","","","null","<div style=""font-size:60px;"">+</div>","null","","fixation","","",""
"memory-trial","56","266514","0.0-18.0-1.6","6365","approach_avoid_sv1","""event"",""trial"",""time""
""fullscreenenter"",""1"",""2201""
","
","
","""event"",""trial"",""time""
""fullscreenenter"",""1"",""2201""
","
","","","","","","2828.9000000059605","images/orange5.png","","","memory_trial","2","maybe_old",""
"html-keyboard-response","57","267027","0.0-18.0-0.7","6365","approach_avoid_sv1","""event"",""trial"",""time""
""fullscreenenter"",""1"",""2201""
","
","
","""event"",""trial"",""time""
""fullscreenenter"",""1"",""2201""
","
","","","","","","null","<div style=""font-size:60px;"">+</div>","null","","fixation","","",""
"memory-trial","58","269166","0.0-18.0-1.7","6365","approach_avoid_sv1","""event"",""trial"",""time""
""fullscreenenter"",""1"",""2201""
","
","
","""event"",""trial"",""time""
""fullscreenenter"",""1"",""2201""
","
","","","","","","1133.1000000089407","images/sofa3.png","","","memory_trial","1","definitely_old",""
"html-keyboard-response","59","269670","0.0-18.0-0.8","6365","approach_avoid_sv1","""event"",""trial"",""time""
""fullscreenenter"",""1"",""2201""
","
","
","""event"",""trial"",""time""
""fullscreenenter"",""1"",""2201""
","
","","","","","","null","<div style=""font-size:60px;"">+</div>","null","","fixation","","",""
"memory-trial","60","271984","0.0-18.0-1.8","6365","approach_avoid_sv1","""event"",""trial"",""time""
""fullscreenenter"",""1"",""2201""
","
","
","""event"",""trial"",""time""
""fullscreenenter"",""1"",""2201""
","
","","","","","","1304.4000000059605","images/plane8.png","","","memory_trial","1","definitely_old",""
"html-keyboard-response","61","272489","0.0-18.0-0.9","6365","approach_avoid_sv1","""event"",""trial"",""time""
""fullscreenenter"",""1"",""2201""
","
","
","""event"",""trial"",""time""
""fullscreenenter"",""1"",""2201""
","
","","","","","","null","<div style=""font-size:60px;"">+</div>","null","","fixation","","",""
"memory-trial","62","274279","0.0-18.0-1.9","6365","approach_avoid_sv1","""event"",""trial"",""time""
""fullscreenenter"",""1"",""2201""
","
","
","""event"",""trial"",""time""
""fullscreenenter"",""1"",""2201""
","
","","","","","","778.7000000029802","images/plane4.png","","","memory_trial","1","definitely_old",""
"html-keyboard-response","63","274788","0.0-18.0-0.10","6365","approach_avoid_sv1","""event"",""trial"",""time""
""fullscreenenter"",""1"",""2201""
","
","
","""event"",""trial"",""time""
""fullscreenenter"",""1"",""2201""
","
","","","","","","null","<div style=""font-size:60px;"">+</div>","null","","fixation","","",""
"memory-trial","64","278184","0.0-18.0-1.10","6365","approach_avoid_sv1","""event"",""trial"",""time""
""fullscreenenter"",""1"",""2201""
","
","
","""event"",""trial"",""time""
""fullscreenenter"",""1"",""2201""
","
","","","","","","2385.2999999970198","images/cactus6.png","","","memory_trial","1","definitely_old",""
"html-keyboard-response","65","278700","0.0-18.0-0.11","6365","approach_avoid_sv1","""event"",""trial"",""time""
""fullscreenenter"",""1"",""2201""
","
","
","""event"",""trial"",""time""
""fullscreenenter"",""1"",""2201""
","
","","","","","","null","<div style=""font-size:60px;"">+</div>","null","","fixation","","",""
"memory-trial","66","280790","0.0-18.0-1.11","6365","approach_avoid_sv1","""event"",""trial"",""time""
""fullscreenenter"",""1"",""2201""
","
","
","""event"",""trial"",""time""
""fullscreenenter"",""1"",""2201""
","
","","","","","","1085","images/straw6.png","","","memory_trial","1","definitely_old",""
"html-keyboard-response","67","281294","0.0-18.0-0.12","6365","approach_avoid_sv1","""event"",""trial"",""time""
""fullscreenenter"",""1"",""2201""
","
","
","""event"",""trial"",""time""
""fullscreenenter"",""1"",""2201""
","
","","","","","","null","<div style=""font-size:60px;"">+</div>","null","","fixation","","",""
"memory-trial","68","284050","0.0-18.0-1.12","6365","approach_avoid_sv1","""event"",""trial"",""time""
""fullscreenenter"",""1"",""2201""
","
","
","""event"",""trial"",""time""
""fullscreenenter"",""1"",""2201""
","
","","","","","","1744.2000000029802","images/straw3.png","","","memory_trial","2","maybe_old",""
"html-keyboard-response","69","284567","0.0-18.0-0.13","6365","approach_avoid_sv1","""event"",""trial"",""time""
""fullscreenenter"",""1"",""2201""
","
","
","""event"",""trial"",""time""
""fullscreenenter"",""1"",""2201""
","
","","","","","","null","<div style=""font-size:60px;"">+</div>","null","","fixation","","",""
"memory-trial","70","288327","0.0-18.0-1.13","6365","approach_avoid_sv1","""event"",""trial"",""time""
""fullscreenenter"",""1"",""2201""
","
","
","""event"",""trial"",""time""
""fullscreenenter"",""1"",""2201""
","
","","","","","","2751.6000000089407","images/rodent1.png","","","memory_trial","3","maybe_new",""
"html-keyboard-response","71","288831","0.0-18.0-0.14","6365","approach_avoid_sv1","""event"",""trial"",""time""
""fullscreenenter"",""1"",""2201""
","
","
","""event"",""trial"",""time""
""fullscreenenter"",""1"",""2201""
","
","","","","","","null","<div style=""font-size:60px;"">+</div>","null","","fixation","","",""
"memory-trial","72","292098","0.0-18.0-1.14","6365","approach_avoid_sv1","""event"",""trial"",""time""
""fullscreenenter"",""1"",""2201""
","
","
","""event"",""trial"",""time""
""fullscreenenter"",""1"",""2201""
","
","","","","","","2261.5999999940395","images/bush7.png","","","memory_trial","4","definitely_new",""
"html-keyboard-response","73","292600","0.0-18.0-0.15","6365","approach_avoid_sv1","""event"",""trial"",""time""
""fullscreenenter"",""1"",""2201""
","
","
","""event"",""trial"",""time""
""fullscreenenter"",""1"",""2201""
","
","","","","","","null","<div style=""font-size:60px;"">+</div>","null","","fixation","","",""
"memory-trial","74","295660","0.0-18.0-1.15","6365","approach_avoid_sv1","""event"",""trial"",""time""
""fullscreenenter"",""1"",""2201""
","
","
","""event"",""trial"",""time""
""fullscreenenter"",""1"",""2201""
","
","","","","","","2051.7000000029802","images/bed8.png","","","memory_trial","3","maybe_new",""
"html-keyboard-response","75","296163","0.0-18.0-0.16","6365","approach_avoid_sv1","""event"",""trial"",""time""
""fullscreenenter"",""1"",""2201""
","
","
","""event"",""trial"",""time""
""fullscreenenter"",""1"",""2201""
","
","","","","","","null","<div style=""font-size:60px;"">+</div>","null","","fixation","","",""
"memory-trial","76","299064","0.0-18.0-1.16","6365","approach_avoid_sv1","""event"",""trial"",""time""
""fullscreenenter"",""1"",""2201""
","
","
","""event"",""trial"",""time""
""fullscreenenter"",""1"",""2201""
","
","","","","","","1894.7999999970198","images/horse8.png","","","memory_trial","2","maybe_old",""
"html-keyboard-response","77","299570","0.0-18.0-0.17","6365","approach_avoid_sv1","""event"",""trial"",""time""
""fullscreenenter"",""1"",""2201""
","
","
","""event"",""trial"",""time""
""fullscreenenter"",""1"",""2201""
","
","","","","","","null","<div style=""font-size:60px;"">+</div>","null","","fixation","","",""
"memory-trial","78","301846","0.0-18.0-1.17","6365","approach_avoid_sv1","""event"",""trial"",""time""
""fullscreenenter"",""1"",""2201""
","
","
","""event"",""trial"",""time""
""fullscreenenter"",""1"",""2201""
","
","","","","","","1262.2999999970198","images/bed4.png","","","memory_trial","3","maybe_new",""
"html-keyboard-response","79","302352","0.0-18.0-0.18","6365","approach_avoid_sv1","""event"",""trial"",""time""
""fullscreenenter"",""1"",""2201""
","
","
","""event"",""trial"",""time""
""fullscreenenter"",""1"",""2201""
","
","","","","","","null","<div style=""font-size:60px;"">+</div>","null","","fixation","","",""
"memory-trial","80","304611","0.0-18.0-1.18","6365","approach_avoid_sv1","""event"",""trial"",""time""
""fullscreenenter"",""1"",""2201""
","
","
","""event"",""trial"",""time""
""fullscreenenter"",""1"",""2201""
","
","","","","","","1251.7999999970198","images/flower2.png","","","memory_trial","1","definitely_old",""
"html-keyboard-response","81","305122","0.0-18.0-0.19","6365","approach_avoid_sv1","""event"",""trial"",""time""
""fullscreenenter"",""1"",""2201""
","
","
","""event"",""trial"",""time""
""fullscreenenter"",""1"",""2201""
","
","","","","","","null","<div style=""font-size:60px;"">+</div>","null","","fixation","","",""
"memory-trial","82","307912","0.0-18.0-1.19","6365","approach_avoid_sv1","""event"",""trial"",""time""
""fullscreenenter"",""1"",""2201""
","
","
","""event"",""trial"",""time""
""fullscreenenter"",""1"",""2201""
","
","","","","","","1785.800000011921","images/dog5.png","","","memory_trial","4","definitely_new",""
"html-keyboard-response","83","308414","0.0-18.0-0.20","6365","approach_avoid_sv1","""event"",""trial"",""time""
""fullscreenenter"",""1"",""2201""
","
","
","""event"",""trial"",""time""
""fullscreenenter"",""1"",""2201""
","
","","","","","","null","<div style=""font-size:60px;"">+</div>","null","","fixation","","",""
"memory-trial","84","311186","0.0-18.0-1.20","6365","approach_avoid_sv1","""event"",""trial"",""time""
""fullscreenenter"",""1"",""2201""
","
","
","""event"",""trial"",""time""
""fullscreenenter"",""1"",""2201""
","
","","","","","","1753.5","images/cat8.png","","","memory_trial","2","maybe_old",""
"html-keyboard-response","85","311689","0.0-18.0-0.21","6365","approach_avoid_sv1","""event"",""trial"",""time""
""fullscreenenter"",""1"",""2201""
","
","
","""event"",""trial"",""time""
""fullscreenenter"",""1"",""2201""
","
","","","","","","null","<div style=""font-size:60px;"">+</div>","null","","fixation","","",""
"memory-trial","86","313718","0.0-18.0-1.21","6365","approach_avoid_sv1","""event"",""trial"",""time""
""fullscreenenter"",""1"",""2201""
","
","
","""event"",""trial"",""time""
""fullscreenenter"",""1"",""2201""
","
","","","","","","1011.6999999880791","images/cat2.png","","","memory_trial","1","definitely_old",""
"html-keyboard-response","87","314228","0.0-18.0-0.22","6365","approach_avoid_sv1","""event"",""trial"",""time""
""fullscreenenter"",""1"",""2201""
","
","
","""event"",""trial"",""time""
""fullscreenenter"",""1"",""2201""
","
","","","","","","null","<div style=""font-size:60px;"">+</div>","null","","fixation","","",""
"memory-trial","88","316798","0.0-18.0-1.22","6365","approach_avoid_sv1","""event"",""trial"",""time""
""fullscreenenter"",""1"",""2201""
","
","
","""event"",""trial"",""time""
""fullscreenenter"",""1"",""2201""
","
","","","","","","1563.4000000059605","images/apple7.png","","","memory_trial","2","maybe_old",""
"html-keyboard-response","89","317315","0.0-18.0-0.23","6365","approach_avoid_sv1","""event"",""trial"",""time""
""fullscreenenter"",""1"",""2201""
","
","
","""event"",""trial"",""time""
""fullscreenenter"",""1"",""2201""
","
","","","","","","null","<div style=""font-size:60px;"">+</div>","null","","fixation","","",""
"memory-trial","90","319885","0.0-18.0-1.23","6365","approach_avoid_sv1","""event"",""trial"",""time""
""fullscreenenter"",""1"",""2201""
","
","
","""event"",""trial"",""time""
""fullscreenenter"",""1"",""2201""
","
","","","","","","1561.2999999970198","images/rodent7.png","","","memory_trial","1","definitely_old",""
"html-keyboard-response","91","320398","0.0-18.0-0.24","6365","approach_avoid_sv1","""event"",""trial"",""time""
""fullscreenenter"",""1"",""2201""
","
","
","""event"",""trial"",""time""
""fullscreenenter"",""1"",""2201""
","
","","","","","","null","<div style=""font-size:60px;"">+</div>","null","","fixation","","",""
"memory-trial","92","322842","0.0-18.0-1.24","6365","approach_avoid_sv1","""event"",""trial"",""time""
""fullscreenenter"",""1"",""2201""
","
","
","""event"",""trial"",""time""
""fullscreenenter"",""1"",""2201""
","
","","","","","","1438.9000000059605","images/rodent6.png","","","memory_trial","1","definitely_old",""
"html-keyboard-response","93","323350","0.0-18.0-0.25","6365","approach_avoid_sv1","""event"",""trial"",""time""
""fullscreenenter"",""1"",""2201""
","
","
","""event"",""trial"",""time""
""fullscreenenter"",""1"",""2201""
","
","","","","","","null","<div style=""font-size:60px;"">+</div>","null","","fixation","","",""
"memory-trial","94","327266","0.0-18.0-1.25","6365","approach_avoid_sv1","""event"",""trial"",""time""
""fullscreenenter"",""1"",""2201""
","
","
","""event"",""trial"",""time""
""fullscreenenter"",""1"",""2201""
","
","","","","","","2906.2000000029802","images/dog6.png","","","memory_trial","3","maybe_new",""
"html-keyboard-response","95","327769","0.0-18.0-0.26","6365","approach_avoid_sv1","""event"",""trial"",""time""
""fullscreenenter"",""1"",""2201""
","
","
","""event"",""trial"",""time""
""fullscreenenter"",""1"",""2201""
","
","","","","","","null","<div style=""font-size:60px;"">+</div>","null","","fixation","","",""
"memory-trial","96","330308","0.0-18.0-1.26","6365","approach_avoid_sv1","""event"",""trial"",""time""
""fullscreenenter"",""1"",""2201""
","
","
","""event"",""trial"",""time""
""fullscreenenter"",""1"",""2201""
","
","","","","","","1531.5999999940395","images/orange8.png","","","memory_trial","3","maybe_new",""
"html-keyboard-response","97","330813","0.0-18.0-0.27","6365","approach_avoid_sv1","""event"",""trial"",""time""
""fullscreenenter"",""1"",""2201""
","
","
","""event"",""trial"",""time""
""fullscreenenter"",""1"",""2201""
","
","","","","","","null","<div style=""font-size:60px;"">+</div>","null","","fixation","","",""
"memory-trial","98","332881","0.0-18.0-1.27","6365","approach_avoid_sv1","""event"",""trial"",""time""
""fullscreenenter"",""1"",""2201""
","
","
","""event"",""trial"",""time""
""fullscreenenter"",""1"",""2201""
","
","","","","","","1056.1000000089407","images/goat5.png","","","memory_trial","1","definitely_old",""
"html-keyboard-response","99","333392","0.0-18.0-0.28","6365","approach_avoid_sv1","""event"",""trial"",""time""
""fullscreenenter"",""1"",""2201""
","
","
","""event"",""trial"",""time""
""fullscreenenter"",""1"",""2201""
","
","","","","","","null","<div style=""font-size:60px;"">+</div>","null","","fixation","","",""
"memory-trial","100","337054","0.0-18.0-1.28","6365","approach_avoid_sv1","""event"",""trial"",""time""
""fullscreenenter"",""1"",""2201""
","
","
","""event"",""trial"",""time""
""fullscreenenter"",""1"",""2201""
","
","","","","","","2655.199999988079","images/apple8.png","","","memory_trial","2","maybe_old",""
"html-keyboard-response","101","337555","0.0-18.0-0.29","6365","approach_avoid_sv1","""event"",""trial"",""time""
""fullscreenenter"",""1"",""2201""
","
","
","""event"",""trial"",""time""
""fullscreenenter"",""1"",""2201""
","
","","","","","","null","<div style=""font-size:60px;"">+</div>","null","","fixation","","",""
"memory-trial","102","341304","0.0-18.0-1.29","6365","approach_avoid_sv1","""event"",""trial"",""time""
""fullscreenenter"",""1"",""2201""
","
","
","""event"",""trial"",""time""
""fullscreenenter"",""1"",""2201""
","
","","","","","","2741.0999999940395","images/train5.png","","","memory_trial","3","maybe_new",""
"html-keyboard-response","103","341812","0.0-18.0-0.30","6365","approach_avoid_sv1","""event"",""trial"",""time""
""fullscreenenter"",""1"",""2201""
","
","
","""event"",""trial"",""time""
""fullscreenenter"",""1"",""2201""
","
","","","","","","null","<div style=""font-size:60px;"">+</div>","null","","fixation","","",""
"memory-trial","104","345500","0.0-18.0-1.30","6365","approach_avoid_sv1","""event"",""trial"",""time""
""fullscreenenter"",""1"",""2201""
","
","
","""event"",""trial"",""time""
""fullscreenenter"",""1"",""2201""
","
","","","","","","2678.699999988079","images/table7.png","","","memory_trial","2","maybe_old",""
"html-keyboard-response","105","346002","0.0-18.0-0.31","6365","approach_avoid_sv1","""event"",""trial"",""time""
""fullscreenenter"",""1"",""2201""
","
","
","""event"",""trial"",""time""
""fullscreenenter"",""1"",""2201""
","
","","","","","","null","<div style=""font-size:60px;"">+</div>","null","","fixation","","",""
"memory-trial","106","348586","0.0-18.0-1.31","6365","approach_avoid_sv1","""event"",""trial"",""time""
""fullscreenenter"",""1"",""2201""
","
","
","""event"",""trial"",""time""
""fullscreenenter"",""1"",""2201""
","
","","","","","","1572.9000000059605","images/bed2.png","","","memory_trial","3","maybe_new",""
"html-keyboard-response","107","349091","0.0-18.0-0.32","6365","approach_avoid_sv1","""event"",""trial"",""time""
""fullscreenenter"",""1"",""2201""
","
","
","""event"",""trial"",""time""
""fullscreenenter"",""1"",""2201""
","
","","","","","","null","<div style=""font-size:60px;"">+</div>","null","","fixation","","",""
"memory-trial","108","351185","0.0-18.0-1.32","6365","approach_avoid_sv1","""event"",""trial"",""time""
""fullscreenenter"",""1"",""2201""
","
","
","""event"",""trial"",""time""
""fullscreenenter"",""1"",""2201""
","
","","","","","","1084.2000000029802","images/sheep3.png","","","memory_trial","1","definitely_old",""
"html-keyboard-response","109","351691","0.0-18.0-0.33","6365","approach_avoid_sv1","""event"",""trial"",""time""
""fullscreenenter"",""1"",""2201""
","
","
","""event"",""trial"",""time""
""fullscreenenter"",""1"",""2201""
","
","","","","","","null","<div style=""font-size:60px;"">+</div>","null","","fixation","","",""
"memory-trial","110","354089","0.0-18.0-1.33","6365","approach_avoid_sv1","""event"",""trial"",""time""
""fullscreenenter"",""1"",""2201""
","
","
","""event"",""trial"",""time""
""fullscreenenter"",""1"",""2201""
","
","","","","","","1387.2999999970198","images/rabbit8.png","","","memory_trial","1","definitely_old",""
"html-keyboard-response","111","354596","0.0-18.0-0.34","6365","approach_avoid_sv1","""event"",""trial"",""time""
""fullscreenenter"",""1"",""2201""
","
","
","""event"",""trial"",""time""
""fullscreenenter"",""1"",""2201""
","
","","","","","","null","<div style=""font-size:60px;"">+</div>","null","","fixation","","",""
"memory-trial","112","356448","0.0-18.0-1.34","6365","approach_avoid_sv1","""event"",""trial"",""time""
""fullscreenenter"",""1"",""2201""
","
","
","""event"",""trial"",""time""
""fullscreenenter"",""1"",""2201""
","
","","","","","","844","images/straw4.png","","","memory_trial","1","definitely_old",""
"html-keyboard-response","113","356959","0.0-18.0-0.35","6365","approach_avoid_sv1","""event"",""trial"",""time""
""fullscreenenter"",""1"",""2201""
","
","
","""event"",""trial"",""time""
""fullscreenenter"",""1"",""2201""
","
","","","","","","null","<div style=""font-size:60px;"">+</div>","null","","fixation","","",""
"memory-trial","114","358758","0.0-18.0-1.35","6365","approach_avoid_sv1","""event"",""trial"",""time""
""fullscreenenter"",""1"",""2201""
","
","
","""event"",""trial"",""time""
""fullscreenenter"",""1"",""2201""
","
","","","","","","795.7999999970198","images/boat8.png","","","memory_trial","1","definitely_old",""
"html-keyboard-response","115","359261","0.0-18.0-0.36","6365","approach_avoid_sv1","""event"",""trial"",""time""
""fullscreenenter"",""1"",""2201""
","
","
","""event"",""trial"",""time""
""fullscreenenter"",""1"",""2201""
","
","","","","","","null","<div style=""font-size:60px;"">+</div>","null","","fixation","","",""
"memory-trial","116","362738","0.0-18.0-1.36","6365","approach_avoid_sv1","""event"",""trial"",""time""
""fullscreenenter"",""1"",""2201""
","
","
","""event"",""trial"",""time""
""fullscreenenter"",""1"",""2201""
","
","","","","","","2475.2000000029802","images/train1.png","","","memory_trial","2","maybe_old",""
"html-keyboard-response","117","363243","0.0-18.0-0.37","6365","approach_avoid_sv1","""event"",""trial"",""time""
""fullscreenenter"",""1"",""2201""
","
","
","""event"",""trial"",""time""
""fullscreenenter"",""1"",""2201""
","
","","","","","","null","<div style=""font-size:60px;"">+</div>","null","","fixation","","",""
"memory-trial","118","365201","0.0-18.0-1.37","6365","approach_avoid_sv1","""event"",""trial"",""time""
""fullscreenenter"",""1"",""2201""
","
","
","""event"",""trial"",""time""
""fullscreenenter"",""1"",""2201""
","
","","","","","","947.7999999970198","images/bush8.png","","","memory_trial","4","definitely_new",""
"html-keyboard-response","119","365717","0.0-18.0-0.38","6365","approach_avoid_sv1","""event"",""trial"",""time""
""fullscreenenter"",""1"",""2201""
","
","
","""event"",""trial"",""time""
""fullscreenenter"",""1"",""2201""
","
","","","","","","null","<div style=""font-size:60px;"">+</div>","null","","fixation","","",""
"memory-trial","120","368520","0.0-18.0-1.38","6365","approach_avoid_sv1","""event"",""trial"",""time""
""fullscreenenter"",""1"",""2201""
","
","
","""event"",""trial"",""time""
""fullscreenenter"",""1"",""2201""
","
","","","","","","1791.4000000059605","images/horse5.png","","","memory_trial","3","maybe_new",""
"html-keyboard-response","121","369027","0.0-18.0-0.39","6365","approach_avoid_sv1","""event"",""trial"",""time""
""fullscreenenter"",""1"",""2201""
","
","
","""event"",""trial"",""time""
""fullscreenenter"",""1"",""2201""
","
","","","","","","null","<div style=""font-size:60px;"">+</div>","null","","fixation","","",""
"memory-trial","122","372354","0.0-18.0-1.39","6365","approach_avoid_sv1","""event"",""trial"",""time""
""fullscreenenter"",""1"",""2201""
","
","
","""event"",""trial"",""time""
""fullscreenenter"",""1"",""2201""
","
","","","","","","2315.4000000059605","images/orange4.png","","","memory_trial","3","maybe_new",""
"html-keyboard-response","123","372860","0.0-18.0-0.40","6365","approach_avoid_sv1","""event"",""trial"",""time""
""fullscreenenter"",""1"",""2201""
","
","
","""event"",""trial"",""time""
""fullscreenenter"",""1"",""2201""
","
","","","","","","null","<div style=""font-size:60px;"">+</div>","null","","fixation","","",""
"memory-trial","124","374982","0.0-18.0-1.40","6365","approach_avoid_sv1","""event"",""trial"",""time""
""fullscreenenter"",""1"",""2201""
","
","
","""event"",""trial"",""time""
""fullscreenenter"",""1"",""2201""
","
","","","","","","1113","images/goat1.png","","","memory_trial","1","definitely_old",""
"html-keyboard-response","125","375492","0.0-18.0-0.41","6365","approach_avoid_sv1","""event"",""trial"",""time""
""fullscreenenter"",""1"",""2201""
","
","
","""event"",""trial"",""time""
""fullscreenenter"",""1"",""2201""
","
","","","","","","null","<div style=""font-size:60px;"">+</div>","null","","fixation","","",""
"memory-trial","126","378898","0.0-18.0-1.41","6365","approach_avoid_sv1","""event"",""trial"",""time""
""fullscreenenter"",""1"",""2201""
","
","
","""event"",""trial"",""time""
""fullscreenenter"",""1"",""2201""
","
","","","","","","2402.2000000029802","images/rodent5.png","","","memory_trial","2","maybe_old",""
"html-button-response","127","386107","0.0-18.0-2.41-0.41","6365","approach_avoid_sv1","""event"",""trial"",""time""
""fullscreenenter"",""1"",""2201""
","
","
","""event"",""trial"",""time""
""fullscreenenter"",""1"",""2201""
","
","","","","","","7207.5999999940395","<p> Take a break! </p><p> Click the button to continue. </p>","0","","break","","",""
"html-keyboard-response","128","386614","0.0-18.0-0.42","6365","approach_avoid_sv1","""event"",""trial"",""time""
""fullscreenenter"",""1"",""2201""
","
","
","""event"",""trial"",""time""
""fullscreenenter"",""1"",""2201""
","
","","","","","","null","<div style=""font-size:60px;"">+</div>","null","","fixation","","",""
"memory-trial","129","388471","0.0-18.0-1.42","6365","approach_avoid_sv1","""event"",""trial"",""time""
""fullscreenenter"",""1"",""2201""
","
","
","""event"",""trial"",""time""
""fullscreenenter"",""1"",""2201""
","
","","","","","","848.4000000059605","images/tree5.png","","","memory_trial","4","definitely_new",""
"html-keyboard-response","130","388978","0.0-18.0-0.43","6365","approach_avoid_sv1","""event"",""trial"",""time""
""fullscreenenter"",""1"",""2201""
","
","
","""event"",""trial"",""time""
""fullscreenenter"",""1"",""2201""
","
","","","","","","null","<div style=""font-size:60px;"">+</div>","null","","fixation","","",""
"memory-trial","131","391410","0.0-18.0-1.43","6365","approach_avoid_sv1","""event"",""trial"",""time""
""fullscreenenter"",""1"",""2201""
","
","
","""event"",""trial"",""time""
""fullscreenenter"",""1"",""2201""
","
","","","","","","1418.5","images/rabbit7.png","","","memory_trial","3","maybe_new",""
"html-keyboard-response","132","391927","0.0-18.0-0.44","6365","approach_avoid_sv1","""event"",""trial"",""time""
""fullscreenenter"",""1"",""2201""
","
","
","""event"",""trial"",""time""
""fullscreenenter"",""1"",""2201""
","
","","","","","","null","<div style=""font-size:60px;"">+</div>","null","","fixation","","",""
"memory-trial","133","394193","0.0-18.0-1.44","6365","approach_avoid_sv1","""event"",""trial"",""time""
""fullscreenenter"",""1"",""2201""
","
","
","""event"",""trial"",""time""
""fullscreenenter"",""1"",""2201""
","
","","","","","","1250.2000000029802","images/tree3.png","","","memory_trial","1","definitely_old",""
"html-keyboard-response","134","394698","0.0-18.0-0.45","6365","approach_avoid_sv1","""event"",""trial"",""time""
""fullscreenenter"",""1"",""2201""
","
","
","""event"",""trial"",""time""
""fullscreenenter"",""1"",""2201""
","
","","","","","","null","<div style=""font-size:60px;"">+</div>","null","","fixation","","",""
"memory-trial","135","398177","0.0-18.0-1.45","6365","approach_avoid_sv1","""event"",""trial"",""time""
""fullscreenenter"",""1"",""2201""
","
","
","""event"",""trial"",""time""
""fullscreenenter"",""1"",""2201""
","
","","","","","","2471.5","images/cat5.png","","","memory_trial","1","definitely_old",""
"html-keyboard-response","136","398680","0.0-18.0-0.46","6365","approach_avoid_sv1","""event"",""trial"",""time""
""fullscreenenter"",""1"",""2201""
","
","
","""event"",""trial"",""time""
""fullscreenenter"",""1"",""2201""
","
","","","","","","null","<div style=""font-size:60px;"">+</div>","null","","fixation","","",""
"memory-trial","137","401501","0.0-18.0-1.46","6365","approach_avoid_sv1","""event"",""trial"",""time""
""fullscreenenter"",""1"",""2201""
","
","
","""event"",""trial"",""time""
""fullscreenenter"",""1"",""2201""
","
","","","","","","1802.5","images/flower8.png","","","memory_trial","2","maybe_old",""
"html-keyboard-response","138","402006","0.0-18.0-0.47","6365","approach_avoid_sv1","""event"",""trial"",""time""
""fullscreenenter"",""1"",""2201""
","
","
","""event"",""trial"",""time""
""fullscreenenter"",""1"",""2201""
","
","","","","","","null","<div style=""font-size:60px;"">+</div>","null","","fixation","","",""
"memory-trial","139","403768","0.0-18.0-1.47","6365","approach_avoid_sv1","""event"",""trial"",""time""
""fullscreenenter"",""1"",""2201""
","
","
","""event"",""trial"",""time""
""fullscreenenter"",""1"",""2201""
","
","","","","","","758.9000000059605","images/sheep1.png","","","memory_trial","1","definitely_old",""
"html-keyboard-response","140","404278","0.0-18.0-0.48","6365","approach_avoid_sv1","""event"",""trial"",""time""
""fullscreenenter"",""1"",""2201""
","
","
","""event"",""trial"",""time""
""fullscreenenter"",""1"",""2201""
","
","","","","","","null","<div style=""font-size:60px;"">+</div>","null","","fixation","","",""
"memory-trial","141","408840","0.0-18.0-1.48","6365","approach_avoid_sv1","""event"",""trial"",""time""
""fullscreenenter"",""1"",""2201""
","
","
","""event"",""trial"",""time""
""fullscreenenter"",""1"",""2201""
","
","","","","","","3554.9000000059605","images/tree8.png","","","memory_trial","2","maybe_old",""
"html-keyboard-response","142","409342","0.0-18.0-0.49","6365","approach_avoid_sv1","""event"",""trial"",""time""
""fullscreenenter"",""1"",""2201""
","
","
","""event"",""trial"",""time""
""fullscreenenter"",""1"",""2201""
","
","","","","","","null","<div style=""font-size:60px;"">+</div>","null","","fixation","","",""
"memory-trial","143","412577","0.0-18.0-1.49","6365","approach_avoid_sv1","""event"",""trial"",""time""
""fullscreenenter"",""1"",""2201""
","
","
","""event"",""trial"",""time""
""fullscreenenter"",""1"",""2201""
","
","","","","","","2226.9000000059605","images/apple4.png","","","memory_trial","2","maybe_old",""
"html-keyboard-response","144","413087","0.0-18.0-0.50","6365","approach_avoid_sv1","""event"",""trial"",""time""
""fullscreenenter"",""1"",""2201""
","
","
","""event"",""trial"",""time""
""fullscreenenter"",""1"",""2201""
","
","","","","","","null","<div style=""font-size:60px;"">+</div>","null","","fixation","","",""
"memory-trial","145","417179","0.0-18.0-1.50","6365","approach_avoid_sv1","""event"",""trial"",""time""
""fullscreenenter"",""1"",""2201""
","
","
","""event"",""trial"",""time""
""fullscreenenter"",""1"",""2201""
","
","","","","","","3087.4000000059605","images/truck3.png","","","memory_trial","3","maybe_new",""
"html-keyboard-response","146","417693","0.0-18.0-0.51","6365","approach_avoid_sv1","""event"",""trial"",""time""
""fullscreenenter"",""1"",""2201""
","
","
","""event"",""trial"",""time""
""fullscreenenter"",""1"",""2201""
","
","","","","","","null","<div style=""font-size:60px;"">+</div>","null","","fixation","","",""
"memory-trial","147","419708","0.0-18.0-1.51","6365","approach_avoid_sv1","""event"",""trial"",""time""
""fullscreenenter"",""1"",""2201""
","
","
","""event"",""trial"",""time""
""fullscreenenter"",""1"",""2201""
","
","","","","","","1000.2999999970198","images/cow3.png","","","memory_trial","1","definitely_old",""
"html-keyboard-response","148","420216","0.0-18.0-0.52","6365","approach_avoid_sv1","""event"",""trial"",""time""
""fullscreenenter"",""1"",""2201""
","
","
","""event"",""trial"",""time""
""fullscreenenter"",""1"",""2201""
","
","","","","","","null","<div style=""font-size:60px;"">+</div>","null","","fixation","","",""
"memory-trial","149","422247","0.0-18.0-1.52","6365","approach_avoid_sv1","""event"",""trial"",""time""
""fullscreenenter"",""1"",""2201""
","
","
","""event"",""trial"",""time""
""fullscreenenter"",""1"",""2201""
","
","","","","","","1019.0999999940395","images/sofa8.png","","","memory_trial","1","definitely_old",""
"html-keyboard-response","150","422750","0.0-18.0-0.53","6365","approach_avoid_sv1","""event"",""trial"",""time""
""fullscreenenter"",""1"",""2201""
","
","
","""event"",""trial"",""time""
""fullscreenenter"",""1"",""2201""
","
","","","","","","null","<div style=""font-size:60px;"">+</div>","null","","fixation","","",""
"memory-trial","151","426203","0.0-18.0-1.53","6365","approach_avoid_sv1","""event"",""trial"",""time""
""fullscreenenter"",""1"",""2201""
","
","
","""event"",""trial"",""time""
""fullscreenenter"",""1"",""2201""
","
","","","","","","2437.7000000029802","images/rabbit5.png","","","memory_trial","3","maybe_new",""
"html-keyboard-response","152","426718","0.0-18.0-0.54","6365","approach_avoid_sv1","""event"",""trial"",""time""
""fullscreenenter"",""1"",""2201""
","
","
","""event"",""trial"",""time""
""fullscreenenter"",""1"",""2201""
","
","","","","","","null","<div style=""font-size:60px;"">+</div>","null","","fixation","","",""
"memory-trial","153","428814","0.0-18.0-1.54","6365","approach_avoid_sv1","""event"",""trial"",""time""
""fullscreenenter"",""1"",""2201""
","
","
","""event"",""trial"",""time""
""fullscreenenter"",""1"",""2201""
","
","","","","","","1093","images/tree2.png","","","memory_trial","1","definitely_old",""
"html-keyboard-response","154","429322","0.0-18.0-0.55","6365","approach_avoid_sv1","""event"",""trial"",""time""
""fullscreenenter"",""1"",""2201""
","
","
","""event"",""trial"",""time""
""fullscreenenter"",""1"",""2201""
","
","","","","","","null","<div style=""font-size:60px;"">+</div>","null","","fixation","","",""
"memory-trial","155","431195","0.0-18.0-1.55","6365","approach_avoid_sv1","""event"",""trial"",""time""
""fullscreenenter"",""1"",""2201""
","
","
","""event"",""trial"",""time""
""fullscreenenter"",""1"",""2201""
","
","","","","","","868.6000000089407","images/banana3.png","","","memory_trial","1","definitely_old",""
"html-keyboard-response","156","431711","0.0-18.0-0.56","6365","approach_avoid_sv1","""event"",""trial"",""time""
""fullscreenenter"",""1"",""2201""
","
","
","""event"",""trial"",""time""
""fullscreenenter"",""1"",""2201""
","
","","","","","","null","<div style=""font-size:60px;"">+</div>","null","","fixation","","",""
"memory-trial","157","433537","0.0-18.0-1.56","6365","approach_avoid_sv1","""event"",""trial"",""time""
""fullscreenenter"",""1"",""2201""
","
","
","""event"",""trial"",""time""
""fullscreenenter"",""1"",""2201""
","
","","","","","","816.1000000089407","images/table6.png","","","memory_trial","1","definitely_old",""
"html-keyboard-response","158","434038","0.0-18.0-0.57","6365","approach_avoid_sv1","""event"",""trial"",""time""
""fullscreenenter"",""1"",""2201""
","
","
","""event"",""trial"",""time""
""fullscreenenter"",""1"",""2201""
","
","","","","","","null","<div style=""font-size:60px;"">+</div>","null","","fixation","","",""
"memory-trial","159","436391","0.0-18.0-1.57","6365","approach_avoid_sv1","""event"",""trial"",""time""
""fullscreenenter"",""1"",""2201""
","
","
","""event"",""trial"",""time""
""fullscreenenter"",""1"",""2201""
","
","","","","","","1346.5","images/dog1.png","","","memory_trial","4","definitely_new",""
"html-keyboard-response","160","436901","0.0-18.0-0.58","6365","approach_avoid_sv1","""event"",""trial"",""time""
""fullscreenenter"",""1"",""2201""
","
","
","""event"",""trial"",""time""
""fullscreenenter"",""1"",""2201""
","
","","","","","","null","<div style=""font-size:60px;"">+</div>","null","","fixation","","",""
"memory-trial","161","438861","0.0-18.0-1.58","6365","approach_avoid_sv1","""event"",""trial"",""time""
""fullscreenenter"",""1"",""2201""
","
","
","""event"",""trial"",""time""
""fullscreenenter"",""1"",""2201""
","
","","","","","","950","images/straw8.png","","","memory_trial","1","definitely_old",""
"html-keyboard-response","162","439364","0.0-18.0-0.59","6365","approach_avoid_sv1","""event"",""trial"",""time""
""fullscreenenter"",""1"",""2201""
","
","
","""event"",""trial"",""time""
""fullscreenenter"",""1"",""2201""
","
","","","","","","null","<div style=""font-size:60px;"">+</div>","null","","fixation","","",""
"memory-trial","163","441225","0.0-18.0-1.59","6365","approach_avoid_sv1","""event"",""trial"",""time""
""fullscreenenter"",""1"",""2201""
","
","
","""event"",""trial"",""time""
""fullscreenenter"",""1"",""2201""
","
","","","","","","858.2999999970198","images/cow2.png","","","memory_trial","1","definitely_old",""
"html-keyboard-response","164","441729","0.0-18.0-0.60","6365","approach_avoid_sv1","""event"",""trial"",""time""
""fullscreenenter"",""1"",""2201""
","
","
","""event"",""trial"",""time""
""fullscreenenter"",""1"",""2201""
","
","","","","","","null","<div style=""font-size:60px;"">+</div>","null","","fixation","","",""
"memory-trial","165","444285","0.0-18.0-1.60","6365","approach_avoid_sv1","""event"",""trial"",""time""
""fullscreenenter"",""1"",""2201""
","
","
","""event"",""trial"",""time""
""fullscreenenter"",""1"",""2201""
","
","","","","","","1545.8999999910593","images/cow1.png","","","memory_trial","3","maybe_new",""
"html-keyboard-response","166","444789","0.0-18.0-0.61","6365","approach_avoid_sv1","""event"",""trial"",""time""
""fullscreenenter"",""1"",""2201""
","
","
","""event"",""trial"",""time""
""fullscreenenter"",""1"",""2201""
","
","","","","","","null","<div style=""font-size:60px;"">+</div>","null","","fixation","","",""
"memory-trial","167","447840","0.0-18.0-1.61","6365","approach_avoid_sv1","""event"",""trial"",""time""
""fullscreenenter"",""1"",""2201""
","
","
","""event"",""trial"",""time""
""fullscreenenter"",""1"",""2201""
","
","","","","","","2048","images/cactus2.png","","","memory_trial","2","maybe_old",""
"html-keyboard-response","168","448343","0.0-18.0-0.62","6365","approach_avoid_sv1","""event"",""trial"",""time""
""fullscreenenter"",""1"",""2201""
","
","
","""event"",""trial"",""time""
""fullscreenenter"",""1"",""2201""
","
","","","","","","null","<div style=""font-size:60px;"">+</div>","null","","fixation","","",""
"memory-trial","169","452711","0.0-18.0-1.62","6365","approach_avoid_sv1","""event"",""trial"",""time""
""fullscreenenter"",""1"",""2201""
","
","
","""event"",""trial"",""time""
""fullscreenenter"",""1"",""2201""
","
","","","","","","3363.6000000089407","images/straw5.png","","","memory_trial","2","maybe_old",""
"html-keyboard-response","170","453219","0.0-18.0-0.63","6365","approach_avoid_sv1","""event"",""trial"",""time""
""fullscreenenter"",""1"",""2201""
","
","
","""event"",""trial"",""time""
""fullscreenenter"",""1"",""2201""
","
","","","","","","null","<div style=""font-size:60px;"">+</div>","null","","fixation","","",""
"memory-trial","171","456438","0.0-18.0-1.63","6365","approach_avoid_sv1","""event"",""trial"",""time""
""fullscreenenter"",""1"",""2201""
","
","
","""event"",""trial"",""time""
""fullscreenenter"",""1"",""2201""
","
","","","","","","2210.2000000029802","images/flower5.png","","","memory_trial","3","maybe_new",""
"html-keyboard-response","172","456954","0.0-18.0-0.64","6365","approach_avoid_sv1","""event"",""trial"",""time""
""fullscreenenter"",""1"",""2201""
","
","
","""event"",""trial"",""time""
""fullscreenenter"",""1"",""2201""
","
","","","","","","null","<div style=""font-size:60px;"">+</div>","null","","fixation","","",""
"memory-trial","173","461047","0.0-18.0-1.64","6365","approach_avoid_sv1","""event"",""trial"",""time""
""fullscreenenter"",""1"",""2201""
","
","
","""event"",""trial"",""time""
""fullscreenenter"",""1"",""2201""
","
","","","","","","3086.800000011921","images/sofa2.png","","","memory_trial","2","maybe_old",""
"html-keyboard-response","174","461563","0.0-18.0-0.65","6365","approach_avoid_sv1","""event"",""trial"",""time""
""fullscreenenter"",""1"",""2201""
","
","
","""event"",""trial"",""time""
""fullscreenenter"",""1"",""2201""
","
","","","","","","null","<div style=""font-size:60px;"">+</div>","null","","fixation","","",""
"memory-trial","175","463947","0.0-18.0-1.65","6365","approach_avoid_sv1","""event"",""trial"",""time""
""fullscreenenter"",""1"",""2201""
","
","
","""event"",""trial"",""time""
""fullscreenenter"",""1"",""2201""
","
","","","","","","1378.300000011921","images/rodent2.png","","","memory_trial","3","maybe_new",""
"html-keyboard-response","176","464455","0.0-18.0-0.66","6365","approach_avoid_sv1","""event"",""trial"",""time""
""fullscreenenter"",""1"",""2201""
","
","
","""event"",""trial"",""time""
""fullscreenenter"",""1"",""2201""
","
","","","","","","null","<div style=""font-size:60px;"">+</div>","null","","fixation","","",""
"memory-trial","177","466897","0.0-18.0-1.66","6365","approach_avoid_sv1","""event"",""trial"",""time""
""fullscreenenter"",""1"",""2201""
","
","
","""event"",""trial"",""time""
""fullscreenenter"",""1"",""2201""
","
","","","","","","1433","images/straw2.png","","","memory_trial","2","maybe_old",""
"html-keyboard-response","178","467400","0.0-18.0-0.67","6365","approach_avoid_sv1","""event"",""trial"",""time""
""fullscreenenter"",""1"",""2201""
","
","
","""event"",""trial"",""time""
""fullscreenenter"",""1"",""2201""
","
","","","","","","null","<div style=""font-size:60px;"">+</div>","null","","fixation","","",""
"memory-trial","179","469316","0.0-18.0-1.67","6365","approach_avoid_sv1","""event"",""trial"",""time""
""fullscreenenter"",""1"",""2201""
","
","
","""event"",""trial"",""time""
""fullscreenenter"",""1"",""2201""
","
","","","","","","897.7000000029802","images/flower4.png","","","memory_trial","1","definitely_old",""
"html-keyboard-response","180","469822","0.0-18.0-0.68","6365","approach_avoid_sv1","""event"",""trial"",""time""
""fullscreenenter"",""1"",""2201""
","
","
","""event"",""trial"",""time""
""fullscreenenter"",""1"",""2201""
","
","","","","","","null","<div style=""font-size:60px;"">+</div>","null","","fixation","","",""
"memory-trial","181","472633","0.0-18.0-1.68","6365","approach_avoid_sv1","""event"",""trial"",""time""
""fullscreenenter"",""1"",""2201""
","
","
","""event"",""trial"",""time""
""fullscreenenter"",""1"",""2201""
","
","","","","","","1805.0999999940395","images/sofa1.png","","","memory_trial","3","maybe_new",""
"html-keyboard-response","182","473136","0.0-18.0-0.69","6365","approach_avoid_sv1","""event"",""trial"",""time""
""fullscreenenter"",""1"",""2201""
","
","
","""event"",""trial"",""time""
""fullscreenenter"",""1"",""2201""
","
","","","","","","null","<div style=""font-size:60px;"">+</div>","null","","fixation","","",""
"memory-trial","183","475698","0.0-18.0-1.69","6365","approach_avoid_sv1","""event"",""trial"",""time""
""fullscreenenter"",""1"",""2201""
","
","
","""event"",""trial"",""time""
""fullscreenenter"",""1"",""2201""
","
","","","","","","1553.6000000089407","images/straw1.png","","","memory_trial","2","maybe_old",""
"html-keyboard-response","184","476205","0.0-18.0-0.70","6365","approach_avoid_sv1","""event"",""trial"",""time""
""fullscreenenter"",""1"",""2201""
","
","
","""event"",""trial"",""time""
""fullscreenenter"",""1"",""2201""
","
","","","","","","null","<div style=""font-size:60px;"">+</div>","null","","fixation","","",""
"memory-trial","185","477957","0.0-18.0-1.70","6365","approach_avoid_sv1","""event"",""trial"",""time""
""fullscreenenter"",""1"",""2201""
","
","
","""event"",""trial"",""time""
""fullscreenenter"",""1"",""2201""
","
","","","","","","737.5999999940395","images/plane6.png","","","memory_trial","1","definitely_old",""
"html-keyboard-response","186","478459","0.0-18.0-0.71","6365","approach_avoid_sv1","""event"",""trial"",""time""
""fullscreenenter"",""1"",""2201""
","
","
","""event"",""trial"",""time""
""fullscreenenter"",""1"",""2201""
","
","","","","","","null","<div style=""font-size:60px;"">+</div>","null","","fixation","","",""
"memory-trial","187","483689","0.0-18.0-1.71","6365","approach_avoid_sv1","""event"",""trial"",""time""
""fullscreenenter"",""1"",""2201""
","
","
","""event"",""trial"",""time""
""fullscreenenter"",""1"",""2201""
","
","","","","","","4216.0999999940395","images/orange1.png","","","memory_trial","3","maybe_new",""
"html-keyboard-response","188","484195","0.0-18.0-0.72","6365","approach_avoid_sv1","""event"",""trial"",""time""
""fullscreenenter"",""1"",""2201""
","
","
","""event"",""trial"",""time""
""fullscreenenter"",""1"",""2201""
","
","","","","","","null","<div style=""font-size:60px;"">+</div>","null","","fixation","","",""
"memory-trial","189","486020","0.0-18.0-1.72","6365","approach_avoid_sv1","""event"",""trial"",""time""
""fullscreenenter"",""1"",""2201""
","
","
","""event"",""trial"",""time""
""fullscreenenter"",""1"",""2201""
","
","","","","","","819.7999999970198","images/table8.png","","","memory_trial","1","definitely_old",""
"html-keyboard-response","190","486521","0.0-18.0-0.73","6365","approach_avoid_sv1","""event"",""trial"",""time""
""fullscreenenter"",""1"",""2201""
","
","
","""event"",""trial"",""time""
""fullscreenenter"",""1"",""2201""
","
","","","","","","null","<div style=""font-size:60px;"">+</div>","null","","fixation","","",""
"memory-trial","191","489302","0.0-18.0-1.73","6365","approach_avoid_sv1","""event"",""trial"",""time""
""fullscreenenter"",""1"",""2201""
","
","
","""event"",""trial"",""time""
""fullscreenenter"",""1"",""2201""
","
","","","","","","1775.6000000089407","images/sheep4.png","","","memory_trial","2","maybe_old",""
"html-keyboard-response","192","489807","0.0-18.0-0.74","6365","approach_avoid_sv1","""event"",""trial"",""time""
""fullscreenenter"",""1"",""2201""
","
","
","""event"",""trial"",""time""
""fullscreenenter"",""1"",""2201""
","
","","","","","","null","<div style=""font-size:60px;"">+</div>","null","","fixation","","",""
"memory-trial","193","493430","0.0-18.0-1.74","6365","approach_avoid_sv1","""event"",""trial"",""time""
""fullscreenenter"",""1"",""2201""
","
","
","""event"",""trial"",""time""
""fullscreenenter"",""1"",""2201""
","
","","","","","","2614.1000000089407","images/cactus7.png","","","memory_trial","2","maybe_old",""
"html-keyboard-response","194","493936","0.0-18.0-0.75","6365","approach_avoid_sv1","""event"",""trial"",""time""
""fullscreenenter"",""1"",""2201""
","
","
","""event"",""trial"",""time""
""fullscreenenter"",""1"",""2201""
","
","","","","","","null","<div style=""font-size:60px;"">+</div>","null","","fixation","","",""
"memory-trial","195","496061","0.0-18.0-1.75","6365","approach_avoid_sv1","""event"",""trial"",""time""
""fullscreenenter"",""1"",""2201""
","
","
","""event"",""trial"",""time""
""fullscreenenter"",""1"",""2201""
","
","","","","","","1118.5","images/flower1.png","","","memory_trial","2","maybe_old",""
"html-keyboard-response","196","496569","0.0-18.0-0.76","6365","approach_avoid_sv1","""event"",""trial"",""time""
""fullscreenenter"",""1"",""2201""
","
","
","""event"",""trial"",""time""
""fullscreenenter"",""1"",""2201""
","
","","","","","","null","<div style=""font-size:60px;"">+</div>","null","","fixation","","",""
"memory-trial","197","498516","0.0-18.0-1.76","6365","approach_avoid_sv1","""event"",""trial"",""time""
""fullscreenenter"",""1"",""2201""
","
","
","""event"",""trial"",""time""
""fullscreenenter"",""1"",""2201""
","
","","","","","","937.2000000029802","images/flower3.png","","","memory_trial","1","definitely_old",""
"html-keyboard-response","198","499024","0.0-18.0-0.77","6365","approach_avoid_sv1","""event"",""trial"",""time""
""fullscreenenter"",""1"",""2201""
","
","
","""event"",""trial"",""time""
""fullscreenenter"",""1"",""2201""
","
","","","","","","null","<div style=""font-size:60px;"">+</div>","null","","fixation","","",""
"memory-trial","199","500795","0.0-18.0-1.77","6365","approach_avoid_sv1","""event"",""trial"",""time""
""fullscreenenter"",""1"",""2201""
","
","
","""event"",""trial"",""time""
""fullscreenenter"",""1"",""2201""
","
","","","","","","756.5999999940395","images/tree6.png","","","memory_trial","1","definitely_old",""
"html-keyboard-response","200","501304","0.0-18.0-0.78","6365","approach_avoid_sv1","""event"",""trial"",""time""
""fullscreenenter"",""1"",""2201""
","
","
","""event"",""trial"",""time""
""fullscreenenter"",""1"",""2201""
","
","","","","","","null","<div style=""font-size:60px;"">+</div>","null","","fixation","","",""
"memory-trial","201","502949","0.0-18.0-1.78","6365","approach_avoid_sv1","""event"",""trial"",""time""
""fullscreenenter"",""1"",""2201""
","
","
","""event"",""trial"",""time""
""fullscreenenter"",""1"",""2201""
","
","","","","","","636.2000000029802","images/boat6.png","","","memory_trial","1","definitely_old",""
"html-keyboard-response","202","503455","0.0-18.0-0.79","6365","approach_avoid_sv1","""event"",""trial"",""time""
""fullscreenenter"",""1"",""2201""
","
","
","""event"",""trial"",""time""
""fullscreenenter"",""1"",""2201""
","
","","","","","","null","<div style=""font-size:60px;"">+</div>","null","","fixation","","",""
"memory-trial","203","505575","0.0-18.0-1.79","6365","approach_avoid_sv1","""event"",""trial"",""time""
""fullscreenenter"",""1"",""2201""
","
","
","""event"",""trial"",""time""
""fullscreenenter"",""1"",""2201""
","
","","","","","","1107.2000000029802","images/bed1.png","","","memory_trial","1","definitely_old",""
"html-keyboard-response","204","506093","0.0-18.0-0.80","6365","approach_avoid_sv1","""event"",""trial"",""time""
""fullscreenenter"",""1"",""2201""
","
","
","""event"",""trial"",""time""
""fullscreenenter"",""1"",""2201""
","
","","","","","","null","<div style=""font-size:60px;"">+</div>","null","","fixation","","",""
"memory-trial","205","507819","0.0-18.0-1.80","6365","approach_avoid_sv1","""event"",""trial"",""time""
""fullscreenenter"",""1"",""2201""
","
","
","""event"",""trial"",""time""
""fullscreenenter"",""1"",""2201""
","
","","","","","","718.2000000029802","images/boat1.png","","","memory_trial","1","definitely_old",""
"html-keyboard-response","206","508332","0.0-18.0-0.81","6365","approach_avoid_sv1","""event"",""trial"",""time""
""fullscreenenter"",""1"",""2201""
","
","
","""event"",""trial"",""time""
""fullscreenenter"",""1"",""2201""
","
","","","","","","null","<div style=""font-size:60px;"">+</div>","null","","fixation","","",""
"memory-trial","207","510230","0.0-18.0-1.81","6365","approach_avoid_sv1","""event"",""trial"",""time""
""fullscreenenter"",""1"",""2201""
","
","
","""event"",""trial"",""time""
""fullscreenenter"",""1"",""2201""
","
","","","","","","895.2000000029802","images/table5.png","","","memory_trial","1","definitely_old",""
"html-keyboard-response","208","510742","0.0-18.0-0.82","6365","approach_avoid_sv1","""event"",""trial"",""time""
""fullscreenenter"",""1"",""2201""
","
","
","""event"",""trial"",""time""
""fullscreenenter"",""1"",""2201""
","
","","","","","","null","<div style=""font-size:60px;"">+</div>","null","","fixation","","",""
"memory-trial","209","515140","0.0-18.0-1.82","6365","approach_avoid_sv1","""event"",""trial"",""time""
""fullscreenenter"",""1"",""2201""
","
","
","""event"",""trial"",""time""
""fullscreenenter"",""1"",""2201""
","
","","","","","","3392.2999999970198","images/train3.png","","","memory_trial","3","maybe_new",""
"html-keyboard-response","210","515645","0.0-18.0-0.83","6365","approach_avoid_sv1","""event"",""trial"",""time""
""fullscreenenter"",""1"",""2201""
","
","
","""event"",""trial"",""time""
""fullscreenenter"",""1"",""2201""
","
","","","","","","null","<div style=""font-size:60px;"">+</div>","null","","fixation","","",""
"memory-trial","211","517690","0.0-18.0-1.83","6365","approach_avoid_sv1","""event"",""trial"",""time""
""fullscreenenter"",""1"",""2201""
","
","
","""event"",""trial"",""time""
""fullscreenenter"",""1"",""2201""
","
","","","","","","1042","images/cactus8.png","","","memory_trial","3","maybe_new",""
"html-keyboard-response","212","518195","0.0-18.0-0.84","6365","approach_avoid_sv1","""event"",""trial"",""time""
""fullscreenenter"",""1"",""2201""
","
","
","""event"",""trial"",""time""
""fullscreenenter"",""1"",""2201""
","
","","","","","","null","<div style=""font-size:60px;"">+</div>","null","","fixation","","",""
"memory-trial","213","520071","0.0-18.0-1.84","6365","approach_avoid_sv1","""event"",""trial"",""time""
""fullscreenenter"",""1"",""2201""
","
","
","""event"",""trial"",""time""
""fullscreenenter"",""1"",""2201""
","
","","","","","","872.5","images/plane7.png","","","memory_trial","1","definitely_old",""
"html-keyboard-response","214","520581","0.0-18.0-0.85","6365","approach_avoid_sv1","""event"",""trial"",""time""
""fullscreenenter"",""1"",""2201""
","
","
","""event"",""trial"",""time""
""fullscreenenter"",""1"",""2201""
","
","","","","","","null","<div style=""font-size:60px;"">+</div>","null","","fixation","","",""
"memory-trial","215","523427","0.0-18.0-1.85","6365","approach_avoid_sv1","""event"",""trial"",""time""
""fullscreenenter"",""1"",""2201""
","
","
","""event"",""trial"",""time""
""fullscreenenter"",""1"",""2201""
","
","","","","","","1835.5","images/boat4.png","","","memory_trial","4","definitely_new",""
"html-keyboard-response","216","523931","0.0-18.0-0.86","6365","approach_avoid_sv1","""event"",""trial"",""time""
""fullscreenenter"",""1"",""2201""
","
","
","""event"",""trial"",""time""
""fullscreenenter"",""1"",""2201""
","
","","","","","","null","<div style=""font-size:60px;"">+</div>","null","","fixation","","",""
"memory-trial","217","526029","0.0-18.0-1.86","6365","approach_avoid_sv1","""event"",""trial"",""time""
""fullscreenenter"",""1"",""2201""
","
","
","""event"",""trial"",""time""
""fullscreenenter"",""1"",""2201""
","
","","","","","","1087.2000000029802","images/tree4.png","","","memory_trial","1","definitely_old",""
"html-keyboard-response","218","526533","0.0-18.0-0.87","6365","approach_avoid_sv1","""event"",""trial"",""time""
""fullscreenenter"",""1"",""2201""
","
","
","""event"",""trial"",""time""
""fullscreenenter"",""1"",""2201""
","
","","","","","","null","<div style=""font-size:60px;"">+</div>","null","","fixation","","",""
"memory-trial","219","529016","0.0-18.0-1.87","6365","approach_avoid_sv1","""event"",""trial"",""time""
""fullscreenenter"",""1"",""2201""
","
","
","""event"",""trial"",""time""
""fullscreenenter"",""1"",""2201""
","
","","","","","","1476.8999999910593","images/cat6.png","","","memory_trial","3","maybe_new",""
"html-keyboard-response","220","529522","0.0-18.0-0.88","6365","approach_avoid_sv1","""event"",""trial"",""time""
""fullscreenenter"",""1"",""2201""
","
","
","""event"",""trial"",""time""
""fullscreenenter"",""1"",""2201""
","
","","","","","","null","<div style=""font-size:60px;"">+</div>","null","","fixation","","",""
"memory-trial","221","536965","0.0-18.0-1.88","6365","approach_avoid_sv1","""event"",""trial"",""time""
""fullscreenenter"",""1"",""2201""
","
","
","""event"",""trial"",""time""
""fullscreenenter"",""1"",""2201""
","
","","","","","","6432.300000011921","images/table2.png","","","memory_trial","3","maybe_new",""
"html-keyboard-response","222","537469","0.0-18.0-0.89","6365","approach_avoid_sv1","""event"",""trial"",""time""
""fullscreenenter"",""1"",""2201""
","
","
","""event"",""trial"",""time""
""fullscreenenter"",""1"",""2201""
","
","","","","","","null","<div style=""font-size:60px;"">+</div>","null","","fixation","","",""
"memory-trial","223","539716","0.0-18.0-1.89","6365","approach_avoid_sv1","""event"",""trial"",""time""
""fullscreenenter"",""1"",""2201""
","
","
","""event"",""trial"",""time""
""fullscreenenter"",""1"",""2201""
","
","","","","","","1228.2000000029802","images/rodent4.png","","","memory_trial","3","maybe_new",""
"html-keyboard-response","224","540233","0.0-18.0-0.90","6365","approach_avoid_sv1","""event"",""trial"",""time""
""fullscreenenter"",""1"",""2201""
","
","
","""event"",""trial"",""time""
""fullscreenenter"",""1"",""2201""
","
","","","","","","null","<div style=""font-size:60px;"">+</div>","null","","fixation","","",""
"memory-trial","225","542545","0.0-18.0-1.90","6365","approach_avoid_sv1","""event"",""trial"",""time""
""fullscreenenter"",""1"",""2201""
","
","
","""event"",""trial"",""time""
""fullscreenenter"",""1"",""2201""
","
","","","","","","1309.8999999910593","images/dog3.png","","","memory_trial","1","definitely_old",""
"html-keyboard-response","226","543049","0.0-18.0-0.91","6365","approach_avoid_sv1","""event"",""trial"",""time""
""fullscreenenter"",""1"",""2201""
","
","
","""event"",""trial"",""time""
""fullscreenenter"",""1"",""2201""
","
","","","","","","null","<div style=""font-size:60px;"">+</div>","null","","fixation","","",""
"memory-trial","227","545155","0.0-18.0-1.91","6365","approach_avoid_sv1","""event"",""trial"",""time""
""fullscreenenter"",""1"",""2201""
","
","
","""event"",""trial"",""time""
""fullscreenenter"",""1"",""2201""
","
","","","","","","1096.7000000029802","images/boat5.png","","","memory_trial","1","definitely_old",""
"html-button-response","228","554439","0.0-18.0-2.91-0.91","6365","approach_avoid_sv1","""event"",""trial"",""time""
""fullscreenenter"",""1"",""2201""
","
","
","""event"",""trial"",""time""
""fullscreenenter"",""1"",""2201""
","
","","","","","","9282.90000000596","<p> Take a break! </p><p> Click the button to continue. </p>","0","","break","","",""
"html-keyboard-response","229","554942","0.0-18.0-0.92","6365","approach_avoid_sv1","""event"",""trial"",""time""
""fullscreenenter"",""1"",""2201""
","
","
","""event"",""trial"",""time""
""fullscreenenter"",""1"",""2201""
","
","","","","","","null","<div style=""font-size:60px;"">+</div>","null","","fixation","","",""
"memory-trial","230","556941","0.0-18.0-1.92","6365","approach_avoid_sv1","""event"",""trial"",""time""
""fullscreenenter"",""1"",""2201""
","
","
","""event"",""trial"",""time""
""fullscreenenter"",""1"",""2201""
","
","","","","","","993.4000000059605","images/apple6.png","","","memory_trial","1","definitely_old",""
"html-keyboard-response","231","557452","0.0-18.0-0.93","6365","approach_avoid_sv1","""event"",""trial"",""time""
""fullscreenenter"",""1"",""2201""
","
","
","""event"",""trial"",""time""
""fullscreenenter"",""1"",""2201""
","
","","","","","","null","<div style=""font-size:60px;"">+</div>","null","","fixation","","",""
"memory-trial","232","559384","0.0-18.0-1.93","6365","approach_avoid_sv1","""event"",""trial"",""time""
""fullscreenenter"",""1"",""2201""
","
","
","""event"",""trial"",""time""
""fullscreenenter"",""1"",""2201""
","
","","","","","","929.5","images/tree7.png","","","memory_trial","1","definitely_old",""
"html-keyboard-response","233","559900","0.0-18.0-0.94","6365","approach_avoid_sv1","""event"",""trial"",""time""
""fullscreenenter"",""1"",""2201""
","
","
","""event"",""trial"",""time""
""fullscreenenter"",""1"",""2201""
","
","","","","","","null","<div style=""font-size:60px;"">+</div>","null","","fixation","","",""
"memory-trial","234","562887","0.0-18.0-1.94","6365","approach_avoid_sv1","""event"",""trial"",""time""
""fullscreenenter"",""1"",""2201""
","
","
","""event"",""trial"",""time""
""fullscreenenter"",""1"",""2201""
","
","","","","","","1977.2999999970198","images/straw7.png","","","memory_trial","2","maybe_old",""
"html-keyboard-response","235","563390","0.0-18.0-0.95","6365","approach_avoid_sv1","""event"",""trial"",""time""
""fullscreenenter"",""1"",""2201""
","
","
","""event"",""trial"",""time""
""fullscreenenter"",""1"",""2201""
","
","","","","","","null","<div style=""font-size:60px;"">+</div>","null","","fixation","","",""
"memory-trial","236","565473","0.0-18.0-1.95","6365","approach_avoid_sv1","""event"",""trial"",""time""
""fullscreenenter"",""1"",""2201""
","
","
","""event"",""trial"",""time""
""fullscreenenter"",""1"",""2201""
","
","","","","","","1076","images/cow6.png","","","memory_trial","1","definitely_old",""
"html-keyboard-response","237","565984","0.0-18.0-0.96","6365","approach_avoid_sv1","""event"",""trial"",""time""
""fullscreenenter"",""1"",""2201""
","
","
","""event"",""trial"",""time""
""fullscreenenter"",""1"",""2201""
","
","","","","","","null","<div style=""font-size:60px;"">+</div>","null","","fixation","","",""
"memory-trial","238","570112","0.0-18.0-1.96","6365","approach_avoid_sv1","""event"",""trial"",""time""
""fullscreenenter"",""1"",""2201""
","
","
","""event"",""trial"",""time""
""fullscreenenter"",""1"",""2201""
","
","","","","","","3123.5","images/banana2.png","","","memory_trial","4","definitely_new",""
"html-keyboard-response","239","570614","0.0-18.0-0.97","6365","approach_avoid_sv1","""event"",""trial"",""time""
""fullscreenenter"",""1"",""2201""
","
","
","""event"",""trial"",""time""
""fullscreenenter"",""1"",""2201""
","
","","","","","","null","<div style=""font-size:60px;"">+</div>","null","","fixation","","",""
"memory-trial","240","573292","0.0-18.0-1.97","6365","approach_avoid_sv1","""event"",""trial"",""time""
""fullscreenenter"",""1"",""2201""
","
","
","""event"",""trial"",""time""
""fullscreenenter"",""1"",""2201""
","
","","","","","","1669.3999999910593","images/chair4.png","","","memory_trial","3","maybe_new",""
"html-keyboard-response","241","573795","0.0-18.0-0.98","6365","approach_avoid_sv1","""event"",""trial"",""time""
""fullscreenenter"",""1"",""2201""
","
","
","""event"",""trial"",""time""
""fullscreenenter"",""1"",""2201""
","
","","","","","","null","<div style=""font-size:60px;"">+</div>","null","","fixation","","",""
"memory-trial","242","576976","0.0-18.0-1.98","6365","approach_avoid_sv1","""event"",""trial"",""time""
""fullscreenenter"",""1"",""2201""
","
","
","""event"",""trial"",""time""
""fullscreenenter"",""1"",""2201""
","
","","","","","","2176.4000000059605","images/cactus3.png","","","memory_trial","3","maybe_new",""
"html-keyboard-response","243","577480","0.0-18.0-0.99","6365","approach_avoid_sv1","""event"",""trial"",""time""
""fullscreenenter"",""1"",""2201""
","
","
","""event"",""trial"",""time""
""fullscreenenter"",""1"",""2201""
","
","","","","","","null","<div style=""font-size:60px;"">+</div>","null","","fixation","","",""
"memory-trial","244","579926","0.0-18.0-1.99","6365","approach_avoid_sv1","""event"",""trial"",""time""
""fullscreenenter"",""1"",""2201""
","
","
","""event"",""trial"",""time""
""fullscreenenter"",""1"",""2201""
","
","","","","","","1435.0999999940395","images/cactus5.png","","","memory_trial","2","maybe_old",""
"html-keyboard-response","245","580431","0.0-18.0-0.100","6365","approach_avoid_sv1","""event"",""trial"",""time""
""fullscreenenter"",""1"",""2201""
","
","
","""event"",""trial"",""time""
""fullscreenenter"",""1"",""2201""
","
","","","","","","null","<div style=""font-size:60px;"">+</div>","null","","fixation","","",""
"memory-trial","246","583147","0.0-18.0-1.100","6365","approach_avoid_sv1","""event"",""trial"",""time""
""fullscreenenter"",""1"",""2201""
","
","
","""event"",""trial"",""time""
""fullscreenenter"",""1"",""2201""
","
","","","","","","1706.7999999970198","images/horse7.png","","","memory_trial","3","maybe_new",""
"html-keyboard-response","247","583654","0.0-18.0-0.101","6365","approach_avoid_sv1","""event"",""trial"",""time""
""fullscreenenter"",""1"",""2201""
","
","
","""event"",""trial"",""time""
""fullscreenenter"",""1"",""2201""
","
","","","","","","null","<div style=""font-size:60px;"">+</div>","null","","fixation","","",""
"memory-trial","248","586303","0.0-18.0-1.101","6365","approach_avoid_sv1","""event"",""trial"",""time""
""fullscreenenter"",""1"",""2201""
","
","
","""event"",""trial"",""time""
""fullscreenenter"",""1"",""2201""
","
","","","","","","1639.300000011921","images/chair3.png","","","memory_trial","2","maybe_old",""
"html-keyboard-response","249","586812","0.0-18.0-0.102","6365","approach_avoid_sv1","""event"",""trial"",""time""
""fullscreenenter"",""1"",""2201""
","
","
","""event"",""trial"",""time""
""fullscreenenter"",""1"",""2201""
","
","","","","","","null","<div style=""font-size:60px;"">+</div>","null","","fixation","","",""
"memory-trial","250","588831","0.0-18.0-1.102","6365","approach_avoid_sv1","""event"",""trial"",""time""
""fullscreenenter"",""1"",""2201""
","
","
","""event"",""trial"",""time""
""fullscreenenter"",""1"",""2201""
","
","","","","","","1001.7999999970198","images/chair8.png","","","memory_trial","1","definitely_old",""
"html-keyboard-response","251","589341","0.0-18.0-0.103","6365","approach_avoid_sv1","""event"",""trial"",""time""
""fullscreenenter"",""1"",""2201""
","
","
","""event"",""trial"",""time""
""fullscreenenter"",""1"",""2201""
","
","","","","","","null","<div style=""font-size:60px;"">+</div>","null","","fixation","","",""
"memory-trial","252","591427","0.0-18.0-1.103","6365","approach_avoid_sv1","""event"",""trial"",""time""
""fullscreenenter"",""1"",""2201""
","
","
","""event"",""trial"",""time""
""fullscreenenter"",""1"",""2201""
","
","","","","","","1072.1000000089407","images/train4.png","","","memory_trial","3","maybe_new",""
"html-keyboard-response","253","591930","0.0-18.0-0.104","6365","approach_avoid_sv1","""event"",""trial"",""time""
""fullscreenenter"",""1"",""2201""
","
","
","""event"",""trial"",""time""
""fullscreenenter"",""1"",""2201""
","
","","","","","","null","<div style=""font-size:60px;"">+</div>","null","","fixation","","",""
"memory-trial","254","594337","0.0-18.0-1.104","6365","approach_avoid_sv1","""event"",""trial"",""time""
""fullscreenenter"",""1"",""2201""
","
","
","""event"",""trial"",""time""
""fullscreenenter"",""1"",""2201""
","
","","","","","","1403.1000000089407","images/dog7.png","","","memory_trial","3","maybe_new",""
"html-keyboard-response","255","594844","0.0-18.0-0.105","6365","approach_avoid_sv1","""event"",""trial"",""time""
""fullscreenenter"",""1"",""2201""
","
","
","""event"",""trial"",""time""
""fullscreenenter"",""1"",""2201""
","
","","","","","","null","<div style=""font-size:60px;"">+</div>","null","","fixation","","",""
"memory-trial","256","597141","0.0-18.0-1.105","6365","approach_avoid_sv1","""event"",""trial"",""time""
""fullscreenenter"",""1"",""2201""
","
","
","""event"",""trial"",""time""
""fullscreenenter"",""1"",""2201""
","
","","","","","","1281","images/plane1.png","","","memory_trial","4","definitely_new",""
"html-keyboard-response","257","597657","0.0-18.0-0.106","6365","approach_avoid_sv1","""event"",""trial"",""time""
""fullscreenenter"",""1"",""2201""
","
","
","""event"",""trial"",""time""
""fullscreenenter"",""1"",""2201""
","
","","","","","","null","<div style=""font-size:60px;"">+</div>","null","","fixation","","",""
"memory-trial","258","600244","0.0-18.0-1.106","6365","approach_avoid_sv1","""event"",""trial"",""time""
""fullscreenenter"",""1"",""2201""
","
","
","""event"",""trial"",""time""
""fullscreenenter"",""1"",""2201""
","
","","","","","","1580.9000000059605","images/banana5.png","","","memory_trial","2","maybe_old",""
"html-keyboard-response","259","600750","0.0-18.0-0.107","6365","approach_avoid_sv1","""event"",""trial"",""time""
""fullscreenenter"",""1"",""2201""
","
","
","""event"",""trial"",""time""
""fullscreenenter"",""1"",""2201""
","
","","","","","","null","<div style=""font-size:60px;"">+</div>","null","","fixation","","",""
"memory-trial","260","603587","0.0-18.0-1.107","6365","approach_avoid_sv1","""event"",""trial"",""time""
""fullscreenenter"",""1"",""2201""
","
","
","""event"",""trial"",""time""
""fullscreenenter"",""1"",""2201""
","
","","","","","","1824.699999988079","images/cat1.png","","","memory_trial","2","maybe_old",""
"html-keyboard-response","261","604094","0.0-18.0-0.108","6365","approach_avoid_sv1","""event"",""trial"",""time""
""fullscreenenter"",""1"",""2201""
","
","
","""event"",""trial"",""time""
""fullscreenenter"",""1"",""2201""
","
","","","","","","null","<div style=""font-size:60px;"">+</div>","null","","fixation","","",""
"memory-trial","262","606163","0.0-18.0-1.108","6365","approach_avoid_sv1","""event"",""trial"",""time""
""fullscreenenter"",""1"",""2201""
","
","
","""event"",""trial"",""time""
""fullscreenenter"",""1"",""2201""
","
","","","","","","1063.5","images/sheep6.png","","","memory_trial","1","definitely_old",""
"html-keyboard-response","263","606666","0.0-18.0-0.109","6365","approach_avoid_sv1","""event"",""trial"",""time""
""fullscreenenter"",""1"",""2201""
","
","
","""event"",""trial"",""time""
""fullscreenenter"",""1"",""2201""
","
","","","","","","null","<div style=""font-size:60px;"">+</div>","null","","fixation","","",""
"memory-trial","264","608530","0.0-18.0-1.109","6365","approach_avoid_sv1","""event"",""trial"",""time""
""fullscreenenter"",""1"",""2201""
","
","
","""event"",""trial"",""time""
""fullscreenenter"",""1"",""2201""
","
","","","","","","855.1999999880791","images/truck2.png","","","memory_trial","1","definitely_old",""
"html-keyboard-response","265","609033","0.0-18.0-0.110","6365","approach_avoid_sv1","""event"",""trial"",""time""
""fullscreenenter"",""1"",""2201""
","
","
","""event"",""trial"",""time""
""fullscreenenter"",""1"",""2201""
","
","","","","","","null","<div style=""font-size:60px;"">+</div>","null","","fixation","","",""
"memory-trial","266","610846","0.0-18.0-1.110","6365","approach_avoid_sv1","""event"",""trial"",""time""
""fullscreenenter"",""1"",""2201""
","
","
","""event"",""trial"",""time""
""fullscreenenter"",""1"",""2201""
","
","","","","","","809.3999999910593","images/chair6.png","","","memory_trial","1","definitely_old",""
"html-keyboard-response","267","611355","0.0-18.0-0.111","6365","approach_avoid_sv1","""event"",""trial"",""time""
""fullscreenenter"",""1"",""2201""
","
","
","""event"",""trial"",""time""
""fullscreenenter"",""1"",""2201""
","
","","","","","","null","<div style=""font-size:60px;"">+</div>","null","","fixation","","",""
"memory-trial","268","613550","0.0-18.0-1.111","6365","approach_avoid_sv1","""event"",""trial"",""time""
""fullscreenenter"",""1"",""2201""
","
","
","""event"",""trial"",""time""
""fullscreenenter"",""1"",""2201""
","
","","","","","","1184.199999988079","images/orange2.png","","","memory_trial","2","maybe_old",""
"html-keyboard-response","269","614060","0.0-18.0-0.112","6365","approach_avoid_sv1","""event"",""trial"",""time""
""fullscreenenter"",""1"",""2201""
","
","
","""event"",""trial"",""time""
""fullscreenenter"",""1"",""2201""
","
","","","","","","null","<div style=""font-size:60px;"">+</div>","null","","fixation","","",""
"memory-trial","270","616441","0.0-18.0-1.112","6365","approach_avoid_sv1","""event"",""trial"",""time""
""fullscreenenter"",""1"",""2201""
","
","
","""event"",""trial"",""time""
""fullscreenenter"",""1"",""2201""
","
","","","","","","1373.2999999970198","images/banana4.png","","","memory_trial","2","maybe_old",""
"html-keyboard-response","271","616951","0.0-18.0-0.113","6365","approach_avoid_sv1","""event"",""trial"",""time""
""fullscreenenter"",""1"",""2201""
","
","
","""event"",""trial"",""time""
""fullscreenenter"",""1"",""2201""
","
","","","","","","null","<div style=""font-size:60px;"">+</div>","null","","fixation","","",""
"memory-trial","272","618960","0.0-18.0-1.113","6365","approach_avoid_sv1","""event"",""trial"",""time""
""fullscreenenter"",""1"",""2201""
","
","
","""event"",""trial"",""time""
""fullscreenenter"",""1"",""2201""
","
","","","","","","1003.9000000059605","images/table1.png","","","memory_trial","1","definitely_old",""
"html-keyboard-response","273","619470","0.0-18.0-0.114","6365","approach_avoid_sv1","""event"",""trial"",""time""
""fullscreenenter"",""1"",""2201""
","
","
","""event"",""trial"",""time""
""fullscreenenter"",""1"",""2201""
","
","","","","","","null","<div style=""font-size:60px;"">+</div>","null","","fixation","","",""
"memory-trial","274","621179","0.0-18.0-1.114","6365","approach_avoid_sv1","""event"",""trial"",""time""
""fullscreenenter"",""1"",""2201""
","
","
","""event"",""trial"",""time""
""fullscreenenter"",""1"",""2201""
","
","","","","","","701.1999999880791","images/goat3.png","","","memory_trial","1","definitely_old",""
"html-keyboard-response","275","621685","0.0-18.0-0.115","6365","approach_avoid_sv1","""event"",""trial"",""time""
""fullscreenenter"",""1"",""2201""
","
","
","""event"",""trial"",""time""
""fullscreenenter"",""1"",""2201""
","
","","","","","","null","<div style=""font-size:60px;"">+</div>","null","","fixation","","",""
"memory-trial","276","623360","0.0-18.0-1.115","6365","approach_avoid_sv1","""event"",""trial"",""time""
""fullscreenenter"",""1"",""2201""
","
","
","""event"",""trial"",""time""
""fullscreenenter"",""1"",""2201""
","
","","","","","","670.2999999970198","images/cow4.png","","","memory_trial","1","definitely_old",""
"html-keyboard-response","277","623870","0.0-18.0-0.116","6365","approach_avoid_sv1","""event"",""trial"",""time""
""fullscreenenter"",""1"",""2201""
","
","
","""event"",""trial"",""time""
""fullscreenenter"",""1"",""2201""
","
","","","","","","null","<div style=""font-size:60px;"">+</div>","null","","fixation","","",""
"memory-trial","278","625584","0.0-18.0-1.116","6365","approach_avoid_sv1","""event"",""trial"",""time""
""fullscreenenter"",""1"",""2201""
","
","
","""event"",""trial"",""time""
""fullscreenenter"",""1"",""2201""
","
","","","","","","705.1000000089407","images/rodent3.png","","","memory_trial","1","definitely_old",""
"html-keyboard-response","279","626093","0.0-18.0-0.117","6365","approach_avoid_sv1","""event"",""trial"",""time""
""fullscreenenter"",""1"",""2201""
","
","
","""event"",""trial"",""time""
""fullscreenenter"",""1"",""2201""
","
","","","","","","null","<div style=""font-size:60px;"">+</div>","null","","fixation","","",""
"memory-trial","280","629839","0.0-18.0-1.117","6365","approach_avoid_sv1","""event"",""trial"",""time""
""fullscreenenter"",""1"",""2201""
","
","
","""event"",""trial"",""time""
""fullscreenenter"",""1"",""2201""
","
","","","","","","2730.4000000059605","images/cat3.png","","","memory_trial","3","maybe_new",""
"html-keyboard-response","281","630354","0.0-18.0-0.118","6365","approach_avoid_sv1","""event"",""trial"",""time""
""fullscreenenter"",""1"",""2201""
","
","
","""event"",""trial"",""time""
""fullscreenenter"",""1"",""2201""
","
","","","","","","null","<div style=""font-size:60px;"">+</div>","null","","fixation","","",""
"memory-trial","282","633025","0.0-18.0-1.118","6365","approach_avoid_sv1","""event"",""trial"",""time""
""fullscreenenter"",""1"",""2201""
","
","
","""event"",""trial"",""time""
""fullscreenenter"",""1"",""2201""
","
","","","","","","1659.7999999970198","images/bush3.png","","","memory_trial","3","maybe_new",""
"html-keyboard-response","283","633532","0.0-18.0-0.119","6365","approach_avoid_sv1","""event"",""trial"",""time""
""fullscreenenter"",""1"",""2201""
","
","
","""event"",""trial"",""time""
""fullscreenenter"",""1"",""2201""
","
","","","","","","null","<div style=""font-size:60px;"">+</div>","null","","fixation","","",""
"memory-trial","284","635492","0.0-18.0-1.119","6365","approach_avoid_sv1","""event"",""trial"",""time""
""fullscreenenter"",""1"",""2201""
","
","
","""event"",""trial"",""time""
""fullscreenenter"",""1"",""2201""
","
","","","","","","950.0999999940395","images/train6.png","","","memory_trial","3","maybe_new",""
"html-keyboard-response","285","635996","0.0-18.0-0.120","6365","approach_avoid_sv1","""event"",""trial"",""time""
""fullscreenenter"",""1"",""2201""
","
","
","""event"",""trial"",""time""
""fullscreenenter"",""1"",""2201""
","
","","","","","","null","<div style=""font-size:60px;"">+</div>","null","","fixation","","",""
"memory-trial","286","638632","0.0-18.0-1.120","6365","approach_avoid_sv1","""event"",""trial"",""time""
""fullscreenenter"",""1"",""2201""
","
","
","""event"",""trial"",""time""
""fullscreenenter"",""1"",""2201""
","
","","","","","","1631.3999999910593","images/rodent8.png","","","memory_trial","4","definitely_new",""
"html-keyboard-response","287","639133","0.0-18.0-0.121","6365","approach_avoid_sv1","""event"",""trial"",""time""
""fullscreenenter"",""1"",""2201""
","
","
","""event"",""trial"",""time""
""fullscreenenter"",""1"",""2201""
","
","","","","","","null","<div style=""font-size:60px;"">+</div>","null","","fixation","","",""
"memory-trial","288","642471","0.0-18.0-1.121","6365","approach_avoid_sv1","""event"",""trial"",""time""
""fullscreenenter"",""1"",""2201""
","
","
","""event"",""trial"",""time""
""fullscreenenter"",""1"",""2201""
","
","","","","","","2328.0999999940395","images/goat8.png","","","memory_trial","3","maybe_new",""
"html-keyboard-response","289","642981","0.0-18.0-0.122","6365","approach_avoid_sv1","""event"",""trial"",""time""
""fullscreenenter"",""1"",""2201""
","
","
","""event"",""trial"",""time""
""fullscreenenter"",""1"",""2201""
","
","","","","","","null","<div style=""font-size:60px;"">+</div>","null","","fixation","","",""
"memory-trial","290","645157","0.0-18.0-1.122","6365","approach_avoid_sv1","""event"",""trial"",""time""
""fullscreenenter"",""1"",""2201""
","
","
","""event"",""trial"",""time""
""fullscreenenter"",""1"",""2201""
","
","","","","","","1167.2999999970198","images/sofa5.png","","","memory_trial","1","definitely_old",""
"html-keyboard-response","291","645661","0.0-18.0-0.123","6365","approach_avoid_sv1","""event"",""trial"",""time""
""fullscreenenter"",""1"",""2201""
","
","
","""event"",""trial"",""time""
""fullscreenenter"",""1"",""2201""
","
","","","","","","null","<div style=""font-size:60px;"">+</div>","null","","fixation","","",""
"memory-trial","292","647807","0.0-18.0-1.123","6365","approach_avoid_sv1","""event"",""trial"",""time""
""fullscreenenter"",""1"",""2201""
","
","
","""event"",""trial"",""time""
""fullscreenenter"",""1"",""2201""
","
","","","","","","1141.8999999910593","images/cat4.png","","","memory_trial","3","maybe_new",""
"html-keyboard-response","293","648311","0.0-18.0-0.124","6365","approach_avoid_sv1","""event"",""trial"",""time""
""fullscreenenter"",""1"",""2201""
","
","
","""event"",""trial"",""time""
""fullscreenenter"",""1"",""2201""
","
","","","","","","null","<div style=""font-size:60px;"">+</div>","null","","fixation","","",""
"memory-trial","294","650385","0.0-18.0-1.124","6365","approach_avoid_sv1","""event"",""trial"",""time""
""fullscreenenter"",""1"",""2201""
","
","
","""event"",""trial"",""time""
""fullscreenenter"",""1"",""2201""
","
","","","","","","1068.2000000029802","images/dog2.png","","","memory_trial","3","maybe_new",""
"html-keyboard-response","295","650887","0.0-18.0-0.125","6365","approach_avoid_sv1","""event"",""trial"",""time""
""fullscreenenter"",""1"",""2201""
","
","
","""event"",""trial"",""time""
""fullscreenenter"",""1"",""2201""
","
","","","","","","null","<div style=""font-size:60px;"">+</div>","null","","fixation","","",""
"memory-trial","296","652967","0.0-18.0-1.125","6365","approach_avoid_sv1","""event"",""trial"",""time""
""fullscreenenter"",""1"",""2201""
","
","
","""event"",""trial"",""time""
""fullscreenenter"",""1"",""2201""
","
","","","","","","1067.3999999910593","images/plane3.png","","","memory_trial","3","maybe_new",""
"html-keyboard-response","297","653470","0.0-18.0-0.126","6365","approach_avoid_sv1","""event"",""trial"",""time""
""fullscreenenter"",""1"",""2201""
","
","
","""event"",""trial"",""time""
""fullscreenenter"",""1"",""2201""
","
