"trial_type","trial_index","time_elapsed","internal_node_id","subject_id","task_version","interactions","blur_events","focus_events","fullscreenenter_events","fullscreenexit_events","success","timeout","failed_images","failed_audio","failed_video","rt","stimulus","response","button_pressed","task_part","key_press","answer","correct"
"pavlovia","0","10","0.0-0.0","7703","approach_avoid_sv1","""event"",""trial"",""time""
""fullscreenenter"",""1"",""6936""
","
","
","""event"",""trial"",""time""
""fullscreenenter"",""1"",""6936""
","
","","","","","","","","","","","","",""
"fullscreen","1","7917","0.0-1.0","7703","approach_avoid_sv1","""event"",""trial"",""time""
""fullscreenenter"",""1"",""6936""
","
","
","""event"",""trial"",""time""
""fullscreenenter"",""1"",""6936""
","
","true","","","","","","","","","","","",""
"preload","2","15885","0.0-2.0","7703","approach_avoid_sv1","""event"",""trial"",""time""
""fullscreenenter"",""1"",""6936""
","
","
","""event"",""trial"",""time""
""fullscreenenter"",""1"",""6936""
","
","true","false","[]","[]","[]","","","","","","","",""
"preload","3","19673","0.0-3.0","7703","approach_avoid_sv1","""event"",""trial"",""time""
""fullscreenenter"",""1"",""6936""
","
","
","""event"",""trial"",""time""
""fullscreenenter"",""1"",""6936""
","
","true","false","[]","[]","[]","","","","","","","",""
"preload","4","20023","0.0-4.0","7703","approach_avoid_sv1","""event"",""trial"",""time""
""fullscreenenter"",""1"",""6936""
","
","
","""event"",""trial"",""time""
""fullscreenenter"",""1"",""6936""
","
","true","false","[]","[]","[]","","","","","","","",""
"audio-keyboard-response","5","24015","0.0-5.0","7703","approach_avoid_sv1","""event"",""trial"",""time""
""fullscreenenter"",""1"",""6936""
","
","
","""event"",""trial"",""time""
""fullscreenenter"",""1"",""6936""
","
","","","","","","3989.333333333333","audio/beep_loop.wav"," ","","","","",""
"audio-button-response","6","25964","0.0-6.0","7703","approach_avoid_sv1","""event"",""trial"",""time""
""fullscreenenter"",""1"",""6936""
","
","
","""event"",""trial"",""time""
""fullscreenenter"",""1"",""6936""
","
","","","","","","1941","audio/turtle.wav","3","","","","",""
"audio-button-response","7","28292","0.0-7.0","7703","approach_avoid_sv1","""event"",""trial"",""time""
""fullscreenenter"",""1"",""6936""
","
","
","""event"",""trial"",""time""
""fullscreenenter"",""1"",""6936""
","
","","","","","","1301","audio/shark.wav","2","","","","",""
"preload","8","34680","0.0-8.0","7703","approach_avoid_sv1","""event"",""trial"",""time""
""fullscreenenter"",""1"",""6936""
","
","
","""event"",""trial"",""time""
""fullscreenenter"",""1"",""6936""
","
","true","false","[]","[]","[]","","","","","","","",""
"learning-instructions","9","41427","0.0-9.0-0.0","7703","approach_avoid_sv1","""event"",""trial"",""time""
""fullscreenenter"",""1"",""6936""
","
","
","""event"",""trial"",""time""
""fullscreenenter"",""1"",""6936""
","
","","","","","","2254.9000000000233","<p> Welcome back! </p><p> Last week, you had to make choices about lots of different items.  </p>","","0","instructions","","",""
"learning-instructions","10","47495","0.0-9.0-0.1","7703","approach_avoid_sv1","""event"",""trial"",""time""
""fullscreenenter"",""1"",""6936""
","
","
","""event"",""trial"",""time""
""fullscreenenter"",""1"",""6936""
","
","","","","","","1946.9000000000233","<p> Today, we are going to ask you to try to remember all the items. </p>","","0","instructions","","",""
"learning-instructions","11","58523","0.0-9.0-0.2","7703","approach_avoid_sv1","""event"",""trial"",""time""
""fullscreenenter"",""1"",""6936""
","
","
","""event"",""trial"",""time""
""fullscreenenter"",""1"",""6936""
","
","","","","","","890.6000000000349","<p> On every trial, you will see an image. </p><p> The image may be an OLD image you saw during the games last week or it may be a NEW image that was not presented. </p>","","0","instructions","","",""
"learning-instructions","12","68382","0.0-9.0-0.3","7703","approach_avoid_sv1","""event"",""trial"",""time""
""fullscreenenter"",""1"",""6936""
","
","
","""event"",""trial"",""time""
""fullscreenenter"",""1"",""6936""
","
","","","","","","1343.7000000000116","<p> You need to select whether the image is:  </p><p>  'Definitely old', 'Maybe old', 'Maybe new', or 'Definitely new.'  </p><div class=""mem-choice-instructions-grid""><div class=""choice-option"" id=""choice-option-1"" ><img src=""images/definitely_old_1.png"" id=""choice-option-img-1"" class=""choice-option-img"" stage=""1""></div><div class=""choice-option"" id=""choice-option-2"" ><img src=""images/maybe_old_1.png"" id=""choice-option-img-2"" class=""choice-option-img"" stage=""1""></div><div class=""choice-option"" id=""choice-option-3"" ><img src=""images/maybe_new_1.png"" id=""choice-option-img-3"" class=""choice-option-img"" stage=""1""></div><div class=""choice-option"" id=""choice-option-4"" > <img src=""images/definitely_new_1.png"" id=""choice-option-img-4"" class=""choice-option-img"" stage=""1""></div></div>","","0","instructions","","",""
"learning-instructions","13","75404","0.0-9.0-0.4","7703","approach_avoid_sv1","""event"",""trial"",""time""
""fullscreenenter"",""1"",""6936""
","
","
","""event"",""trial"",""time""
""fullscreenenter"",""1"",""6936""
","
","","","","","","493.70000000001164","<p> You should use the 1, 2, 3, and 4 keys to make your responses.  </p><div class=""mem-choice-instructions-grid""><div class=""choice-option"" id=""choice-option-1"" ><img src=""images/definitely_old.png"" id=""choice-option-img-1"" class=""choice-option-img"" stage=""1""></div><div class=""choice-option"" id=""choice-option-2"" ><img src=""images/maybe_old.png"" id=""choice-option-img-2"" class=""choice-option-img"" stage=""1""></div><div class=""choice-option"" id=""choice-option-3"" ><img src=""images/maybe_new.png"" id=""choice-option-img-3"" class=""choice-option-img"" stage=""1""></div><div class=""choice-option"" id=""choice-option-4"" > <img src=""images/definitely_new.png"" id=""choice-option-img-4"" class=""choice-option-img"" stage=""1""></div></div>","","0","instructions","","",""
"learning-instructions","14","83132","0.0-9.0-0.5","7703","approach_avoid_sv1","""event"",""trial"",""time""
""fullscreenenter"",""1"",""6936""
","
","
","""event"",""trial"",""time""
""fullscreenenter"",""1"",""6936""
","
","","","","","","1390.4000000000233","<p> You will have 10 seconds to make each response.  </p><p>  Make sure to respond before time runs out! </p>","","0","instructions","","",""
"learning-instructions","15","90695","0.0-9.0-0.6","7703","approach_avoid_sv1","""event"",""trial"",""time""
""fullscreenenter"",""1"",""6936""
","
","
","""event"",""trial"",""time""
""fullscreenenter"",""1"",""6936""
","
","","","","","","475.4000000000233","<p> Today, you will see each image ONCE only.  </p><p>  That means none of the images will repeat. </p>","","0","instructions","","",""
"learning-instructions","16","105017","0.0-9.0-0.7","7703","approach_avoid_sv1","""event"",""trial"",""time""
""fullscreenenter"",""1"",""6936""
","
","
","""event"",""trial"",""time""
""fullscreenenter"",""1"",""6936""
","
","","","","","","1643.7999999999884","<p> Before you play the real game, it is time to practice. </p><p>  Just like in the real game, some of the images in the practice will be ones you have seen before. </p><p>  Others will be entirely new. </p>","","0","instructions","","",""
"html-button-response","17","107351","0.0-10.0","7703","approach_avoid_sv1","""event"",""trial"",""time""
""fullscreenenter"",""1"",""6936""
","
","
","""event"",""trial"",""time""
""fullscreenenter"",""1"",""6936""
","
","","","","","","2220.100000000035","<p> Ready to practice? </p><p> Remember, use the 1, 2, 3, and 4 keys to make your responses. </p>","0","","instructions","","",""
"html-keyboard-response","18","107960","0.0-11.0-0.0","7703","approach_avoid_sv1","""event"",""trial"",""time""
""fullscreenenter"",""1"",""6936""
","
","
","""event"",""trial"",""time""
""fullscreenenter"",""1"",""6936""
","
","","","","","","null","<div style=""font-size:60px;"">+</div>","null","","fixation","","",""
"memory-trial","19","111119","0.0-11.0-1.0","7703","approach_avoid_sv1","""event"",""trial"",""time""
""fullscreenenter"",""1"",""6936""
","
","
","""event"",""trial"",""time""
""fullscreenenter"",""1"",""6936""
","
","","","","","","2138.3000000000466","images/ball2.png","","","practice","4","definitely_new",""
"html-keyboard-response","20","111630","0.0-11.0-0.1","7703","approach_avoid_sv1","""event"",""trial"",""time""
""fullscreenenter"",""1"",""6936""
","
","
","""event"",""trial"",""time""
""fullscreenenter"",""1"",""6936""
","
","","","","","","null","<div style=""font-size:60px;"">+</div>","null","","fixation","","",""
"memory-trial","21","113975","0.0-11.0-1.1","7703","approach_avoid_sv1","""event"",""trial"",""time""
""fullscreenenter"",""1"",""6936""
","
","
","""event"",""trial"",""time""
""fullscreenenter"",""1"",""6936""
","
","","","","","","1333.399999999965","images/racket5.png","","","practice","1","definitely_old",""
"html-keyboard-response","22","114485","0.0-11.0-0.2","7703","approach_avoid_sv1","""event"",""trial"",""time""
""fullscreenenter"",""1"",""6936""
","
","
","""event"",""trial"",""time""
""fullscreenenter"",""1"",""6936""
","
","","","","","","null","<div style=""font-size:60px;"">+</div>","null","","fixation","","",""
"memory-trial","23","116398","0.0-11.0-1.2","7703","approach_avoid_sv1","""event"",""trial"",""time""
""fullscreenenter"",""1"",""6936""
","
","
","""event"",""trial"",""time""
""fullscreenenter"",""1"",""6936""
","
","","","","","","894.2999999999884","images/ball1.png","","","practice","4","definitely_new",""
"html-keyboard-response","24","116909","0.0-11.0-0.3","7703","approach_avoid_sv1","""event"",""trial"",""time""
""fullscreenenter"",""1"",""6936""
","
","
","""event"",""trial"",""time""
""fullscreenenter"",""1"",""6936""
","
","","","","","","null","<div style=""font-size:60px;"">+</div>","null","","fixation","","",""
"memory-trial","25","118878","0.0-11.0-1.3","7703","approach_avoid_sv1","""event"",""trial"",""time""
""fullscreenenter"",""1"",""6936""
","
","
","""event"",""trial"",""time""
""fullscreenenter"",""1"",""6936""
","
","","","","","","955.5999999999767","images/ball3.png","","","practice","4","definitely_new",""
"html-keyboard-response","26","119381","0.0-11.0-0.4","7703","approach_avoid_sv1","""event"",""trial"",""time""
""fullscreenenter"",""1"",""6936""
","
","
","""event"",""trial"",""time""
""fullscreenenter"",""1"",""6936""
","
","","","","","","null","<div style=""font-size:60px;"">+</div>","null","","fixation","","",""
"memory-trial","27","121118","0.0-11.0-1.4","7703","approach_avoid_sv1","""event"",""trial"",""time""
""fullscreenenter"",""1"",""6936""
","
","
","""event"",""trial"",""time""
""fullscreenenter"",""1"",""6936""
","
","","","","","","722.3999999999651","images/racket1.png","","","practice","1","definitely_old",""
"html-keyboard-response","28","121630","0.0-11.0-0.5","7703","approach_avoid_sv1","""event"",""trial"",""time""
""fullscreenenter"",""1"",""6936""
","
","
","""event"",""trial"",""time""
""fullscreenenter"",""1"",""6936""
","
","","","","","","null","<div style=""font-size:60px;"">+</div>","null","","fixation","","",""
"memory-trial","29","123574","0.0-11.0-1.5","7703","approach_avoid_sv1","""event"",""trial"",""time""
""fullscreenenter"",""1"",""6936""
","
","
","""event"",""trial"",""time""
""fullscreenenter"",""1"",""6936""
","
","","","","","","932.2999999999884","images/racket3.png","","","practice","1","definitely_old",""
"html-keyboard-response","30","124085","0.0-11.0-0.6","7703","approach_avoid_sv1","""event"",""trial"",""time""
""fullscreenenter"",""1"",""6936""
","
","
","""event"",""trial"",""time""
""fullscreenenter"",""1"",""6936""
","
","","","","","","null","<div style=""font-size:60px;"">+</div>","null","","fixation","","",""
"memory-trial","31","125838","0.0-11.0-1.6","7703","approach_avoid_sv1","""event"",""trial"",""time""
""fullscreenenter"",""1"",""6936""
","
","
","""event"",""trial"",""time""
""fullscreenenter"",""1"",""6936""
","
","","","","","","734","images/ball5.png","","","practice","4","definitely_new",""
"html-keyboard-response","32","126349","0.0-11.0-0.7","7703","approach_avoid_sv1","""event"",""trial"",""time""
""fullscreenenter"",""1"",""6936""
","
","
","""event"",""trial"",""time""
""fullscreenenter"",""1"",""6936""
","
","","","","","","null","<div style=""font-size:60px;"">+</div>","null","","fixation","","",""
"memory-trial","33","128742","0.0-11.0-1.7","7703","approach_avoid_sv1","""event"",""trial"",""time""
""fullscreenenter"",""1"",""6936""
","
","
","""event"",""trial"",""time""
""fullscreenenter"",""1"",""6936""
","
","","","","","","1375.7000000000116","images/racket2.png","","","practice","1","definitely_old",""
"learning-instructions","34","136545","0.0-12.0-0.0","7703","approach_avoid_sv1","""event"",""trial"",""time""
""fullscreenenter"",""1"",""6936""
","
","
","""event"",""trial"",""time""
""fullscreenenter"",""1"",""6936""
","
","","","","","","488.0999999999767","<p> Great! You have completed the practice. </p><p> Before you start, we're going to ask you a few questions about how the game works.  </p>","","0","instructions","","",""
"preload","35","140336","0.0-13.0","7703","approach_avoid_sv1","""event"",""trial"",""time""
""fullscreenenter"",""1"",""6936""
","
","
","""event"",""trial"",""time""
""fullscreenenter"",""1"",""6936""
","
","true","false","[]","[]","[]","","","","","","","",""
"comp-q","36","147811","0.0-14.0-0.0","7703","approach_avoid_sv1","""event"",""trial"",""time""
""fullscreenenter"",""1"",""6936""
","
","
","""event"",""trial"",""time""
""fullscreenenter"",""1"",""6936""
","
","","","","","","1630.0999999999767","<p> <b> True or False? </b> </p><p> In this game, you will only see each image once. </p>","","0","comp_question","","","true"
"comp-q","37","156215","0.0-14.0-1.0","7703","approach_avoid_sv1","""event"",""trial"",""time""
""fullscreenenter"",""1"",""6936""
","
","
","""event"",""trial"",""time""
""fullscreenenter"",""1"",""6936""
","
","","","","","","2038","<p> <b> That's right! </b> You will see many different images <i> one time each </i> in this game. </p>","","0","comp_answer","","",""
"comp-q","38","162116","0.0-15.0-0.0","7703","approach_avoid_sv1","""event"",""trial"",""time""
""fullscreenenter"",""1"",""6936""
","
","
","""event"",""trial"",""time""
""fullscreenenter"",""1"",""6936""
","
","","","","","","886.7999999999884","<p> <b> True or False? </b> </p><p> You should use the mouse and click to make your response. </p>","","1","comp_question","","","true"
"comp-q","39","170107","0.0-15.0-1.0","7703","approach_avoid_sv1","""event"",""trial"",""time""
""fullscreenenter"",""1"",""6936""
","
","
","""event"",""trial"",""time""
""fullscreenenter"",""1"",""6936""
","
","","","","","","1484.5999999999767","<p><b> That's right! </b> You should use the '1', '2', '3', and '4' keys to make your response. </p>","","0","comp_answer","","",""
"comp-q","40","176712","0.0-16.0-0.0","7703","approach_avoid_sv1","""event"",""trial"",""time""
""fullscreenenter"",""1"",""6936""
","
","
","""event"",""trial"",""time""
""fullscreenenter"",""1"",""6936""
","
","","","","","","913.1999999999534","<p> <b> True or False? </b> </p><p> You will have as much time as you want to make each choice. </p>","","1","comp_question","","","true"
"comp-q","41","182345","0.0-16.0-1.0","7703","approach_avoid_sv1","""event"",""trial"",""time""
""fullscreenenter"",""1"",""6936""
","
","
","""event"",""trial"",""time""
""fullscreenenter"",""1"",""6936""
","
","","","","","","935.0999999999767","<p> <b> That's right! </b> You will only have 10 seconds to make each choice. </p>","","0","comp_answer","","",""
"learning-instructions","42","262670","0.0-17.0","7703","approach_avoid_sv1","""event"",""trial"",""time""
""fullscreenenter"",""1"",""6936""
","
","
","""event"",""trial"",""time""
""fullscreenenter"",""1"",""6936""
","
","","","","","","71651.30000000005","<p> Great! You are now ready to begin the game. </p><p> Remember, use the 1, 2, 3, and 4 keys to make your responses. </p>","","0","instructions","","",""
"html-keyboard-response","43","263277","0.0-18.0-0.0","7703","approach_avoid_sv1","""event"",""trial"",""time""
""fullscreenenter"",""1"",""6936""
","
","
","""event"",""trial"",""time""
""fullscreenenter"",""1"",""6936""
","
","","","","","","null","<div style=""font-size:60px;"">+</div>","null","","fixation","","",""
"memory-trial","44","266038","0.0-18.0-1.0","7703","approach_avoid_sv1","""event"",""trial"",""time""
""fullscreenenter"",""1"",""6936""
","
","
","""event"",""trial"",""time""
""fullscreenenter"",""1"",""6936""
","
","","","","","","1741.5","images/chair4.png","","","memory_trial","4","definitely_new",""
"html-keyboard-response","45","266549","0.0-18.0-0.1","7703","approach_avoid_sv1","""event"",""trial"",""time""
""fullscreenenter"",""1"",""6936""
","
","
","""event"",""trial"",""time""
""fullscreenenter"",""1"",""6936""
","
","","","","","","null","<div style=""font-size:60px;"">+</div>","null","","fixation","","",""
"memory-trial","46","268558","0.0-18.0-1.1","7703","approach_avoid_sv1","""event"",""trial"",""time""
""fullscreenenter"",""1"",""6936""
","
","
","""event"",""trial"",""time""
""fullscreenenter"",""1"",""6936""
","
","","","","","","994.0999999999767","images/sofa6.png","","","memory_trial","1","definitely_old",""
"html-keyboard-response","47","269069","0.0-18.0-0.2","7703","approach_avoid_sv1","""event"",""trial"",""time""
""fullscreenenter"",""1"",""6936""
","
","
","""event"",""trial"",""time""
""fullscreenenter"",""1"",""6936""
","
","","","","","","null","<div style=""font-size:60px;"">+</div>","null","","fixation","","",""
"memory-trial","48","271038","0.0-18.0-1.2","7703","approach_avoid_sv1","""event"",""trial"",""time""
""fullscreenenter"",""1"",""6936""
","
","
","""event"",""trial"",""time""
""fullscreenenter"",""1"",""6936""
","
","","","","","","949.5","images/banana6.png","","","memory_trial","4","definitely_new",""
"html-keyboard-response","49","271549","0.0-18.0-0.3","7703","approach_avoid_sv1","""event"",""trial"",""time""
""fullscreenenter"",""1"",""6936""
","
","
","""event"",""trial"",""time""
""fullscreenenter"",""1"",""6936""
","
","","","","","","null","<div style=""font-size:60px;"">+</div>","null","","fixation","","",""
"memory-trial","50","273501","0.0-18.0-1.3","7703","approach_avoid_sv1","""event"",""trial"",""time""
""fullscreenenter"",""1"",""6936""
","
","
","""event"",""trial"",""time""
""fullscreenenter"",""1"",""6936""
","
","","","","","","935.2000000000698","images/cat3.png","","","memory_trial","4","definitely_new",""
"html-keyboard-response","51","274006","0.0-18.0-0.4","7703","approach_avoid_sv1","""event"",""trial"",""time""
""fullscreenenter"",""1"",""6936""
","
","
","""event"",""trial"",""time""
""fullscreenenter"",""1"",""6936""
","
","","","","","","null","<div style=""font-size:60px;"">+</div>","null","","fixation","","",""
"memory-trial","52","275790","0.0-18.0-1.4","7703","approach_avoid_sv1","""event"",""trial"",""time""
""fullscreenenter"",""1"",""6936""
","
","
","""event"",""trial"",""time""
""fullscreenenter"",""1"",""6936""
","
","","","","","","773.7000000000698","images/dog7.png","","","memory_trial","4","definitely_new",""
"html-keyboard-response","53","276293","0.0-18.0-0.5","7703","approach_avoid_sv1","""event"",""trial"",""time""
""fullscreenenter"",""1"",""6936""
","
","
","""event"",""trial"",""time""
""fullscreenenter"",""1"",""6936""
","
","","","","","","null","<div style=""font-size:60px;"">+</div>","null","","fixation","","",""
"memory-trial","54","278518","0.0-18.0-1.5","7703","approach_avoid_sv1","""event"",""trial"",""time""
""fullscreenenter"",""1"",""6936""
","
","
","""event"",""trial"",""time""
""fullscreenenter"",""1"",""6936""
","
","","","","","","1208.3999999999069","images/boat7.png","","","memory_trial","1","definitely_old",""
"html-keyboard-response","55","279021","0.0-18.0-0.6","7703","approach_avoid_sv1","""event"",""trial"",""time""
""fullscreenenter"",""1"",""6936""
","
","
","""event"",""trial"",""time""
""fullscreenenter"",""1"",""6936""
","
","","","","","","null","<div style=""font-size:60px;"">+</div>","null","","fixation","","",""
"memory-trial","56","281022","0.0-18.0-1.6","7703","approach_avoid_sv1","""event"",""trial"",""time""
""fullscreenenter"",""1"",""6936""
","
","
","""event"",""trial"",""time""
""fullscreenenter"",""1"",""6936""
","
","","","","","","983.9000000000233","images/orange2.png","","","memory_trial","1","definitely_old",""
"html-keyboard-response","57","281525","0.0-18.0-0.7","7703","approach_avoid_sv1","""event"",""trial"",""time""
""fullscreenenter"",""1"",""6936""
","
","
","""event"",""trial"",""time""
""fullscreenenter"",""1"",""6936""
","
","","","","","","null","<div style=""font-size:60px;"">+</div>","null","","fixation","","",""
"memory-trial","58","283293","0.0-18.0-1.7","7703","approach_avoid_sv1","""event"",""trial"",""time""
""fullscreenenter"",""1"",""6936""
","
","
","""event"",""trial"",""time""
""fullscreenenter"",""1"",""6936""
","
","","","","","","753.4000000000233","images/orange4.png","","","memory_trial","1","definitely_old",""
"html-keyboard-response","59","283797","0.0-18.0-0.8","7703","approach_avoid_sv1","""event"",""trial"",""time""
""fullscreenenter"",""1"",""6936""
","
","
","""event"",""trial"",""time""
""fullscreenenter"",""1"",""6936""
","
","","","","","","null","<div style=""font-size:60px;"">+</div>","null","","fixation","","",""
"memory-trial","60","285782","0.0-18.0-1.8","7703","approach_avoid_sv1","""event"",""trial"",""time""
""fullscreenenter"",""1"",""6936""
","
","
","""event"",""trial"",""time""
""fullscreenenter"",""1"",""6936""
","
","","","","","","968.3000000000466","images/cactus5.png","","","memory_trial","1","definitely_old",""
"html-keyboard-response","61","286285","0.0-18.0-0.9","7703","approach_avoid_sv1","""event"",""trial"",""time""
""fullscreenenter"",""1"",""6936""
","
","
","""event"",""trial"",""time""
""fullscreenenter"",""1"",""6936""
","
","","","","","","null","<div style=""font-size:60px;"">+</div>","null","","fixation","","",""
"memory-trial","62","288174","0.0-18.0-1.9","7703","approach_avoid_sv1","""event"",""trial"",""time""
""fullscreenenter"",""1"",""6936""
","
","
","""event"",""trial"",""time""
""fullscreenenter"",""1"",""6936""
","
","","","","","","872.8000000000466","images/boat2.png","","","memory_trial","1","definitely_old",""
"html-keyboard-response","63","288677","0.0-18.0-0.10","7703","approach_avoid_sv1","""event"",""trial"",""time""
""fullscreenenter"",""1"",""6936""
","
","
","""event"",""trial"",""time""
""fullscreenenter"",""1"",""6936""
","
","","","","","","null","<div style=""font-size:60px;"">+</div>","null","","fixation","","",""
"memory-trial","64","291310","0.0-18.0-1.10","7703","approach_avoid_sv1","""event"",""trial"",""time""
""fullscreenenter"",""1"",""6936""
","
","
","""event"",""trial"",""time""
""fullscreenenter"",""1"",""6936""
","
","","","","","","1611.6000000000931","images/horse3.png","","","memory_trial","1","definitely_old",""
"html-keyboard-response","65","291813","0.0-18.0-0.11","7703","approach_avoid_sv1","""event"",""trial"",""time""
""fullscreenenter"",""1"",""6936""
","
","
","""event"",""trial"",""time""
""fullscreenenter"",""1"",""6936""
","
","","","","","","null","<div style=""font-size:60px;"">+</div>","null","","fixation","","",""
"memory-trial","66","293773","0.0-18.0-1.11","7703","approach_avoid_sv1","""event"",""trial"",""time""
""fullscreenenter"",""1"",""6936""
","
","
","""event"",""trial"",""time""
""fullscreenenter"",""1"",""6936""
","
","","","","","","939.6999999999534","images/straw4.png","","","memory_trial","1","definitely_old",""
"html-keyboard-response","67","294277","0.0-18.0-0.12","7703","approach_avoid_sv1","""event"",""trial"",""time""
""fullscreenenter"",""1"",""6936""
","
","
","""event"",""trial"",""time""
""fullscreenenter"",""1"",""6936""
","
","","","","","","null","<div style=""font-size:60px;"">+</div>","null","","fixation","","",""
"memory-trial","68","296174","0.0-18.0-1.12","7703","approach_avoid_sv1","""event"",""trial"",""time""
""fullscreenenter"",""1"",""6936""
","
","
","""event"",""trial"",""time""
""fullscreenenter"",""1"",""6936""
","
","","","","","","882.5","images/banana1.png","","","memory_trial","4","definitely_new",""
"html-keyboard-response","69","296677","0.0-18.0-0.13","7703","approach_avoid_sv1","""event"",""trial"",""time""
""fullscreenenter"",""1"",""6936""
","
","
","""event"",""trial"",""time""
""fullscreenenter"",""1"",""6936""
","
","","","","","","null","<div style=""font-size:60px;"">+</div>","null","","fixation","","",""
"memory-trial","70","298694","0.0-18.0-1.13","7703","approach_avoid_sv1","""event"",""trial"",""time""
""fullscreenenter"",""1"",""6936""
","
","
","""event"",""trial"",""time""
""fullscreenenter"",""1"",""6936""
","
","","","","","","998.7000000000698","images/sheep8.png","","","memory_trial","1","definitely_old",""
"html-keyboard-response","71","299197","0.0-18.0-0.14","7703","approach_avoid_sv1","""event"",""trial"",""time""
""fullscreenenter"",""1"",""6936""
","
","
","""event"",""trial"",""time""
""fullscreenenter"",""1"",""6936""
","
","","","","","","null","<div style=""font-size:60px;"">+</div>","null","","fixation","","",""
"memory-trial","72","301015","0.0-18.0-1.14","7703","approach_avoid_sv1","""event"",""trial"",""time""
""fullscreenenter"",""1"",""6936""
","
","
","""event"",""trial"",""time""
""fullscreenenter"",""1"",""6936""
","
","","","","","","802.5","images/flower7.png","","","memory_trial","4","definitely_new",""
"html-keyboard-response","73","301525","0.0-18.0-0.15","7703","approach_avoid_sv1","""event"",""trial"",""time""
""fullscreenenter"",""1"",""6936""
","
","
","""event"",""trial"",""time""
""fullscreenenter"",""1"",""6936""
","
","","","","","","null","<div style=""font-size:60px;"">+</div>","null","","fixation","","",""
"memory-trial","74","303389","0.0-18.0-1.15","7703","approach_avoid_sv1","""event"",""trial"",""time""
""fullscreenenter"",""1"",""6936""
","
","
","""event"",""trial"",""time""
""fullscreenenter"",""1"",""6936""
","
","","","","","","850.9000000000233","images/straw3.png","","","memory_trial","1","definitely_old",""
"html-keyboard-response","75","303893","0.0-18.0-0.16","7703","approach_avoid_sv1","""event"",""trial"",""time""
""fullscreenenter"",""1"",""6936""
","
","
","""event"",""trial"",""time""
""fullscreenenter"",""1"",""6936""
","
","","","","","","null","<div style=""font-size:60px;"">+</div>","null","","fixation","","",""
"memory-trial","76","305670","0.0-18.0-1.16","7703","approach_avoid_sv1","""event"",""trial"",""time""
""fullscreenenter"",""1"",""6936""
","
","
","""event"",""trial"",""time""
""fullscreenenter"",""1"",""6936""
","
","","","","","","759.3000000000466","images/goat8.png","","","memory_trial","1","definitely_old",""
"html-keyboard-response","77","306173","0.0-18.0-0.17","7703","approach_avoid_sv1","""event"",""trial"",""time""
""fullscreenenter"",""1"",""6936""
","
","
","""event"",""trial"",""time""
""fullscreenenter"",""1"",""6936""
","
","","","","","","null","<div style=""font-size:60px;"">+</div>","null","","fixation","","",""
"memory-trial","78","307950","0.0-18.0-1.17","7703","approach_avoid_sv1","""event"",""trial"",""time""
""fullscreenenter"",""1"",""6936""
","
","
","""event"",""trial"",""time""
""fullscreenenter"",""1"",""6936""
","
","","","","","","764","images/flower6.png","","","memory_trial","4","definitely_new",""
"html-keyboard-response","79","308453","0.0-18.0-0.18","7703","approach_avoid_sv1","""event"",""trial"",""time""
""fullscreenenter"",""1"",""6936""
","
","
","""event"",""trial"",""time""
""fullscreenenter"",""1"",""6936""
","
","","","","","","null","<div style=""font-size:60px;"">+</div>","null","","fixation","","",""
"memory-trial","80","310558","0.0-18.0-1.18","7703","approach_avoid_sv1","""event"",""trial"",""time""
""fullscreenenter"",""1"",""6936""
","
","
","""event"",""trial"",""time""
""fullscreenenter"",""1"",""6936""
","
","","","","","","1091","images/horse7.png","","","memory_trial","4","definitely_new",""
"html-keyboard-response","81","311061","0.0-18.0-0.19","7703","approach_avoid_sv1","""event"",""trial"",""time""
""fullscreenenter"",""1"",""6936""
","
","
","""event"",""trial"",""time""
""fullscreenenter"",""1"",""6936""
","
","","","","","","null","<div style=""font-size:60px;"">+</div>","null","","fixation","","",""
"memory-trial","82","313110","0.0-18.0-1.19","7703","approach_avoid_sv1","""event"",""trial"",""time""
""fullscreenenter"",""1"",""6936""
","
","
","""event"",""trial"",""time""
""fullscreenenter"",""1"",""6936""
","
","","","","","","1037","images/orange5.png","","","memory_trial","1","definitely_old",""
"html-keyboard-response","83","313613","0.0-18.0-0.20","7703","approach_avoid_sv1","""event"",""trial"",""time""
""fullscreenenter"",""1"",""6936""
","
","
","""event"",""trial"",""time""
""fullscreenenter"",""1"",""6936""
","
","","","","","","null","<div style=""font-size:60px;"">+</div>","null","","fixation","","",""
"memory-trial","84","315902","0.0-18.0-1.20","7703","approach_avoid_sv1","""event"",""trial"",""time""
""fullscreenenter"",""1"",""6936""
","
","
","""event"",""trial"",""time""
""fullscreenenter"",""1"",""6936""
","
","","","","","","1271","images/goat3.png","","","memory_trial","4","definitely_new",""
"html-keyboard-response","85","316405","0.0-18.0-0.21","7703","approach_avoid_sv1","""event"",""trial"",""time""
""fullscreenenter"",""1"",""6936""
","
","
","""event"",""trial"",""time""
""fullscreenenter"",""1"",""6936""
","
","","","","","","null","<div style=""font-size:60px;"">+</div>","null","","fixation","","",""
"memory-trial","86","318309","0.0-18.0-1.21","7703","approach_avoid_sv1","""event"",""trial"",""time""
""fullscreenenter"",""1"",""6936""
","
","
","""event"",""trial"",""time""
""fullscreenenter"",""1"",""6936""
","
","","","","","","892.1999999999534","images/chair5.png","","","memory_trial","1","definitely_old",""
"html-keyboard-response","87","318813","0.0-18.0-0.22","7703","approach_avoid_sv1","""event"",""trial"",""time""
""fullscreenenter"",""1"",""6936""
","
","
","""event"",""trial"",""time""
""fullscreenenter"",""1"",""6936""
","
","","","","","","null","<div style=""font-size:60px;"">+</div>","null","","fixation","","",""
"memory-trial","88","320942","0.0-18.0-1.22","7703","approach_avoid_sv1","""event"",""trial"",""time""
""fullscreenenter"",""1"",""6936""
","
","
","""event"",""trial"",""time""
""fullscreenenter"",""1"",""6936""
","
","","","","","","1114.8000000000466","images/sheep6.png","","","memory_trial","1","definitely_old",""
"html-keyboard-response","89","321445","0.0-18.0-0.23","7703","approach_avoid_sv1","""event"",""trial"",""time""
""fullscreenenter"",""1"",""6936""
","
","
","""event"",""trial"",""time""
""fullscreenenter"",""1"",""6936""
","
","","","","","","null","<div style=""font-size:60px;"">+</div>","null","","fixation","","",""
"memory-trial","90","323358","0.0-18.0-1.23","7703","approach_avoid_sv1","""event"",""trial"",""time""
""fullscreenenter"",""1"",""6936""
","
","
","""event"",""trial"",""time""
""fullscreenenter"",""1"",""6936""
","
","","","","","","900.2999999999302","images/cow8.png","","","memory_trial","1","definitely_old",""
"html-keyboard-response","91","323861","0.0-18.0-0.24","7703","approach_avoid_sv1","""event"",""trial"",""time""
""fullscreenenter"",""1"",""6936""
","
","
","""event"",""trial"",""time""
""fullscreenenter"",""1"",""6936""
","
","","","","","","null","<div style=""font-size:60px;"">+</div>","null","","fixation","","",""
"memory-trial","92","325789","0.0-18.0-1.24","7703","approach_avoid_sv1","""event"",""trial"",""time""
""fullscreenenter"",""1"",""6936""
","
","
","""event"",""trial"",""time""
""fullscreenenter"",""1"",""6936""
","
","","","","","","909.0999999999767","images/bush8.png","","","memory_trial","1","definitely_old",""
"html-keyboard-response","93","326294","0.0-18.0-0.25","7703","approach_avoid_sv1","""event"",""trial"",""time""
""fullscreenenter"",""1"",""6936""
","
","
","""event"",""trial"",""time""
""fullscreenenter"",""1"",""6936""
","
","","","","","","null","<div style=""font-size:60px;"">+</div>","null","","fixation","","",""
"memory-trial","94","328229","0.0-18.0-1.25","7703","approach_avoid_sv1","""event"",""trial"",""time""
""fullscreenenter"",""1"",""6936""
","
","
","""event"",""trial"",""time""
""fullscreenenter"",""1"",""6936""
","
","","","","","","925.0999999999767","images/truck7.png","","","memory_trial","1","definitely_old",""
"html-keyboard-response","95","328733","0.0-18.0-0.26","7703","approach_avoid_sv1","""event"",""trial"",""time""
""fullscreenenter"",""1"",""6936""
","
","
","""event"",""trial"",""time""
""fullscreenenter"",""1"",""6936""
","
","","","","","","null","<div style=""font-size:60px;"">+</div>","null","","fixation","","",""
"memory-trial","96","331118","0.0-18.0-1.26","7703","approach_avoid_sv1","""event"",""trial"",""time""
""fullscreenenter"",""1"",""6936""
","
","
","""event"",""trial"",""time""
""fullscreenenter"",""1"",""6936""
","
","","","","","","1370.3999999999069","images/truck6.png","","","memory_trial","4","definitely_new",""
"html-keyboard-response","97","331629","0.0-18.0-0.27","7703","approach_avoid_sv1","""event"",""trial"",""time""
""fullscreenenter"",""1"",""6936""
","
","
","""event"",""trial"",""time""
""fullscreenenter"",""1"",""6936""
","
","","","","","","null","<div style=""font-size:60px;"">+</div>","null","","fixation","","",""
"memory-trial","98","333981","0.0-18.0-1.27","7703","approach_avoid_sv1","""event"",""trial"",""time""
""fullscreenenter"",""1"",""6936""
","
","
","""event"",""trial"",""time""
""fullscreenenter"",""1"",""6936""
","
","","","","","","1338.9000000000233","images/goat6.png","","","memory_trial","4","definitely_new",""
"html-keyboard-response","99","334485","0.0-18.0-0.28","7703","approach_avoid_sv1","""event"",""trial"",""time""
""fullscreenenter"",""1"",""6936""
","
","
","""event"",""trial"",""time""
""fullscreenenter"",""1"",""6936""
","
","","","","","","null","<div style=""font-size:60px;"">+</div>","null","","fixation","","",""
"memory-trial","100","336830","0.0-18.0-1.28","7703","approach_avoid_sv1","""event"",""trial"",""time""
""fullscreenenter"",""1"",""6936""
","
","
","""event"",""trial"",""time""
""fullscreenenter"",""1"",""6936""
","
","","","","","","1329","images/rodent2.png","","","memory_trial","1","definitely_old",""
"html-keyboard-response","101","337341","0.0-18.0-0.29","7703","approach_avoid_sv1","""event"",""trial"",""time""
""fullscreenenter"",""1"",""6936""
","
","
","""event"",""trial"",""time""
""fullscreenenter"",""1"",""6936""
","
","","","","","","null","<div style=""font-size:60px;"">+</div>","null","","fixation","","",""
"memory-trial","102","339294","0.0-18.0-1.29","7703","approach_avoid_sv1","""event"",""trial"",""time""
""fullscreenenter"",""1"",""6936""
","
","
","""event"",""trial"",""time""
""fullscreenenter"",""1"",""6936""
","
","","","","","","938.4000000000233","images/boat5.png","","","memory_trial","4","definitely_new",""
"html-keyboard-response","103","339797","0.0-18.0-0.30","7703","approach_avoid_sv1","""event"",""trial"",""time""
""fullscreenenter"",""1"",""6936""
","
","
","""event"",""trial"",""time""
""fullscreenenter"",""1"",""6936""
","
","","","","","","null","<div style=""font-size:60px;"">+</div>","null","","fixation","","",""
"memory-trial","104","341718","0.0-18.0-1.30","7703","approach_avoid_sv1","""event"",""trial"",""time""
""fullscreenenter"",""1"",""6936""
","
","
","""event"",""trial"",""time""
""fullscreenenter"",""1"",""6936""
","
","","","","","","906.1999999999534","images/dog5.png","","","memory_trial","1","definitely_old",""
"html-keyboard-response","105","342221","0.0-18.0-0.31","7703","approach_avoid_sv1","""event"",""trial"",""time""
""fullscreenenter"",""1"",""6936""
","
","
","""event"",""trial"",""time""
""fullscreenenter"",""1"",""6936""
","
","","","","","","null","<div style=""font-size:60px;"">+</div>","null","","fixation","","",""
"memory-trial","106","344110","0.0-18.0-1.31","7703","approach_avoid_sv1","""event"",""trial"",""time""
""fullscreenenter"",""1"",""6936""
","
","
","""event"",""trial"",""time""
""fullscreenenter"",""1"",""6936""
","
","","","","","","870.7000000000698","images/rabbit2.png","","","memory_trial","1","definitely_old",""
"html-keyboard-response","107","344613","0.0-18.0-0.32","7703","approach_avoid_sv1","""event"",""trial"",""time""
""fullscreenenter"",""1"",""6936""
","
","
","""event"",""trial"",""time""
""fullscreenenter"",""1"",""6936""
","
","","","","","","null","<div style=""font-size:60px;"">+</div>","null","","fixation","","",""
"memory-trial","108","346334","0.0-18.0-1.32","7703","approach_avoid_sv1","""event"",""trial"",""time""
""fullscreenenter"",""1"",""6936""
","
","
","""event"",""trial"",""time""
""fullscreenenter"",""1"",""6936""
","
","","","","","","704.7999999999302","images/truck3.png","","","memory_trial","4","definitely_new",""
"html-keyboard-response","109","346845","0.0-18.0-0.33","7703","approach_avoid_sv1","""event"",""trial"",""time""
""fullscreenenter"",""1"",""6936""
","
","
","""event"",""trial"",""time""
""fullscreenenter"",""1"",""6936""
","
","","","","","","null","<div style=""font-size:60px;"">+</div>","null","","fixation","","",""
"memory-trial","110","348686","0.0-18.0-1.33","7703","approach_avoid_sv1","""event"",""trial"",""time""
""fullscreenenter"",""1"",""6936""
","
","
","""event"",""trial"",""time""
""fullscreenenter"",""1"",""6936""
","
","","","","","","826.4000000000233","images/goat2.png","","","memory_trial","4","definitely_new",""
"html-keyboard-response","111","349189","0.0-18.0-0.34","7703","approach_avoid_sv1","""event"",""trial"",""time""
""fullscreenenter"",""1"",""6936""
","
","
","""event"",""trial"",""time""
""fullscreenenter"",""1"",""6936""
","
","","","","","","null","<div style=""font-size:60px;"">+</div>","null","","fixation","","",""
"memory-trial","112","350957","0.0-18.0-1.34","7703","approach_avoid_sv1","""event"",""trial"",""time""
""fullscreenenter"",""1"",""6936""
","
","
","""event"",""trial"",""time""
""fullscreenenter"",""1"",""6936""
","
","","","","","","753.4000000000233","images/cat6.png","","","memory_trial","4","definitely_new",""
"html-keyboard-response","113","351461","0.0-18.0-0.35","7703","approach_avoid_sv1","""event"",""trial"",""time""
""fullscreenenter"",""1"",""6936""
","
","
","""event"",""trial"",""time""
""fullscreenenter"",""1"",""6936""
","
","","","","","","null","<div style=""font-size:60px;"">+</div>","null","","fixation","","",""
"memory-trial","114","353542","0.0-18.0-1.35","7703","approach_avoid_sv1","""event"",""trial"",""time""
""fullscreenenter"",""1"",""6936""
","
","
","""event"",""trial"",""time""
""fullscreenenter"",""1"",""6936""
","
","","","","","","1066.2999999999302","images/apple8.png","","","memory_trial","1","definitely_old",""
"html-keyboard-response","115","354045","0.0-18.0-0.36","7703","approach_avoid_sv1","""event"",""trial"",""time""
""fullscreenenter"",""1"",""6936""
","
","
","""event"",""trial"",""time""
""fullscreenenter"",""1"",""6936""
","
","","","","","","null","<div style=""font-size:60px;"">+</div>","null","","fixation","","",""
"memory-trial","116","356022","0.0-18.0-1.36","7703","approach_avoid_sv1","""event"",""trial"",""time""
""fullscreenenter"",""1"",""6936""
","
","
","""event"",""trial"",""time""
""fullscreenenter"",""1"",""6936""
","
","","","","","","964.4000000000233","images/table6.png","","","memory_trial","1","definitely_old",""
"html-keyboard-response","117","356525","0.0-18.0-0.37","7703","approach_avoid_sv1","""event"",""trial"",""time""
""fullscreenenter"",""1"",""6936""
","
","
","""event"",""trial"",""time""
""fullscreenenter"",""1"",""6936""
","
","","","","","","null","<div style=""font-size:60px;"">+</div>","null","","fixation","","",""
"memory-trial","118","358438","0.0-18.0-1.37","7703","approach_avoid_sv1","""event"",""trial"",""time""
""fullscreenenter"",""1"",""6936""
","
","
","""event"",""trial"",""time""
""fullscreenenter"",""1"",""6936""
","
","","","","","","896","images/sheep7.png","","","memory_trial","4","definitely_new",""
"html-keyboard-response","119","358941","0.0-18.0-0.38","7703","approach_avoid_sv1","""event"",""trial"",""time""
""fullscreenenter"",""1"",""6936""
","
","
","""event"",""trial"",""time""
""fullscreenenter"",""1"",""6936""
","
","","","","","","null","<div style=""font-size:60px;"">+</div>","null","","fixation","","",""
"memory-trial","120","361038","0.0-18.0-1.38","7703","approach_avoid_sv1","""event"",""trial"",""time""
""fullscreenenter"",""1"",""6936""
","
","
","""event"",""trial"",""time""
""fullscreenenter"",""1"",""6936""
","
","","","","","","1081.5999999999767","images/table4.png","","","memory_trial","1","definitely_old",""
"html-keyboard-response","121","361541","0.0-18.0-0.39","7703","approach_avoid_sv1","""event"",""trial"",""time""
""fullscreenenter"",""1"",""6936""
","
","
","""event"",""trial"",""time""
""fullscreenenter"",""1"",""6936""
","
","","","","","","null","<div style=""font-size:60px;"">+</div>","null","","fixation","","",""
"memory-trial","122","363389","0.0-18.0-1.39","7703","approach_avoid_sv1","""event"",""trial"",""time""
""fullscreenenter"",""1"",""6936""
","
","
","""event"",""trial"",""time""
""fullscreenenter"",""1"",""6936""
","
","","","","","","837.6999999999534","images/flower4.png","","","memory_trial","4","definitely_new",""
"html-keyboard-response","123","363893","0.0-18.0-0.40","7703","approach_avoid_sv1","""event"",""trial"",""time""
""fullscreenenter"",""1"",""6936""
","
","
","""event"",""trial"",""time""
""fullscreenenter"",""1"",""6936""
","
","","","","","","null","<div style=""font-size:60px;"">+</div>","null","","fixation","","",""
"memory-trial","124","366022","0.0-18.0-1.40","7703","approach_avoid_sv1","""event"",""trial"",""time""
""fullscreenenter"",""1"",""6936""
","
","
","""event"",""trial"",""time""
""fullscreenenter"",""1"",""6936""
","
","","","","","","1113","images/dog8.png","","","memory_trial","4","definitely_new",""
"html-keyboard-response","125","366525","0.0-18.0-0.41","7703","approach_avoid_sv1","""event"",""trial"",""time""
""fullscreenenter"",""1"",""6936""
","
","
","""event"",""trial"",""time""
""fullscreenenter"",""1"",""6936""
","
","","","","","","null","<div style=""font-size:60px;"">+</div>","null","","fixation","","",""
"memory-trial","126","368414","0.0-18.0-1.41","7703","approach_avoid_sv1","""event"",""trial"",""time""
""fullscreenenter"",""1"",""6936""
","
","
","""event"",""trial"",""time""
""fullscreenenter"",""1"",""6936""
","
","","","","","","876.2999999999302","images/horse8.png","","","memory_trial","1","definitely_old",""
"html-button-response","127","372702","0.0-18.0-2.41-0.41","7703","approach_avoid_sv1","""event"",""trial"",""time""
""fullscreenenter"",""1"",""6936""
","
","
","""event"",""trial"",""time""
""fullscreenenter"",""1"",""6936""
","
","","","","","","4283","<p> Take a break! </p><p> Click the button to continue. </p>","0","","break","","",""
"html-keyboard-response","128","373213","0.0-18.0-0.42","7703","approach_avoid_sv1","""event"",""trial"",""time""
""fullscreenenter"",""1"",""6936""
","
","
","""event"",""trial"",""time""
""fullscreenenter"",""1"",""6936""
","
","","","","","","null","<div style=""font-size:60px;"">+</div>","null","","fixation","","",""
"memory-trial","129","376950","0.0-18.0-1.42","7703","approach_avoid_sv1","""event"",""trial"",""time""
""fullscreenenter"",""1"",""6936""
","
","
","""event"",""trial"",""time""
""fullscreenenter"",""1"",""6936""
","
","","","","","","2719.20000000007","images/orange8.png","","","memory_trial","1","definitely_old",""
"html-keyboard-response","130","377461","0.0-18.0-0.43","7703","approach_avoid_sv1","""event"",""trial"",""time""
""fullscreenenter"",""1"",""6936""
","
","
","""event"",""trial"",""time""
""fullscreenenter"",""1"",""6936""
","
","","","","","","null","<div style=""font-size:60px;"">+</div>","null","","fixation","","",""
"memory-trial","131","379533","0.0-18.0-1.43","7703","approach_avoid_sv1","""event"",""trial"",""time""
""fullscreenenter"",""1"",""6936""
","
","
","""event"",""trial"",""time""
""fullscreenenter"",""1"",""6936""
","
","","","","","","1057","images/table2.png","","","memory_trial","4","definitely_new",""
"html-keyboard-response","132","380037","0.0-18.0-0.44","7703","approach_avoid_sv1","""event"",""trial"",""time""
""fullscreenenter"",""1"",""6936""
","
","
","""event"",""trial"",""time""
""fullscreenenter"",""1"",""6936""
","
","","","","","","null","<div style=""font-size:60px;"">+</div>","null","","fixation","","",""
"memory-trial","133","382286","0.0-18.0-1.44","7703","approach_avoid_sv1","""event"",""trial"",""time""
""fullscreenenter"",""1"",""6936""
","
","
","""event"",""trial"",""time""
""fullscreenenter"",""1"",""6936""
","
","","","","","","1227.5999999999767","images/chair8.png","","","memory_trial","4","definitely_new",""
"html-keyboard-response","134","382789","0.0-18.0-0.45","7703","approach_avoid_sv1","""event"",""trial"",""time""
""fullscreenenter"",""1"",""6936""
","
","
","""event"",""trial"",""time""
""fullscreenenter"",""1"",""6936""
","
","","","","","","null","<div style=""font-size:60px;"">+</div>","null","","fixation","","",""
"memory-trial","135","384709","0.0-18.0-1.45","7703","approach_avoid_sv1","""event"",""trial"",""time""
""fullscreenenter"",""1"",""6936""
","
","
","""event"",""trial"",""time""
""fullscreenenter"",""1"",""6936""
","
","","","","","","909.7999999999302","images/apple1.png","","","memory_trial","4","definitely_new",""
"html-keyboard-response","136","385213","0.0-18.0-0.46","7703","approach_avoid_sv1","""event"",""trial"",""time""
""fullscreenenter"",""1"",""6936""
","
","
","""event"",""trial"",""time""
""fullscreenenter"",""1"",""6936""
","
","","","","","","null","<div style=""font-size:60px;"">+</div>","null","","fixation","","",""
"memory-trial","137","386901","0.0-18.0-1.46","7703","approach_avoid_sv1","""event"",""trial"",""time""
""fullscreenenter"",""1"",""6936""
","
","
","""event"",""trial"",""time""
""fullscreenenter"",""1"",""6936""
","
","","","","","","670.7999999999302","images/cat1.png","","","memory_trial","4","definitely_new",""
"html-keyboard-response","138","387405","0.0-18.0-0.47","7703","approach_avoid_sv1","""event"",""trial"",""time""
""fullscreenenter"",""1"",""6936""
","
","
","""event"",""trial"",""time""
""fullscreenenter"",""1"",""6936""
","
","","","","","","null","<div style=""font-size:60px;"">+</div>","null","","fixation","","",""
"memory-trial","139","389261","0.0-18.0-1.47","7703","approach_avoid_sv1","""event"",""trial"",""time""
""fullscreenenter"",""1"",""6936""
","
","
","""event"",""trial"",""time""
""fullscreenenter"",""1"",""6936""
","
","","","","","","846.0999999999767","images/boat8.png","","","memory_trial","4","definitely_new",""
"html-keyboard-response","140","389773","0.0-18.0-0.48","7703","approach_avoid_sv1","""event"",""trial"",""time""
""fullscreenenter"",""1"",""6936""
","
","
","""event"",""trial"",""time""
""fullscreenenter"",""1"",""6936""
","
","","","","","","null","<div style=""font-size:60px;"">+</div>","null","","fixation","","",""
"memory-trial","141","391726","0.0-18.0-1.48","7703","approach_avoid_sv1","""event"",""trial"",""time""
""fullscreenenter"",""1"",""6936""
","
","
","""event"",""trial"",""time""
""fullscreenenter"",""1"",""6936""
","
","","","","","","939","images/bed3.png","","","memory_trial","1","definitely_old",""
"html-keyboard-response","142","392237","0.0-18.0-0.49","7703","approach_avoid_sv1","""event"",""trial"",""time""
""fullscreenenter"",""1"",""6936""
","
","
","""event"",""trial"",""time""
""fullscreenenter"",""1"",""6936""
","
","","","","","","null","<div style=""font-size:60px;"">+</div>","null","","fixation","","",""
"memory-trial","143","395206","0.0-18.0-1.49","7703","approach_avoid_sv1","""event"",""trial"",""time""
""fullscreenenter"",""1"",""6936""
","
","
","""event"",""trial"",""time""
""fullscreenenter"",""1"",""6936""
","
","","","","","","1956.2999999999302","images/boat6.png","","","memory_trial","1","definitely_old",""
"html-keyboard-response","144","395709","0.0-18.0-0.50","7703","approach_avoid_sv1","""event"",""trial"",""time""
""fullscreenenter"",""1"",""6936""
","
","
","""event"",""trial"",""time""
""fullscreenenter"",""1"",""6936""
","
","","","","","","null","<div style=""font-size:60px;"">+</div>","null","","fixation","","",""
"memory-trial","145","397741","0.0-18.0-1.50","7703","approach_avoid_sv1","""event"",""trial"",""time""
""fullscreenenter"",""1"",""6936""
","
","
","""event"",""trial"",""time""
""fullscreenenter"",""1"",""6936""
","
","","","","","","1013.4000000000233","images/banana3.png","","","memory_trial","4","definitely_new",""
"html-keyboard-response","146","398245","0.0-18.0-0.51","7703","approach_avoid_sv1","""event"",""trial"",""time""
""fullscreenenter"",""1"",""6936""
","
","
","""event"",""trial"",""time""
""fullscreenenter"",""1"",""6936""
","
","","","","","","null","<div style=""font-size:60px;"">+</div>","null","","fixation","","",""
"memory-trial","147","400317","0.0-18.0-1.51","7703","approach_avoid_sv1","""event"",""trial"",""time""
""fullscreenenter"",""1"",""6936""
","
","
","""event"",""trial"",""time""
""fullscreenenter"",""1"",""6936""
","
","","","","","","1054.5","images/orange7.png","","","memory_trial","4","definitely_new",""
"html-keyboard-response","148","400821","0.0-18.0-0.52","7703","approach_avoid_sv1","""event"",""trial"",""time""
""fullscreenenter"",""1"",""6936""
","
","
","""event"",""trial"",""time""
""fullscreenenter"",""1"",""6936""
","
","","","","","","null","<div style=""font-size:60px;"">+</div>","null","","fixation","","",""
"memory-trial","149","402677","0.0-18.0-1.52","7703","approach_avoid_sv1","""event"",""trial"",""time""
""fullscreenenter"",""1"",""6936""
","
","
","""event"",""trial"",""time""
""fullscreenenter"",""1"",""6936""
","
","","","","","","843.2000000000698","images/truck8.png","","","memory_trial","4","definitely_new",""
"html-keyboard-response","150","403181","0.0-18.0-0.53","7703","approach_avoid_sv1","""event"",""trial"",""time""
""fullscreenenter"",""1"",""6936""
","
","
","""event"",""trial"",""time""
""fullscreenenter"",""1"",""6936""
","
","","","","","","null","<div style=""font-size:60px;"">+</div>","null","","fixation","","",""
"memory-trial","151","405494","0.0-18.0-1.53","7703","approach_avoid_sv1","""event"",""trial"",""time""
""fullscreenenter"",""1"",""6936""
","
","
","""event"",""trial"",""time""
""fullscreenenter"",""1"",""6936""
","
","","","","","","1304.7999999999302","images/straw8.png","","","memory_trial","4","definitely_new",""
"html-keyboard-response","152","405997","0.0-18.0-0.54","7703","approach_avoid_sv1","""event"",""trial"",""time""
""fullscreenenter"",""1"",""6936""
","
","
","""event"",""trial"",""time""
""fullscreenenter"",""1"",""6936""
","
","","","","","","null","<div style=""font-size:60px;"">+</div>","null","","fixation","","",""
"memory-trial","153","408269","0.0-18.0-1.54","7703","approach_avoid_sv1","""event"",""trial"",""time""
""fullscreenenter"",""1"",""6936""
","
","
","""event"",""trial"",""time""
""fullscreenenter"",""1"",""6936""
","
","","","","","","1257.6999999999534","images/cow4.png","","","memory_trial","1","definitely_old",""
"html-keyboard-response","154","408774","0.0-18.0-0.55","7703","approach_avoid_sv1","""event"",""trial"",""time""
""fullscreenenter"",""1"",""6936""
","
","
","""event"",""trial"",""time""
""fullscreenenter"",""1"",""6936""
","
","","","","","","null","<div style=""font-size:60px;"">+</div>","null","","fixation","","",""
"memory-trial","155","410845","0.0-18.0-1.55","7703","approach_avoid_sv1","""event"",""trial"",""time""
""fullscreenenter"",""1"",""6936""
","
","
","""event"",""trial"",""time""
""fullscreenenter"",""1"",""6936""
","
","","","","","","1058.5","images/tree4.png","","","memory_trial","4","definitely_new",""
"html-keyboard-response","156","411349","0.0-18.0-0.56","7703","approach_avoid_sv1","""event"",""trial"",""time""
""fullscreenenter"",""1"",""6936""
","
","
","""event"",""trial"",""time""
""fullscreenenter"",""1"",""6936""
","
","","","","","","null","<div style=""font-size:60px;"">+</div>","null","","fixation","","",""
"memory-trial","157","413301","0.0-18.0-1.56","7703","approach_avoid_sv1","""event"",""trial"",""time""
""fullscreenenter"",""1"",""6936""
","
","
","""event"",""trial"",""time""
""fullscreenenter"",""1"",""6936""
","
","","","","","","935.0999999999767","images/cactus1.png","","","memory_trial","1","definitely_old",""
"html-keyboard-response","158","413805","0.0-18.0-0.57","7703","approach_avoid_sv1","""event"",""trial"",""time""
""fullscreenenter"",""1"",""6936""
","
","
","""event"",""trial"",""time""
""fullscreenenter"",""1"",""6936""
","
","","","","","","null","<div style=""font-size:60px;"">+</div>","null","","fixation","","",""
"memory-trial","159","415877","0.0-18.0-1.57","7703","approach_avoid_sv1","""event"",""trial"",""time""
""fullscreenenter"",""1"",""6936""
","
","
","""event"",""trial"",""time""
""fullscreenenter"",""1"",""6936""
","
","","","","","","1056.3999999999069","images/sofa2.png","","","memory_trial","1","definitely_old",""
"html-keyboard-response","160","416381","0.0-18.0-0.58","7703","approach_avoid_sv1","""event"",""trial"",""time""
""fullscreenenter"",""1"",""6936""
","
","
","""event"",""trial"",""time""
""fullscreenenter"",""1"",""6936""
","
","","","","","","null","<div style=""font-size:60px;"">+</div>","null","","fixation","","",""
"memory-trial","161","418630","0.0-18.0-1.58","7703","approach_avoid_sv1","""event"",""trial"",""time""
""fullscreenenter"",""1"",""6936""
","
","
","""event"",""trial"",""time""
""fullscreenenter"",""1"",""6936""
","
","","","","","","1229","images/straw1.png","","","memory_trial","1","definitely_old",""
"html-keyboard-response","162","419141","0.0-18.0-0.59","7703","approach_avoid_sv1","""event"",""trial"",""time""
""fullscreenenter"",""1"",""6936""
","
","
","""event"",""trial"",""time""
""fullscreenenter"",""1"",""6936""
","
","","","","","","null","<div style=""font-size:60px;"">+</div>","null","","fixation","","",""
"memory-trial","163","421149","0.0-18.0-1.59","7703","approach_avoid_sv1","""event"",""trial"",""time""
""fullscreenenter"",""1"",""6936""
","
","
","""event"",""trial"",""time""
""fullscreenenter"",""1"",""6936""
","
","","","","","","991.6000000000931","images/dog2.png","","","memory_trial","1","definitely_old",""
"html-keyboard-response","164","421653","0.0-18.0-0.60","7703","approach_avoid_sv1","""event"",""trial"",""time""
""fullscreenenter"",""1"",""6936""
","
","
","""event"",""trial"",""time""
""fullscreenenter"",""1"",""6936""
","
","","","","","","null","<div style=""font-size:60px;"">+</div>","null","","fixation","","",""
"memory-trial","165","423470","0.0-18.0-1.60","7703","approach_avoid_sv1","""event"",""trial"",""time""
""fullscreenenter"",""1"",""6936""
","
","
","""event"",""trial"",""time""
""fullscreenenter"",""1"",""6936""
","
","","","","","","802.0999999999767","images/tree5.png","","","memory_trial","4","definitely_new",""
"html-keyboard-response","166","423982","0.0-18.0-0.61","7703","approach_avoid_sv1","""event"",""trial"",""time""
""fullscreenenter"",""1"",""6936""
","
","
","""event"",""trial"",""time""
""fullscreenenter"",""1"",""6936""
","
","","","","","","null","<div style=""font-size:60px;"">+</div>","null","","fixation","","",""
"memory-trial","167","425709","0.0-18.0-1.61","7703","approach_avoid_sv1","""event"",""trial"",""time""
""fullscreenenter"",""1"",""6936""
","
","
","""event"",""trial"",""time""
""fullscreenenter"",""1"",""6936""
","
","","","","","","708.9000000000233","images/cat4.png","","","memory_trial","4","definitely_new",""
"html-keyboard-response","168","426213","0.0-18.0-0.62","7703","approach_avoid_sv1","""event"",""trial"",""time""
""fullscreenenter"",""1"",""6936""
","
","
","""event"",""trial"",""time""
""fullscreenenter"",""1"",""6936""
","
","","","","","","null","<div style=""font-size:60px;"">+</div>","null","","fixation","","",""
"memory-trial","169","428349","0.0-18.0-1.62","7703","approach_avoid_sv1","""event"",""trial"",""time""
""fullscreenenter"",""1"",""6936""
","
","
","""event"",""trial"",""time""
""fullscreenenter"",""1"",""6936""
","
","","","","","","1118.5999999999767","images/sofa5.png","","","memory_trial","1","definitely_old",""
"html-keyboard-response","170","428853","0.0-18.0-0.63","7703","approach_avoid_sv1","""event"",""trial"",""time""
""fullscreenenter"",""1"",""6936""
","
","
","""event"",""trial"",""time""
""fullscreenenter"",""1"",""6936""
","
","","","","","","null","<div style=""font-size:60px;"">+</div>","null","","fixation","","",""
"memory-trial","171","431405","0.0-18.0-1.63","7703","approach_avoid_sv1","""event"",""trial"",""time""
""fullscreenenter"",""1"",""6936""
","
","
","""event"",""trial"",""time""
""fullscreenenter"",""1"",""6936""
","
","","","","","","1541.1999999999534","images/rodent5.png","","","memory_trial","1","definitely_old",""
"html-keyboard-response","172","431909","0.0-18.0-0.64","7703","approach_avoid_sv1","""event"",""trial"",""time""
""fullscreenenter"",""1"",""6936""
","
","
","""event"",""trial"",""time""
""fullscreenenter"",""1"",""6936""
","
","","","","","","null","<div style=""font-size:60px;"">+</div>","null","","fixation","","",""
"memory-trial","173","433958","0.0-18.0-1.64","7703","approach_avoid_sv1","""event"",""trial"",""time""
""fullscreenenter"",""1"",""6936""
","
","
","""event"",""trial"",""time""
""fullscreenenter"",""1"",""6936""
","
","","","","","","1029.9000000000233","images/banana8.png","","","memory_trial","4","definitely_new",""
"html-keyboard-response","174","434469","0.0-18.0-0.65","7703","approach_avoid_sv1","""event"",""trial"",""time""
""fullscreenenter"",""1"",""6936""
","
","
","""event"",""trial"",""time""
""fullscreenenter"",""1"",""6936""
","
","","","","","","null","<div style=""font-size:60px;"">+</div>","null","","fixation","","",""
"memory-trial","175","437582","0.0-18.0-1.65","7703","approach_avoid_sv1","""event"",""trial"",""time""
""fullscreenenter"",""1"",""6936""
","
","
","""event"",""trial"",""time""
""fullscreenenter"",""1"",""6936""
","
","","","","","","2099.5999999999767","images/rabbit4.png","","","memory_trial","1","definitely_old",""
"html-keyboard-response","176","438093","0.0-18.0-0.66","7703","approach_avoid_sv1","""event"",""trial"",""time""
""fullscreenenter"",""1"",""6936""
","
","
","""event"",""trial"",""time""
""fullscreenenter"",""1"",""6936""
","
","","","","","","null","<div style=""font-size:60px;"">+</div>","null","","fixation","","",""
"memory-trial","177","439910","0.0-18.0-1.66","7703","approach_avoid_sv1","""event"",""trial"",""time""
""fullscreenenter"",""1"",""6936""
","
","
","""event"",""trial"",""time""
""fullscreenenter"",""1"",""6936""
","
","","","","","","795.0999999999767","images/table3.png","","","memory_trial","1","definitely_old",""
"html-keyboard-response","178","440422","0.0-18.0-0.67","7703","approach_avoid_sv1","""event"",""trial"",""time""
""fullscreenenter"",""1"",""6936""
","
","
","""event"",""trial"",""time""
""fullscreenenter"",""1"",""6936""
","
","","","","","","null","<div style=""font-size:60px;"">+</div>","null","","fixation","","",""
"memory-trial","179","442262","0.0-18.0-1.67","7703","approach_avoid_sv1","""event"",""trial"",""time""
""fullscreenenter"",""1"",""6936""
","
","
","""event"",""trial"",""time""
""fullscreenenter"",""1"",""6936""
","
","","","","","","824.1999999999534","images/goat7.png","","","memory_trial","4","definitely_new",""
"html-keyboard-response","180","442765","0.0-18.0-0.68","7703","approach_avoid_sv1","""event"",""trial"",""time""
""fullscreenenter"",""1"",""6936""
","
","
","""event"",""trial"",""time""
""fullscreenenter"",""1"",""6936""
","
","","","","","","null","<div style=""font-size:60px;"">+</div>","null","","fixation","","",""
"memory-trial","181","444518","0.0-18.0-1.68","7703","approach_avoid_sv1","""event"",""trial"",""time""
""fullscreenenter"",""1"",""6936""
","
","
","""event"",""trial"",""time""
""fullscreenenter"",""1"",""6936""
","
","","","","","","733.6000000000931","images/boat3.png","","","memory_trial","4","definitely_new",""
"html-keyboard-response","182","445021","0.0-18.0-0.69","7703","approach_avoid_sv1","""event"",""trial"",""time""
""fullscreenenter"",""1"",""6936""
","
","
","""event"",""trial"",""time""
""fullscreenenter"",""1"",""6936""
","
","","","","","","null","<div style=""font-size:60px;"">+</div>","null","","fixation","","",""
"memory-trial","183","446782","0.0-18.0-1.69","7703","approach_avoid_sv1","""event"",""trial"",""time""
""fullscreenenter"",""1"",""6936""
","
","
","""event"",""trial"",""time""
""fullscreenenter"",""1"",""6936""
","
","","","","","","745.9000000000233","images/banana2.png","","","memory_trial","4","definitely_new",""
"html-keyboard-response","184","447285","0.0-18.0-0.70","7703","approach_avoid_sv1","""event"",""trial"",""time""
""fullscreenenter"",""1"",""6936""
","
","
","""event"",""trial"",""time""
""fullscreenenter"",""1"",""6936""
","
","","","","","","null","<div style=""font-size:60px;"">+</div>","null","","fixation","","",""
"memory-trial","185","449086","0.0-18.0-1.70","7703","approach_avoid_sv1","""event"",""trial"",""time""
""fullscreenenter"",""1"",""6936""
","
","
","""event"",""trial"",""time""
""fullscreenenter"",""1"",""6936""
","
","","","","","","786.7999999999302","images/cat7.png","","","memory_trial","4","definitely_new",""
"html-keyboard-response","186","449597","0.0-18.0-0.71","7703","approach_avoid_sv1","""event"",""trial"",""time""
""fullscreenenter"",""1"",""6936""
","
","
","""event"",""trial"",""time""
""fullscreenenter"",""1"",""6936""
","
","","","","","","null","<div style=""font-size:60px;"">+</div>","null","","fixation","","",""
"memory-trial","187","451678","0.0-18.0-1.71","7703","approach_avoid_sv1","""event"",""trial"",""time""
""fullscreenenter"",""1"",""6936""
","
","
","""event"",""trial"",""time""
""fullscreenenter"",""1"",""6936""
","
","","","","","","1062.3000000000466","images/rodent7.png","","","memory_trial","4","definitely_new",""
"html-keyboard-response","188","452189","0.0-18.0-0.72","7703","approach_avoid_sv1","""event"",""trial"",""time""
""fullscreenenter"",""1"",""6936""
","
","
","""event"",""trial"",""time""
""fullscreenenter"",""1"",""6936""
","
","","","","","","null","<div style=""font-size:60px;"">+</div>","null","","fixation","","",""
"memory-trial","189","454654","0.0-18.0-1.72","7703","approach_avoid_sv1","""event"",""trial"",""time""
""fullscreenenter"",""1"",""6936""
","
","
","""event"",""trial"",""time""
""fullscreenenter"",""1"",""6936""
","
","","","","","","1453","images/plane4.png","","","memory_trial","1","definitely_old",""
"html-keyboard-response","190","455157","0.0-18.0-0.73","7703","approach_avoid_sv1","""event"",""trial"",""time""
""fullscreenenter"",""1"",""6936""
","
","
","""event"",""trial"",""time""
""fullscreenenter"",""1"",""6936""
","
","","","","","","null","<div style=""font-size:60px;"">+</div>","null","","fixation","","",""
"memory-trial","191","457014","0.0-18.0-1.73","7703","approach_avoid_sv1","""event"",""trial"",""time""
""fullscreenenter"",""1"",""6936""
","
","
","""event"",""trial"",""time""
""fullscreenenter"",""1"",""6936""
","
","","","","","","842.5999999999767","images/rabbit6.png","","","memory_trial","1","definitely_old",""
"html-keyboard-response","192","457517","0.0-18.0-0.74","7703","approach_avoid_sv1","""event"",""trial"",""time""
""fullscreenenter"",""1"",""6936""
","
","
","""event"",""trial"",""time""
""fullscreenenter"",""1"",""6936""
","
","","","","","","null","<div style=""font-size:60px;"">+</div>","null","","fixation","","",""
"memory-trial","193","459325","0.0-18.0-1.74","7703","approach_avoid_sv1","""event"",""trial"",""time""
""fullscreenenter"",""1"",""6936""
","
","
","""event"",""trial"",""time""
""fullscreenenter"",""1"",""6936""
","
","","","","","","790.1999999999534","images/cat5.png","","","memory_trial","4","definitely_new",""
"html-keyboard-response","194","459830","0.0-18.0-0.75","7703","approach_avoid_sv1","""event"",""trial"",""time""
""fullscreenenter"",""1"",""6936""
","
","
","""event"",""trial"",""time""
""fullscreenenter"",""1"",""6936""
","
","","","","","","null","<div style=""font-size:60px;"">+</div>","null","","fixation","","",""
"memory-trial","195","461942","0.0-18.0-1.75","7703","approach_avoid_sv1","""event"",""trial"",""time""
""fullscreenenter"",""1"",""6936""
","
","
","""event"",""trial"",""time""
""fullscreenenter"",""1"",""6936""
","
","","","","","","1100.8000000000466","images/cactus3.png","","","memory_trial","4","definitely_new",""
"html-keyboard-response","196","462453","0.0-18.0-0.76","7703","approach_avoid_sv1","""event"",""trial"",""time""
""fullscreenenter"",""1"",""6936""
","
","
","""event"",""trial"",""time""
""fullscreenenter"",""1"",""6936""
","
","","","","","","null","<div style=""font-size:60px;"">+</div>","null","","fixation","","",""
"memory-trial","197","464118","0.0-18.0-1.76","7703","approach_avoid_sv1","""event"",""trial"",""time""
""fullscreenenter"",""1"",""6936""
","
","
","""event"",""trial"",""time""
""fullscreenenter"",""1"",""6936""
","
","","","","","","648.5","images/flower8.png","","","memory_trial","4","definitely_new",""
"html-keyboard-response","198","464621","0.0-18.0-0.77","7703","approach_avoid_sv1","""event"",""trial"",""time""
""fullscreenenter"",""1"",""6936""
","
","
","""event"",""trial"",""time""
""fullscreenenter"",""1"",""6936""
","
","","","","","","null","<div style=""font-size:60px;"">+</div>","null","","fixation","","",""
"memory-trial","199","465965","0.0-18.0-1.77","7703","approach_avoid_sv1","""event"",""trial"",""time""
""fullscreenenter"",""1"",""6936""
","
","
","""event"",""trial"",""time""
""fullscreenenter"",""1"",""6936""
","
","","","","","","334.5999999999767","images/tree6.png","","","memory_trial","4","definitely_new",""
"html-keyboard-response","200","466469","0.0-18.0-0.78","7703","approach_avoid_sv1","""event"",""trial"",""time""
""fullscreenenter"",""1"",""6936""
","
","
","""event"",""trial"",""time""
""fullscreenenter"",""1"",""6936""
","
","","","","","","null","<div style=""font-size:60px;"">+</div>","null","","fixation","","",""
"memory-trial","201","468485","0.0-18.0-1.78","7703","approach_avoid_sv1","""event"",""trial"",""time""
""fullscreenenter"",""1"",""6936""
","
","
","""event"",""trial"",""time""
""fullscreenenter"",""1"",""6936""
","
","","","","","","997.4000000000233","images/bush3.png","","","memory_trial","4","definitely_new",""
"html-keyboard-response","202","468989","0.0-18.0-0.79","7703","approach_avoid_sv1","""event"",""trial"",""time""
""fullscreenenter"",""1"",""6936""
","
","
","""event"",""trial"",""time""
""fullscreenenter"",""1"",""6936""
","
","","","","","","null","<div style=""font-size:60px;"">+</div>","null","","fixation","","",""
"memory-trial","203","470741","0.0-18.0-1.79","7703","approach_avoid_sv1","""event"",""trial"",""time""
""fullscreenenter"",""1"",""6936""
","
","
","""event"",""trial"",""time""
""fullscreenenter"",""1"",""6936""
","
","","","","","","735.9000000000233","images/train2.png","","","memory_trial","4","definitely_new",""
"html-keyboard-response","204","471245","0.0-18.0-0.80","7703","approach_avoid_sv1","""event"",""trial"",""time""
""fullscreenenter"",""1"",""6936""
","
","
","""event"",""trial"",""time""
""fullscreenenter"",""1"",""6936""
","
","","","","","","null","<div style=""font-size:60px;"">+</div>","null","","fixation","","",""
"memory-trial","205","473278","0.0-18.0-1.80","7703","approach_avoid_sv1","""event"",""trial"",""time""
""fullscreenenter"",""1"",""6936""
","
","
","""event"",""trial"",""time""
""fullscreenenter"",""1"",""6936""
","
","","","","","","1012.7000000000698","images/orange1.png","","","memory_trial","1","definitely_old",""
"html-keyboard-response","206","473781","0.0-18.0-0.81","7703","approach_avoid_sv1","""event"",""trial"",""time""
""fullscreenenter"",""1"",""6936""
","
","
","""event"",""trial"",""time""
""fullscreenenter"",""1"",""6936""
","
","","","","","","null","<div style=""font-size:60px;"">+</div>","null","","fixation","","",""
"memory-trial","207","475550","0.0-18.0-1.81","7703","approach_avoid_sv1","""event"",""trial"",""time""
""fullscreenenter"",""1"",""6936""
","
","
","""event"",""trial"",""time""
""fullscreenenter"",""1"",""6936""
","
","","","","","","754","images/sofa1.png","","","memory_trial","1","definitely_old",""
"html-keyboard-response","208","476061","0.0-18.0-0.82","7703","approach_avoid_sv1","""event"",""trial"",""time""
""fullscreenenter"",""1"",""6936""
","
","
","""event"",""trial"",""time""
""fullscreenenter"",""1"",""6936""
","
","","","","","","null","<div style=""font-size:60px;"">+</div>","null","","fixation","","",""
"memory-trial","209","477910","0.0-18.0-1.82","7703","approach_avoid_sv1","""event"",""trial"",""time""
""fullscreenenter"",""1"",""6936""
","
","
","""event"",""trial"",""time""
""fullscreenenter"",""1"",""6936""
","
","","","","","","834.5999999999767","images/sofa4.png","","","memory_trial","1","definitely_old",""
"html-keyboard-response","210","478421","0.0-18.0-0.83","7703","approach_avoid_sv1","""event"",""trial"",""time""
""fullscreenenter"",""1"",""6936""
","
","
","""event"",""trial"",""time""
""fullscreenenter"",""1"",""6936""
","
","","","","","","null","<div style=""font-size:60px;"">+</div>","null","","fixation","","",""
"memory-trial","211","480613","0.0-18.0-1.83","7703","approach_avoid_sv1","""event"",""trial"",""time""
""fullscreenenter"",""1"",""6936""
","
","
","""event"",""trial"",""time""
""fullscreenenter"",""1"",""6936""
","
","","","","","","1175.4000000000233","images/bush5.png","","","memory_trial","1","definitely_old",""
"html-keyboard-response","212","481117","0.0-18.0-0.84","7703","approach_avoid_sv1","""event"",""trial"",""time""
""fullscreenenter"",""1"",""6936""
","
","
","""event"",""trial"",""time""
""fullscreenenter"",""1"",""6936""
","
","","","","","","null","<div style=""font-size:60px;"">+</div>","null","","fixation","","",""
"memory-trial","213","483198","0.0-18.0-1.84","7703","approach_avoid_sv1","""event"",""trial"",""time""
""fullscreenenter"",""1"",""6936""
","
","
","""event"",""trial"",""time""
""fullscreenenter"",""1"",""6936""
","
","","","","","","1062.9000000000233","images/rabbit1.png","","","memory_trial","4","definitely_new",""
"html-keyboard-response","214","483701","0.0-18.0-0.85","7703","approach_avoid_sv1","""event"",""trial"",""time""
""fullscreenenter"",""1"",""6936""
","
","
","""event"",""trial"",""time""
""fullscreenenter"",""1"",""6936""
","
","","","","","","null","<div style=""font-size:60px;"">+</div>","null","","fixation","","",""
"memory-trial","215","485597","0.0-18.0-1.85","7703","approach_avoid_sv1","""event"",""trial"",""time""
""fullscreenenter"",""1"",""6936""
","
","
","""event"",""trial"",""time""
""fullscreenenter"",""1"",""6936""
","
","","","","","","883.6999999999534","images/rodent4.png","","","memory_trial","4","definitely_new",""
"html-keyboard-response","216","486101","0.0-18.0-0.86","7703","approach_avoid_sv1","""event"",""trial"",""time""
""fullscreenenter"",""1"",""6936""
","
","
","""event"",""trial"",""time""
""fullscreenenter"",""1"",""6936""
","
","","","","","","null","<div style=""font-size:60px;"">+</div>","null","","fixation","","",""
"memory-trial","217","488198","0.0-18.0-1.86","7703","approach_avoid_sv1","""event"",""trial"",""time""
""fullscreenenter"",""1"",""6936""
","
","
","""event"",""trial"",""time""
""fullscreenenter"",""1"",""6936""
","
","","","","","","1081.7999999999302","images/tree8.png","","","memory_trial","1","definitely_old",""
"html-keyboard-response","218","488709","0.0-18.0-0.87","7703","approach_avoid_sv1","""event"",""trial"",""time""
""fullscreenenter"",""1"",""6936""
","
","
","""event"",""trial"",""time""
""fullscreenenter"",""1"",""6936""
","
","","","","","","null","<div style=""font-size:60px;"">+</div>","null","","fixation","","",""
"memory-trial","219","490430","0.0-18.0-1.87","7703","approach_avoid_sv1","""event"",""trial"",""time""
""fullscreenenter"",""1"",""6936""
","
","
","""event"",""trial"",""time""
""fullscreenenter"",""1"",""6936""
","
","","","","","","702.5","images/banana5.png","","","memory_trial","4","definitely_new",""
"html-keyboard-response","220","490941","0.0-18.0-0.88","7703","approach_avoid_sv1","""event"",""trial"",""time""
""fullscreenenter"",""1"",""6936""
","
","
","""event"",""trial"",""time""
""fullscreenenter"",""1"",""6936""
","
","","","","","","null","<div style=""font-size:60px;"">+</div>","null","","fixation","","",""
"memory-trial","221","493030","0.0-18.0-1.88","7703","approach_avoid_sv1","""event"",""trial"",""time""
""fullscreenenter"",""1"",""6936""
","
","
","""event"",""trial"",""time""
""fullscreenenter"",""1"",""6936""
","
","","","","","","1069.5999999999767","images/goat4.png","","","memory_trial","4","definitely_new",""
"html-keyboard-response","222","493541","0.0-18.0-0.89","7703","approach_avoid_sv1","""event"",""trial"",""time""
""fullscreenenter"",""1"",""6936""
","
","
","""event"",""trial"",""time""
""fullscreenenter"",""1"",""6936""
","
","","","","","","null","<div style=""font-size:60px;"">+</div>","null","","fixation","","",""
"memory-trial","223","495486","0.0-18.0-1.89","7703","approach_avoid_sv1","""event"",""trial"",""time""
""fullscreenenter"",""1"",""6936""
","
","
","""event"",""trial"",""time""
""fullscreenenter"",""1"",""6936""
","
","","","","","","929.9000000000233","images/cow5.png","","","memory_trial","4","definitely_new",""
"html-keyboard-response","224","495997","0.0-18.0-0.90","7703","approach_avoid_sv1","""event"",""trial"",""time""
""fullscreenenter"",""1"",""6936""
","
","
","""event"",""trial"",""time""
""fullscreenenter"",""1"",""6936""
","
","","","","","","null","<div style=""font-size:60px;"">+</div>","null","","fixation","","",""
"memory-trial","225","497965","0.0-18.0-1.90","7703","approach_avoid_sv1","""event"",""trial"",""time""
""fullscreenenter"",""1"",""6936""
","
","
","""event"",""trial"",""time""
""fullscreenenter"",""1"",""6936""
","
","","","","","","950.3000000000466","images/tree2.png","","","memory_trial","1","definitely_old",""
"html-keyboard-response","226","498469","0.0-18.0-0.91","7703","approach_avoid_sv1","""event"",""trial"",""time""
""fullscreenenter"",""1"",""6936""
","
","
","""event"",""trial"",""time""
""fullscreenenter"",""1"",""6936""
","
","","","","","","null","<div style=""font-size:60px;"">+</div>","null","","fixation","","",""
"memory-trial","227","500229","0.0-18.0-1.91","7703","approach_avoid_sv1","""event"",""trial"",""time""
""fullscreenenter"",""1"",""6936""
","
","
","""event"",""trial"",""time""
""fullscreenenter"",""1"",""6936""
","
","","","","","","738","images/bed7.png","","","memory_trial","1","definitely_old",""
"html-button-response","228","539508","0.0-18.0-2.91-0.91","7703","approach_avoid_sv1","""event"",""trial"",""time""
""fullscreenenter"",""1"",""6936""
","
","
","""event"",""trial"",""time""
""fullscreenenter"",""1"",""6936""
","
","","","","","","39274.20000000001","<p> Take a break! </p><p> Click the button to continue. </p>","0","","break","","",""
"html-keyboard-response","229","540013","0.0-18.0-0.92","7703","approach_avoid_sv1","""event"",""trial"",""time""
""fullscreenenter"",""1"",""6936""
","
","
","""event"",""trial"",""time""
""fullscreenenter"",""1"",""6936""
","
","","","","","","null","<div style=""font-size:60px;"">+</div>","null","","fixation","","",""
"memory-trial","230","542958","0.0-18.0-1.92","7703","approach_avoid_sv1","""event"",""trial"",""time""
""fullscreenenter"",""1"",""6936""
","
","
","""event"",""trial"",""time""
""fullscreenenter"",""1"",""6936""
","
","","","","","","1930.5","images/cactus7.png","","","memory_trial","4","definitely_new",""
"html-keyboard-response","231","543461","0.0-18.0-0.93","7703","approach_avoid_sv1","""event"",""trial"",""time""
""fullscreenenter"",""1"",""6936""
","
","
","""event"",""trial"",""time""
""fullscreenenter"",""1"",""6936""
","
","","","","","","null","<div style=""font-size:60px;"">+</div>","null","","fixation","","",""
"memory-trial","232","545310","0.0-18.0-1.93","7703","approach_avoid_sv1","""event"",""trial"",""time""
""fullscreenenter"",""1"",""6936""
","
","
","""event"",""trial"",""time""
""fullscreenenter"",""1"",""6936""
","
","","","","","","838","images/cow1.png","","","memory_trial","4","definitely_new",""
"html-keyboard-response","233","545821","0.0-18.0-0.94","7703","approach_avoid_sv1","""event"",""trial"",""time""
""fullscreenenter"",""1"",""6936""
","
","
","""event"",""trial"",""time""
""fullscreenenter"",""1"",""6936""
","
","","","","","","null","<div style=""font-size:60px;"">+</div>","null","","fixation","","",""
"memory-trial","234","547989","0.0-18.0-1.94","7703","approach_avoid_sv1","""event"",""trial"",""time""
""fullscreenenter"",""1"",""6936""
","
","
","""event"",""trial"",""time""
""fullscreenenter"",""1"",""6936""
","
","","","","","","1154.4000000001397","images/straw7.png","","","memory_trial","4","definitely_new",""
"html-keyboard-response","235","548501","0.0-18.0-0.95","7703","approach_avoid_sv1","""event"",""trial"",""time""
""fullscreenenter"",""1"",""6936""
","
","
","""event"",""trial"",""time""
""fullscreenenter"",""1"",""6936""
","
","","","","","","null","<div style=""font-size:60px;"">+</div>","null","","fixation","","",""
"memory-trial","236","550429","0.0-18.0-1.95","7703","approach_avoid_sv1","""event"",""trial"",""time""
""fullscreenenter"",""1"",""6936""
","
","
","""event"",""trial"",""time""
""fullscreenenter"",""1"",""6936""
","
","","","","","","911.3000000000466","images/banana4.png","","","memory_trial","4","definitely_new",""
"html-keyboard-response","237","550941","0.0-18.0-0.96","7703","approach_avoid_sv1","""event"",""trial"",""time""
""fullscreenenter"",""1"",""6936""
","
","
","""event"",""trial"",""time""
""fullscreenenter"",""1"",""6936""
","
","","","","","","null","<div style=""font-size:60px;"">+</div>","null","","fixation","","",""
"memory-trial","238","552973","0.0-18.0-1.96","7703","approach_avoid_sv1","""event"",""trial"",""time""
""fullscreenenter"",""1"",""6936""
","
","
","""event"",""trial"",""time""
""fullscreenenter"",""1"",""6936""
","
","","","","","","1013.8999999999069","images/bush2.png","","","memory_trial","4","definitely_new",""
"html-keyboard-response","239","553477","0.0-18.0-0.97","7703","approach_avoid_sv1","""event"",""trial"",""time""
""fullscreenenter"",""1"",""6936""
","
","
","""event"",""trial"",""time""
""fullscreenenter"",""1"",""6936""
","
","","","","","","null","<div style=""font-size:60px;"">+</div>","null","","fixation","","",""
"memory-trial","240","556182","0.0-18.0-1.97","7703","approach_avoid_sv1","""event"",""trial"",""time""
""fullscreenenter"",""1"",""6936""
","
","
","""event"",""trial"",""time""
""fullscreenenter"",""1"",""6936""
","
","","","","","","1689.5999999998603","images/plane7.png","","","memory_trial","1","definitely_old",""
"html-keyboard-response","241","556685","0.0-18.0-0.98","7703","approach_avoid_sv1","""event"",""trial"",""time""
""fullscreenenter"",""1"",""6936""
","
","
","""event"",""trial"",""time""
""fullscreenenter"",""1"",""6936""
","
","","","","","","null","<div style=""font-size:60px;"">+</div>","null","","fixation","","",""
"memory-trial","242","558445","0.0-18.0-1.98","7703","approach_avoid_sv1","""event"",""trial"",""time""
""fullscreenenter"",""1"",""6936""
","
","
","""event"",""trial"",""time""
""fullscreenenter"",""1"",""6936""
","
","","","","","","739.9000000001397","images/train1.png","","","memory_trial","4","definitely_new",""
"html-keyboard-response","243","558949","0.0-18.0-0.99","7703","approach_avoid_sv1","""event"",""trial"",""time""
""fullscreenenter"",""1"",""6936""
","
","
","""event"",""trial"",""time""
""fullscreenenter"",""1"",""6936""
","
","","","","","","null","<div style=""font-size:60px;"">+</div>","null","","fixation","","",""
"memory-trial","244","561022","0.0-18.0-1.99","7703","approach_avoid_sv1","""event"",""trial"",""time""
""fullscreenenter"",""1"",""6936""
","
","
","""event"",""trial"",""time""
""fullscreenenter"",""1"",""6936""
","
","","","","","","1054.6000000000931","images/sofa7.png","","","memory_trial","1","definitely_old",""
"html-keyboard-response","245","561533","0.0-18.0-0.100","7703","approach_avoid_sv1","""event"",""trial"",""time""
""fullscreenenter"",""1"",""6936""
","
","
","""event"",""trial"",""time""
""fullscreenenter"",""1"",""6936""
","
","","","","","","null","<div style=""font-size:60px;"">+</div>","null","","fixation","","",""
"memory-trial","246","563326","0.0-18.0-1.100","7703","approach_avoid_sv1","""event"",""trial"",""time""
""fullscreenenter"",""1"",""6936""
","
","
","""event"",""trial"",""time""
""fullscreenenter"",""1"",""6936""
","
","","","","","","774","images/rabbit5.png","","","memory_trial","1","definitely_old",""
"html-keyboard-response","247","563829","0.0-18.0-0.101","7703","approach_avoid_sv1","""event"",""trial"",""time""
""fullscreenenter"",""1"",""6936""
","
","
","""event"",""trial"",""time""
""fullscreenenter"",""1"",""6936""
","
","","","","","","null","<div style=""font-size:60px;"">+</div>","null","","fixation","","",""
"memory-trial","248","565493","0.0-18.0-1.101","7703","approach_avoid_sv1","""event"",""trial"",""time""
""fullscreenenter"",""1"",""6936""
","
","
","""event"",""trial"",""time""
""fullscreenenter"",""1"",""6936""
","
","","","","","","645.1999999999534","images/apple5.png","","","memory_trial","4","definitely_new",""
"html-keyboard-response","249","565997","0.0-18.0-0.102","7703","approach_avoid_sv1","""event"",""trial"",""time""
""fullscreenenter"",""1"",""6936""
","
","
","""event"",""trial"",""time""
""fullscreenenter"",""1"",""6936""
","
","","","","","","null","<div style=""font-size:60px;"">+</div>","null","","fixation","","",""
"memory-trial","250","567557","0.0-18.0-1.102","7703","approach_avoid_sv1","""event"",""trial"",""time""
""fullscreenenter"",""1"",""6936""
","
","
","""event"",""trial"",""time""
""fullscreenenter"",""1"",""6936""
","
","","","","","","542.5","images/truck4.png","","","memory_trial","4","definitely_new",""
"html-keyboard-response","251","568061","0.0-18.0-0.103","7703","approach_avoid_sv1","""event"",""trial"",""time""
""fullscreenenter"",""1"",""6936""
","
","
","""event"",""trial"",""time""
""fullscreenenter"",""1"",""6936""
","
","","","","","","null","<div style=""font-size:60px;"">+</div>","null","","fixation","","",""
"memory-trial","252","570342","0.0-18.0-1.103","7703","approach_avoid_sv1","""event"",""trial"",""time""
""fullscreenenter"",""1"",""6936""
","
","
","""event"",""trial"",""time""
""fullscreenenter"",""1"",""6936""
","
","","","","","","1266.6999999999534","images/apple3.png","","","memory_trial","4","definitely_new",""
"html-keyboard-response","253","570853","0.0-18.0-0.104","7703","approach_avoid_sv1","""event"",""trial"",""time""
""fullscreenenter"",""1"",""6936""
","
","
","""event"",""trial"",""time""
""fullscreenenter"",""1"",""6936""
","
","","","","","","null","<div style=""font-size:60px;"">+</div>","null","","fixation","","",""
"memory-trial","254","572558","0.0-18.0-1.104","7703","approach_avoid_sv1","""event"",""trial"",""time""
""fullscreenenter"",""1"",""6936""
","
","
","""event"",""trial"",""time""
""fullscreenenter"",""1"",""6936""
","
","","","","","","688.4000000001397","images/apple7.png","","","memory_trial","1","definitely_old",""
"html-keyboard-response","255","573069","0.0-18.0-0.105","7703","approach_avoid_sv1","""event"",""trial"",""time""
""fullscreenenter"",""1"",""6936""
","
","
","""event"",""trial"",""time""
""fullscreenenter"",""1"",""6936""
","
","","","","","","null","<div style=""font-size:60px;"">+</div>","null","","fixation","","",""
"memory-trial","256","574838","0.0-18.0-1.105","7703","approach_avoid_sv1","""event"",""trial"",""time""
""fullscreenenter"",""1"",""6936""
","
","
","""event"",""trial"",""time""
""fullscreenenter"",""1"",""6936""
","
","","","","","","751.0999999998603","images/flower2.png","","","memory_trial","4","definitely_new",""
"html-keyboard-response","257","575351","0.0-18.0-0.106","7703","approach_avoid_sv1","""event"",""trial"",""time""
""fullscreenenter"",""1"",""6936""
","
","
","""event"",""trial"",""time""
""fullscreenenter"",""1"",""6936""
","
","","","","","","null","<div style=""font-size:60px;"">+</div>","null","","fixation","","",""
"memory-trial","258","577093","0.0-18.0-1.106","7703","approach_avoid_sv1","""event"",""trial"",""time""
""fullscreenenter"",""1"",""6936""
","
","
","""event"",""trial"",""time""
""fullscreenenter"",""1"",""6936""
","
","","","","","","731.8999999999069","images/orange6.png","","","memory_trial","1","definitely_old",""
"html-keyboard-response","259","577597","0.0-18.0-0.107","7703","approach_avoid_sv1","""event"",""trial"",""time""
""fullscreenenter"",""1"",""6936""
","
","
","""event"",""trial"",""time""
""fullscreenenter"",""1"",""6936""
","
","","","","","","null","<div style=""font-size:60px;"">+</div>","null","","fixation","","",""
"memory-trial","260","579365","0.0-18.0-1.107","7703","approach_avoid_sv1","""event"",""trial"",""time""
""fullscreenenter"",""1"",""6936""
","
","
","""event"",""trial"",""time""
""fullscreenenter"",""1"",""6936""
","
","","","","","","753.7000000001863","images/sofa8.png","","","memory_trial","1","definitely_old",""
"html-keyboard-response","261","579877","0.0-18.0-0.108","7703","approach_avoid_sv1","""event"",""trial"",""time""
""fullscreenenter"",""1"",""6936""
","
","
","""event"",""trial"",""time""
""fullscreenenter"",""1"",""6936""
","
","","","","","","null","<div style=""font-size:60px;"">+</div>","null","","fixation","","",""
"memory-trial","262","582070","0.0-18.0-1.108","7703","approach_avoid_sv1","""event"",""trial"",""time""
""fullscreenenter"",""1"",""6936""
","
","
","""event"",""trial"",""time""
""fullscreenenter"",""1"",""6936""
","
","","","","","","1175.8000000000466","images/cactus2.png","","","memory_trial","4","definitely_new",""
"html-keyboard-response","263","582582","0.0-18.0-0.109","7703","approach_avoid_sv1","""event"",""trial"",""time""
""fullscreenenter"",""1"",""6936""
","
","
","""event"",""trial"",""time""
""fullscreenenter"",""1"",""6936""
","
","","","","","","null","<div style=""font-size:60px;"">+</div>","null","","fixation","","",""
"memory-trial","264","584598","0.0-18.0-1.109","7703","approach_avoid_sv1","""event"",""trial"",""time""
""fullscreenenter"",""1"",""6936""
","
","
","""event"",""trial"",""time""
""fullscreenenter"",""1"",""6936""
","
","","","","","","1001.8999999999069","images/chair2.png","","","memory_trial","1","definitely_old",""
"html-keyboard-response","265","585109","0.0-18.0-0.110","7703","approach_avoid_sv1","""event"",""trial"",""time""
""fullscreenenter"",""1"",""6936""
","
","
","""event"",""trial"",""time""
""fullscreenenter"",""1"",""6936""
","
","","","","","","null","<div style=""font-size:60px;"">+</div>","null","","fixation","","",""
"memory-trial","266","587077","0.0-18.0-1.110","7703","approach_avoid_sv1","""event"",""trial"",""time""
""fullscreenenter"",""1"",""6936""
","
","
","""event"",""trial"",""time""
""fullscreenenter"",""1"",""6936""
","
","","","","","","953.8999999999069","images/table5.png","","","memory_trial","1","definitely_old",""
"html-keyboard-response","267","587581","0.0-18.0-0.111","7703","approach_avoid_sv1","""event"",""trial"",""time""
""fullscreenenter"",""1"",""6936""
","
","
","""event"",""trial"",""time""
""fullscreenenter"",""1"",""6936""
","
","","","","","","null","<div style=""font-size:60px;"">+</div>","null","","fixation","","",""
"memory-trial","268","589302","0.0-18.0-1.111","7703","approach_avoid_sv1","""event"",""trial"",""time""
""fullscreenenter"",""1"",""6936""
","
","
","""event"",""trial"",""time""
""fullscreenenter"",""1"",""6936""
","
","","","","","","709.1999999999534","images/chair3.png","","","memory_trial","1","definitely_old",""
"html-keyboard-response","269","589813","0.0-18.0-0.112","7703","approach_avoid_sv1","""event"",""trial"",""time""
""fullscreenenter"",""1"",""6936""
","
","
","""event"",""trial"",""time""
""fullscreenenter"",""1"",""6936""
","
","","","","","","null","<div style=""font-size:60px;"">+</div>","null","","fixation","","",""
"memory-trial","270","591757","0.0-18.0-1.112","7703","approach_avoid_sv1","""event"",""trial"",""time""
""fullscreenenter"",""1"",""6936""
","
","
","""event"",""trial"",""time""
""fullscreenenter"",""1"",""6936""
","
","","","","","","927.8000000000466","images/rabbit8.png","","","memory_trial","1","definitely_old",""
"html-keyboard-response","271","592269","0.0-18.0-0.113","7703","approach_avoid_sv1","""event"",""trial"",""time""
""fullscreenenter"",""1"",""6936""
","
","
","""event"",""trial"",""time""
""fullscreenenter"",""1"",""6936""
","
","","","","","","null","<div style=""font-size:60px;"">+</div>","null","","fixation","","",""
"memory-trial","272","594366","0.0-18.0-1.113","7703","approach_avoid_sv1","""event"",""trial"",""time""
""fullscreenenter"",""1"",""6936""
","
","
","""event"",""trial"",""time""
""fullscreenenter"",""1"",""6936""
","
","","","","","","1078.6999999999534","images/plane1.png","","","memory_trial","4","definitely_new",""
"html-keyboard-response","273","594869","0.0-18.0-0.114","7703","approach_avoid_sv1","""event"",""trial"",""time""
""fullscreenenter"",""1"",""6936""
","
","
","""event"",""trial"",""time""
""fullscreenenter"",""1"",""6936""
","
","","","","","","null","<div style=""font-size:60px;"">+</div>","null","","fixation","","",""
"memory-trial","274","596774","0.0-18.0-1.114","7703","approach_avoid_sv1","""event"",""trial"",""time""
""fullscreenenter"",""1"",""6936""
","
","
","""event"",""trial"",""time""
""fullscreenenter"",""1"",""6936""
","
","","","","","","886.8999999999069","images/sofa3.png","","","memory_trial","1","definitely_old",""
"html-keyboard-response","275","597285","0.0-18.0-0.115","7703","approach_avoid_sv1","""event"",""trial"",""time""
""fullscreenenter"",""1"",""6936""
","
","
","""event"",""trial"",""time""
""fullscreenenter"",""1"",""6936""
","
","","","","","","null","<div style=""font-size:60px;"">+</div>","null","","fixation","","",""
"memory-trial","276","599077","0.0-18.0-1.115","7703","approach_avoid_sv1","""event"",""trial"",""time""
""fullscreenenter"",""1"",""6936""
","
","
","""event"",""trial"",""time""
""fullscreenenter"",""1"",""6936""
","
","","","","","","777.6000000000931","images/plane2.png","","","memory_trial","4","definitely_new",""
"html-keyboard-response","277","599582","0.0-18.0-0.116","7703","approach_avoid_sv1","""event"",""trial"",""time""
""fullscreenenter"",""1"",""6936""
","
","
","""event"",""trial"",""time""
""fullscreenenter"",""1"",""6936""
","
","","","","","","null","<div style=""font-size:60px;"">+</div>","null","","fixation","","",""
"memory-trial","278","601653","0.0-18.0-1.116","7703","approach_avoid_sv1","""event"",""trial"",""time""
""fullscreenenter"",""1"",""6936""
","
","
","""event"",""trial"",""time""
""fullscreenenter"",""1"",""6936""
","
","","","","","","1054.6000000000931","images/dog6.png","","","memory_trial","1","definitely_old",""
"html-keyboard-response","279","602165","0.0-18.0-0.117","7703","approach_avoid_sv1","""event"",""trial"",""time""
""fullscreenenter"",""1"",""6936""
","
","
","""event"",""trial"",""time""
""fullscreenenter"",""1"",""6936""
","
","","","","","","null","<div style=""font-size:60px;"">+</div>","null","","fixation","","",""
"memory-trial","280","604141","0.0-18.0-1.117","7703","approach_avoid_sv1","""event"",""trial"",""time""
""fullscreenenter"",""1"",""6936""
","
","
","""event"",""trial"",""time""
""fullscreenenter"",""1"",""6936""
","
","","","","","","960.6999999999534","images/dog4.png","","","memory_trial","1","definitely_old",""
"html-keyboard-response","281","604645","0.0-18.0-0.118","7703","approach_avoid_sv1","""event"",""trial"",""time""
""fullscreenenter"",""1"",""6936""
","
","
","""event"",""trial"",""time""
""fullscreenenter"",""1"",""6936""
","
","","","","","","null","<div style=""font-size:60px;"">+</div>","null","","fixation","","",""
"memory-trial","282","606557","0.0-18.0-1.118","7703","approach_avoid_sv1","""event"",""trial"",""time""
""fullscreenenter"",""1"",""6936""
","
","
","""event"",""trial"",""time""
""fullscreenenter"",""1"",""6936""
","
","","","","","","896.5","images/cactus8.png","","","memory_trial","4","definitely_new",""
"html-keyboard-response","283","607062","0.0-18.0-0.119","7703","approach_avoid_sv1","""event"",""trial"",""time""
""fullscreenenter"",""1"",""6936""
","
","
","""event"",""trial"",""time""
""fullscreenenter"",""1"",""6936""
","
","","","","","","null","<div style=""font-size:60px;"">+</div>","null","","fixation","","",""
"memory-trial","284","608949","0.0-18.0-1.119","7703","approach_avoid_sv1","""event"",""trial"",""time""
""fullscreenenter"",""1"",""6936""
","
","
","""event"",""trial"",""time""
""fullscreenenter"",""1"",""6936""
","
","","","","","","875.8999999999069","images/straw6.png","","","memory_trial","4","definitely_new",""
"html-keyboard-response","285","609453","0.0-18.0-0.120","7703","approach_avoid_sv1","""event"",""trial"",""time""
""fullscreenenter"",""1"",""6936""
","
","
","""event"",""trial"",""time""
""fullscreenenter"",""1"",""6936""
","
","","","","","","null","<div style=""font-size:60px;"">+</div>","null","","fixation","","",""
"memory-trial","286","611150","0.0-18.0-1.120","7703","approach_avoid_sv1","""event"",""trial"",""time""
""fullscreenenter"",""1"",""6936""
","
","
","""event"",""trial"",""time""
""fullscreenenter"",""1"",""6936""
","
","","","","","","684.1000000000931","images/truck5.png","","","memory_trial","4","definitely_new",""
"html-keyboard-response","287","611653","0.0-18.0-0.121","7703","approach_avoid_sv1","""event"",""trial"",""time""
""fullscreenenter"",""1"",""6936""
","
","
","""event"",""trial"",""time""
""fullscreenenter"",""1"",""6936""
","
","","","","","","null","<div style=""font-size:60px;"">+</div>","null","","fixation","","",""
"memory-trial","288","613598","0.0-18.0-1.121","7703","approach_avoid_sv1","""event"",""trial"",""time""
""fullscreenenter"",""1"",""6936""
","
","
","""event"",""trial"",""time""
""fullscreenenter"",""1"",""6936""
","
","","","","","","928.3999999999069","images/bush7.png","","","memory_trial","4","definitely_new",""
"html-keyboard-response","289","614102","0.0-18.0-0.122","7703","approach_avoid_sv1","""event"",""trial"",""time""
""fullscreenenter"",""1"",""6936""
","
","
","""event"",""trial"",""time""
""fullscreenenter"",""1"",""6936""
","
","","","","","","null","<div style=""font-size:60px;"">+</div>","null","","fixation","","",""
"memory-trial","290","616302","0.0-18.0-1.122","7703","approach_avoid_sv1","""event"",""trial"",""time""
""fullscreenenter"",""1"",""6936""
","
","
","""event"",""trial"",""time""
""fullscreenenter"",""1"",""6936""
","
","","","","","","1185","images/cactus4.png","","","memory_trial","1","definitely_old",""
"html-keyboard-response","291","616813","0.0-18.0-0.123","7703","approach_avoid_sv1","""event"",""trial"",""time""
""fullscreenenter"",""1"",""6936""
","
","
","""event"",""trial"",""time""
""fullscreenenter"",""1"",""6936""
","
","","","","","","null","<div style=""font-size:60px;"">+</div>","null","","fixation","","",""
"memory-trial","292","618862","0.0-18.0-1.123","7703","approach_avoid_sv1","""event"",""trial"",""time""
""fullscreenenter"",""1"",""6936""
","
","
","""event"",""trial"",""time""
""fullscreenenter"",""1"",""6936""
","
","","","","","","1032.3999999999069","images/boat1.png","","","memory_trial","4","definitely_new",""
"html-keyboard-response","293","619365","0.0-18.0-0.124","7703","approach_avoid_sv1","""event"",""trial"",""time""
""fullscreenenter"",""1"",""6936""
","
","
","""event"",""trial"",""time""
""fullscreenenter"",""1"",""6936""
","
","","","","","","null","<div style=""font-size:60px;"">+</div>","null","","fixation","","",""
"memory-trial","294","621054","0.0-18.0-1.124","7703","approach_avoid_sv1","""event"",""trial"",""time""
""fullscreenenter"",""1"",""6936""
","
","
","""event"",""trial"",""time""
""fullscreenenter"",""1"",""6936""
","
","","","","","","670.7999999998137","images/truck1.png","","","memory_trial","4","definitely_new",""
"html-keyboard-response","295","621565","0.0-18.0-0.125","7703","approach_avoid_sv1","""event"",""trial"",""time""
""fullscreenenter"",""1"",""6936""
","
","
","""event"",""trial"",""time""
""fullscreenenter"",""1"",""6936""
","
","","","","","","null","<div style=""font-size:60px;"">+</div>","null","","fixation","","",""
"memory-trial","296","623254","0.0-18.0-1.125","7703","approach_avoid_sv1","""event"",""trial"",""time""
""fullscreenenter"",""1"",""6936""
","
","
","""event"",""trial"",""time""
""fullscreenenter"",""1"",""6936""
","
