"trial_type","trial_index","time_elapsed","internal_node_id","subject_id","task_version","interactions","blur_events","focus_events","fullscreenenter_events","fullscreenexit_events","success","timeout","failed_images","failed_audio","failed_video","rt","stimulus","response","button_pressed","task_part","key_press","answer","correct"
"pavlovia","0","3","0.0-0.0","3992","approach_avoid_sv1","""event"",""trial"",""time""
""fullscreenenter"",""1"",""5630""
","
","
","""event"",""trial"",""time""
""fullscreenenter"",""1"",""5630""
","
","","","","","","","","","","","","",""
"fullscreen","1","6623","0.0-1.0","3992","approach_avoid_sv1","""event"",""trial"",""time""
""fullscreenenter"",""1"",""5630""
","
","
","""event"",""trial"",""time""
""fullscreenenter"",""1"",""5630""
","
","true","","","","","","","","","","","",""
"preload","2","8414","0.0-2.0","3992","approach_avoid_sv1","""event"",""trial"",""time""
""fullscreenenter"",""1"",""5630""
","
","
","""event"",""trial"",""time""
""fullscreenenter"",""1"",""5630""
","
","true","false","[]","[]","[]","","","","","","","",""
"preload","3","9526","0.0-3.0","3992","approach_avoid_sv1","""event"",""trial"",""time""
""fullscreenenter"",""1"",""5630""
","
","
","""event"",""trial"",""time""
""fullscreenenter"",""1"",""5630""
","
","true","false","[]","[]","[]","","","","","","","",""
"preload","4","9728","0.0-4.0","3992","approach_avoid_sv1","""event"",""trial"",""time""
""fullscreenenter"",""1"",""5630""
","
","
","""event"",""trial"",""time""
""fullscreenenter"",""1"",""5630""
","
","true","false","[]","[]","[]","","","","","","","",""
"audio-keyboard-response","5","11909","0.0-5.0","3992","approach_avoid_sv1","""event"",""trial"",""time""
""fullscreenenter"",""1"",""5630""
","
","
","""event"",""trial"",""time""
""fullscreenenter"",""1"",""5630""
","
","","","","","","2176.87074829932","audio/beep_loop.wav"," ","","","","",""
"audio-button-response","6","14431","0.0-6.0","3992","approach_avoid_sv1","""event"",""trial"",""time""
""fullscreenenter"",""1"",""5630""
","
","
","""event"",""trial"",""time""
""fullscreenenter"",""1"",""5630""
","
","","","","","","2519","audio/turtle.wav","3","","","","",""
"audio-button-response","7","16747","0.0-7.0","3992","approach_avoid_sv1","""event"",""trial"",""time""
""fullscreenenter"",""1"",""5630""
","
","
","""event"",""trial"",""time""
""fullscreenenter"",""1"",""5630""
","
","","","","","","1312","audio/shark.wav","2","","","","",""
"preload","8","19849","0.0-8.0","3992","approach_avoid_sv1","""event"",""trial"",""time""
""fullscreenenter"",""1"",""5630""
","
","
","""event"",""trial"",""time""
""fullscreenenter"",""1"",""5630""
","
","true","false","[]","[]","[]","","","","","","","",""
"learning-instructions","9","26819","0.0-9.0-0.0","3992","approach_avoid_sv1","""event"",""trial"",""time""
""fullscreenenter"",""1"",""5630""
","
","
","""event"",""trial"",""time""
""fullscreenenter"",""1"",""5630""
","
","","","","","","2491.60000000149","<p> Welcome back! </p><p> Last week, you had to make choices about lots of different items.  </p>","","0","instructions","","",""
"learning-instructions","10","32404","0.0-9.0-0.1","3992","approach_avoid_sv1","""event"",""trial"",""time""
""fullscreenenter"",""1"",""5630""
","
","
","""event"",""trial"",""time""
""fullscreenenter"",""1"",""5630""
","
","","","","","","1471.0999999977648","<p> Today, we are going to ask you to try to remember all the items. </p>","","0","instructions","","",""
"learning-instructions","11","43305","0.0-9.0-0.2","3992","approach_avoid_sv1","""event"",""trial"",""time""
""fullscreenenter"",""1"",""5630""
","
","
","""event"",""trial"",""time""
""fullscreenenter"",""1"",""5630""
","
","","","","","","761","<p> On every trial, you will see an image. </p><p> The image may be an OLD image you saw during the games last week or it may be a NEW image that was not presented. </p>","","0","instructions","","",""
"learning-instructions","12","54009","0.0-9.0-0.3","3992","approach_avoid_sv1","""event"",""trial"",""time""
""fullscreenenter"",""1"",""5630""
","
","
","""event"",""trial"",""time""
""fullscreenenter"",""1"",""5630""
","
","","","","","","2205.7000000029802","<p> You need to select whether the image is:  </p><p>  'Definitely old', 'Maybe old', 'Maybe new', or 'Definitely new.'  </p><div class=""mem-choice-instructions-grid""><div class=""choice-option"" id=""choice-option-1"" ><img src=""images/definitely_old_1.png"" id=""choice-option-img-1"" class=""choice-option-img"" stage=""1""></div><div class=""choice-option"" id=""choice-option-2"" ><img src=""images/maybe_old_1.png"" id=""choice-option-img-2"" class=""choice-option-img"" stage=""1""></div><div class=""choice-option"" id=""choice-option-3"" ><img src=""images/maybe_new_1.png"" id=""choice-option-img-3"" class=""choice-option-img"" stage=""1""></div><div class=""choice-option"" id=""choice-option-4"" > <img src=""images/definitely_new_1.png"" id=""choice-option-img-4"" class=""choice-option-img"" stage=""1""></div></div>","","0","instructions","","",""
"learning-instructions","13","62525","0.0-9.0-0.4","3992","approach_avoid_sv1","""event"",""trial"",""time""
""fullscreenenter"",""1"",""5630""
","
","
","""event"",""trial"",""time""
""fullscreenenter"",""1"",""5630""
","
","","","","","","2001.6000000014901","<p> You should use the 1, 2, 3, and 4 keys to make your responses.  </p><div class=""mem-choice-instructions-grid""><div class=""choice-option"" id=""choice-option-1"" ><img src=""images/definitely_old.png"" id=""choice-option-img-1"" class=""choice-option-img"" stage=""1""></div><div class=""choice-option"" id=""choice-option-2"" ><img src=""images/maybe_old.png"" id=""choice-option-img-2"" class=""choice-option-img"" stage=""1""></div><div class=""choice-option"" id=""choice-option-3"" ><img src=""images/maybe_new.png"" id=""choice-option-img-3"" class=""choice-option-img"" stage=""1""></div><div class=""choice-option"" id=""choice-option-4"" > <img src=""images/definitely_new.png"" id=""choice-option-img-4"" class=""choice-option-img"" stage=""1""></div></div>","","0","instructions","","",""
"learning-instructions","14","69409","0.0-9.0-0.5","3992","approach_avoid_sv1","""event"",""trial"",""time""
""fullscreenenter"",""1"",""5630""
","
","
","""event"",""trial"",""time""
""fullscreenenter"",""1"",""5630""
","
","","","","","","550.5","<p> You will have 10 seconds to make each response.  </p><p>  Make sure to respond before time runs out! </p>","","0","instructions","","",""
"learning-instructions","15","77705","0.0-9.0-0.6","3992","approach_avoid_sv1","""event"",""trial"",""time""
""fullscreenenter"",""1"",""5630""
","
","
","""event"",""trial"",""time""
""fullscreenenter"",""1"",""5630""
","
","","","","","","1218.699999999255","<p> Today, you will see each image ONCE only.  </p><p>  That means none of the images will repeat. </p>","","0","instructions","","",""
"learning-instructions","16","91057","0.0-9.0-0.7","3992","approach_avoid_sv1","""event"",""trial"",""time""
""fullscreenenter"",""1"",""5630""
","
","
","""event"",""trial"",""time""
""fullscreenenter"",""1"",""5630""
","
","","","","","","684.0999999977648","<p> Before you play the real game, it is time to practice. </p><p>  Just like in the real game, some of the images in the practice will be ones you have seen before. </p><p>  Others will be entirely new. </p>","","0","instructions","","",""
"html-button-response","17","94424","0.0-10.0","3992","approach_avoid_sv1","""event"",""trial"",""time""
""fullscreenenter"",""1"",""5630""
","
","
","""event"",""trial"",""time""
""fullscreenenter"",""1"",""5630""
","
","","","","","","3261.199999999255","<p> Ready to practice? </p><p> Remember, use the 1, 2, 3, and 4 keys to make your responses. </p>","0","","instructions","","",""
"html-keyboard-response","18","95045","0.0-11.0-0.0","3992","approach_avoid_sv1","""event"",""trial"",""time""
""fullscreenenter"",""1"",""5630""
","
","
","""event"",""trial"",""time""
""fullscreenenter"",""1"",""5630""
","
","","","","","","null","<div style=""font-size:60px;"">+</div>","null","","fixation","","",""
"memory-trial","19","98819","0.0-11.0-1.0","3992","approach_avoid_sv1","""event"",""trial"",""time""
""fullscreenenter"",""1"",""5630""
","
","
","""event"",""trial"",""time""
""fullscreenenter"",""1"",""5630""
","
","","","","","","2766.2000000029802","images/racket5.png","","","practice","4","definitely_new",""
"html-keyboard-response","20","99323","0.0-11.0-0.1","3992","approach_avoid_sv1","""event"",""trial"",""time""
""fullscreenenter"",""1"",""5630""
","
","
","""event"",""trial"",""time""
""fullscreenenter"",""1"",""5630""
","
","","","","","","null","<div style=""font-size:60px;"">+</div>","null","","fixation","","",""
"memory-trial","21","101605","0.0-11.0-1.1","3992","approach_avoid_sv1","""event"",""trial"",""time""
""fullscreenenter"",""1"",""5630""
","
","
","""event"",""trial"",""time""
""fullscreenenter"",""1"",""5630""
","
","","","","","","1270.5","images/racket1.png","","","practice","4","definitely_new",""
"html-keyboard-response","22","102115","0.0-11.0-0.2","3992","approach_avoid_sv1","""event"",""trial"",""time""
""fullscreenenter"",""1"",""5630""
","
","
","""event"",""trial"",""time""
""fullscreenenter"",""1"",""5630""
","
","","","","","","null","<div style=""font-size:60px;"">+</div>","null","","fixation","","",""
"memory-trial","23","104786","0.0-11.0-1.2","3992","approach_avoid_sv1","""event"",""trial"",""time""
""fullscreenenter"",""1"",""5630""
","
","
","""event"",""trial"",""time""
""fullscreenenter"",""1"",""5630""
","
","","","","","","1665","images/ball1.png","","","practice","4","definitely_new",""
"html-keyboard-response","24","105291","0.0-11.0-0.3","3992","approach_avoid_sv1","""event"",""trial"",""time""
""fullscreenenter"",""1"",""5630""
","
","
","""event"",""trial"",""time""
""fullscreenenter"",""1"",""5630""
","
","","","","","","null","<div style=""font-size:60px;"">+</div>","null","","fixation","","",""
"memory-trial","25","108002","0.0-11.0-1.3","3992","approach_avoid_sv1","""event"",""trial"",""time""
""fullscreenenter"",""1"",""5630""
","
","
","""event"",""trial"",""time""
""fullscreenenter"",""1"",""5630""
","
","","","","","","1702.3999999985099","images/racket2.png","","","practice","1","definitely_old",""
"html-keyboard-response","26","108507","0.0-11.0-0.4","3992","approach_avoid_sv1","""event"",""trial"",""time""
""fullscreenenter"",""1"",""5630""
","
","
","""event"",""trial"",""time""
""fullscreenenter"",""1"",""5630""
","
","","","","","","null","<div style=""font-size:60px;"">+</div>","null","","fixation","","",""
"memory-trial","27","110580","0.0-11.0-1.4","3992","approach_avoid_sv1","""event"",""trial"",""time""
""fullscreenenter"",""1"",""5630""
","
","
","""event"",""trial"",""time""
""fullscreenenter"",""1"",""5630""
","
","","","","","","1060.8999999985099","images/ball2.png","","","practice","1","definitely_old",""
"html-keyboard-response","28","111085","0.0-11.0-0.5","3992","approach_avoid_sv1","""event"",""trial"",""time""
""fullscreenenter"",""1"",""5630""
","
","
","""event"",""trial"",""time""
""fullscreenenter"",""1"",""5630""
","
","","","","","","null","<div style=""font-size:60px;"">+</div>","null","","fixation","","",""
"memory-trial","29","113090","0.0-11.0-1.5","3992","approach_avoid_sv1","""event"",""trial"",""time""
""fullscreenenter"",""1"",""5630""
","
","
","""event"",""trial"",""time""
""fullscreenenter"",""1"",""5630""
","
","","","","","","998.5999999977648","images/ball3.png","","","practice","4","definitely_new",""
"html-keyboard-response","30","113598","0.0-11.0-0.6","3992","approach_avoid_sv1","""event"",""trial"",""time""
""fullscreenenter"",""1"",""5630""
","
","
","""event"",""trial"",""time""
""fullscreenenter"",""1"",""5630""
","
","","","","","","null","<div style=""font-size:60px;"">+</div>","null","","fixation","","",""
"memory-trial","31","115787","0.0-11.0-1.6","3992","approach_avoid_sv1","""event"",""trial"",""time""
""fullscreenenter"",""1"",""5630""
","
","
","""event"",""trial"",""time""
""fullscreenenter"",""1"",""5630""
","
","","","","","","1177.9000000022352","images/ball5.png","","","practice","4","definitely_new",""
"html-keyboard-response","32","116292","0.0-11.0-0.7","3992","approach_avoid_sv1","""event"",""trial"",""time""
""fullscreenenter"",""1"",""5630""
","
","
","""event"",""trial"",""time""
""fullscreenenter"",""1"",""5630""
","
","","","","","","null","<div style=""font-size:60px;"">+</div>","null","","fixation","","",""
"memory-trial","33","118213","0.0-11.0-1.7","3992","approach_avoid_sv1","""event"",""trial"",""time""
""fullscreenenter"",""1"",""5630""
","
","
","""event"",""trial"",""time""
""fullscreenenter"",""1"",""5630""
","
","","","","","","913.1000000014901","images/racket3.png","","","practice","4","definitely_new",""
"learning-instructions","34","127043","0.0-12.0-0.0","3992","approach_avoid_sv1","""event"",""trial"",""time""
""fullscreenenter"",""1"",""5630""
","
","
","""event"",""trial"",""time""
""fullscreenenter"",""1"",""5630""
","
","","","","","","1519.800000000745","<p> Great! You have completed the practice. </p><p> Before you start, we're going to ask you a few questions about how the game works.  </p>","","0","instructions","","",""
"preload","35","128643","0.0-13.0","3992","approach_avoid_sv1","""event"",""trial"",""time""
""fullscreenenter"",""1"",""5630""
","
","
","""event"",""trial"",""time""
""fullscreenenter"",""1"",""5630""
","
","true","false","[]","[]","[]","","","","","","","",""
"comp-q","36","136945","0.0-14.0-0.0","3992","approach_avoid_sv1","""event"",""trial"",""time""
""fullscreenenter"",""1"",""5630""
","
","
","""event"",""trial"",""time""
""fullscreenenter"",""1"",""5630""
","
","","","","","","2476.10000000149","<p> <b> True or False? </b> </p><p> In this game, you will only see each image once. </p>","","0","comp_question","","","true"
"comp-q","37","144510","0.0-14.0-1.0","3992","approach_avoid_sv1","""event"",""trial"",""time""
""fullscreenenter"",""1"",""5630""
","
","
","""event"",""trial"",""time""
""fullscreenenter"",""1"",""5630""
","
","","","","","","1223.1000000014901","<p> <b> That's right! </b> You will see many different images <i> one time each </i> in this game. </p>","","0","comp_answer","","",""
"comp-q","38","150772","0.0-15.0-0.0","3992","approach_avoid_sv1","""event"",""trial"",""time""
""fullscreenenter"",""1"",""5630""
","
","
","""event"",""trial"",""time""
""fullscreenenter"",""1"",""5630""
","
","","","","","","1257.199999999255","<p> <b> True or False? </b> </p><p> You should use the mouse and click to make your response. </p>","","1","comp_question","","","true"
"comp-q","39","158409","0.0-15.0-1.0","3992","approach_avoid_sv1","""event"",""trial"",""time""
""fullscreenenter"",""1"",""5630""
","
","
","""event"",""trial"",""time""
""fullscreenenter"",""1"",""5630""
","
","","","","","","1138.5","<p><b> That's right! </b> You should use the '1', '2', '3', and '4' keys to make your response. </p>","","0","comp_answer","","",""
"comp-q","40","164972","0.0-16.0-0.0","3992","approach_avoid_sv1","""event"",""trial"",""time""
""fullscreenenter"",""1"",""5630""
","
","
","""event"",""trial"",""time""
""fullscreenenter"",""1"",""5630""
","
","","","","","","885.5","<p> <b> True or False? </b> </p><p> You will have as much time as you want to make each choice. </p>","","1","comp_question","","","true"
"comp-q","41","172072","0.0-16.0-1.0","3992","approach_avoid_sv1","""event"",""trial"",""time""
""fullscreenenter"",""1"",""5630""
","
","
","""event"",""trial"",""time""
""fullscreenenter"",""1"",""5630""
","
","","","","","","2401.699999999255","<p> <b> That's right! </b> You will only have 10 seconds to make each choice. </p>","","0","comp_answer","","",""
"learning-instructions","42","183975","0.0-17.0","3992","approach_avoid_sv1","""event"",""trial"",""time""
""fullscreenenter"",""1"",""5630""
","
","
","""event"",""trial"",""time""
""fullscreenenter"",""1"",""5630""
","
","","","","","","3222.10000000149","<p> Great! You are now ready to begin the game. </p><p> Remember, use the 1, 2, 3, and 4 keys to make your responses. </p>","","0","instructions","","",""
"html-keyboard-response","43","184583","0.0-18.0-0.0","3992","approach_avoid_sv1","""event"",""trial"",""time""
""fullscreenenter"",""1"",""5630""
","
","
","""event"",""trial"",""time""
""fullscreenenter"",""1"",""5630""
","
","","","","","","null","<div style=""font-size:60px;"">+</div>","null","","fixation","","",""
"memory-trial","44","187782","0.0-18.0-1.0","3992","approach_avoid_sv1","""event"",""trial"",""time""
""fullscreenenter"",""1"",""5630""
","
","
","""event"",""trial"",""time""
""fullscreenenter"",""1"",""5630""
","
","","","","","","2188","images/straw7.png","","","memory_trial","1","definitely_old",""
"html-keyboard-response","45","188285","0.0-18.0-0.1","3992","approach_avoid_sv1","""event"",""trial"",""time""
""fullscreenenter"",""1"",""5630""
","
","
","""event"",""trial"",""time""
""fullscreenenter"",""1"",""5630""
","
","","","","","","null","<div style=""font-size:60px;"">+</div>","null","","fixation","","",""
"memory-trial","46","190637","0.0-18.0-1.1","3992","approach_avoid_sv1","""event"",""trial"",""time""
""fullscreenenter"",""1"",""5630""
","
","
","""event"",""trial"",""time""
""fullscreenenter"",""1"",""5630""
","
","","","","","","1344","images/rodent5.png","","","memory_trial","1","definitely_old",""
"html-keyboard-response","47","191143","0.0-18.0-0.2","3992","approach_avoid_sv1","""event"",""trial"",""time""
""fullscreenenter"",""1"",""5630""
","
","
","""event"",""trial"",""time""
""fullscreenenter"",""1"",""5630""
","
","","","","","","null","<div style=""font-size:60px;"">+</div>","null","","fixation","","",""
"memory-trial","48","193760","0.0-18.0-1.2","3992","approach_avoid_sv1","""event"",""trial"",""time""
""fullscreenenter"",""1"",""5630""
","
","
","""event"",""trial"",""time""
""fullscreenenter"",""1"",""5630""
","
","","","","","","1605.8999999985099","images/table3.png","","","memory_trial","4","definitely_new",""
"html-keyboard-response","49","194272","0.0-18.0-0.3","3992","approach_avoid_sv1","""event"",""trial"",""time""
""fullscreenenter"",""1"",""5630""
","
","
","""event"",""trial"",""time""
""fullscreenenter"",""1"",""5630""
","
","","","","","","null","<div style=""font-size:60px;"">+</div>","null","","fixation","","",""
"memory-trial","50","197198","0.0-18.0-1.3","3992","approach_avoid_sv1","""event"",""trial"",""time""
""fullscreenenter"",""1"",""5630""
","
","
","""event"",""trial"",""time""
""fullscreenenter"",""1"",""5630""
","
","","","","","","1921.2999999970198","images/horse7.png","","","memory_trial","4","definitely_new",""
"html-keyboard-response","51","197703","0.0-18.0-0.4","3992","approach_avoid_sv1","""event"",""trial"",""time""
""fullscreenenter"",""1"",""5630""
","
","
","""event"",""trial"",""time""
""fullscreenenter"",""1"",""5630""
","
","","","","","","null","<div style=""font-size:60px;"">+</div>","null","","fixation","","",""
"memory-trial","52","199520","0.0-18.0-1.4","3992","approach_avoid_sv1","""event"",""trial"",""time""
""fullscreenenter"",""1"",""5630""
","
","
","""event"",""trial"",""time""
""fullscreenenter"",""1"",""5630""
","
","","","","","","808.7999999970198","images/plane7.png","","","memory_trial","4","definitely_new",""
"html-keyboard-response","53","200031","0.0-18.0-0.5","3992","approach_avoid_sv1","""event"",""trial"",""time""
""fullscreenenter"",""1"",""5630""
","
","
","""event"",""trial"",""time""
""fullscreenenter"",""1"",""5630""
","
","","","","","","null","<div style=""font-size:60px;"">+</div>","null","","fixation","","",""
"memory-trial","54","202749","0.0-18.0-1.5","3992","approach_avoid_sv1","""event"",""trial"",""time""
""fullscreenenter"",""1"",""5630""
","
","
","""event"",""trial"",""time""
""fullscreenenter"",""1"",""5630""
","
","","","","","","1715.5999999977648","images/horse8.png","","","memory_trial","4","definitely_new",""
"html-keyboard-response","55","203253","0.0-18.0-0.6","3992","approach_avoid_sv1","""event"",""trial"",""time""
""fullscreenenter"",""1"",""5630""
","
","
","""event"",""trial"",""time""
""fullscreenenter"",""1"",""5630""
","
","","","","","","null","<div style=""font-size:60px;"">+</div>","null","","fixation","","",""
"memory-trial","56","205151","0.0-18.0-1.6","3992","approach_avoid_sv1","""event"",""trial"",""time""
""fullscreenenter"",""1"",""5630""
","
","
","""event"",""trial"",""time""
""fullscreenenter"",""1"",""5630""
","
","","","","","","887.1000000014901","images/dog4.png","","","memory_trial","4","definitely_new",""
"html-keyboard-response","57","205656","0.0-18.0-0.7","3992","approach_avoid_sv1","""event"",""trial"",""time""
""fullscreenenter"",""1"",""5630""
","
","
","""event"",""trial"",""time""
""fullscreenenter"",""1"",""5630""
","
","","","","","","null","<div style=""font-size:60px;"">+</div>","null","","fixation","","",""
"memory-trial","58","207822","0.0-18.0-1.7","3992","approach_avoid_sv1","""event"",""trial"",""time""
""fullscreenenter"",""1"",""5630""
","
","
","""event"",""trial"",""time""
""fullscreenenter"",""1"",""5630""
","
","","","","","","1154.699999999255","images/goat5.png","","","memory_trial","4","definitely_new",""
"html-keyboard-response","59","208325","0.0-18.0-0.8","3992","approach_avoid_sv1","""event"",""trial"",""time""
""fullscreenenter"",""1"",""5630""
","
","
","""event"",""trial"",""time""
""fullscreenenter"",""1"",""5630""
","
","","","","","","null","<div style=""font-size:60px;"">+</div>","null","","fixation","","",""
"memory-trial","60","210637","0.0-18.0-1.8","3992","approach_avoid_sv1","""event"",""trial"",""time""
""fullscreenenter"",""1"",""5630""
","
","
","""event"",""trial"",""time""
""fullscreenenter"",""1"",""5630""
","
","","","","","","1303.7999999970198","images/tree4.png","","","memory_trial","1","definitely_old",""
"html-keyboard-response","61","211142","0.0-18.0-0.9","3992","approach_avoid_sv1","""event"",""trial"",""time""
""fullscreenenter"",""1"",""5630""
","
","
","""event"",""trial"",""time""
""fullscreenenter"",""1"",""5630""
","
","","","","","","null","<div style=""font-size:60px;"">+</div>","null","","fixation","","",""
"memory-trial","62","213502","0.0-18.0-1.9","3992","approach_avoid_sv1","""event"",""trial"",""time""
""fullscreenenter"",""1"",""5630""
","
","
","""event"",""trial"",""time""
""fullscreenenter"",""1"",""5630""
","
","","","","","","1353.4000000022352","images/bed4.png","","","memory_trial","1","definitely_old",""
"html-keyboard-response","63","214006","0.0-18.0-0.10","3992","approach_avoid_sv1","""event"",""trial"",""time""
""fullscreenenter"",""1"",""5630""
","
","
","""event"",""trial"",""time""
""fullscreenenter"",""1"",""5630""
","
","","","","","","null","<div style=""font-size:60px;"">+</div>","null","","fixation","","",""
"memory-trial","64","216150","0.0-18.0-1.10","3992","approach_avoid_sv1","""event"",""trial"",""time""
""fullscreenenter"",""1"",""5630""
","
","
","""event"",""trial"",""time""
""fullscreenenter"",""1"",""5630""
","
","","","","","","1139.1000000014901","images/boat3.png","","","memory_trial","4","definitely_new",""
"html-keyboard-response","65","216653","0.0-18.0-0.11","3992","approach_avoid_sv1","""event"",""trial"",""time""
""fullscreenenter"",""1"",""5630""
","
","
","""event"",""trial"",""time""
""fullscreenenter"",""1"",""5630""
","
","","","","","","null","<div style=""font-size:60px;"">+</div>","null","","fixation","","",""
"memory-trial","66","218934","0.0-18.0-1.11","3992","approach_avoid_sv1","""event"",""trial"",""time""
""fullscreenenter"",""1"",""5630""
","
","
","""event"",""trial"",""time""
""fullscreenenter"",""1"",""5630""
","
","","","","","","1270.3999999985099","images/bed5.png","","","memory_trial","1","definitely_old",""
"html-keyboard-response","67","219438","0.0-18.0-0.12","3992","approach_avoid_sv1","""event"",""trial"",""time""
""fullscreenenter"",""1"",""5630""
","
","
","""event"",""trial"",""time""
""fullscreenenter"",""1"",""5630""
","
","","","","","","null","<div style=""font-size:60px;"">+</div>","null","","fixation","","",""
"memory-trial","68","221310","0.0-18.0-1.12","3992","approach_avoid_sv1","""event"",""trial"",""time""
""fullscreenenter"",""1"",""5630""
","
","
","""event"",""trial"",""time""
""fullscreenenter"",""1"",""5630""
","
","","","","","","862.2999999970198","images/dog6.png","","","memory_trial","4","definitely_new",""
"html-keyboard-response","69","221814","0.0-18.0-0.13","3992","approach_avoid_sv1","""event"",""trial"",""time""
""fullscreenenter"",""1"",""5630""
","
","
","""event"",""trial"",""time""
""fullscreenenter"",""1"",""5630""
","
","","","","","","null","<div style=""font-size:60px;"">+</div>","null","","fixation","","",""
"memory-trial","70","224181","0.0-18.0-1.13","3992","approach_avoid_sv1","""event"",""trial"",""time""
""fullscreenenter"",""1"",""5630""
","
","
","""event"",""trial"",""time""
""fullscreenenter"",""1"",""5630""
","
","","","","","","1357.5","images/straw4.png","","","memory_trial","1","definitely_old",""
"html-keyboard-response","71","224686","0.0-18.0-0.14","3992","approach_avoid_sv1","""event"",""trial"",""time""
""fullscreenenter"",""1"",""5630""
","
","
","""event"",""trial"",""time""
""fullscreenenter"",""1"",""5630""
","
","","","","","","null","<div style=""font-size:60px;"">+</div>","null","","fixation","","",""
"memory-trial","72","228950","0.0-18.0-1.14","3992","approach_avoid_sv1","""event"",""trial"",""time""
""fullscreenenter"",""1"",""5630""
","
","
","""event"",""trial"",""time""
""fullscreenenter"",""1"",""5630""
","
","","","","","","3255.800000000745","images/sofa2.png","","","memory_trial","4","definitely_new",""
"html-keyboard-response","73","229454","0.0-18.0-0.15","3992","approach_avoid_sv1","""event"",""trial"",""time""
""fullscreenenter"",""1"",""5630""
","
","
","""event"",""trial"",""time""
""fullscreenenter"",""1"",""5630""
","
","","","","","","null","<div style=""font-size:60px;"">+</div>","null","","fixation","","",""
"memory-trial","74","231958","0.0-18.0-1.15","3992","approach_avoid_sv1","""event"",""trial"",""time""
""fullscreenenter"",""1"",""5630""
","
","
","""event"",""trial"",""time""
""fullscreenenter"",""1"",""5630""
","
","","","","","","1494.300000000745","images/orange2.png","","","memory_trial","4","definitely_new",""
"html-keyboard-response","75","232462","0.0-18.0-0.16","3992","approach_avoid_sv1","""event"",""trial"",""time""
""fullscreenenter"",""1"",""5630""
","
","
","""event"",""trial"",""time""
""fullscreenenter"",""1"",""5630""
","
","","","","","","null","<div style=""font-size:60px;"">+</div>","null","","fixation","","",""
"memory-trial","76","234983","0.0-18.0-1.16","3992","approach_avoid_sv1","""event"",""trial"",""time""
""fullscreenenter"",""1"",""5630""
","
","
","""event"",""trial"",""time""
""fullscreenenter"",""1"",""5630""
","
","","","","","","1513.300000000745","images/chair4.png","","","memory_trial","4","definitely_new",""
"html-keyboard-response","77","235486","0.0-18.0-0.17","3992","approach_avoid_sv1","""event"",""trial"",""time""
""fullscreenenter"",""1"",""5630""
","
","
","""event"",""trial"",""time""
""fullscreenenter"",""1"",""5630""
","
","","","","","","null","<div style=""font-size:60px;"">+</div>","null","","fixation","","",""
"memory-trial","78","237407","0.0-18.0-1.17","3992","approach_avoid_sv1","""event"",""trial"",""time""
""fullscreenenter"",""1"",""5630""
","
","
","""event"",""trial"",""time""
""fullscreenenter"",""1"",""5630""
","
","","","","","","916.3000000007451","images/straw2.png","","","memory_trial","1","definitely_old",""
"html-keyboard-response","79","237910","0.0-18.0-0.18","3992","approach_avoid_sv1","""event"",""trial"",""time""
""fullscreenenter"",""1"",""5630""
","
","
","""event"",""trial"",""time""
""fullscreenenter"",""1"",""5630""
","
","","","","","","null","<div style=""font-size:60px;"">+</div>","null","","fixation","","",""
"memory-trial","80","240102","0.0-18.0-1.18","3992","approach_avoid_sv1","""event"",""trial"",""time""
""fullscreenenter"",""1"",""5630""
","
","
","""event"",""trial"",""time""
""fullscreenenter"",""1"",""5630""
","
","","","","","","1181.800000000745","images/rodent4.png","","","memory_trial","4","definitely_new",""
"html-keyboard-response","81","240606","0.0-18.0-0.19","3992","approach_avoid_sv1","""event"",""trial"",""time""
""fullscreenenter"",""1"",""5630""
","
","
","""event"",""trial"",""time""
""fullscreenenter"",""1"",""5630""
","
","","","","","","null","<div style=""font-size:60px;"">+</div>","null","","fixation","","",""
"memory-trial","82","243175","0.0-18.0-1.19","3992","approach_avoid_sv1","""event"",""trial"",""time""
""fullscreenenter"",""1"",""5630""
","
","
","""event"",""trial"",""time""
""fullscreenenter"",""1"",""5630""
","
","","","","","","1560.3999999985099","images/orange4.png","","","memory_trial","4","definitely_new",""
"html-keyboard-response","83","243679","0.0-18.0-0.20","3992","approach_avoid_sv1","""event"",""trial"",""time""
""fullscreenenter"",""1"",""5630""
","
","
","""event"",""trial"",""time""
""fullscreenenter"",""1"",""5630""
","
","","","","","","null","<div style=""font-size:60px;"">+</div>","null","","fixation","","",""
"memory-trial","84","246399","0.0-18.0-1.20","3992","approach_avoid_sv1","""event"",""trial"",""time""
""fullscreenenter"",""1"",""5630""
","
","
","""event"",""trial"",""time""
""fullscreenenter"",""1"",""5630""
","
","","","","","","1709.6000000014901","images/plane4.png","","","memory_trial","4","definitely_new",""
"html-keyboard-response","85","246902","0.0-18.0-0.21","3992","approach_avoid_sv1","""event"",""trial"",""time""
""fullscreenenter"",""1"",""5630""
","
","
","""event"",""trial"",""time""
""fullscreenenter"",""1"",""5630""
","
","","","","","","null","<div style=""font-size:60px;"">+</div>","null","","fixation","","",""
"memory-trial","86","249766","0.0-18.0-1.21","3992","approach_avoid_sv1","""event"",""trial"",""time""
""fullscreenenter"",""1"",""5630""
","
","
","""event"",""trial"",""time""
""fullscreenenter"",""1"",""5630""
","
","","","","","","1856.7000000029802","images/plane8.png","","","memory_trial","1","definitely_old",""
"html-keyboard-response","87","250271","0.0-18.0-0.22","3992","approach_avoid_sv1","""event"",""trial"",""time""
""fullscreenenter"",""1"",""5630""
","
","
","""event"",""trial"",""time""
""fullscreenenter"",""1"",""5630""
","
","","","","","","null","<div style=""font-size:60px;"">+</div>","null","","fixation","","",""
"memory-trial","88","252398","0.0-18.0-1.22","3992","approach_avoid_sv1","""event"",""trial"",""time""
""fullscreenenter"",""1"",""5630""
","
","
","""event"",""trial"",""time""
""fullscreenenter"",""1"",""5630""
","
","","","","","","1120.2999999970198","images/sheep5.png","","","memory_trial","4","definitely_new",""
"html-keyboard-response","89","252903","0.0-18.0-0.23","3992","approach_avoid_sv1","""event"",""trial"",""time""
""fullscreenenter"",""1"",""5630""
","
","
","""event"",""trial"",""time""
""fullscreenenter"",""1"",""5630""
","
","","","","","","null","<div style=""font-size:60px;"">+</div>","null","","fixation","","",""
"memory-trial","90","255462","0.0-18.0-1.23","3992","approach_avoid_sv1","""event"",""trial"",""time""
""fullscreenenter"",""1"",""5630""
","
","
","""event"",""trial"",""time""
""fullscreenenter"",""1"",""5630""
","
","","","","","","1552.0999999977648","images/train3.png","","","memory_trial","1","definitely_old",""
"html-keyboard-response","91","255967","0.0-18.0-0.24","3992","approach_avoid_sv1","""event"",""trial"",""time""
""fullscreenenter"",""1"",""5630""
","
","
","""event"",""trial"",""time""
""fullscreenenter"",""1"",""5630""
","
","","","","","","null","<div style=""font-size:60px;"">+</div>","null","","fixation","","",""
"memory-trial","92","258470","0.0-18.0-1.24","3992","approach_avoid_sv1","""event"",""trial"",""time""
""fullscreenenter"",""1"",""5630""
","
","
","""event"",""trial"",""time""
""fullscreenenter"",""1"",""5630""
","
","","","","","","1496.5999999977648","images/rabbit1.png","","","memory_trial","1","definitely_old",""
"html-keyboard-response","93","258974","0.0-18.0-0.25","3992","approach_avoid_sv1","""event"",""trial"",""time""
""fullscreenenter"",""1"",""5630""
","
","
","""event"",""trial"",""time""
""fullscreenenter"",""1"",""5630""
","
","","","","","","null","<div style=""font-size:60px;"">+</div>","null","","fixation","","",""
"memory-trial","94","261519","0.0-18.0-1.25","3992","approach_avoid_sv1","""event"",""trial"",""time""
""fullscreenenter"",""1"",""5630""
","
","
","""event"",""trial"",""time""
""fullscreenenter"",""1"",""5630""
","
","","","","","","1534.800000000745","images/orange3.png","","","memory_trial","4","definitely_new",""
"html-keyboard-response","95","262023","0.0-18.0-0.26","3992","approach_avoid_sv1","""event"",""trial"",""time""
""fullscreenenter"",""1"",""5630""
","
","
","""event"",""trial"",""time""
""fullscreenenter"",""1"",""5630""
","
","","","","","","null","<div style=""font-size:60px;"">+</div>","null","","fixation","","",""
"memory-trial","96","266751","0.0-18.0-1.26","3992","approach_avoid_sv1","""event"",""trial"",""time""
""fullscreenenter"",""1"",""5630""
","
","
","""event"",""trial"",""time""
""fullscreenenter"",""1"",""5630""
","
","","","","","","3718.5","images/dog8.png","","","memory_trial","1","definitely_old",""
"html-keyboard-response","97","267255","0.0-18.0-0.27","3992","approach_avoid_sv1","""event"",""trial"",""time""
""fullscreenenter"",""1"",""5630""
","
","
","""event"",""trial"",""time""
""fullscreenenter"",""1"",""5630""
","
","","","","","","null","<div style=""font-size:60px;"">+</div>","null","","fixation","","",""
"memory-trial","98","270023","0.0-18.0-1.27","3992","approach_avoid_sv1","""event"",""trial"",""time""
""fullscreenenter"",""1"",""5630""
","
","
","""event"",""trial"",""time""
""fullscreenenter"",""1"",""5630""
","
","","","","","","1762.1000000014901","images/cactus4.png","","","memory_trial","1","definitely_old",""
"html-keyboard-response","99","270528","0.0-18.0-0.28","3992","approach_avoid_sv1","""event"",""trial"",""time""
""fullscreenenter"",""1"",""5630""
","
","
","""event"",""trial"",""time""
""fullscreenenter"",""1"",""5630""
","
","","","","","","null","<div style=""font-size:60px;"">+</div>","null","","fixation","","",""
"memory-trial","100","272471","0.0-18.0-1.28","3992","approach_avoid_sv1","""event"",""trial"",""time""
""fullscreenenter"",""1"",""5630""
","
","
","""event"",""trial"",""time""
""fullscreenenter"",""1"",""5630""
","
","","","","","","940.3000000007451","images/bush4.png","","","memory_trial","1","definitely_old",""
"html-keyboard-response","101","272975","0.0-18.0-0.29","3992","approach_avoid_sv1","""event"",""trial"",""time""
""fullscreenenter"",""1"",""5630""
","
","
","""event"",""trial"",""time""
""fullscreenenter"",""1"",""5630""
","
","","","","","","null","<div style=""font-size:60px;"">+</div>","null","","fixation","","",""
"memory-trial","102","274864","0.0-18.0-1.29","3992","approach_avoid_sv1","""event"",""trial"",""time""
""fullscreenenter"",""1"",""5630""
","
","
","""event"",""trial"",""time""
""fullscreenenter"",""1"",""5630""
","
","","","","","","884.5","images/bush5.png","","","memory_trial","1","definitely_old",""
"html-keyboard-response","103","275367","0.0-18.0-0.30","3992","approach_avoid_sv1","""event"",""trial"",""time""
""fullscreenenter"",""1"",""5630""
","
","
","""event"",""trial"",""time""
""fullscreenenter"",""1"",""5630""
","
","","","","","","null","<div style=""font-size:60px;"">+</div>","null","","fixation","","",""
"memory-trial","104","277472","0.0-18.0-1.30","3992","approach_avoid_sv1","""event"",""trial"",""time""
""fullscreenenter"",""1"",""5630""
","
","
","""event"",""trial"",""time""
""fullscreenenter"",""1"",""5630""
","
","","","","","","1093.7000000029802","images/chair7.png","","","memory_trial","4","definitely_new",""
"html-keyboard-response","105","277975","0.0-18.0-0.31","3992","approach_avoid_sv1","""event"",""trial"",""time""
""fullscreenenter"",""1"",""5630""
","
","
","""event"",""trial"",""time""
""fullscreenenter"",""1"",""5630""
","
","","","","","","null","<div style=""font-size:60px;"">+</div>","null","","fixation","","",""
"memory-trial","106","279888","0.0-18.0-1.31","3992","approach_avoid_sv1","""event"",""trial"",""time""
""fullscreenenter"",""1"",""5630""
","
","
","""event"",""trial"",""time""
""fullscreenenter"",""1"",""5630""
","
","","","","","","904.5","images/cow4.png","","","memory_trial","4","definitely_new",""
"html-keyboard-response","107","280392","0.0-18.0-0.32","3992","approach_avoid_sv1","""event"",""trial"",""time""
""fullscreenenter"",""1"",""5630""
","
","
","""event"",""trial"",""time""
""fullscreenenter"",""1"",""5630""
","
","","","","","","null","<div style=""font-size:60px;"">+</div>","null","","fixation","","",""
"memory-trial","108","282120","0.0-18.0-1.32","3992","approach_avoid_sv1","""event"",""trial"",""time""
""fullscreenenter"",""1"",""5630""
","
","
","""event"",""trial"",""time""
""fullscreenenter"",""1"",""5630""
","
","","","","","","722.1000000014901","images/cactus7.png","","","memory_trial","4","definitely_new",""
"html-keyboard-response","109","282623","0.0-18.0-0.33","3992","approach_avoid_sv1","""event"",""trial"",""time""
""fullscreenenter"",""1"",""5630""
","
","
","""event"",""trial"",""time""
""fullscreenenter"",""1"",""5630""
","
","","","","","","null","<div style=""font-size:60px;"">+</div>","null","","fixation","","",""
"memory-trial","110","285008","0.0-18.0-1.33","3992","approach_avoid_sv1","""event"",""trial"",""time""
""fullscreenenter"",""1"",""5630""
","
","
","""event"",""trial"",""time""
""fullscreenenter"",""1"",""5630""
","
","","","","","","1375.800000000745","images/truck2.png","","","memory_trial","4","definitely_new",""
"html-keyboard-response","111","285511","0.0-18.0-0.34","3992","approach_avoid_sv1","""event"",""trial"",""time""
""fullscreenenter"",""1"",""5630""
","
","
","""event"",""trial"",""time""
""fullscreenenter"",""1"",""5630""
","
","","","","","","null","<div style=""font-size:60px;"">+</div>","null","","fixation","","",""
"memory-trial","112","287752","0.0-18.0-1.34","3992","approach_avoid_sv1","""event"",""trial"",""time""
""fullscreenenter"",""1"",""5630""
","
","
","""event"",""trial"",""time""
""fullscreenenter"",""1"",""5630""
","
","","","","","","1236","images/sheep7.png","","","memory_trial","1","definitely_old",""
"html-keyboard-response","113","288256","0.0-18.0-0.35","3992","approach_avoid_sv1","""event"",""trial"",""time""
""fullscreenenter"",""1"",""5630""
","
","
","""event"",""trial"",""time""
""fullscreenenter"",""1"",""5630""
","
","","","","","","null","<div style=""font-size:60px;"">+</div>","null","","fixation","","",""
"memory-trial","114","290496","0.0-18.0-1.35","3992","approach_avoid_sv1","""event"",""trial"",""time""
""fullscreenenter"",""1"",""5630""
","
","
","""event"",""trial"",""time""
""fullscreenenter"",""1"",""5630""
","
","","","","","","1236.800000000745","images/bush2.png","","","memory_trial","4","definitely_new",""
"html-keyboard-response","115","291000","0.0-18.0-0.36","3992","approach_avoid_sv1","""event"",""trial"",""time""
""fullscreenenter"",""1"",""5630""
","
","
","""event"",""trial"",""time""
""fullscreenenter"",""1"",""5630""
","
","","","","","","null","<div style=""font-size:60px;"">+</div>","null","","fixation","","",""
"memory-trial","116","293056","0.0-18.0-1.36","3992","approach_avoid_sv1","""event"",""trial"",""time""
""fullscreenenter"",""1"",""5630""
","
","
","""event"",""trial"",""time""
""fullscreenenter"",""1"",""5630""
","
","","","","","","1047.3999999985099","images/apple6.png","","","memory_trial","1","definitely_old",""
"html-keyboard-response","117","293559","0.0-18.0-0.37","3992","approach_avoid_sv1","""event"",""trial"",""time""
""fullscreenenter"",""1"",""5630""
","
","
","""event"",""trial"",""time""
""fullscreenenter"",""1"",""5630""
","
","","","","","","null","<div style=""font-size:60px;"">+</div>","null","","fixation","","",""
"memory-trial","118","295672","0.0-18.0-1.37","3992","approach_avoid_sv1","""event"",""trial"",""time""
""fullscreenenter"",""1"",""5630""
","
","
","""event"",""trial"",""time""
""fullscreenenter"",""1"",""5630""
","
","","","","","","1102","images/chair2.png","","","memory_trial","4","definitely_new",""
"html-keyboard-response","119","296176","0.0-18.0-0.38","3992","approach_avoid_sv1","""event"",""trial"",""time""
""fullscreenenter"",""1"",""5630""
","
","
","""event"",""trial"",""time""
""fullscreenenter"",""1"",""5630""
","
","","","","","","null","<div style=""font-size:60px;"">+</div>","null","","fixation","","",""
"memory-trial","120","298184","0.0-18.0-1.38","3992","approach_avoid_sv1","""event"",""trial"",""time""
""fullscreenenter"",""1"",""5630""
","
","
","""event"",""trial"",""time""
""fullscreenenter"",""1"",""5630""
","
","","","","","","997.9000000022352","images/bush1.png","","","memory_trial","1","definitely_old",""
"html-keyboard-response","121","298688","0.0-18.0-0.39","3992","approach_avoid_sv1","""event"",""trial"",""time""
""fullscreenenter"",""1"",""5630""
","
","
","""event"",""trial"",""time""
""fullscreenenter"",""1"",""5630""
","
","","","","","","null","<div style=""font-size:60px;"">+</div>","null","","fixation","","",""
"memory-trial","122","300656","0.0-18.0-1.39","3992","approach_avoid_sv1","""event"",""trial"",""time""
""fullscreenenter"",""1"",""5630""
","
","
","""event"",""trial"",""time""
""fullscreenenter"",""1"",""5630""
","
","","","","","","961.3999999985099","images/flower1.png","","","memory_trial","4","definitely_new",""
"html-keyboard-response","123","301160","0.0-18.0-0.40","3992","approach_avoid_sv1","""event"",""trial"",""time""
""fullscreenenter"",""1"",""5630""
","
","
","""event"",""trial"",""time""
""fullscreenenter"",""1"",""5630""
","
","","","","","","null","<div style=""font-size:60px;"">+</div>","null","","fixation","","",""
"memory-trial","124","303038","0.0-18.0-1.40","3992","approach_avoid_sv1","""event"",""trial"",""time""
""fullscreenenter"",""1"",""5630""
","
","
","""event"",""trial"",""time""
""fullscreenenter"",""1"",""5630""
","
","","","","","","870.8999999985099","images/cow8.png","","","memory_trial","4","definitely_new",""
"html-keyboard-response","125","303542","0.0-18.0-0.41","3992","approach_avoid_sv1","""event"",""trial"",""time""
""fullscreenenter"",""1"",""5630""
","
","
","""event"",""trial"",""time""
""fullscreenenter"",""1"",""5630""
","
","","","","","","null","<div style=""font-size:60px;"">+</div>","null","","fixation","","",""
"memory-trial","126","305932","0.0-18.0-1.41","3992","approach_avoid_sv1","""event"",""trial"",""time""
""fullscreenenter"",""1"",""5630""
","
","
","""event"",""trial"",""time""
""fullscreenenter"",""1"",""5630""
","
","","","","","","1382.300000000745","images/apple8.png","","","memory_trial","4","definitely_new",""
"html-button-response","127","340867","0.0-18.0-2.41-0.41","3992","approach_avoid_sv1","""event"",""trial"",""time""
""fullscreenenter"",""1"",""5630""
","
","
","""event"",""trial"",""time""
""fullscreenenter"",""1"",""5630""
","
","","","","","","34946.800000000745","<p> Take a break! </p><p> Click the button to continue. </p>","0","","break","","",""
"html-keyboard-response","128","341375","0.0-18.0-0.42","3992","approach_avoid_sv1","""event"",""trial"",""time""
""fullscreenenter"",""1"",""5630""
","
","
","""event"",""trial"",""time""
""fullscreenenter"",""1"",""5630""
","
","","","","","","null","<div style=""font-size:60px;"">+</div>","null","","fixation","","",""
"memory-trial","129","347231","0.0-18.0-1.42","3992","approach_avoid_sv1","""event"",""trial"",""time""
""fullscreenenter"",""1"",""5630""
","
","
","""event"",""trial"",""time""
""fullscreenenter"",""1"",""5630""
","
","","","","","","4845.60000000149","images/boat1.png","","","memory_trial","4","definitely_new",""
"html-keyboard-response","130","347735","0.0-18.0-0.43","3992","approach_avoid_sv1","""event"",""trial"",""time""
""fullscreenenter"",""1"",""5630""
","
","
","""event"",""trial"",""time""
""fullscreenenter"",""1"",""5630""
","
","","","","","","null","<div style=""font-size:60px;"">+</div>","null","","fixation","","",""
"memory-trial","131","349846","0.0-18.0-1.43","3992","approach_avoid_sv1","""event"",""trial"",""time""
""fullscreenenter"",""1"",""5630""
","
","
","""event"",""trial"",""time""
""fullscreenenter"",""1"",""5630""
","
","","","","","","1104.8999999985099","images/dog2.png","","","memory_trial","4","definitely_new",""
"html-keyboard-response","132","350350","0.0-18.0-0.44","3992","approach_avoid_sv1","""event"",""trial"",""time""
""fullscreenenter"",""1"",""5630""
","
","
","""event"",""trial"",""time""
""fullscreenenter"",""1"",""5630""
","
","","","","","","null","<div style=""font-size:60px;"">+</div>","null","","fixation","","",""
"memory-trial","133","352526","0.0-18.0-1.44","3992","approach_avoid_sv1","""event"",""trial"",""time""
""fullscreenenter"",""1"",""5630""
","
","
","""event"",""trial"",""time""
""fullscreenenter"",""1"",""5630""
","
","","","","","","1165.6000000014901","images/table6.png","","","memory_trial","4","definitely_new",""
"html-keyboard-response","134","353030","0.0-18.0-0.45","3992","approach_avoid_sv1","""event"",""trial"",""time""
""fullscreenenter"",""1"",""5630""
","
","
","""event"",""trial"",""time""
""fullscreenenter"",""1"",""5630""
","
","","","","","","null","<div style=""font-size:60px;"">+</div>","null","","fixation","","",""
"memory-trial","135","354734","0.0-18.0-1.45","3992","approach_avoid_sv1","""event"",""trial"",""time""
""fullscreenenter"",""1"",""5630""
","
","
","""event"",""trial"",""time""
""fullscreenenter"",""1"",""5630""
","
","","","","","","698","images/truck6.png","","","memory_trial","4","definitely_new",""
"html-keyboard-response","136","355238","0.0-18.0-0.46","3992","approach_avoid_sv1","""event"",""trial"",""time""
""fullscreenenter"",""1"",""5630""
","
","
","""event"",""trial"",""time""
""fullscreenenter"",""1"",""5630""
","
","","","","","","null","<div style=""font-size:60px;"">+</div>","null","","fixation","","",""
"memory-trial","137","357310","0.0-18.0-1.46","3992","approach_avoid_sv1","""event"",""trial"",""time""
""fullscreenenter"",""1"",""5630""
","
","
","""event"",""trial"",""time""
""fullscreenenter"",""1"",""5630""
","
","","","","","","1065.7000000029802","images/goat3.png","","","memory_trial","1","definitely_old",""
"html-keyboard-response","138","357814","0.0-18.0-0.47","3992","approach_avoid_sv1","""event"",""trial"",""time""
""fullscreenenter"",""1"",""5630""
","
","
","""event"",""trial"",""time""
""fullscreenenter"",""1"",""5630""
","
","","","","","","null","<div style=""font-size:60px;"">+</div>","null","","fixation","","",""
"memory-trial","139","363550","0.0-18.0-1.47","3992","approach_avoid_sv1","""event"",""trial"",""time""
""fullscreenenter"",""1"",""5630""
","
","
","""event"",""trial"",""time""
""fullscreenenter"",""1"",""5630""
","
","","","","","","4732","images/bush7.png","","","memory_trial","4","definitely_new",""
"html-keyboard-response","140","364054","0.0-18.0-0.48","3992","approach_avoid_sv1","""event"",""trial"",""time""
""fullscreenenter"",""1"",""5630""
","
","
","""event"",""trial"",""time""
""fullscreenenter"",""1"",""5630""
","
","","","","","","null","<div style=""font-size:60px;"">+</div>","null","","fixation","","",""
"memory-trial","141","366262","0.0-18.0-1.48","3992","approach_avoid_sv1","""event"",""trial"",""time""
""fullscreenenter"",""1"",""5630""
","
","
","""event"",""trial"",""time""
""fullscreenenter"",""1"",""5630""
","
","","","","","","1198","images/banana3.png","","","memory_trial","4","definitely_new",""
"html-keyboard-response","142","366766","0.0-18.0-0.49","3992","approach_avoid_sv1","""event"",""trial"",""time""
""fullscreenenter"",""1"",""5630""
","
","
","""event"",""trial"",""time""
""fullscreenenter"",""1"",""5630""
","
","","","","","","null","<div style=""font-size:60px;"">+</div>","null","","fixation","","",""
"memory-trial","143","368966","0.0-18.0-1.49","3992","approach_avoid_sv1","""event"",""trial"",""time""
""fullscreenenter"",""1"",""5630""
","
","
","""event"",""trial"",""time""
""fullscreenenter"",""1"",""5630""
","
","","","","","","1196.4000000022352","images/straw6.png","","","memory_trial","4","definitely_new",""
"html-keyboard-response","144","369470","0.0-18.0-0.50","3992","approach_avoid_sv1","""event"",""trial"",""time""
""fullscreenenter"",""1"",""5630""
","
","
","""event"",""trial"",""time""
""fullscreenenter"",""1"",""5630""
","
","","","","","","null","<div style=""font-size:60px;"">+</div>","null","","fixation","","",""
"memory-trial","145","373646","0.0-18.0-1.50","3992","approach_avoid_sv1","""event"",""trial"",""time""
""fullscreenenter"",""1"",""5630""
","
","
","""event"",""trial"",""time""
""fullscreenenter"",""1"",""5630""
","
","","","","","","3167.900000002235","images/goat7.png","","","memory_trial","4","definitely_new",""
"html-keyboard-response","146","374150","0.0-18.0-0.51","3992","approach_avoid_sv1","""event"",""trial"",""time""
""fullscreenenter"",""1"",""5630""
","
","
","""event"",""trial"",""time""
""fullscreenenter"",""1"",""5630""
","
","","","","","","null","<div style=""font-size:60px;"">+</div>","null","","fixation","","",""
"memory-trial","147","376846","0.0-18.0-1.51","3992","approach_avoid_sv1","""event"",""trial"",""time""
""fullscreenenter"",""1"",""5630""
","
","
","""event"",""trial"",""time""
""fullscreenenter"",""1"",""5630""
","
","","","","","","1689.9000000022352","images/bush6.png","","","memory_trial","1","definitely_old",""
"html-keyboard-response","148","377350","0.0-18.0-0.52","3992","approach_avoid_sv1","""event"",""trial"",""time""
""fullscreenenter"",""1"",""5630""
","
","
","""event"",""trial"",""time""
""fullscreenenter"",""1"",""5630""
","
","","","","","","null","<div style=""font-size:60px;"">+</div>","null","","fixation","","",""
"memory-trial","149","379326","0.0-18.0-1.52","3992","approach_avoid_sv1","""event"",""trial"",""time""
""fullscreenenter"",""1"",""5630""
","
","
","""event"",""trial"",""time""
""fullscreenenter"",""1"",""5630""
","
","","","","","","971.5","images/rabbit8.png","","","memory_trial","4","definitely_new",""
"html-keyboard-response","150","379830","0.0-18.0-0.53","3992","approach_avoid_sv1","""event"",""trial"",""time""
""fullscreenenter"",""1"",""5630""
","
","
","""event"",""trial"",""time""
""fullscreenenter"",""1"",""5630""
","
","","","","","","null","<div style=""font-size:60px;"">+</div>","null","","fixation","","",""
"memory-trial","151","381670","0.0-18.0-1.53","3992","approach_avoid_sv1","""event"",""trial"",""time""
""fullscreenenter"",""1"",""5630""
","
","
","""event"",""trial"",""time""
""fullscreenenter"",""1"",""5630""
","
","","","","","","832.0999999977648","images/straw3.png","","","memory_trial","1","definitely_old",""
"html-keyboard-response","152","382174","0.0-18.0-0.54","3992","approach_avoid_sv1","""event"",""trial"",""time""
""fullscreenenter"",""1"",""5630""
","
","
","""event"",""trial"",""time""
""fullscreenenter"",""1"",""5630""
","
","","","","","","null","<div style=""font-size:60px;"">+</div>","null","","fixation","","",""
"memory-trial","153","383974","0.0-18.0-1.54","3992","approach_avoid_sv1","""event"",""trial"",""time""
""fullscreenenter"",""1"",""5630""
","
","
","""event"",""trial"",""time""
""fullscreenenter"",""1"",""5630""
","
","","","","","","794.4000000022352","images/cow2.png","","","memory_trial","4","definitely_new",""
"html-keyboard-response","154","384478","0.0-18.0-0.55","3992","approach_avoid_sv1","""event"",""trial"",""time""
""fullscreenenter"",""1"",""5630""
","
","
","""event"",""trial"",""time""
""fullscreenenter"",""1"",""5630""
","
","","","","","","null","<div style=""font-size:60px;"">+</div>","null","","fixation","","",""
"memory-trial","155","386550","0.0-18.0-1.55","3992","approach_avoid_sv1","""event"",""trial"",""time""
""fullscreenenter"",""1"",""5630""
","
","
","""event"",""trial"",""time""
""fullscreenenter"",""1"",""5630""
","
","","","","","","1061.699999999255","images/banana4.png","","","memory_trial","4","definitely_new",""
"html-keyboard-response","156","387054","0.0-18.0-0.56","3992","approach_avoid_sv1","""event"",""trial"",""time""
""fullscreenenter"",""1"",""5630""
","
","
","""event"",""trial"",""time""
""fullscreenenter"",""1"",""5630""
","
","","","","","","null","<div style=""font-size:60px;"">+</div>","null","","fixation","","",""
"memory-trial","157","389022","0.0-18.0-1.56","3992","approach_avoid_sv1","""event"",""trial"",""time""
""fullscreenenter"",""1"",""5630""
","
","
","""event"",""trial"",""time""
""fullscreenenter"",""1"",""5630""
","
","","","","","","961.2000000029802","images/banana8.png","","","memory_trial","4","definitely_new",""
"html-keyboard-response","158","389526","0.0-18.0-0.57","3992","approach_avoid_sv1","""event"",""trial"",""time""
""fullscreenenter"",""1"",""5630""
","
","
","""event"",""trial"",""time""
""fullscreenenter"",""1"",""5630""
","
","","","","","","null","<div style=""font-size:60px;"">+</div>","null","","fixation","","",""
"memory-trial","159","391462","0.0-18.0-1.57","3992","approach_avoid_sv1","""event"",""trial"",""time""
""fullscreenenter"",""1"",""5630""
","
","
","""event"",""trial"",""time""
""fullscreenenter"",""1"",""5630""
","
","","","","","","931.4000000022352","images/horse1.png","","","memory_trial","4","definitely_new",""
"html-keyboard-response","160","391966","0.0-18.0-0.58","3992","approach_avoid_sv1","""event"",""trial"",""time""
""fullscreenenter"",""1"",""5630""
","
","
","""event"",""trial"",""time""
""fullscreenenter"",""1"",""5630""
","
","","","","","","null","<div style=""font-size:60px;"">+</div>","null","","fixation","","",""
"memory-trial","161","393685","0.0-18.0-1.58","3992","approach_avoid_sv1","""event"",""trial"",""time""
""fullscreenenter"",""1"",""5630""
","
","
","""event"",""trial"",""time""
""fullscreenenter"",""1"",""5630""
","
","","","","","","715.5999999977648","images/apple5.png","","","memory_trial","1","definitely_old",""
"html-keyboard-response","162","394190","0.0-18.0-0.59","3992","approach_avoid_sv1","""event"",""trial"",""time""
""fullscreenenter"",""1"",""5630""
","
","
","""event"",""trial"",""time""
""fullscreenenter"",""1"",""5630""
","
","","","","","","null","<div style=""font-size:60px;"">+</div>","null","","fixation","","",""
"memory-trial","163","396158","0.0-18.0-1.59","3992","approach_avoid_sv1","""event"",""trial"",""time""
""fullscreenenter"",""1"",""5630""
","
","
","""event"",""trial"",""time""
""fullscreenenter"",""1"",""5630""
","
","","","","","","958.5","images/flower4.png","","","memory_trial","4","definitely_new",""
"html-keyboard-response","164","396662","0.0-18.0-0.60","3992","approach_avoid_sv1","""event"",""trial"",""time""
""fullscreenenter"",""1"",""5630""
","
","
","""event"",""trial"",""time""
""fullscreenenter"",""1"",""5630""
","
","","","","","","null","<div style=""font-size:60px;"">+</div>","null","","fixation","","",""
"memory-trial","165","398941","0.0-18.0-1.60","3992","approach_avoid_sv1","""event"",""trial"",""time""
""fullscreenenter"",""1"",""5630""
","
","
","""event"",""trial"",""time""
""fullscreenenter"",""1"",""5630""
","
","","","","","","1276.5999999977648","images/cactus8.png","","","memory_trial","4","definitely_new",""
"html-keyboard-response","166","399446","0.0-18.0-0.61","3992","approach_avoid_sv1","""event"",""trial"",""time""
""fullscreenenter"",""1"",""5630""
","
","
","""event"",""trial"",""time""
""fullscreenenter"",""1"",""5630""
","
","","","","","","null","<div style=""font-size:60px;"">+</div>","null","","fixation","","",""
"memory-trial","167","401958","0.0-18.0-1.61","3992","approach_avoid_sv1","""event"",""trial"",""time""
""fullscreenenter"",""1"",""5630""
","
","
","""event"",""trial"",""time""
""fullscreenenter"",""1"",""5630""
","
","","","","","","1502.800000000745","images/rodent6.png","","","memory_trial","4","definitely_new",""
"html-keyboard-response","168","402462","0.0-18.0-0.62","3992","approach_avoid_sv1","""event"",""trial"",""time""
""fullscreenenter"",""1"",""5630""
","
","
","""event"",""trial"",""time""
""fullscreenenter"",""1"",""5630""
","
","","","","","","null","<div style=""font-size:60px;"">+</div>","null","","fixation","","",""
"memory-trial","169","404470","0.0-18.0-1.62","3992","approach_avoid_sv1","""event"",""trial"",""time""
""fullscreenenter"",""1"",""5630""
","
","
","""event"",""trial"",""time""
""fullscreenenter"",""1"",""5630""
","
","","","","","","1002.1999999992549","images/apple4.png","","","memory_trial","4","definitely_new",""
"html-keyboard-response","170","404974","0.0-18.0-0.63","3992","approach_avoid_sv1","""event"",""trial"",""time""
""fullscreenenter"",""1"",""5630""
","
","
","""event"",""trial"",""time""
""fullscreenenter"",""1"",""5630""
","
","","","","","","null","<div style=""font-size:60px;"">+</div>","null","","fixation","","",""
"memory-trial","171","407630","0.0-18.0-1.63","3992","approach_avoid_sv1","""event"",""trial"",""time""
""fullscreenenter"",""1"",""5630""
","
","
","""event"",""trial"",""time""
""fullscreenenter"",""1"",""5630""
","
","","","","","","1649.5","images/bush8.png","","","memory_trial","1","definitely_old",""
"html-keyboard-response","172","408134","0.0-18.0-0.64","3992","approach_avoid_sv1","""event"",""trial"",""time""
""fullscreenenter"",""1"",""5630""
","
","
","""event"",""trial"",""time""
""fullscreenenter"",""1"",""5630""
","
","","","","","","null","<div style=""font-size:60px;"">+</div>","null","","fixation","","",""
"memory-trial","173","411109","0.0-18.0-1.64","3992","approach_avoid_sv1","""event"",""trial"",""time""
""fullscreenenter"",""1"",""5630""
","
","
","""event"",""trial"",""time""
""fullscreenenter"",""1"",""5630""
","
","","","","","","1968.800000000745","images/cat6.png","","","memory_trial","1","definitely_old",""
"html-keyboard-response","174","411614","0.0-18.0-0.65","3992","approach_avoid_sv1","""event"",""trial"",""time""
""fullscreenenter"",""1"",""5630""
","
","
","""event"",""trial"",""time""
""fullscreenenter"",""1"",""5630""
","
","","","","","","null","<div style=""font-size:60px;"">+</div>","null","","fixation","","",""
"memory-trial","175","413998","0.0-18.0-1.65","3992","approach_avoid_sv1","""event"",""trial"",""time""
""fullscreenenter"",""1"",""5630""
","
","
","""event"",""trial"",""time""
""fullscreenenter"",""1"",""5630""
","
","","","","","","1375.4000000022352","images/flower6.png","","","memory_trial","4","definitely_new",""
"html-keyboard-response","176","414502","0.0-18.0-0.66","3992","approach_avoid_sv1","""event"",""trial"",""time""
""fullscreenenter"",""1"",""5630""
","
","
","""event"",""trial"",""time""
""fullscreenenter"",""1"",""5630""
","
","","","","","","null","<div style=""font-size:60px;"">+</div>","null","","fixation","","",""
"memory-trial","177","417086","0.0-18.0-1.66","3992","approach_avoid_sv1","""event"",""trial"",""time""
""fullscreenenter"",""1"",""5630""
","
","
","""event"",""trial"",""time""
""fullscreenenter"",""1"",""5630""
","
","","","","","","1580.0999999977648","images/cat8.png","","","memory_trial","1","definitely_old",""
"html-keyboard-response","178","417590","0.0-18.0-0.67","3992","approach_avoid_sv1","""event"",""trial"",""time""
""fullscreenenter"",""1"",""5630""
","
","
","""event"",""trial"",""time""
""fullscreenenter"",""1"",""5630""
","
","","","","","","null","<div style=""font-size:60px;"">+</div>","null","","fixation","","",""
"memory-trial","179","419606","0.0-18.0-1.67","3992","approach_avoid_sv1","""event"",""trial"",""time""
""fullscreenenter"",""1"",""5630""
","
","
","""event"",""trial"",""time""
""fullscreenenter"",""1"",""5630""
","
","","","","","","1006.5","images/apple3.png","","","memory_trial","1","definitely_old",""
"html-keyboard-response","180","420110","0.0-18.0-0.68","3992","approach_avoid_sv1","""event"",""trial"",""time""
""fullscreenenter"",""1"",""5630""
","
","
","""event"",""trial"",""time""
""fullscreenenter"",""1"",""5630""
","
","","","","","","null","<div style=""font-size:60px;"">+</div>","null","","fixation","","",""
"memory-trial","181","422358","0.0-18.0-1.68","3992","approach_avoid_sv1","""event"",""trial"",""time""
""fullscreenenter"",""1"",""5630""
","
","
","""event"",""trial"",""time""
""fullscreenenter"",""1"",""5630""
","
","","","","","","1242.7000000029802","images/chair5.png","","","memory_trial","4","definitely_new",""
"html-keyboard-response","182","422862","0.0-18.0-0.69","3992","approach_avoid_sv1","""event"",""trial"",""time""
""fullscreenenter"",""1"",""5630""
","
","
","""event"",""trial"",""time""
""fullscreenenter"",""1"",""5630""
","
","","","","","","null","<div style=""font-size:60px;"">+</div>","null","","fixation","","",""
"memory-trial","183","424662","0.0-18.0-1.69","3992","approach_avoid_sv1","""event"",""trial"",""time""
""fullscreenenter"",""1"",""5630""
","
","
","""event"",""trial"",""time""
""fullscreenenter"",""1"",""5630""
","
","","","","","","797.1999999992549","images/table5.png","","","memory_trial","4","definitely_new",""
"html-keyboard-response","184","425166","0.0-18.0-0.70","3992","approach_avoid_sv1","""event"",""trial"",""time""
""fullscreenenter"",""1"",""5630""
","
","
","""event"",""trial"",""time""
""fullscreenenter"",""1"",""5630""
","
","","","","","","null","<div style=""font-size:60px;"">+</div>","null","","fixation","","",""
"memory-trial","185","426950","0.0-18.0-1.70","3992","approach_avoid_sv1","""event"",""trial"",""time""
""fullscreenenter"",""1"",""5630""
","
","
","""event"",""trial"",""time""
""fullscreenenter"",""1"",""5630""
","
","","","","","","775.1000000014901","images/cow3.png","","","memory_trial","4","definitely_new",""
"html-keyboard-response","186","427454","0.0-18.0-0.71","3992","approach_avoid_sv1","""event"",""trial"",""time""
""fullscreenenter"",""1"",""5630""
","
","
","""event"",""trial"",""time""
""fullscreenenter"",""1"",""5630""
","
","","","","","","null","<div style=""font-size:60px;"">+</div>","null","","fixation","","",""
"memory-trial","187","430590","0.0-18.0-1.71","3992","approach_avoid_sv1","""event"",""trial"",""time""
""fullscreenenter"",""1"",""5630""
","
","
","""event"",""trial"",""time""
""fullscreenenter"",""1"",""5630""
","
","","","","","","2127.699999999255","images/cactus6.png","","","memory_trial","4","definitely_new",""
"html-keyboard-response","188","431094","0.0-18.0-0.72","3992","approach_avoid_sv1","""event"",""trial"",""time""
""fullscreenenter"",""1"",""5630""
","
","
","""event"",""trial"",""time""
""fullscreenenter"",""1"",""5630""
","
","","","","","","null","<div style=""font-size:60px;"">+</div>","null","","fixation","","",""
"memory-trial","189","433158","0.0-18.0-1.72","3992","approach_avoid_sv1","""event"",""trial"",""time""
""fullscreenenter"",""1"",""5630""
","
","
","""event"",""trial"",""time""
""fullscreenenter"",""1"",""5630""
","
","","","","","","1056","images/table1.png","","","memory_trial","4","definitely_new",""
"html-keyboard-response","190","433662","0.0-18.0-0.73","3992","approach_avoid_sv1","""event"",""trial"",""time""
""fullscreenenter"",""1"",""5630""
","
","
","""event"",""trial"",""time""
""fullscreenenter"",""1"",""5630""
","
","","","","","","null","<div style=""font-size:60px;"">+</div>","null","","fixation","","",""
"memory-trial","191","435407","0.0-18.0-1.73","3992","approach_avoid_sv1","""event"",""trial"",""time""
""fullscreenenter"",""1"",""5630""
","
","
","""event"",""trial"",""time""
""fullscreenenter"",""1"",""5630""
","
","","","","","","739.8000000007451","images/flower5.png","","","memory_trial","4","definitely_new",""
"html-keyboard-response","192","435910","0.0-18.0-0.74","3992","approach_avoid_sv1","""event"",""trial"",""time""
""fullscreenenter"",""1"",""5630""
","
","
","""event"",""trial"",""time""
""fullscreenenter"",""1"",""5630""
","
","","","","","","null","<div style=""font-size:60px;"">+</div>","null","","fixation","","",""
"memory-trial","193","437766","0.0-18.0-1.74","3992","approach_avoid_sv1","""event"",""trial"",""time""
""fullscreenenter"",""1"",""5630""
","
","
","""event"",""trial"",""time""
""fullscreenenter"",""1"",""5630""
","
","","","","","","853.1000000014901","images/boat4.png","","","memory_trial","4","definitely_new",""
"html-keyboard-response","194","438271","0.0-18.0-0.75","3992","approach_avoid_sv1","""event"",""trial"",""time""
""fullscreenenter"",""1"",""5630""
","
","
","""event"",""trial"",""time""
""fullscreenenter"",""1"",""5630""
","
","","","","","","null","<div style=""font-size:60px;"">+</div>","null","","fixation","","",""
"memory-trial","195","440495","0.0-18.0-1.75","3992","approach_avoid_sv1","""event"",""trial"",""time""
""fullscreenenter"",""1"",""5630""
","
","
","""event"",""trial"",""time""
""fullscreenenter"",""1"",""5630""
","
","","","","","","1217.7999999970198","images/train8.png","","","memory_trial","1","definitely_old",""
"html-keyboard-response","196","440998","0.0-18.0-0.76","3992","approach_avoid_sv1","""event"",""trial"",""time""
""fullscreenenter"",""1"",""5630""
","
","
","""event"",""trial"",""time""
""fullscreenenter"",""1"",""5630""
","
","","","","","","null","<div style=""font-size:60px;"">+</div>","null","","fixation","","",""
"memory-trial","197","442910","0.0-18.0-1.76","3992","approach_avoid_sv1","""event"",""trial"",""time""
""fullscreenenter"",""1"",""5630""
","
","
","""event"",""trial"",""time""
""fullscreenenter"",""1"",""5630""
","
","","","","","","902.8999999985099","images/train1.png","","","memory_trial","1","definitely_old",""
"html-keyboard-response","198","443415","0.0-18.0-0.77","3992","approach_avoid_sv1","""event"",""trial"",""time""
""fullscreenenter"",""1"",""5630""
","
","
","""event"",""trial"",""time""
""fullscreenenter"",""1"",""5630""
","
","","","","","","null","<div style=""font-size:60px;"">+</div>","null","","fixation","","",""
"memory-trial","199","445111","0.0-18.0-1.77","3992","approach_avoid_sv1","""event"",""trial"",""time""
""fullscreenenter"",""1"",""5630""
","
","
","""event"",""trial"",""time""
""fullscreenenter"",""1"",""5630""
","
","","","","","","689.4000000022352","images/bed2.png","","","memory_trial","4","definitely_new",""
"html-keyboard-response","200","445613","0.0-18.0-0.78","3992","approach_avoid_sv1","""event"",""trial"",""time""
""fullscreenenter"",""1"",""5630""
","
","
","""event"",""trial"",""time""
""fullscreenenter"",""1"",""5630""
","
","","","","","","null","<div style=""font-size:60px;"">+</div>","null","","fixation","","",""
"memory-trial","201","447671","0.0-18.0-1.78","3992","approach_avoid_sv1","""event"",""trial"",""time""
""fullscreenenter"",""1"",""5630""
","
","
","""event"",""trial"",""time""
""fullscreenenter"",""1"",""5630""
","
","","","","","","1051.5","images/sheep4.png","","","memory_trial","1","definitely_old",""
"html-keyboard-response","202","448174","0.0-18.0-0.79","3992","approach_avoid_sv1","""event"",""trial"",""time""
""fullscreenenter"",""1"",""5630""
","
","
","""event"",""trial"",""time""
""fullscreenenter"",""1"",""5630""
","
","","","","","","null","<div style=""font-size:60px;"">+</div>","null","","fixation","","",""
"memory-trial","203","450439","0.0-18.0-1.79","3992","approach_avoid_sv1","""event"",""trial"",""time""
""fullscreenenter"",""1"",""5630""
","
","
","""event"",""trial"",""time""
""fullscreenenter"",""1"",""5630""
","
","","","","","","1256.0999999977648","images/plane6.png","","","memory_trial","4","definitely_new",""
"html-keyboard-response","204","450943","0.0-18.0-0.80","3992","approach_avoid_sv1","""event"",""trial"",""time""
""fullscreenenter"",""1"",""5630""
","
","
","""event"",""trial"",""time""
""fullscreenenter"",""1"",""5630""
","
","","","","","","null","<div style=""font-size:60px;"">+</div>","null","","fixation","","",""
"memory-trial","205","452743","0.0-18.0-1.80","3992","approach_avoid_sv1","""event"",""trial"",""time""
""fullscreenenter"",""1"",""5630""
","
","
","""event"",""trial"",""time""
""fullscreenenter"",""1"",""5630""
","
","","","","","","793.6000000014901","images/flower2.png","","","memory_trial","4","definitely_new",""
"html-keyboard-response","206","453247","0.0-18.0-0.81","3992","approach_avoid_sv1","""event"",""trial"",""time""
""fullscreenenter"",""1"",""5630""
","
","
","""event"",""trial"",""time""
""fullscreenenter"",""1"",""5630""
","
","","","","","","null","<div style=""font-size:60px;"">+</div>","null","","fixation","","",""
"memory-trial","207","455158","0.0-18.0-1.81","3992","approach_avoid_sv1","""event"",""trial"",""time""
""fullscreenenter"",""1"",""5630""
","
","
","""event"",""trial"",""time""
""fullscreenenter"",""1"",""5630""
","
","","","","","","904.9000000022352","images/horse5.png","","","memory_trial","4","definitely_new",""
"html-keyboard-response","208","455663","0.0-18.0-0.82","3992","approach_avoid_sv1","""event"",""trial"",""time""
""fullscreenenter"",""1"",""5630""
","
","
","""event"",""trial"",""time""
""fullscreenenter"",""1"",""5630""
","
","","","","","","null","<div style=""font-size:60px;"">+</div>","null","","fixation","","",""
"memory-trial","209","457566","0.0-18.0-1.82","3992","approach_avoid_sv1","""event"",""trial"",""time""
""fullscreenenter"",""1"",""5630""
","
","
","""event"",""trial"",""time""
""fullscreenenter"",""1"",""5630""
","
","","","","","","900.4000000022352","images/cactus1.png","","","memory_trial","4","definitely_new",""
"html-keyboard-response","210","458071","0.0-18.0-0.83","3992","approach_avoid_sv1","""event"",""trial"",""time""
""fullscreenenter"",""1"",""5630""
","
","
","""event"",""trial"",""time""
""fullscreenenter"",""1"",""5630""
","
","","","","","","null","<div style=""font-size:60px;"">+</div>","null","","fixation","","",""
"memory-trial","211","459950","0.0-18.0-1.83","3992","approach_avoid_sv1","""event"",""trial"",""time""
""fullscreenenter"",""1"",""5630""
","
","
","""event"",""trial"",""time""
""fullscreenenter"",""1"",""5630""
","
","","","","","","875.3999999985099","images/plane1.png","","","memory_trial","4","definitely_new",""
"html-keyboard-response","212","460455","0.0-18.0-0.84","3992","approach_avoid_sv1","""event"",""trial"",""time""
""fullscreenenter"",""1"",""5630""
","
","
","""event"",""trial"",""time""
""fullscreenenter"",""1"",""5630""
","
","","","","","","null","<div style=""font-size:60px;"">+</div>","null","","fixation","","",""
"memory-trial","213","463255","0.0-18.0-1.84","3992","approach_avoid_sv1","""event"",""trial"",""time""
""fullscreenenter"",""1"",""5630""
","
","
","""event"",""trial"",""time""
""fullscreenenter"",""1"",""5630""
","
","","","","","","1792.199999999255","images/table4.png","","","memory_trial","1","definitely_old",""
"html-keyboard-response","214","463759","0.0-18.0-0.85","3992","approach_avoid_sv1","""event"",""trial"",""time""
""fullscreenenter"",""1"",""5630""
","
","
","""event"",""trial"",""time""
""fullscreenenter"",""1"",""5630""
","
","","","","","","null","<div style=""font-size:60px;"">+</div>","null","","fixation","","",""
"memory-trial","215","465759","0.0-18.0-1.85","3992","approach_avoid_sv1","""event"",""trial"",""time""
""fullscreenenter"",""1"",""5630""
","
","
","""event"",""trial"",""time""
""fullscreenenter"",""1"",""5630""
","
","","","","","","997.0999999977648","images/tree5.png","","","memory_trial","1","definitely_old",""
"html-keyboard-response","216","466263","0.0-18.0-0.86","3992","approach_avoid_sv1","""event"",""trial"",""time""
""fullscreenenter"",""1"",""5630""
","
","
","""event"",""trial"",""time""
""fullscreenenter"",""1"",""5630""
","
","","","","","","null","<div style=""font-size:60px;"">+</div>","null","","fixation","","",""
"memory-trial","217","468287","0.0-18.0-1.86","3992","approach_avoid_sv1","""event"",""trial"",""time""
""fullscreenenter"",""1"",""5630""
","
","
","""event"",""trial"",""time""
""fullscreenenter"",""1"",""5630""
","
","","","","","","1018.8999999985099","images/cow7.png","","","memory_trial","1","definitely_old",""
"html-keyboard-response","218","468791","0.0-18.0-0.87","3992","approach_avoid_sv1","""event"",""trial"",""time""
""fullscreenenter"",""1"",""5630""
","
","
","""event"",""trial"",""time""
""fullscreenenter"",""1"",""5630""
","
","","","","","","null","<div style=""font-size:60px;"">+</div>","null","","fixation","","",""
"memory-trial","219","470823","0.0-18.0-1.87","3992","approach_avoid_sv1","""event"",""trial"",""time""
""fullscreenenter"",""1"",""5630""
","
","
","""event"",""trial"",""time""
""fullscreenenter"",""1"",""5630""
","
","","","","","","1022.8999999985099","images/dog7.png","","","memory_trial","4","definitely_new",""
"html-keyboard-response","220","471327","0.0-18.0-0.88","3992","approach_avoid_sv1","""event"",""trial"",""time""
""fullscreenenter"",""1"",""5630""
","
","
","""event"",""trial"",""time""
""fullscreenenter"",""1"",""5630""
","
","","","","","","null","<div style=""font-size:60px;"">+</div>","null","","fixation","","",""
"memory-trial","221","473663","0.0-18.0-1.88","3992","approach_avoid_sv1","""event"",""trial"",""time""
""fullscreenenter"",""1"",""5630""
","
","
","""event"",""trial"",""time""
""fullscreenenter"",""1"",""5630""
","
","","","","","","1331.699999999255","images/rodent3.png","","","memory_trial","1","definitely_old",""
"html-keyboard-response","222","474167","0.0-18.0-0.89","3992","approach_avoid_sv1","""event"",""trial"",""time""
""fullscreenenter"",""1"",""5630""
","
","
","""event"",""trial"",""time""
""fullscreenenter"",""1"",""5630""
","
","","","","","","null","<div style=""font-size:60px;"">+</div>","null","","fixation","","",""
"memory-trial","223","476823","0.0-18.0-1.89","3992","approach_avoid_sv1","""event"",""trial"",""time""
""fullscreenenter"",""1"",""5630""
","
","
","""event"",""trial"",""time""
""fullscreenenter"",""1"",""5630""
","
","","","","","","1651.6000000014901","images/bed7.png","","","memory_trial","1","definitely_old",""
"html-keyboard-response","224","477327","0.0-18.0-0.90","3992","approach_avoid_sv1","""event"",""trial"",""time""
""fullscreenenter"",""1"",""5630""
","
","
","""event"",""trial"",""time""
""fullscreenenter"",""1"",""5630""
","
","","","","","","null","<div style=""font-size:60px;"">+</div>","null","","fixation","","",""
"memory-trial","225","479799","0.0-18.0-1.90","3992","approach_avoid_sv1","""event"",""trial"",""time""
""fullscreenenter"",""1"",""5630""
","
","
","""event"",""trial"",""time""
""fullscreenenter"",""1"",""5630""
","
","","","","","","1465.7000000029802","images/orange7.png","","","memory_trial","1","definitely_old",""
"html-keyboard-response","226","480303","0.0-18.0-0.91","3992","approach_avoid_sv1","""event"",""trial"",""time""
""fullscreenenter"",""1"",""5630""
","
","
","""event"",""trial"",""time""
""fullscreenenter"",""1"",""5630""
","
","","","","","","null","<div style=""font-size:60px;"">+</div>","null","","fixation","","",""
"memory-trial","227","485039","0.0-18.0-1.91","3992","approach_avoid_sv1","""event"",""trial"",""time""
""fullscreenenter"",""1"",""5630""
","
","
","""event"",""trial"",""time""
""fullscreenenter"",""1"",""5630""
","
","","","","","","3732.900000002235","images/sofa8.png","","","memory_trial","4","definitely_new",""
"html-button-response","228","541314","0.0-18.0-2.91-0.91","3992","approach_avoid_sv1","""event"",""trial"",""time""
""fullscreenenter"",""1"",""5630""
","
","
","""event"",""trial"",""time""
""fullscreenenter"",""1"",""5630""
","
","","","","","","56273.89999999851","<p> Take a break! </p><p> Click the button to continue. </p>","0","","break","","",""
"html-keyboard-response","229","541816","0.0-18.0-0.92","3992","approach_avoid_sv1","""event"",""trial"",""time""
""fullscreenenter"",""1"",""5630""
","
","
","""event"",""trial"",""time""
""fullscreenenter"",""1"",""5630""
","
","","","","","","null","<div style=""font-size:60px;"">+</div>","null","","fixation","","",""
"memory-trial","230","545465","0.0-18.0-1.92","3992","approach_avoid_sv1","""event"",""trial"",""time""
""fullscreenenter"",""1"",""5630""
","
","
","""event"",""trial"",""time""
""fullscreenenter"",""1"",""5630""
","
","","","","","","2642.800000000745","images/tree3.png","","","memory_trial","4","definitely_new",""
"html-keyboard-response","231","545968","0.0-18.0-0.93","3992","approach_avoid_sv1","""event"",""trial"",""time""
""fullscreenenter"",""1"",""5630""
","
","
","""event"",""trial"",""time""
""fullscreenenter"",""1"",""5630""
","
","","","","","","null","<div style=""font-size:60px;"">+</div>","null","","fixation","","",""
"memory-trial","232","547631","0.0-18.0-1.93","3992","approach_avoid_sv1","""event"",""trial"",""time""
""fullscreenenter"",""1"",""5630""
","
","
","""event"",""trial"",""time""
""fullscreenenter"",""1"",""5630""
","
","","","","","","657","images/sheep3.png","","","memory_trial","4","definitely_new",""
"html-keyboard-response","233","548136","0.0-18.0-0.94","3992","approach_avoid_sv1","""event"",""trial"",""time""
""fullscreenenter"",""1"",""5630""
","
","
","""event"",""trial"",""time""
""fullscreenenter"",""1"",""5630""
","
","","","","","","null","<div style=""font-size:60px;"">+</div>","null","","fixation","","",""
"memory-trial","234","549856","0.0-18.0-1.94","3992","approach_avoid_sv1","""event"",""trial"",""time""
""fullscreenenter"",""1"",""5630""
","
","
","""event"",""trial"",""time""
""fullscreenenter"",""1"",""5630""
","
","","","","","","716.7000000029802","images/banana2.png","","","memory_trial","4","definitely_new",""
"html-keyboard-response","235","550360","0.0-18.0-0.95","3992","approach_avoid_sv1","""event"",""trial"",""time""
""fullscreenenter"",""1"",""5630""
","
","
","""event"",""trial"",""time""
""fullscreenenter"",""1"",""5630""
","
","","","","","","null","<div style=""font-size:60px;"">+</div>","null","","fixation","","",""
"memory-trial","236","553392","0.0-18.0-1.95","3992","approach_avoid_sv1","""event"",""trial"",""time""
""fullscreenenter"",""1"",""5630""
","
","
","""event"",""trial"",""time""
""fullscreenenter"",""1"",""5630""
","
","","","","","","2028.3999999985099","images/boat8.png","","","memory_trial","4","definitely_new",""
"html-keyboard-response","237","553896","0.0-18.0-0.96","3992","approach_avoid_sv1","""event"",""trial"",""time""
""fullscreenenter"",""1"",""5630""
","
","
","""event"",""trial"",""time""
""fullscreenenter"",""1"",""5630""
","
","","","","","","null","<div style=""font-size:60px;"">+</div>","null","","fixation","","",""
"memory-trial","238","555663","0.0-18.0-1.96","3992","approach_avoid_sv1","""event"",""trial"",""time""
""fullscreenenter"",""1"",""5630""
","
","
","""event"",""trial"",""time""
""fullscreenenter"",""1"",""5630""
","
","","","","","","760.5","images/boat2.png","","","memory_trial","4","definitely_new",""
"html-keyboard-response","239","556168","0.0-18.0-0.97","3992","approach_avoid_sv1","""event"",""trial"",""time""
""fullscreenenter"",""1"",""5630""
","
","
","""event"",""trial"",""time""
""fullscreenenter"",""1"",""5630""
","
","","","","","","null","<div style=""font-size:60px;"">+</div>","null","","fixation","","",""
"memory-trial","240","557816","0.0-18.0-1.97","3992","approach_avoid_sv1","""event"",""trial"",""time""
""fullscreenenter"",""1"",""5630""
","
","
","""event"",""trial"",""time""
""fullscreenenter"",""1"",""5630""
","
","","","","","","638","images/chair1.png","","","memory_trial","3","maybe_new",""
"html-keyboard-response","241","558320","0.0-18.0-0.98","3992","approach_avoid_sv1","""event"",""trial"",""time""
""fullscreenenter"",""1"",""5630""
","
","
","""event"",""trial"",""time""
""fullscreenenter"",""1"",""5630""
","
","","","","","","null","<div style=""font-size:60px;"">+</div>","null","","fixation","","",""
"memory-trial","242","560104","0.0-18.0-1.98","3992","approach_avoid_sv1","""event"",""trial"",""time""
""fullscreenenter"",""1"",""5630""
","
","
","""event"",""trial"",""time""
""fullscreenenter"",""1"",""5630""
","
","","","","","","773.8999999985099","images/rabbit7.png","","","memory_trial","3","maybe_new",""
"html-keyboard-response","243","560608","0.0-18.0-0.99","3992","approach_avoid_sv1","""event"",""trial"",""time""
""fullscreenenter"",""1"",""5630""
","
","
","""event"",""trial"",""time""
""fullscreenenter"",""1"",""5630""
","
","","","","","","null","<div style=""font-size:60px;"">+</div>","null","","fixation","","",""
"memory-trial","244","562392","0.0-18.0-1.99","3992","approach_avoid_sv1","""event"",""trial"",""time""
""fullscreenenter"",""1"",""5630""
","
","
","""event"",""trial"",""time""
""fullscreenenter"",""1"",""5630""
","
","","","","","","774.8999999985099","images/flower7.png","","","memory_trial","3","maybe_new",""
"html-keyboard-response","245","562896","0.0-18.0-0.100","3992","approach_avoid_sv1","""event"",""trial"",""time""
""fullscreenenter"",""1"",""5630""
","
","
","""event"",""trial"",""time""
""fullscreenenter"",""1"",""5630""
","
","","","","","","null","<div style=""font-size:60px;"">+</div>","null","","fixation","","",""
"memory-trial","246","566016","0.0-18.0-1.100","3992","approach_avoid_sv1","""event"",""trial"",""time""
""fullscreenenter"",""1"",""5630""
","
","
","""event"",""trial"",""time""
""fullscreenenter"",""1"",""5630""
","
","","","","","","2117","images/boat5.png","","","memory_trial","1","definitely_old",""
"html-keyboard-response","247","566520","0.0-18.0-0.101","3992","approach_avoid_sv1","""event"",""trial"",""time""
""fullscreenenter"",""1"",""5630""
","
","
","""event"",""trial"",""time""
""fullscreenenter"",""1"",""5630""
","
","","","","","","null","<div style=""font-size:60px;"">+</div>","null","","fixation","","",""
"memory-trial","248","571328","0.0-18.0-1.101","3992","approach_avoid_sv1","""event"",""trial"",""time""
""fullscreenenter"",""1"",""5630""
","
","
","""event"",""trial"",""time""
""fullscreenenter"",""1"",""5630""
","
","","","","","","3800.699999999255","images/rabbit6.png","","","memory_trial","2","maybe_old",""
"html-keyboard-response","249","571832","0.0-18.0-0.102","3992","approach_avoid_sv1","""event"",""trial"",""time""
""fullscreenenter"",""1"",""5630""
","
","
","""event"",""trial"",""time""
""fullscreenenter"",""1"",""5630""
","
","","","","","","null","<div style=""font-size:60px;"">+</div>","null","","fixation","","",""
"memory-trial","250","574592","0.0-18.0-1.102","3992","approach_avoid_sv1","""event"",""trial"",""time""
""fullscreenenter"",""1"",""5630""
","
","
","""event"",""trial"",""time""
""fullscreenenter"",""1"",""5630""
","
","","","","","","1756.5","images/sofa4.png","","","memory_trial","3","maybe_new",""
"html-keyboard-response","251","575096","0.0-18.0-0.103","3992","approach_avoid_sv1","""event"",""trial"",""time""
""fullscreenenter"",""1"",""5630""
","
","
","""event"",""trial"",""time""
""fullscreenenter"",""1"",""5630""
","
","","","","","","null","<div style=""font-size:60px;"">+</div>","null","","fixation","","",""
"memory-trial","252","577384","0.0-18.0-1.103","3992","approach_avoid_sv1","""event"",""trial"",""time""
""fullscreenenter"",""1"",""5630""
","
","
","""event"",""trial"",""time""
""fullscreenenter"",""1"",""5630""
","
","","","","","","1281.6000000014901","images/tree8.png","","","memory_trial","4","definitely_new",""
"html-keyboard-response","253","577888","0.0-18.0-0.104","3992","approach_avoid_sv1","""event"",""trial"",""time""
""fullscreenenter"",""1"",""5630""
","
","
","""event"",""trial"",""time""
""fullscreenenter"",""1"",""5630""
","
","","","","","","null","<div style=""font-size:60px;"">+</div>","null","","fixation","","",""
"memory-trial","254","581352","0.0-18.0-1.104","3992","approach_avoid_sv1","""event"",""trial"",""time""
""fullscreenenter"",""1"",""5630""
","
","
","""event"",""trial"",""time""
""fullscreenenter"",""1"",""5630""
","
","","","","","","2454.800000000745","images/table2.png","","","memory_trial","4","definitely_new",""
"html-keyboard-response","255","581856","0.0-18.0-0.105","3992","approach_avoid_sv1","""event"",""trial"",""time""
""fullscreenenter"",""1"",""5630""
","
","
","""event"",""trial"",""time""
""fullscreenenter"",""1"",""5630""
","
","","","","","","null","<div style=""font-size:60px;"">+</div>","null","","fixation","","",""
"memory-trial","256","585183","0.0-18.0-1.105","3992","approach_avoid_sv1","""event"",""trial"",""time""
""fullscreenenter"",""1"",""5630""
","
","
","""event"",""trial"",""time""
""fullscreenenter"",""1"",""5630""
","
","","","","","","2320.2000000029802","images/train4.png","","","memory_trial","4","definitely_new",""
"html-keyboard-response","257","585688","0.0-18.0-0.106","3992","approach_avoid_sv1","""event"",""trial"",""time""
""fullscreenenter"",""1"",""5630""
","
","
","""event"",""trial"",""time""
""fullscreenenter"",""1"",""5630""
","
","","","","","","null","<div style=""font-size:60px;"">+</div>","null","","fixation","","",""
"memory-trial","258","587904","0.0-18.0-1.106","3992","approach_avoid_sv1","""event"",""trial"",""time""
""fullscreenenter"",""1"",""5630""
","
","
","""event"",""trial"",""time""
""fullscreenenter"",""1"",""5630""
","
","","","","","","1209.199999999255","images/dog3.png","","","memory_trial","4","definitely_new",""
"html-keyboard-response","259","588408","0.0-18.0-0.107","3992","approach_avoid_sv1","""event"",""trial"",""time""
""fullscreenenter"",""1"",""5630""
","
","
","""event"",""trial"",""time""
""fullscreenenter"",""1"",""5630""
","
","","","","","","null","<div style=""font-size:60px;"">+</div>","null","","fixation","","",""
"memory-trial","260","590504","0.0-18.0-1.107","3992","approach_avoid_sv1","""event"",""trial"",""time""
""fullscreenenter"",""1"",""5630""
","
","
","""event"",""trial"",""time""
""fullscreenenter"",""1"",""5630""
","
","","","","","","1086.3999999985099","images/truck4.png","","","memory_trial","4","definitely_new",""
"html-keyboard-response","261","591008","0.0-18.0-0.108","3992","approach_avoid_sv1","""event"",""trial"",""time""
""fullscreenenter"",""1"",""5630""
","
","
","""event"",""trial"",""time""
""fullscreenenter"",""1"",""5630""
","
","","","","","","null","<div style=""font-size:60px;"">+</div>","null","","fixation","","",""
"memory-trial","262","593088","0.0-18.0-1.108","3992","approach_avoid_sv1","""event"",""trial"",""time""
""fullscreenenter"",""1"",""5630""
","
","
","""event"",""trial"",""time""
""fullscreenenter"",""1"",""5630""
","
","","","","","","1074.800000000745","images/boat7.png","","","memory_trial","4","definitely_new",""
"html-keyboard-response","263","593593","0.0-18.0-0.109","3992","approach_avoid_sv1","""event"",""trial"",""time""
""fullscreenenter"",""1"",""5630""
","
","
","""event"",""trial"",""time""
""fullscreenenter"",""1"",""5630""
","
","","","","","","null","<div style=""font-size:60px;"">+</div>","null","","fixation","","",""
"memory-trial","264","595448","0.0-18.0-1.109","3992","approach_avoid_sv1","""event"",""trial"",""time""
""fullscreenenter"",""1"",""5630""
","
","
","""event"",""trial"",""time""
""fullscreenenter"",""1"",""5630""
","
","","","","","","845","images/goat6.png","","","memory_trial","4","definitely_new",""
"html-keyboard-response","265","595952","0.0-18.0-0.110","3992","approach_avoid_sv1","""event"",""trial"",""time""
""fullscreenenter"",""1"",""5630""
","
","
","""event"",""trial"",""time""
""fullscreenenter"",""1"",""5630""
","
","","","","","","null","<div style=""font-size:60px;"">+</div>","null","","fixation","","",""
"memory-trial","266","598192","0.0-18.0-1.110","3992","approach_avoid_sv1","""event"",""trial"",""time""
""fullscreenenter"",""1"",""5630""
","
","
","""event"",""trial"",""time""
""fullscreenenter"",""1"",""5630""
","
","","","","","","1231.1000000014901","images/rabbit2.png","","","memory_trial","4","definitely_new",""
"html-keyboard-response","267","598696","0.0-18.0-0.111","3992","approach_avoid_sv1","""event"",""trial"",""time""
""fullscreenenter"",""1"",""5630""
","
","
","""event"",""trial"",""time""
""fullscreenenter"",""1"",""5630""
","
","","","","","","null","<div style=""font-size:60px;"">+</div>","null","","fixation","","",""
"memory-trial","268","601480","0.0-18.0-1.111","3992","approach_avoid_sv1","""event"",""trial"",""time""
""fullscreenenter"",""1"",""5630""
","
","
","""event"",""trial"",""time""
""fullscreenenter"",""1"",""5630""
","
","","","","","","1780.1000000014901","images/cat5.png","","","memory_trial","1","definitely_old",""
"html-keyboard-response","269","601984","0.0-18.0-0.112","3992","approach_avoid_sv1","""event"",""trial"",""time""
""fullscreenenter"",""1"",""5630""
","
","
","""event"",""trial"",""time""
""fullscreenenter"",""1"",""5630""
","
","","","","","","null","<div style=""font-size:60px;"">+</div>","null","","fixation","","",""
"memory-trial","270","605960","0.0-18.0-1.112","3992","approach_avoid_sv1","""event"",""trial"",""time""
""fullscreenenter"",""1"",""5630""
","
","
","""event"",""trial"",""time""
""fullscreenenter"",""1"",""5630""
","
","","","","","","2971","images/train7.png","","","memory_trial","1","definitely_old",""
"html-keyboard-response","271","606464","0.0-18.0-0.113","3992","approach_avoid_sv1","""event"",""trial"",""time""
""fullscreenenter"",""1"",""5630""
","
","
","""event"",""trial"",""time""
""fullscreenenter"",""1"",""5630""
","
","","","","","","null","<div style=""font-size:60px;"">+</div>","null","","fixation","","",""
"memory-trial","272","609472","0.0-18.0-1.113","3992","approach_avoid_sv1","""event"",""trial"",""time""
""fullscreenenter"",""1"",""5630""
","
","
","""event"",""trial"",""time""
""fullscreenenter"",""1"",""5630""
","
","","","","","","2002.2000000029802","images/chair8.png","","","memory_trial","4","definitely_new",""
"html-keyboard-response","273","609976","0.0-18.0-0.114","3992","approach_avoid_sv1","""event"",""trial"",""time""
""fullscreenenter"",""1"",""5630""
","
","
","""event"",""trial"",""time""
""fullscreenenter"",""1"",""5630""
","
","","","","","","null","<div style=""font-size:60px;"">+</div>","null","","fixation","","",""
"memory-trial","274","613632","0.0-18.0-1.114","3992","approach_avoid_sv1","""event"",""trial"",""time""
""fullscreenenter"",""1"",""5630""
","
","
","""event"",""trial"",""time""
""fullscreenenter"",""1"",""5630""
","
","","","","","","2651.60000000149","images/cactus2.png","","","memory_trial","4","definitely_new",""
"html-keyboard-response","275","614136","0.0-18.0-0.115","3992","approach_avoid_sv1","""event"",""trial"",""time""
""fullscreenenter"",""1"",""5630""
","
","
","""event"",""trial"",""time""
""fullscreenenter"",""1"",""5630""
","
","","","","","","null","<div style=""font-size:60px;"">+</div>","null","","fixation","","",""
"memory-trial","276","616456","0.0-18.0-1.115","3992","approach_avoid_sv1","""event"",""trial"",""time""
""fullscreenenter"",""1"",""5630""
","
","
","""event"",""trial"",""time""
""fullscreenenter"",""1"",""5630""
","
","","","","","","1310.199999999255","images/table7.png","","","memory_trial","4","definitely_new",""
"html-keyboard-response","277","616960","0.0-18.0-0.116","3992","approach_avoid_sv1","""event"",""trial"",""time""
""fullscreenenter"",""1"",""5630""
","
","
","""event"",""trial"",""time""
""fullscreenenter"",""1"",""5630""
","
","","","","","","null","<div style=""font-size:60px;"">+</div>","null","","fixation","","",""
"memory-trial","278","619273","0.0-18.0-1.116","3992","approach_avoid_sv1","""event"",""trial"",""time""
""fullscreenenter"",""1"",""5630""
","
","
","""event"",""trial"",""time""
""fullscreenenter"",""1"",""5630""
","
","","","","","","1302.6000000014901","images/orange8.png","","","memory_trial","4","definitely_new",""
"html-keyboard-response","279","619776","0.0-18.0-0.117","3992","approach_avoid_sv1","""event"",""trial"",""time""
""fullscreenenter"",""1"",""5630""
","
","
","""event"",""trial"",""time""
""fullscreenenter"",""1"",""5630""
","
","","","","","","null","<div style=""font-size:60px;"">+</div>","null","","fixation","","",""
"memory-trial","280","623880","0.0-18.0-1.117","3992","approach_avoid_sv1","""event"",""trial"",""time""
""fullscreenenter"",""1"",""5630""
","
","
","""event"",""trial"",""time""
""fullscreenenter"",""1"",""5630""
","
","","","","","","3095.699999999255","images/rodent7.png","","","memory_trial","3","maybe_new",""
"html-keyboard-response","281","624384","0.0-18.0-0.118","3992","approach_avoid_sv1","""event"",""trial"",""time""
""fullscreenenter"",""1"",""5630""
","
","
","""event"",""trial"",""time""
""fullscreenenter"",""1"",""5630""
","
","","","","","","null","<div style=""font-size:60px;"">+</div>","null","","fixation","","",""
"memory-trial","282","626728","0.0-18.0-1.118","3992","approach_avoid_sv1","""event"",""trial"",""time""
""fullscreenenter"",""1"",""5630""
","
","
","""event"",""trial"",""time""
""fullscreenenter"",""1"",""5630""
","
","","","","","","1339.1000000014901","images/cat7.png","","","memory_trial","1","definitely_old",""
"html-keyboard-response","283","627232","0.0-18.0-0.119","3992","approach_avoid_sv1","""event"",""trial"",""time""
""fullscreenenter"",""1"",""5630""
","
","
","""event"",""trial"",""time""
""fullscreenenter"",""1"",""5630""
","
","","","","","","null","<div style=""font-size:60px;"">+</div>","null","","fixation","","",""
"memory-trial","284","629040","0.0-18.0-1.119","3992","approach_avoid_sv1","""event"",""trial"",""time""
""fullscreenenter"",""1"",""5630""
","
","
","""event"",""trial"",""time""
""fullscreenenter"",""1"",""5630""
","
","","","","","","800.2999999970198","images/cow5.png","","","memory_trial","1","definitely_old",""
"html-keyboard-response","285","629544","0.0-18.0-0.120","3992","approach_avoid_sv1","""event"",""trial"",""time""
""fullscreenenter"",""1"",""5630""
","
","
","""event"",""trial"",""time""
""fullscreenenter"",""1"",""5630""
","
","","","","","","null","<div style=""font-size:60px;"">+</div>","null","","fixation","","",""
"memory-trial","286","631912","0.0-18.0-1.120","3992","approach_avoid_sv1","""event"",""trial"",""time""
""fullscreenenter"",""1"",""5630""
","
","
","""event"",""trial"",""time""
""fullscreenenter"",""1"",""5630""
","
","","","","","","1361.199999999255","images/train6.png","","","memory_trial","1","definitely_old",""
"html-keyboard-response","287","632416","0.0-18.0-0.121","3992","approach_avoid_sv1","""event"",""trial"",""time""
""fullscreenenter"",""1"",""5630""
","
","
","""event"",""trial"",""time""
""fullscreenenter"",""1"",""5630""
","
","","","","","","null","<div style=""font-size:60px;"">+</div>","null","","fixation","","",""
"memory-trial","288","634993","0.0-18.0-1.121","3992","approach_avoid_sv1","""event"",""trial"",""time""
""fullscreenenter"",""1"",""5630""
","
","
","""event"",""trial"",""time""
""fullscreenenter"",""1"",""5630""
","
","","","","","","1566.199999999255","images/rabbit4.png","","","memory_trial","4","definitely_new",""
"html-keyboard-response","289","635495","0.0-18.0-0.122","3992","approach_avoid_sv1","""event"",""trial"",""time""
""fullscreenenter"",""1"",""5630""
","
","
","""event"",""trial"",""time""
""fullscreenenter"",""1"",""5630""
","
","","","","","","null","<div style=""font-size:60px;"">+</div>","null","","fixation","","",""
"memory-trial","290","637560","0.0-18.0-1.122","3992","approach_avoid_sv1","""event"",""trial"",""time""
""fullscreenenter"",""1"",""5630""
","
","
","""event"",""trial"",""time""
""fullscreenenter"",""1"",""5630""
","
","","","","","","1062","images/rabbit5.png","","","memory_trial","4","definitely_new",""
"html-keyboard-response","291","638065","0.0-18.0-0.123","3992","approach_avoid_sv1","""event"",""trial"",""time""
""fullscreenenter"",""1"",""5630""
","
","
","""event"",""trial"",""time""
""fullscreenenter"",""1"",""5630""
","
","","","","","","null","<div style=""font-size:60px;"">+</div>","null","","fixation","","",""
"memory-trial","292","640457","0.0-18.0-1.123","3992","approach_avoid_sv1","""event"",""trial"",""time""
""fullscreenenter"",""1"",""5630""
","
","
","""event"",""trial"",""time""
""fullscreenenter"",""1"",""5630""
","
","","","","","","1387.699999999255","images/straw5.png","","","memory_trial","1","definitely_old",""
"html-keyboard-response","293","640961","0.0-18.0-0.124","3992","approach_avoid_sv1","""event"",""trial"",""time""
""fullscreenenter"",""1"",""5630""
","
","
","""event"",""trial"",""time""
""fullscreenenter"",""1"",""5630""
","
","","","","","","null","<div style=""font-size:60px;"">+</div>","null","","fixation","","",""
"memory-trial","294","642888","0.0-18.0-1.124","3992","approach_avoid_sv1","""event"",""trial"",""time""
""fullscreenenter"",""1"",""5630""
","
","
","""event"",""trial"",""time""
""fullscreenenter"",""1"",""5630""
","
","","","","","","920.2000000029802","images/tree1.png","","","memory_trial","4","definitely_new",""
"html-keyboard-response","295","643393","0.0-18.0-0.125","3992","approach_avoid_sv1","""event"",""trial"",""time""
""fullscreenenter"",""1"",""5630""
","
","
","""event"",""trial"",""time""
""fullscreenenter"",""1"",""5630""
","
","","","","","","null","<div style=""font-size:60px;"">+</div>","null","","fixation","","",""
"memory-trial","296","645545","0.0-18.0-1.125","3992","approach_avoid_sv1","""event"",""trial"",""time""
""fullscreenenter"",""1"",""5630""
","
","
","""event"",""trial"",""time""
""fullscreenenter"",""1"",""5630""
","
","","","","","","1143.199999999255","images/bed1.png","","","memory_trial","1","definitely_old",""
