"trial_type","trial_index","time_elapsed","internal_node_id","subject_id","task_version","interactions","blur_events","focus_events","fullscreenenter_events","fullscreenexit_events","success","timeout","failed_images","failed_audio","failed_video","rt","stimulus","response","button_pressed","task_part","key_press","answer","correct"
"pavlovia","0","3","0.0-0.0","4465","approach_avoid_sv1","""event"",""trial"",""time""
""fullscreenenter"",""1"",""2221""
","
","
","""event"",""trial"",""time""
""fullscreenenter"",""1"",""2221""
","
","","","","","","","","","","","","",""
"fullscreen","1","3131","0.0-1.0","4465","approach_avoid_sv1","""event"",""trial"",""time""
""fullscreenenter"",""1"",""2221""
","
","
","""event"",""trial"",""time""
""fullscreenenter"",""1"",""2221""
","
","true","","","","","","","","","","","",""
"preload","2","3220","0.0-2.0","4465","approach_avoid_sv1","""event"",""trial"",""time""
""fullscreenenter"",""1"",""2221""
","
","
","""event"",""trial"",""time""
""fullscreenenter"",""1"",""2221""
","
","true","false","[]","[]","[]","","","","","","","",""
"preload","3","3291","0.0-3.0","4465","approach_avoid_sv1","""event"",""trial"",""time""
""fullscreenenter"",""1"",""2221""
","
","
","""event"",""trial"",""time""
""fullscreenenter"",""1"",""2221""
","
","true","false","[]","[]","[]","","","","","","","",""
"preload","4","3314","0.0-4.0","4465","approach_avoid_sv1","""event"",""trial"",""time""
""fullscreenenter"",""1"",""2221""
","
","
","""event"",""trial"",""time""
""fullscreenenter"",""1"",""2221""
","
","true","false","[]","[]","[]","","","","","","","",""
"audio-keyboard-response","5","16959","0.0-5.0","4465","approach_avoid_sv1","""event"",""trial"",""time""
""fullscreenenter"",""1"",""2221""
","
","
","""event"",""trial"",""time""
""fullscreenenter"",""1"",""2221""
","
","","","","","","13229.333333333332","audio/beep_loop.wav"," ","","","","",""
"audio-button-response","6","18274","0.0-6.0","4465","approach_avoid_sv1","""event"",""trial"",""time""
""fullscreenenter"",""1"",""2221""
","
","
","""event"",""trial"",""time""
""fullscreenenter"",""1"",""2221""
","
","","","","","","1291","audio/turtle.wav","3","","","","",""
"audio-button-response","7","20194","0.0-7.0","4465","approach_avoid_sv1","""event"",""trial"",""time""
""fullscreenenter"",""1"",""2221""
","
","
","""event"",""trial"",""time""
""fullscreenenter"",""1"",""2221""
","
","","","","","","880","audio/shark.wav","2","","","","",""
"preload","8","21425","0.0-8.0","4465","approach_avoid_sv1","""event"",""trial"",""time""
""fullscreenenter"",""1"",""2221""
","
","
","""event"",""trial"",""time""
""fullscreenenter"",""1"",""2221""
","
","true","false","[]","[]","[]","","","","","","","",""
"learning-instructions","9","29906","0.0-9.0-0.0","4465","approach_avoid_sv1","""event"",""trial"",""time""
""fullscreenenter"",""1"",""2221""
","
","
","""event"",""trial"",""time""
""fullscreenenter"",""1"",""2221""
","
","","","","","","4006","<p> Welcome back! </p><p> Last week, you had to make choices about lots of different items.  </p>","","0","instructions","","",""
"learning-instructions","10","34770","0.0-9.0-0.1","4465","approach_avoid_sv1","""event"",""trial"",""time""
""fullscreenenter"",""1"",""2221""
","
","
","""event"",""trial"",""time""
""fullscreenenter"",""1"",""2221""
","
","","","","","","749.7000000476837","<p> Today, we are going to ask you to try to remember all the items. </p>","","0","instructions","","",""
"learning-instructions","11","48394","0.0-9.0-0.2","4465","approach_avoid_sv1","""event"",""trial"",""time""
""fullscreenenter"",""1"",""2221""
","
","
","""event"",""trial"",""time""
""fullscreenenter"",""1"",""2221""
","
","","","","","","3383.2000000476837","<p> On every trial, you will see an image. </p><p> The image may be an OLD image you saw during the games last week or it may be a NEW image that was not presented. </p>","","0","instructions","","",""
"learning-instructions","12","59529","0.0-9.0-0.3","4465","approach_avoid_sv1","""event"",""trial"",""time""
""fullscreenenter"",""1"",""2221""
","
","
","""event"",""trial"",""time""
""fullscreenenter"",""1"",""2221""
","
","","","","","","2552.100000143051","<p> You need to select whether the image is:  </p><p>  'Definitely old', 'Maybe old', 'Maybe new', or 'Definitely new.'  </p><div class=""mem-choice-instructions-grid""><div class=""choice-option"" id=""choice-option-1"" ><img src=""images/definitely_old_1.png"" id=""choice-option-img-1"" class=""choice-option-img"" stage=""1""></div><div class=""choice-option"" id=""choice-option-2"" ><img src=""images/maybe_old_1.png"" id=""choice-option-img-2"" class=""choice-option-img"" stage=""1""></div><div class=""choice-option"" id=""choice-option-3"" ><img src=""images/maybe_new_1.png"" id=""choice-option-img-3"" class=""choice-option-img"" stage=""1""></div><div class=""choice-option"" id=""choice-option-4"" > <img src=""images/definitely_new_1.png"" id=""choice-option-img-4"" class=""choice-option-img"" stage=""1""></div></div>","","0","instructions","","",""
"learning-instructions","13","66915","0.0-9.0-0.4","4465","approach_avoid_sv1","""event"",""trial"",""time""
""fullscreenenter"",""1"",""2221""
","
","
","""event"",""trial"",""time""
""fullscreenenter"",""1"",""2221""
","
","","","","","","843.7999999523163","<p> You should use the 1, 2, 3, and 4 keys to make your responses.  </p><div class=""mem-choice-instructions-grid""><div class=""choice-option"" id=""choice-option-1"" ><img src=""images/definitely_old.png"" id=""choice-option-img-1"" class=""choice-option-img"" stage=""1""></div><div class=""choice-option"" id=""choice-option-2"" ><img src=""images/maybe_old.png"" id=""choice-option-img-2"" class=""choice-option-img"" stage=""1""></div><div class=""choice-option"" id=""choice-option-3"" ><img src=""images/maybe_new.png"" id=""choice-option-img-3"" class=""choice-option-img"" stage=""1""></div><div class=""choice-option"" id=""choice-option-4"" > <img src=""images/definitely_new.png"" id=""choice-option-img-4"" class=""choice-option-img"" stage=""1""></div></div>","","0","instructions","","",""
"learning-instructions","14","74361","0.0-9.0-0.5","4465","approach_avoid_sv1","""event"",""trial"",""time""
""fullscreenenter"",""1"",""2221""
","
","
","""event"",""trial"",""time""
""fullscreenenter"",""1"",""2221""
","
","","","","","","1091.7999999523163","<p> You will have 10 seconds to make each response.  </p><p>  Make sure to respond before time runs out! </p>","","0","instructions","","",""
"learning-instructions","15","82314","0.0-9.0-0.6","4465","approach_avoid_sv1","""event"",""trial"",""time""
""fullscreenenter"",""1"",""2221""
","
","
","""event"",""trial"",""time""
""fullscreenenter"",""1"",""2221""
","
","","","","","","844.8999998569489","<p> Today, you will see each image ONCE only.  </p><p>  That means none of the images will repeat. </p>","","0","instructions","","",""
"learning-instructions","16","95932","0.0-9.0-0.7","4465","approach_avoid_sv1","""event"",""trial"",""time""
""fullscreenenter"",""1"",""2221""
","
","
","""event"",""trial"",""time""
""fullscreenenter"",""1"",""2221""
","
","","","","","","891.8999998569489","<p> Before you play the real game, it is time to practice. </p><p>  Just like in the real game, some of the images in the practice will be ones you have seen before. </p><p>  Others will be entirely new. </p>","","0","instructions","","",""
"html-button-response","17","98273","0.0-10.0","4465","approach_avoid_sv1","""event"",""trial"",""time""
""fullscreenenter"",""1"",""2221""
","
","
","""event"",""trial"",""time""
""fullscreenenter"",""1"",""2221""
","
","","","","","","2231.899999856949","<p> Ready to practice? </p><p> Remember, use the 1, 2, 3, and 4 keys to make your responses. </p>","0","","instructions","","",""
"html-keyboard-response","18","98917","0.0-11.0-0.0","4465","approach_avoid_sv1","""event"",""trial"",""time""
""fullscreenenter"",""1"",""2221""
","
","
","""event"",""trial"",""time""
""fullscreenenter"",""1"",""2221""
","
","","","","","","null","<div style=""font-size:60px;"">+</div>","null","","fixation","","",""
"memory-trial","19","102376","0.0-11.0-1.0","4465","approach_avoid_sv1","""event"",""trial"",""time""
""fullscreenenter"",""1"",""2221""
","
","
","""event"",""trial"",""time""
""fullscreenenter"",""1"",""2221""
","
","","","","","","2448.5999999046326","images/racket2.png","","","practice","1","definitely_old",""
"html-keyboard-response","20","102916","0.0-11.0-0.1","4465","approach_avoid_sv1","""event"",""trial"",""time""
""fullscreenenter"",""1"",""2221""
","
","
","""event"",""trial"",""time""
""fullscreenenter"",""1"",""2221""
","
","","","","","","null","<div style=""font-size:60px;"">+</div>","null","","fixation","","",""
"memory-trial","21","105304","0.0-11.0-1.1","4465","approach_avoid_sv1","""event"",""trial"",""time""
""fullscreenenter"",""1"",""2221""
","
","
","""event"",""trial"",""time""
""fullscreenenter"",""1"",""2221""
","
","","","","","","1376.8999998569489","images/ball5.png","","","practice","2","maybe_old",""
"html-keyboard-response","22","105813","0.0-11.0-0.2","4465","approach_avoid_sv1","""event"",""trial"",""time""
""fullscreenenter"",""1"",""2221""
","
","
","""event"",""trial"",""time""
""fullscreenenter"",""1"",""2221""
","
","","","","","","null","<div style=""font-size:60px;"">+</div>","null","","fixation","","",""
"memory-trial","23","108103","0.0-11.0-1.2","4465","approach_avoid_sv1","""event"",""trial"",""time""
""fullscreenenter"",""1"",""2221""
","
","
","""event"",""trial"",""time""
""fullscreenenter"",""1"",""2221""
","
","","","","","","1241.3999998569489","images/ball2.png","","","practice","3","maybe_new",""
"html-keyboard-response","24","108645","0.0-11.0-0.3","4465","approach_avoid_sv1","""event"",""trial"",""time""
""fullscreenenter"",""1"",""2221""
","
","
","""event"",""trial"",""time""
""fullscreenenter"",""1"",""2221""
","
","","","","","","null","<div style=""font-size:60px;"">+</div>","null","","fixation","","",""
"memory-trial","25","111571","0.0-11.0-1.3","4465","approach_avoid_sv1","""event"",""trial"",""time""
""fullscreenenter"",""1"",""2221""
","
","
","""event"",""trial"",""time""
""fullscreenenter"",""1"",""2221""
","
","","","","","","1894.4000000953674","images/racket5.png","","","practice","4","definitely_new",""
"html-keyboard-response","26","112120","0.0-11.0-0.4","4465","approach_avoid_sv1","""event"",""trial"",""time""
""fullscreenenter"",""1"",""2221""
","
","
","""event"",""trial"",""time""
""fullscreenenter"",""1"",""2221""
","
","","","","","","null","<div style=""font-size:60px;"">+</div>","null","","fixation","","",""
"memory-trial","27","115093","0.0-11.0-1.4","4465","approach_avoid_sv1","""event"",""trial"",""time""
""fullscreenenter"",""1"",""2221""
","
","
","""event"",""trial"",""time""
""fullscreenenter"",""1"",""2221""
","
","","","","","","1929.6999998092651","images/ball3.png","","","practice","2","maybe_old",""
"html-keyboard-response","28","115608","0.0-11.0-0.5","4465","approach_avoid_sv1","""event"",""trial"",""time""
""fullscreenenter"",""1"",""2221""
","
","
","""event"",""trial"",""time""
""fullscreenenter"",""1"",""2221""
","
","","","","","","null","<div style=""font-size:60px;"">+</div>","null","","fixation","","",""
"memory-trial","29","117516","0.0-11.0-1.5","4465","approach_avoid_sv1","""event"",""trial"",""time""
""fullscreenenter"",""1"",""2221""
","
","
","""event"",""trial"",""time""
""fullscreenenter"",""1"",""2221""
","
","","","","","","835.4000000953674","images/racket3.png","","","practice","3","maybe_new",""
"html-keyboard-response","30","118036","0.0-11.0-0.6","4465","approach_avoid_sv1","""event"",""trial"",""time""
""fullscreenenter"",""1"",""2221""
","
","
","""event"",""trial"",""time""
""fullscreenenter"",""1"",""2221""
","
","","","","","","null","<div style=""font-size:60px;"">+</div>","null","","fixation","","",""
"memory-trial","31","120639","0.0-11.0-1.6","4465","approach_avoid_sv1","""event"",""trial"",""time""
""fullscreenenter"",""1"",""2221""
","
","
","""event"",""trial"",""time""
""fullscreenenter"",""1"",""2221""
","
","","","","","","1563.7999999523163","images/ball1.png","","","practice","2","maybe_old",""
"html-keyboard-response","32","121183","0.0-11.0-0.7","4465","approach_avoid_sv1","""event"",""trial"",""time""
""fullscreenenter"",""1"",""2221""
","
","
","""event"",""trial"",""time""
""fullscreenenter"",""1"",""2221""
","
","","","","","","null","<div style=""font-size:60px;"">+</div>","null","","fixation","","",""
"memory-trial","33","123453","0.0-11.0-1.7","4465","approach_avoid_sv1","""event"",""trial"",""time""
""fullscreenenter"",""1"",""2221""
","
","
","""event"",""trial"",""time""
""fullscreenenter"",""1"",""2221""
","
","","","","","","1224.8999998569489","images/racket1.png","","","practice","4","definitely_new",""
"learning-instructions","34","131114","0.0-12.0-0.0","4465","approach_avoid_sv1","""event"",""trial"",""time""
""fullscreenenter"",""1"",""2221""
","
","
","""event"",""trial"",""time""
""fullscreenenter"",""1"",""2221""
","
","","","","","","333.7999999523163","<p> Great! You have completed the practice. </p><p> Before you start, we're going to ask you a few questions about how the game works.  </p>","","0","instructions","","",""
"preload","35","131399","0.0-13.0","4465","approach_avoid_sv1","""event"",""trial"",""time""
""fullscreenenter"",""1"",""2221""
","
","
","""event"",""trial"",""time""
""fullscreenenter"",""1"",""2221""
","
","true","false","[]","[]","[]","","","","","","","",""
"comp-q","36","137993","0.0-14.0-0.0","4465","approach_avoid_sv1","""event"",""trial"",""time""
""fullscreenenter"",""1"",""2221""
","
","
","""event"",""trial"",""time""
""fullscreenenter"",""1"",""2221""
","
","","","","","","713.7999999523163","<p> <b> True or False? </b> </p><p> In this game, you will only see each image once. </p>","","0","comp_question","","","true"
"comp-q","37","145513","0.0-14.0-1.0","4465","approach_avoid_sv1","""event"",""trial"",""time""
""fullscreenenter"",""1"",""2221""
","
","
","""event"",""trial"",""time""
""fullscreenenter"",""1"",""2221""
","
","","","","","","993.4000000953674","<p> <b> That's right! </b> You will see many different images <i> one time each </i> in this game. </p>","","0","comp_answer","","",""
"comp-q","38","151185","0.0-15.0-0.0","4465","approach_avoid_sv1","""event"",""trial"",""time""
""fullscreenenter"",""1"",""2221""
","
","
","""event"",""trial"",""time""
""fullscreenenter"",""1"",""2221""
","
","","","","","","655.2000000476837","<p> <b> True or False? </b> </p><p> You should use the mouse and click to make your response. </p>","","1","comp_question","","","true"
"comp-q","39","159641","0.0-15.0-1.0","4465","approach_avoid_sv1","""event"",""trial"",""time""
""fullscreenenter"",""1"",""2221""
","
","
","""event"",""trial"",""time""
""fullscreenenter"",""1"",""2221""
","
","","","","","","1921.2999999523163","<p><b> That's right! </b> You should use the '1', '2', '3', and '4' keys to make your response. </p>","","0","comp_answer","","",""
"comp-q","40","166297","0.0-16.0-0.0","4465","approach_avoid_sv1","""event"",""trial"",""time""
""fullscreenenter"",""1"",""2221""
","
","
","""event"",""trial"",""time""
""fullscreenenter"",""1"",""2221""
","
","","","","","","896.4000000953674","<p> <b> True or False? </b> </p><p> You will have as much time as you want to make each choice. </p>","","1","comp_question","","","true"
"comp-q","41","171794","0.0-16.0-1.0","4465","approach_avoid_sv1","""event"",""trial"",""time""
""fullscreenenter"",""1"",""2221""
","
","
","""event"",""trial"",""time""
""fullscreenenter"",""1"",""2221""
","
","","","","","","622.7000000476837","<p> <b> That's right! </b> You will only have 10 seconds to make each choice. </p>","","0","comp_answer","","",""
"learning-instructions","42","181770","0.0-17.0","4465","approach_avoid_sv1","""event"",""trial"",""time""
""fullscreenenter"",""1"",""2221""
","
","
","""event"",""trial"",""time""
""fullscreenenter"",""1"",""2221""
","
","","","","","","1120","<p> Great! You are now ready to begin the game. </p><p> Remember, use the 1, 2, 3, and 4 keys to make your responses. </p>","","0","instructions","","",""
"html-keyboard-response","43","182392","0.0-18.0-0.0","4465","approach_avoid_sv1","""event"",""trial"",""time""
""fullscreenenter"",""1"",""2221""
","
","
","""event"",""trial"",""time""
""fullscreenenter"",""1"",""2221""
","
","","","","","","null","<div style=""font-size:60px;"">+</div>","null","","fixation","","",""
"memory-trial","44","185328","0.0-18.0-1.0","4465","approach_avoid_sv1","""event"",""trial"",""time""
""fullscreenenter"",""1"",""2221""
","
","
","""event"",""trial"",""time""
""fullscreenenter"",""1"",""2221""
","
","","","","","","1923.7999999523163","images/orange3.png","","","memory_trial","1","definitely_old",""
"html-keyboard-response","45","185831","0.0-18.0-0.1","4465","approach_avoid_sv1","""event"",""trial"",""time""
""fullscreenenter"",""1"",""2221""
","
","
","""event"",""trial"",""time""
""fullscreenenter"",""1"",""2221""
","
","","","","","","null","<div style=""font-size:60px;"">+</div>","null","","fixation","","",""
"memory-trial","46","187632","0.0-18.0-1.1","4465","approach_avoid_sv1","""event"",""trial"",""time""
""fullscreenenter"",""1"",""2221""
","
","
","""event"",""trial"",""time""
""fullscreenenter"",""1"",""2221""
","
","","","","","","793.2999999523163","images/bush1.png","","","memory_trial","1","definitely_old",""
"html-keyboard-response","47","188136","0.0-18.0-0.2","4465","approach_avoid_sv1","""event"",""trial"",""time""
""fullscreenenter"",""1"",""2221""
","
","
","""event"",""trial"",""time""
""fullscreenenter"",""1"",""2221""
","
","","","","","","null","<div style=""font-size:60px;"">+</div>","null","","fixation","","",""
"memory-trial","48","189976","0.0-18.0-1.2","4465","approach_avoid_sv1","""event"",""trial"",""time""
""fullscreenenter"",""1"",""2221""
","
","
","""event"",""trial"",""time""
""fullscreenenter"",""1"",""2221""
","
","","","","","","830.8000001907349","images/tree8.png","","","memory_trial","1","definitely_old",""
"html-keyboard-response","49","190481","0.0-18.0-0.3","4465","approach_avoid_sv1","""event"",""trial"",""time""
""fullscreenenter"",""1"",""2221""
","
","
","""event"",""trial"",""time""
""fullscreenenter"",""1"",""2221""
","
","","","","","","null","<div style=""font-size:60px;"">+</div>","null","","fixation","","",""
"memory-trial","50","192765","0.0-18.0-1.3","4465","approach_avoid_sv1","""event"",""trial"",""time""
""fullscreenenter"",""1"",""2221""
","
","
","""event"",""trial"",""time""
""fullscreenenter"",""1"",""2221""
","
","","","","","","1249.1999998092651","images/goat5.png","","","memory_trial","2","maybe_old",""
"html-keyboard-response","51","193311","0.0-18.0-0.4","4465","approach_avoid_sv1","""event"",""trial"",""time""
""fullscreenenter"",""1"",""2221""
","
","
","""event"",""trial"",""time""
""fullscreenenter"",""1"",""2221""
","
","","","","","","null","<div style=""font-size:60px;"">+</div>","null","","fixation","","",""
"memory-trial","52","195614","0.0-18.0-1.4","4465","approach_avoid_sv1","""event"",""trial"",""time""
""fullscreenenter"",""1"",""2221""
","
","
","""event"",""trial"",""time""
""fullscreenenter"",""1"",""2221""
","
","","","","","","1289","images/horse3.png","","","memory_trial","3","maybe_new",""
"html-keyboard-response","53","196153","0.0-18.0-0.5","4465","approach_avoid_sv1","""event"",""trial"",""time""
""fullscreenenter"",""1"",""2221""
","
","
","""event"",""trial"",""time""
""fullscreenenter"",""1"",""2221""
","
","","","","","","null","<div style=""font-size:60px;"">+</div>","null","","fixation","","",""
"memory-trial","54","198203","0.0-18.0-1.5","4465","approach_avoid_sv1","""event"",""trial"",""time""
""fullscreenenter"",""1"",""2221""
","
","
","""event"",""trial"",""time""
""fullscreenenter"",""1"",""2221""
","
","","","","","","985.9000000953674","images/chair3.png","","","memory_trial","3","maybe_new",""
"html-keyboard-response","55","198724","0.0-18.0-0.6","4465","approach_avoid_sv1","""event"",""trial"",""time""
""fullscreenenter"",""1"",""2221""
","
","
","""event"",""trial"",""time""
""fullscreenenter"",""1"",""2221""
","
","","","","","","null","<div style=""font-size:60px;"">+</div>","null","","fixation","","",""
"memory-trial","56","200737","0.0-18.0-1.6","4465","approach_avoid_sv1","""event"",""trial"",""time""
""fullscreenenter"",""1"",""2221""
","
","
","""event"",""trial"",""time""
""fullscreenenter"",""1"",""2221""
","
","","","","","","946.2999999523163","images/apple2.png","","","memory_trial","1","definitely_old",""
"html-keyboard-response","57","201268","0.0-18.0-0.7","4465","approach_avoid_sv1","""event"",""trial"",""time""
""fullscreenenter"",""1"",""2221""
","
","
","""event"",""trial"",""time""
""fullscreenenter"",""1"",""2221""
","
","","","","","","null","<div style=""font-size:60px;"">+</div>","null","","fixation","","",""
"memory-trial","58","204451","0.0-18.0-1.7","4465","approach_avoid_sv1","""event"",""trial"",""time""
""fullscreenenter"",""1"",""2221""
","
","
","""event"",""trial"",""time""
""fullscreenenter"",""1"",""2221""
","
","","","","","","2140.2000000476837","images/tree1.png","","","memory_trial","4","definitely_new",""
"html-keyboard-response","59","204972","0.0-18.0-0.8","4465","approach_avoid_sv1","""event"",""trial"",""time""
""fullscreenenter"",""1"",""2221""
","
","
","""event"",""trial"",""time""
""fullscreenenter"",""1"",""2221""
","
","","","","","","null","<div style=""font-size:60px;"">+</div>","null","","fixation","","",""
"memory-trial","60","207259","0.0-18.0-1.8","4465","approach_avoid_sv1","""event"",""trial"",""time""
""fullscreenenter"",""1"",""2221""
","
","
","""event"",""trial"",""time""
""fullscreenenter"",""1"",""2221""
","
","","","","","","1265.2999999523163","images/sofa8.png","","","memory_trial","3","maybe_new",""
"html-keyboard-response","61","207797","0.0-18.0-0.9","4465","approach_avoid_sv1","""event"",""trial"",""time""
""fullscreenenter"",""1"",""2221""
","
","
","""event"",""trial"",""time""
""fullscreenenter"",""1"",""2221""
","
","","","","","","null","<div style=""font-size:60px;"">+</div>","null","","fixation","","",""
"memory-trial","62","210993","0.0-18.0-1.9","4465","approach_avoid_sv1","""event"",""trial"",""time""
""fullscreenenter"",""1"",""2221""
","
","
","""event"",""trial"",""time""
""fullscreenenter"",""1"",""2221""
","
","","","","","","2159.2000000476837","images/truck5.png","","","memory_trial","3","maybe_new",""
"html-keyboard-response","63","211522","0.0-18.0-0.10","4465","approach_avoid_sv1","""event"",""trial"",""time""
""fullscreenenter"",""1"",""2221""
","
","
","""event"",""trial"",""time""
""fullscreenenter"",""1"",""2221""
","
","","","","","","null","<div style=""font-size:60px;"">+</div>","null","","fixation","","",""
"memory-trial","64","214402","0.0-18.0-1.10","4465","approach_avoid_sv1","""event"",""trial"",""time""
""fullscreenenter"",""1"",""2221""
","
","
","""event"",""trial"",""time""
""fullscreenenter"",""1"",""2221""
","
","","","","","","1821.8999998569489","images/bed6.png","","","memory_trial","1","definitely_old",""
"html-keyboard-response","65","214938","0.0-18.0-0.11","4465","approach_avoid_sv1","""event"",""trial"",""time""
""fullscreenenter"",""1"",""2221""
","
","
","""event"",""trial"",""time""
""fullscreenenter"",""1"",""2221""
","
","","","","","","null","<div style=""font-size:60px;"">+</div>","null","","fixation","","",""
"memory-trial","66","217026","0.0-18.0-1.11","4465","approach_avoid_sv1","""event"",""trial"",""time""
""fullscreenenter"",""1"",""2221""
","
","
","""event"",""trial"",""time""
""fullscreenenter"",""1"",""2221""
","
","","","","","","1027.6999998092651","images/boat8.png","","","memory_trial","1","definitely_old",""
"html-keyboard-response","67","217554","0.0-18.0-0.12","4465","approach_avoid_sv1","""event"",""trial"",""time""
""fullscreenenter"",""1"",""2221""
","
","
","""event"",""trial"",""time""
""fullscreenenter"",""1"",""2221""
","
","","","","","","null","<div style=""font-size:60px;"">+</div>","null","","fixation","","",""
"memory-trial","68","219602","0.0-18.0-1.12","4465","approach_avoid_sv1","""event"",""trial"",""time""
""fullscreenenter"",""1"",""2221""
","
","
","""event"",""trial"",""time""
""fullscreenenter"",""1"",""2221""
","
","","","","","","1011.7999999523163","images/truck6.png","","","memory_trial","4","definitely_new",""
"html-keyboard-response","69","220103","0.0-18.0-0.13","4465","approach_avoid_sv1","""event"",""trial"",""time""
""fullscreenenter"",""1"",""2221""
","
","
","""event"",""trial"",""time""
""fullscreenenter"",""1"",""2221""
","
","","","","","","null","<div style=""font-size:60px;"">+</div>","null","","fixation","","",""
"memory-trial","70","222370","0.0-18.0-1.13","4465","approach_avoid_sv1","""event"",""trial"",""time""
""fullscreenenter"",""1"",""2221""
","
","
","""event"",""trial"",""time""
""fullscreenenter"",""1"",""2221""
","
","","","","","","1211.7000000476837","images/banana1.png","","","memory_trial","3","maybe_new",""
"html-keyboard-response","71","222897","0.0-18.0-0.14","4465","approach_avoid_sv1","""event"",""trial"",""time""
""fullscreenenter"",""1"",""2221""
","
","
","""event"",""trial"",""time""
""fullscreenenter"",""1"",""2221""
","
","","","","","","null","<div style=""font-size:60px;"">+</div>","null","","fixation","","",""
"memory-trial","72","225225","0.0-18.0-1.14","4465","approach_avoid_sv1","""event"",""trial"",""time""
""fullscreenenter"",""1"",""2221""
","
","
","""event"",""trial"",""time""
""fullscreenenter"",""1"",""2221""
","
","","","","","","1294.3000001907349","images/tree2.png","","","memory_trial","1","definitely_old",""
"html-keyboard-response","73","225754","0.0-18.0-0.15","4465","approach_avoid_sv1","""event"",""trial"",""time""
""fullscreenenter"",""1"",""2221""
","
","
","""event"",""trial"",""time""
""fullscreenenter"",""1"",""2221""
","
","","","","","","null","<div style=""font-size:60px;"">+</div>","null","","fixation","","",""
"memory-trial","74","228281","0.0-18.0-1.15","4465","approach_avoid_sv1","""event"",""trial"",""time""
""fullscreenenter"",""1"",""2221""
","
","
","""event"",""trial"",""time""
""fullscreenenter"",""1"",""2221""
","
","","","","","","1488.1000001430511","images/cat2.png","","","memory_trial","3","maybe_new",""
"html-keyboard-response","75","228810","0.0-18.0-0.16","4465","approach_avoid_sv1","""event"",""trial"",""time""
""fullscreenenter"",""1"",""2221""
","
","
","""event"",""trial"",""time""
""fullscreenenter"",""1"",""2221""
","
","","","","","","null","<div style=""font-size:60px;"">+</div>","null","","fixation","","",""
"memory-trial","76","230706","0.0-18.0-1.16","4465","approach_avoid_sv1","""event"",""trial"",""time""
""fullscreenenter"",""1"",""2221""
","
","
","""event"",""trial"",""time""
""fullscreenenter"",""1"",""2221""
","
","","","","","","837.2999999523163","images/sofa4.png","","","memory_trial","2","maybe_old",""
"html-keyboard-response","77","231241","0.0-18.0-0.17","4465","approach_avoid_sv1","""event"",""trial"",""time""
""fullscreenenter"",""1"",""2221""
","
","
","""event"",""trial"",""time""
""fullscreenenter"",""1"",""2221""
","
","","","","","","null","<div style=""font-size:60px;"">+</div>","null","","fixation","","",""
"memory-trial","78","234355","0.0-18.0-1.17","4465","approach_avoid_sv1","""event"",""trial"",""time""
""fullscreenenter"",""1"",""2221""
","
","
","""event"",""trial"",""time""
""fullscreenenter"",""1"",""2221""
","
","","","","","","2054.5999999046326","images/train1.png","","","memory_trial","2","maybe_old",""
"html-keyboard-response","79","234889","0.0-18.0-0.18","4465","approach_avoid_sv1","""event"",""trial"",""time""
""fullscreenenter"",""1"",""2221""
","
","
","""event"",""trial"",""time""
""fullscreenenter"",""1"",""2221""
","
","","","","","","null","<div style=""font-size:60px;"">+</div>","null","","fixation","","",""
"memory-trial","80","236803","0.0-18.0-1.18","4465","approach_avoid_sv1","""event"",""trial"",""time""
""fullscreenenter"",""1"",""2221""
","
","
","""event"",""trial"",""time""
""fullscreenenter"",""1"",""2221""
","
","","","","","","854.7999999523163","images/table1.png","","","memory_trial","3","maybe_new",""
"html-keyboard-response","81","237339","0.0-18.0-0.19","4465","approach_avoid_sv1","""event"",""trial"",""time""
""fullscreenenter"",""1"",""2221""
","
","
","""event"",""trial"",""time""
""fullscreenenter"",""1"",""2221""
","
","","","","","","null","<div style=""font-size:60px;"">+</div>","null","","fixation","","",""
"memory-trial","82","239546","0.0-18.0-1.19","4465","approach_avoid_sv1","""event"",""trial"",""time""
""fullscreenenter"",""1"",""2221""
","
","
","""event"",""trial"",""time""
""fullscreenenter"",""1"",""2221""
","
","","","","","","1143.8000001907349","images/cat8.png","","","memory_trial","4","definitely_new",""
"html-keyboard-response","83","240055","0.0-18.0-0.20","4465","approach_avoid_sv1","""event"",""trial"",""time""
""fullscreenenter"",""1"",""2221""
","
","
","""event"",""trial"",""time""
""fullscreenenter"",""1"",""2221""
","
","","","","","","null","<div style=""font-size:60px;"">+</div>","null","","fixation","","",""
"memory-trial","84","241995","0.0-18.0-1.20","4465","approach_avoid_sv1","""event"",""trial"",""time""
""fullscreenenter"",""1"",""2221""
","
","
","""event"",""trial"",""time""
""fullscreenenter"",""1"",""2221""
","
","","","","","","906.7000000476837","images/goat7.png","","","memory_trial","4","definitely_new",""
"html-keyboard-response","85","242530","0.0-18.0-0.21","4465","approach_avoid_sv1","""event"",""trial"",""time""
""fullscreenenter"",""1"",""2221""
","
","
","""event"",""trial"",""time""
""fullscreenenter"",""1"",""2221""
","
","","","","","","null","<div style=""font-size:60px;"">+</div>","null","","fixation","","",""
"memory-trial","86","244753","0.0-18.0-1.21","4465","approach_avoid_sv1","""event"",""trial"",""time""
""fullscreenenter"",""1"",""2221""
","
","
","""event"",""trial"",""time""
""fullscreenenter"",""1"",""2221""
","
","","","","","","1213.2000000476837","images/sofa2.png","","","memory_trial","2","maybe_old",""
"html-keyboard-response","87","245283","0.0-18.0-0.22","4465","approach_avoid_sv1","""event"",""trial"",""time""
""fullscreenenter"",""1"",""2221""
","
","
","""event"",""trial"",""time""
""fullscreenenter"",""1"",""2221""
","
","","","","","","null","<div style=""font-size:60px;"">+</div>","null","","fixation","","",""
"memory-trial","88","247635","0.0-18.0-1.22","4465","approach_avoid_sv1","""event"",""trial"",""time""
""fullscreenenter"",""1"",""2221""
","
","
","""event"",""trial"",""time""
""fullscreenenter"",""1"",""2221""
","
","","","","","","1293.3000001907349","images/cat4.png","","","memory_trial","3","maybe_new",""
"html-keyboard-response","89","248170","0.0-18.0-0.23","4465","approach_avoid_sv1","""event"",""trial"",""time""
""fullscreenenter"",""1"",""2221""
","
","
","""event"",""trial"",""time""
""fullscreenenter"",""1"",""2221""
","
","","","","","","null","<div style=""font-size:60px;"">+</div>","null","","fixation","","",""
"memory-trial","90","250330","0.0-18.0-1.23","4465","approach_avoid_sv1","""event"",""trial"",""time""
""fullscreenenter"",""1"",""2221""
","
","
","""event"",""trial"",""time""
""fullscreenenter"",""1"",""2221""
","
","","","","","","1127","images/cow6.png","","","memory_trial","1","definitely_old",""
"html-keyboard-response","91","250866","0.0-18.0-0.24","4465","approach_avoid_sv1","""event"",""trial"",""time""
""fullscreenenter"",""1"",""2221""
","
","
","""event"",""trial"",""time""
""fullscreenenter"",""1"",""2221""
","
","","","","","","null","<div style=""font-size:60px;"">+</div>","null","","fixation","","",""
"memory-trial","92","253025","0.0-18.0-1.24","4465","approach_avoid_sv1","""event"",""trial"",""time""
""fullscreenenter"",""1"",""2221""
","
","
","""event"",""trial"",""time""
""fullscreenenter"",""1"",""2221""
","
","","","","","","1101.7999999523163","images/sheep8.png","","","memory_trial","3","maybe_new",""
"html-keyboard-response","93","253554","0.0-18.0-0.25","4465","approach_avoid_sv1","""event"",""trial"",""time""
""fullscreenenter"",""1"",""2221""
","
","
","""event"",""trial"",""time""
""fullscreenenter"",""1"",""2221""
","
","","","","","","null","<div style=""font-size:60px;"">+</div>","null","","fixation","","",""
"memory-trial","94","255720","0.0-18.0-1.25","4465","approach_avoid_sv1","""event"",""trial"",""time""
""fullscreenenter"",""1"",""2221""
","
","
","""event"",""trial"",""time""
""fullscreenenter"",""1"",""2221""
","
","","","","","","1131","images/boat5.png","","","memory_trial","4","definitely_new",""
"html-keyboard-response","95","256250","0.0-18.0-0.26","4465","approach_avoid_sv1","""event"",""trial"",""time""
""fullscreenenter"",""1"",""2221""
","
","
","""event"",""trial"",""time""
""fullscreenenter"",""1"",""2221""
","
","","","","","","null","<div style=""font-size:60px;"">+</div>","null","","fixation","","",""
"memory-trial","96","258370","0.0-18.0-1.26","4465","approach_avoid_sv1","""event"",""trial"",""time""
""fullscreenenter"",""1"",""2221""
","
","
","""event"",""trial"",""time""
""fullscreenenter"",""1"",""2221""
","
","","","","","","1059.4000000953674","images/table7.png","","","memory_trial","2","maybe_old",""
"html-keyboard-response","97","258872","0.0-18.0-0.27","4465","approach_avoid_sv1","""event"",""trial"",""time""
""fullscreenenter"",""1"",""2221""
","
","
","""event"",""trial"",""time""
""fullscreenenter"",""1"",""2221""
","
","","","","","","null","<div style=""font-size:60px;"">+</div>","null","","fixation","","",""
"memory-trial","98","261393","0.0-18.0-1.27","4465","approach_avoid_sv1","""event"",""trial"",""time""
""fullscreenenter"",""1"",""2221""
","
","
","""event"",""trial"",""time""
""fullscreenenter"",""1"",""2221""
","
","","","","","","1458.2999999523163","images/table2.png","","","memory_trial","3","maybe_new",""
"html-keyboard-response","99","261922","0.0-18.0-0.28","4465","approach_avoid_sv1","""event"",""trial"",""time""
""fullscreenenter"",""1"",""2221""
","
","
","""event"",""trial"",""time""
""fullscreenenter"",""1"",""2221""
","
","","","","","","null","<div style=""font-size:60px;"">+</div>","null","","fixation","","",""
"memory-trial","100","264147","0.0-18.0-1.28","4465","approach_avoid_sv1","""event"",""trial"",""time""
""fullscreenenter"",""1"",""2221""
","
","
","""event"",""trial"",""time""
""fullscreenenter"",""1"",""2221""
","
","","","","","","1162.1999998092651","images/sheep6.png","","","memory_trial","3","maybe_new",""
"html-keyboard-response","101","264682","0.0-18.0-0.29","4465","approach_avoid_sv1","""event"",""trial"",""time""
""fullscreenenter"",""1"",""2221""
","
","
","""event"",""trial"",""time""
""fullscreenenter"",""1"",""2221""
","
","","","","","","null","<div style=""font-size:60px;"">+</div>","null","","fixation","","",""
"memory-trial","102","266584","0.0-18.0-1.29","4465","approach_avoid_sv1","""event"",""trial"",""time""
""fullscreenenter"",""1"",""2221""
","
","
","""event"",""trial"",""time""
""fullscreenenter"",""1"",""2221""
","
","","","","","","898.0999999046326","images/truck7.png","","","memory_trial","3","maybe_new",""
"html-keyboard-response","103","267088","0.0-18.0-0.30","4465","approach_avoid_sv1","""event"",""trial"",""time""
""fullscreenenter"",""1"",""2221""
","
","
","""event"",""trial"",""time""
""fullscreenenter"",""1"",""2221""
","
","","","","","","null","<div style=""font-size:60px;"">+</div>","null","","fixation","","",""
"memory-trial","104","269538","0.0-18.0-1.30","4465","approach_avoid_sv1","""event"",""trial"",""time""
""fullscreenenter"",""1"",""2221""
","
","
","""event"",""trial"",""time""
""fullscreenenter"",""1"",""2221""
","
","","","","","","1414","images/cactus5.png","","","memory_trial","3","maybe_new",""
"html-keyboard-response","105","270067","0.0-18.0-0.31","4465","approach_avoid_sv1","""event"",""trial"",""time""
""fullscreenenter"",""1"",""2221""
","
","
","""event"",""trial"",""time""
""fullscreenenter"",""1"",""2221""
","
","","","","","","null","<div style=""font-size:60px;"">+</div>","null","","fixation","","",""
"memory-trial","106","272066","0.0-18.0-1.31","4465","approach_avoid_sv1","""event"",""trial"",""time""
""fullscreenenter"",""1"",""2221""
","
","
","""event"",""trial"",""time""
""fullscreenenter"",""1"",""2221""
","
","","","","","","938","images/dog2.png","","","memory_trial","1","definitely_old",""
"html-keyboard-response","107","272595","0.0-18.0-0.32","4465","approach_avoid_sv1","""event"",""trial"",""time""
""fullscreenenter"",""1"",""2221""
","
","
","""event"",""trial"",""time""
""fullscreenenter"",""1"",""2221""
","
","","","","","","null","<div style=""font-size:60px;"">+</div>","null","","fixation","","",""
"memory-trial","108","274531","0.0-18.0-1.32","4465","approach_avoid_sv1","""event"",""trial"",""time""
""fullscreenenter"",""1"",""2221""
","
","
","""event"",""trial"",""time""
""fullscreenenter"",""1"",""2221""
","
","","","","","","875.1000001430511","images/chair2.png","","","memory_trial","2","maybe_old",""
"html-keyboard-response","109","275066","0.0-18.0-0.33","4465","approach_avoid_sv1","""event"",""trial"",""time""
""fullscreenenter"",""1"",""2221""
","
","
","""event"",""trial"",""time""
""fullscreenenter"",""1"",""2221""
","
","","","","","","null","<div style=""font-size:60px;"">+</div>","null","","fixation","","",""
"memory-trial","110","276930","0.0-18.0-1.33","4465","approach_avoid_sv1","""event"",""trial"",""time""
""fullscreenenter"",""1"",""2221""
","
","
","""event"",""trial"",""time""
""fullscreenenter"",""1"",""2221""
","
","","","","","","806.6000001430511","images/rodent8.png","","","memory_trial","4","definitely_new",""
"html-keyboard-response","111","277433","0.0-18.0-0.34","4465","approach_avoid_sv1","""event"",""trial"",""time""
""fullscreenenter"",""1"",""2221""
","
","
","""event"",""trial"",""time""
""fullscreenenter"",""1"",""2221""
","
","","","","","","null","<div style=""font-size:60px;"">+</div>","null","","fixation","","",""
"memory-trial","112","280563","0.0-18.0-1.34","4465","approach_avoid_sv1","""event"",""trial"",""time""
""fullscreenenter"",""1"",""2221""
","
","
","""event"",""trial"",""time""
""fullscreenenter"",""1"",""2221""
","
","","","","","","2069.600000143051","images/bush8.png","","","memory_trial","2","maybe_old",""
"html-keyboard-response","113","281098","0.0-18.0-0.35","4465","approach_avoid_sv1","""event"",""trial"",""time""
""fullscreenenter"",""1"",""2221""
","
","
","""event"",""trial"",""time""
""fullscreenenter"",""1"",""2221""
","
","","","","","","null","<div style=""font-size:60px;"">+</div>","null","","fixation","","",""
"memory-trial","114","283314","0.0-18.0-1.35","4465","approach_avoid_sv1","""event"",""trial"",""time""
""fullscreenenter"",""1"",""2221""
","
","
","""event"",""trial"",""time""
""fullscreenenter"",""1"",""2221""
","
","","","","","","1159.7000000476837","images/train4.png","","","memory_trial","4","definitely_new",""
"html-keyboard-response","115","283844","0.0-18.0-0.36","4465","approach_avoid_sv1","""event"",""trial"",""time""
""fullscreenenter"",""1"",""2221""
","
","
","""event"",""trial"",""time""
""fullscreenenter"",""1"",""2221""
","
","","","","","","null","<div style=""font-size:60px;"">+</div>","null","","fixation","","",""
"memory-trial","116","286322","0.0-18.0-1.36","4465","approach_avoid_sv1","""event"",""trial"",""time""
""fullscreenenter"",""1"",""2221""
","
","
","""event"",""trial"",""time""
""fullscreenenter"",""1"",""2221""
","
","","","","","","1443.0999999046326","images/flower4.png","","","memory_trial","1","definitely_old",""
"html-keyboard-response","117","286850","0.0-18.0-0.37","4465","approach_avoid_sv1","""event"",""trial"",""time""
""fullscreenenter"",""1"",""2221""
","
","
","""event"",""trial"",""time""
""fullscreenenter"",""1"",""2221""
","
","","","","","","null","<div style=""font-size:60px;"">+</div>","null","","fixation","","",""
"memory-trial","118","288602","0.0-18.0-1.37","4465","approach_avoid_sv1","""event"",""trial"",""time""
""fullscreenenter"",""1"",""2221""
","
","
","""event"",""trial"",""time""
""fullscreenenter"",""1"",""2221""
","
","","","","","","719.2000000476837","images/rodent5.png","","","memory_trial","4","definitely_new",""
"html-keyboard-response","119","289130","0.0-18.0-0.38","4465","approach_avoid_sv1","""event"",""trial"",""time""
""fullscreenenter"",""1"",""2221""
","
","
","""event"",""trial"",""time""
""fullscreenenter"",""1"",""2221""
","
","","","","","","null","<div style=""font-size:60px;"">+</div>","null","","fixation","","",""
"memory-trial","120","292050","0.0-18.0-1.38","4465","approach_avoid_sv1","""event"",""trial"",""time""
""fullscreenenter"",""1"",""2221""
","
","
","""event"",""trial"",""time""
""fullscreenenter"",""1"",""2221""
","
","","","","","","1858.8000001907349","images/apple1.png","","","memory_trial","2","maybe_old",""
"html-keyboard-response","121","292578","0.0-18.0-0.39","4465","approach_avoid_sv1","""event"",""trial"",""time""
""fullscreenenter"",""1"",""2221""
","
","
","""event"",""trial"",""time""
""fullscreenenter"",""1"",""2221""
","
","","","","","","null","<div style=""font-size:60px;"">+</div>","null","","fixation","","",""
"memory-trial","122","294434","0.0-18.0-1.39","4465","approach_avoid_sv1","""event"",""trial"",""time""
""fullscreenenter"",""1"",""2221""
","
","
","""event"",""trial"",""time""
""fullscreenenter"",""1"",""2221""
","
","","","","","","795.2999999523163","images/truck1.png","","","memory_trial","4","definitely_new",""
"html-keyboard-response","123","294963","0.0-18.0-0.40","4465","approach_avoid_sv1","""event"",""trial"",""time""
""fullscreenenter"",""1"",""2221""
","
","
","""event"",""trial"",""time""
""fullscreenenter"",""1"",""2221""
","
","","","","","","null","<div style=""font-size:60px;"">+</div>","null","","fixation","","",""
"memory-trial","124","296762","0.0-18.0-1.40","4465","approach_avoid_sv1","""event"",""trial"",""time""
""fullscreenenter"",""1"",""2221""
","
","
","""event"",""trial"",""time""
""fullscreenenter"",""1"",""2221""
","
","","","","","","739.5","images/plane4.png","","","memory_trial","4","definitely_new",""
"html-keyboard-response","125","297290","0.0-18.0-0.41","4465","approach_avoid_sv1","""event"",""trial"",""time""
""fullscreenenter"",""1"",""2221""
","
","
","""event"",""trial"",""time""
""fullscreenenter"",""1"",""2221""
","
","","","","","","null","<div style=""font-size:60px;"">+</div>","null","","fixation","","",""
"memory-trial","126","299403","0.0-18.0-1.41","4465","approach_avoid_sv1","""event"",""trial"",""time""
""fullscreenenter"",""1"",""2221""
","
","
","""event"",""trial"",""time""
""fullscreenenter"",""1"",""2221""
","
","","","","","","1050.4000000953674","images/rabbit3.png","","","memory_trial","1","definitely_old",""
"html-button-response","127","301929","0.0-18.0-2.41-0.41","4465","approach_avoid_sv1","""event"",""trial"",""time""
""fullscreenenter"",""1"",""2221""
","
","
","""event"",""trial"",""time""
""fullscreenenter"",""1"",""2221""
","
","","","","","","2524.5999999046326","<p> Take a break! </p><p> Click the button to continue. </p>","0","","break","","",""
"html-keyboard-response","128","302438","0.0-18.0-0.42","4465","approach_avoid_sv1","""event"",""trial"",""time""
""fullscreenenter"",""1"",""2221""
","
","
","""event"",""trial"",""time""
""fullscreenenter"",""1"",""2221""
","
","","","","","","null","<div style=""font-size:60px;"">+</div>","null","","fixation","","",""
"memory-trial","129","304426","0.0-18.0-1.42","4465","approach_avoid_sv1","""event"",""trial"",""time""
""fullscreenenter"",""1"",""2221""
","
","
","""event"",""trial"",""time""
""fullscreenenter"",""1"",""2221""
","
","","","","","","951.5","images/chair8.png","","","memory_trial","3","maybe_new",""
"html-keyboard-response","130","304953","0.0-18.0-0.43","4465","approach_avoid_sv1","""event"",""trial"",""time""
""fullscreenenter"",""1"",""2221""
","
","
","""event"",""trial"",""time""
""fullscreenenter"",""1"",""2221""
","
","","","","","","null","<div style=""font-size:60px;"">+</div>","null","","fixation","","",""
"memory-trial","131","307315","0.0-18.0-1.43","4465","approach_avoid_sv1","""event"",""trial"",""time""
""fullscreenenter"",""1"",""2221""
","
","
","""event"",""trial"",""time""
""fullscreenenter"",""1"",""2221""
","
","","","","","","1331.1999998092651","images/straw4.png","","","memory_trial","2","maybe_old",""
"html-keyboard-response","132","307850","0.0-18.0-0.44","4465","approach_avoid_sv1","""event"",""trial"",""time""
""fullscreenenter"",""1"",""2221""
","
","
","""event"",""trial"",""time""
""fullscreenenter"",""1"",""2221""
","
","","","","","","null","<div style=""font-size:60px;"">+</div>","null","","fixation","","",""
"memory-trial","133","309963","0.0-18.0-1.44","4465","approach_avoid_sv1","""event"",""trial"",""time""
""fullscreenenter"",""1"",""2221""
","
","
","""event"",""trial"",""time""
""fullscreenenter"",""1"",""2221""
","
","","","","","","1078.8999998569489","images/truck3.png","","","memory_trial","4","definitely_new",""
"html-keyboard-response","134","310498","0.0-18.0-0.45","4465","approach_avoid_sv1","""event"",""trial"",""time""
""fullscreenenter"",""1"",""2221""
","
","
","""event"",""trial"",""time""
""fullscreenenter"",""1"",""2221""
","
","","","","","","null","<div style=""font-size:60px;"">+</div>","null","","fixation","","",""
"memory-trial","135","312346","0.0-18.0-1.45","4465","approach_avoid_sv1","""event"",""trial"",""time""
""fullscreenenter"",""1"",""2221""
","
","
","""event"",""trial"",""time""
""fullscreenenter"",""1"",""2221""
","
","","","","","","786.2999999523163","images/sofa6.png","","","memory_trial","1","definitely_old",""
"html-keyboard-response","136","312874","0.0-18.0-0.46","4465","approach_avoid_sv1","""event"",""trial"",""time""
""fullscreenenter"",""1"",""2221""
","
","
","""event"",""trial"",""time""
""fullscreenenter"",""1"",""2221""
","
","","","","","","null","<div style=""font-size:60px;"">+</div>","null","","fixation","","",""
"memory-trial","137","315499","0.0-18.0-1.46","4465","approach_avoid_sv1","""event"",""trial"",""time""
""fullscreenenter"",""1"",""2221""
","
","
","""event"",""trial"",""time""
""fullscreenenter"",""1"",""2221""
","
","","","","","","1566.2999999523163","images/horse5.png","","","memory_trial","3","maybe_new",""
"html-keyboard-response","138","316026","0.0-18.0-0.47","4465","approach_avoid_sv1","""event"",""trial"",""time""
""fullscreenenter"",""1"",""2221""
","
","
","""event"",""trial"",""time""
""fullscreenenter"",""1"",""2221""
","
","","","","","","null","<div style=""font-size:60px;"">+</div>","null","","fixation","","",""
"memory-trial","139","318156","0.0-18.0-1.47","4465","approach_avoid_sv1","""event"",""trial"",""time""
""fullscreenenter"",""1"",""2221""
","
","
","""event"",""trial"",""time""
""fullscreenenter"",""1"",""2221""
","
","","","","","","1066.1000001430511","images/goat4.png","","","memory_trial","2","maybe_old",""
"html-keyboard-response","140","318690","0.0-18.0-0.48","4465","approach_avoid_sv1","""event"",""trial"",""time""
""fullscreenenter"",""1"",""2221""
","
","
","""event"",""trial"",""time""
""fullscreenenter"",""1"",""2221""
","
","","","","","","null","<div style=""font-size:60px;"">+</div>","null","","fixation","","",""
"memory-trial","141","320536","0.0-18.0-1.48","4465","approach_avoid_sv1","""event"",""trial"",""time""
""fullscreenenter"",""1"",""2221""
","
","
","""event"",""trial"",""time""
""fullscreenenter"",""1"",""2221""
","
","","","","","","841.0999999046326","images/orange6.png","","","memory_trial","1","definitely_old",""
"html-keyboard-response","142","321065","0.0-18.0-0.49","4465","approach_avoid_sv1","""event"",""trial"",""time""
""fullscreenenter"",""1"",""2221""
","
","
","""event"",""trial"",""time""
""fullscreenenter"",""1"",""2221""
","
","","","","","","null","<div style=""font-size:60px;"">+</div>","null","","fixation","","",""
"memory-trial","143","323270","0.0-18.0-1.49","4465","approach_avoid_sv1","""event"",""trial"",""time""
""fullscreenenter"",""1"",""2221""
","
","
","""event"",""trial"",""time""
""fullscreenenter"",""1"",""2221""
","
","","","","","","1155.4000000953674","images/boat2.png","","","memory_trial","2","maybe_old",""
"html-keyboard-response","144","323778","0.0-18.0-0.50","4465","approach_avoid_sv1","""event"",""trial"",""time""
""fullscreenenter"",""1"",""2221""
","
","
","""event"",""trial"",""time""
""fullscreenenter"",""1"",""2221""
","
","","","","","","null","<div style=""font-size:60px;"">+</div>","null","","fixation","","",""
"memory-trial","145","326353","0.0-18.0-1.50","4465","approach_avoid_sv1","""event"",""trial"",""time""
""fullscreenenter"",""1"",""2221""
","
","
","""event"",""trial"",""time""
""fullscreenenter"",""1"",""2221""
","
","","","","","","1570.2999999523163","images/plane7.png","","","memory_trial","2","maybe_old",""
"html-keyboard-response","146","326882","0.0-18.0-0.51","4465","approach_avoid_sv1","""event"",""trial"",""time""
""fullscreenenter"",""1"",""2221""
","
","
","""event"",""trial"",""time""
""fullscreenenter"",""1"",""2221""
","
","","","","","","null","<div style=""font-size:60px;"">+</div>","null","","fixation","","",""
"memory-trial","147","329153","0.0-18.0-1.51","4465","approach_avoid_sv1","""event"",""trial"",""time""
""fullscreenenter"",""1"",""2221""
","
","
","""event"",""trial"",""time""
""fullscreenenter"",""1"",""2221""
","
","","","","","","1214.9000000953674","images/rodent6.png","","","memory_trial","3","maybe_new",""
"html-keyboard-response","148","329689","0.0-18.0-0.52","4465","approach_avoid_sv1","""event"",""trial"",""time""
""fullscreenenter"",""1"",""2221""
","
","
","""event"",""trial"",""time""
""fullscreenenter"",""1"",""2221""
","
","","","","","","null","<div style=""font-size:60px;"">+</div>","null","","fixation","","",""
"memory-trial","149","331618","0.0-18.0-1.52","4465","approach_avoid_sv1","""event"",""trial"",""time""
""fullscreenenter"",""1"",""2221""
","
","
","""event"",""trial"",""time""
""fullscreenenter"",""1"",""2221""
","
","","","","","","870.0999999046326","images/plane3.png","","","memory_trial","1","definitely_old",""
"html-keyboard-response","150","332157","0.0-18.0-0.53","4465","approach_avoid_sv1","""event"",""trial"",""time""
""fullscreenenter"",""1"",""2221""
","
","
","""event"",""trial"",""time""
""fullscreenenter"",""1"",""2221""
","
","","","","","","null","<div style=""font-size:60px;"">+</div>","null","","fixation","","",""
"memory-trial","151","334312","0.0-18.0-1.53","4465","approach_avoid_sv1","""event"",""trial"",""time""
""fullscreenenter"",""1"",""2221""
","
","
","""event"",""trial"",""time""
""fullscreenenter"",""1"",""2221""
","
","","","","","","1124.6999998092651","images/bed4.png","","","memory_trial","1","definitely_old",""
"html-keyboard-response","152","334841","0.0-18.0-0.54","4465","approach_avoid_sv1","""event"",""trial"",""time""
""fullscreenenter"",""1"",""2221""
","
","
","""event"",""trial"",""time""
""fullscreenenter"",""1"",""2221""
","
","","","","","","null","<div style=""font-size:60px;"">+</div>","null","","fixation","","",""
"memory-trial","153","337177","0.0-18.0-1.54","4465","approach_avoid_sv1","""event"",""trial"",""time""
""fullscreenenter"",""1"",""2221""
","
","
","""event"",""trial"",""time""
""fullscreenenter"",""1"",""2221""
","
","","","","","","1281.7999999523163","images/orange2.png","","","memory_trial","1","definitely_old",""
"html-keyboard-response","154","337706","0.0-18.0-0.55","4465","approach_avoid_sv1","""event"",""trial"",""time""
""fullscreenenter"",""1"",""2221""
","
","
","""event"",""trial"",""time""
""fullscreenenter"",""1"",""2221""
","
","","","","","","null","<div style=""font-size:60px;"">+</div>","null","","fixation","","",""
"memory-trial","155","340201","0.0-18.0-1.55","4465","approach_avoid_sv1","""event"",""trial"",""time""
""fullscreenenter"",""1"",""2221""
","
","
","""event"",""trial"",""time""
""fullscreenenter"",""1"",""2221""
","
","","","","","","1465.2999999523163","images/flower1.png","","","memory_trial","2","maybe_old",""
"html-keyboard-response","156","340737","0.0-18.0-0.56","4465","approach_avoid_sv1","""event"",""trial"",""time""
""fullscreenenter"",""1"",""2221""
","
","
","""event"",""trial"",""time""
""fullscreenenter"",""1"",""2221""
","
","","","","","","null","<div style=""font-size:60px;"">+</div>","null","","fixation","","",""
"memory-trial","157","342640","0.0-18.0-1.56","4465","approach_avoid_sv1","""event"",""trial"",""time""
""fullscreenenter"",""1"",""2221""
","
","
","""event"",""trial"",""time""
""fullscreenenter"",""1"",""2221""
","
","","","","","","844.7000000476837","images/tree5.png","","","memory_trial","1","definitely_old",""
"html-keyboard-response","158","343169","0.0-18.0-0.57","4465","approach_avoid_sv1","""event"",""trial"",""time""
""fullscreenenter"",""1"",""2221""
","
","
","""event"",""trial"",""time""
""fullscreenenter"",""1"",""2221""
","
","","","","","","null","<div style=""font-size:60px;"">+</div>","null","","fixation","","",""
"memory-trial","159","345327","0.0-18.0-1.57","4465","approach_avoid_sv1","""event"",""trial"",""time""
""fullscreenenter"",""1"",""2221""
","
","
","""event"",""trial"",""time""
""fullscreenenter"",""1"",""2221""
","
","","","","","","1148.7000000476837","images/boat1.png","","","memory_trial","2","maybe_old",""
"html-keyboard-response","160","345856","0.0-18.0-0.58","4465","approach_avoid_sv1","""event"",""trial"",""time""
""fullscreenenter"",""1"",""2221""
","
","
","""event"",""trial"",""time""
""fullscreenenter"",""1"",""2221""
","
","","","","","","null","<div style=""font-size:60px;"">+</div>","null","","fixation","","",""
"memory-trial","161","347898","0.0-18.0-1.58","4465","approach_avoid_sv1","""event"",""trial"",""time""
""fullscreenenter"",""1"",""2221""
","
","
","""event"",""trial"",""time""
""fullscreenenter"",""1"",""2221""
","
","","","","","","983.8999998569489","images/rabbit4.png","","","memory_trial","3","maybe_new",""
"html-keyboard-response","162","348407","0.0-18.0-0.59","4465","approach_avoid_sv1","""event"",""trial"",""time""
""fullscreenenter"",""1"",""2221""
","
","
","""event"",""trial"",""time""
""fullscreenenter"",""1"",""2221""
","
","","","","","","null","<div style=""font-size:60px;"">+</div>","null","","fixation","","",""
"memory-trial","163","352090","0.0-18.0-1.59","4465","approach_avoid_sv1","""event"",""trial"",""time""
""fullscreenenter"",""1"",""2221""
","
","
","""event"",""trial"",""time""
""fullscreenenter"",""1"",""2221""
","
","","","","","","2622.399999856949","images/cactus2.png","","","memory_trial","4","definitely_new",""
"html-keyboard-response","164","352625","0.0-18.0-0.60","4465","approach_avoid_sv1","""event"",""trial"",""time""
""fullscreenenter"",""1"",""2221""
","
","
","""event"",""trial"",""time""
""fullscreenenter"",""1"",""2221""
","
","","","","","","null","<div style=""font-size:60px;"">+</div>","null","","fixation","","",""
"memory-trial","165","355049","0.0-18.0-1.60","4465","approach_avoid_sv1","""event"",""trial"",""time""
""fullscreenenter"",""1"",""2221""
","
","
","""event"",""trial"",""time""
""fullscreenenter"",""1"",""2221""
","
","","","","","","1363.2000000476837","images/sheep7.png","","","memory_trial","2","maybe_old",""
"html-keyboard-response","166","355585","0.0-18.0-0.61","4465","approach_avoid_sv1","""event"",""trial"",""time""
""fullscreenenter"",""1"",""2221""
","
","
","""event"",""trial"",""time""
""fullscreenenter"",""1"",""2221""
","
","","","","","","null","<div style=""font-size:60px;"">+</div>","null","","fixation","","",""
"memory-trial","167","359202","0.0-18.0-1.61","4465","approach_avoid_sv1","""event"",""trial"",""time""
""fullscreenenter"",""1"",""2221""
","
","
","""event"",""trial"",""time""
""fullscreenenter"",""1"",""2221""
","
","","","","","","2558.0999999046326","images/flower7.png","","","memory_trial","3","maybe_new",""
"html-keyboard-response","168","359737","0.0-18.0-0.62","4465","approach_avoid_sv1","""event"",""trial"",""time""
""fullscreenenter"",""1"",""2221""
","
","
","""event"",""trial"",""time""
""fullscreenenter"",""1"",""2221""
","
","","","","","","null","<div style=""font-size:60px;"">+</div>","null","","fixation","","",""
"memory-trial","169","362057","0.0-18.0-1.62","4465","approach_avoid_sv1","""event"",""trial"",""time""
""fullscreenenter"",""1"",""2221""
","
","
","""event"",""trial"",""time""
""fullscreenenter"",""1"",""2221""
","
","","","","","","1284.6000001430511","images/horse2.png","","","memory_trial","1","definitely_old",""
"html-keyboard-response","170","362585","0.0-18.0-0.63","4465","approach_avoid_sv1","""event"",""trial"",""time""
""fullscreenenter"",""1"",""2221""
","
","
","""event"",""trial"",""time""
""fullscreenenter"",""1"",""2221""
","
","","","","","","null","<div style=""font-size:60px;"">+</div>","null","","fixation","","",""
"memory-trial","171","364993","0.0-18.0-1.63","4465","approach_avoid_sv1","""event"",""trial"",""time""
""fullscreenenter"",""1"",""2221""
","
","
","""event"",""trial"",""time""
""fullscreenenter"",""1"",""2221""
","
","","","","","","1349.5999999046326","images/bush7.png","","","memory_trial","2","maybe_old",""
"html-keyboard-response","172","365520","0.0-18.0-0.64","4465","approach_avoid_sv1","""event"",""trial"",""time""
""fullscreenenter"",""1"",""2221""
","
","
","""event"",""trial"",""time""
""fullscreenenter"",""1"",""2221""
","
","","","","","","null","<div style=""font-size:60px;"">+</div>","null","","fixation","","",""
"memory-trial","173","367385","0.0-18.0-1.64","4465","approach_avoid_sv1","""event"",""trial"",""time""
""fullscreenenter"",""1"",""2221""
","
","
","""event"",""trial"",""time""
""fullscreenenter"",""1"",""2221""
","
","","","","","","807.2999999523163","images/sheep1.png","","","memory_trial","3","maybe_new",""
"html-keyboard-response","174","367914","0.0-18.0-0.65","4465","approach_avoid_sv1","""event"",""trial"",""time""
""fullscreenenter"",""1"",""2221""
","
","
","""event"",""trial"",""time""
""fullscreenenter"",""1"",""2221""
","
","","","","","","null","<div style=""font-size:60px;"">+</div>","null","","fixation","","",""
"memory-trial","175","369830","0.0-18.0-1.65","4465","approach_avoid_sv1","""event"",""trial"",""time""
""fullscreenenter"",""1"",""2221""
","
","
","""event"",""trial"",""time""
""fullscreenenter"",""1"",""2221""
","
","","","","","","853.8999998569489","images/orange8.png","","","memory_trial","1","definitely_old",""
"html-keyboard-response","176","370361","0.0-18.0-0.66","4465","approach_avoid_sv1","""event"",""trial"",""time""
""fullscreenenter"",""1"",""2221""
","
","
","""event"",""trial"",""time""
""fullscreenenter"",""1"",""2221""
","
","","","","","","null","<div style=""font-size:60px;"">+</div>","null","","fixation","","",""
"memory-trial","177","372465","0.0-18.0-1.66","4465","approach_avoid_sv1","""event"",""trial"",""time""
""fullscreenenter"",""1"",""2221""
","
","
","""event"",""trial"",""time""
""fullscreenenter"",""1"",""2221""
","
","","","","","","1038","images/chair7.png","","","memory_trial","3","maybe_new",""
"html-keyboard-response","178","372968","0.0-18.0-0.67","4465","approach_avoid_sv1","""event"",""trial"",""time""
""fullscreenenter"",""1"",""2221""
","
","
","""event"",""trial"",""time""
""fullscreenenter"",""1"",""2221""
","
","","","","","","null","<div style=""font-size:60px;"">+</div>","null","","fixation","","",""
"memory-trial","179","375218","0.0-18.0-1.67","4465","approach_avoid_sv1","""event"",""trial"",""time""
""fullscreenenter"",""1"",""2221""
","
","
","""event"",""trial"",""time""
""fullscreenenter"",""1"",""2221""
","
","","","","","","1189.7000000476837","images/bush5.png","","","memory_trial","4","definitely_new",""
"html-keyboard-response","180","375728","0.0-18.0-0.68","4465","approach_avoid_sv1","""event"",""trial"",""time""
""fullscreenenter"",""1"",""2221""
","
","
","""event"",""trial"",""time""
""fullscreenenter"",""1"",""2221""
","
","","","","","","null","<div style=""font-size:60px;"">+</div>","null","","fixation","","",""
"memory-trial","181","377584","0.0-18.0-1.68","4465","approach_avoid_sv1","""event"",""trial"",""time""
""fullscreenenter"",""1"",""2221""
","
","
","""event"",""trial"",""time""
""fullscreenenter"",""1"",""2221""
","
","","","","","","825.1999998092651","images/bed1.png","","","memory_trial","2","maybe_old",""
"html-keyboard-response","182","378113","0.0-18.0-0.69","4465","approach_avoid_sv1","""event"",""trial"",""time""
""fullscreenenter"",""1"",""2221""
","
","
","""event"",""trial"",""time""
""fullscreenenter"",""1"",""2221""
","
","","","","","","null","<div style=""font-size:60px;"">+</div>","null","","fixation","","",""
"memory-trial","183","380226","0.0-18.0-1.69","4465","approach_avoid_sv1","""event"",""trial"",""time""
""fullscreenenter"",""1"",""2221""
","
","
","""event"",""trial"",""time""
""fullscreenenter"",""1"",""2221""
","
","","","","","","1056.5","images/sheep5.png","","","memory_trial","4","definitely_new",""
"html-keyboard-response","184","380769","0.0-18.0-0.70","4465","approach_avoid_sv1","""event"",""trial"",""time""
""fullscreenenter"",""1"",""2221""
","
","
","""event"",""trial"",""time""
""fullscreenenter"",""1"",""2221""
","
","","","","","","null","<div style=""font-size:60px;"">+</div>","null","","fixation","","",""
"memory-trial","185","382665","0.0-18.0-1.70","4465","approach_avoid_sv1","""event"",""trial"",""time""
""fullscreenenter"",""1"",""2221""
","
","
","""event"",""trial"",""time""
""fullscreenenter"",""1"",""2221""
","
","","","","","","840.0999999046326","images/cactus6.png","","","memory_trial","3","maybe_new",""
"html-keyboard-response","186","383168","0.0-18.0-0.71","4465","approach_avoid_sv1","""event"",""trial"",""time""
""fullscreenenter"",""1"",""2221""
","
","
","""event"",""trial"",""time""
""fullscreenenter"",""1"",""2221""
","
","","","","","","null","<div style=""font-size:60px;"">+</div>","null","","fixation","","",""
"memory-trial","187","385073","0.0-18.0-1.71","4465","approach_avoid_sv1","""event"",""trial"",""time""
""fullscreenenter"",""1"",""2221""
","
","
","""event"",""trial"",""time""
""fullscreenenter"",""1"",""2221""
","
","","","","","","846.9000000953674","images/sofa7.png","","","memory_trial","2","maybe_old",""
"html-keyboard-response","188","385601","0.0-18.0-0.72","4465","approach_avoid_sv1","""event"",""trial"",""time""
""fullscreenenter"",""1"",""2221""
","
","
","""event"",""trial"",""time""
""fullscreenenter"",""1"",""2221""
","
","","","","","","null","<div style=""font-size:60px;"">+</div>","null","","fixation","","",""
"memory-trial","189","388018","0.0-18.0-1.72","4465","approach_avoid_sv1","""event"",""trial"",""time""
""fullscreenenter"",""1"",""2221""
","
","
","""event"",""trial"",""time""
""fullscreenenter"",""1"",""2221""
","
","","","","","","1356.8999998569489","images/boat4.png","","","memory_trial","2","maybe_old",""
"html-keyboard-response","190","388554","0.0-18.0-0.73","4465","approach_avoid_sv1","""event"",""trial"",""time""
""fullscreenenter"",""1"",""2221""
","
","
","""event"",""trial"",""time""
""fullscreenenter"",""1"",""2221""
","
","","","","","","null","<div style=""font-size:60px;"">+</div>","null","","fixation","","",""
"memory-trial","191","390392","0.0-18.0-1.73","4465","approach_avoid_sv1","""event"",""trial"",""time""
""fullscreenenter"",""1"",""2221""
","
","
","""event"",""trial"",""time""
""fullscreenenter"",""1"",""2221""
","
","","","","","","802.5999999046326","images/rodent4.png","","","memory_trial","3","maybe_new",""
"html-keyboard-response","192","390921","0.0-18.0-0.74","4465","approach_avoid_sv1","""event"",""trial"",""time""
""fullscreenenter"",""1"",""2221""
","
","
","""event"",""trial"",""time""
""fullscreenenter"",""1"",""2221""
","
","","","","","","null","<div style=""font-size:60px;"">+</div>","null","","fixation","","",""
"memory-trial","193","392820","0.0-18.0-1.74","4465","approach_avoid_sv1","""event"",""trial"",""time""
""fullscreenenter"",""1"",""2221""
","
","
","""event"",""trial"",""time""
""fullscreenenter"",""1"",""2221""
","
","","","","","","838.5999999046326","images/straw6.png","","","memory_trial","1","definitely_old",""
"html-keyboard-response","194","393354","0.0-18.0-0.75","4465","approach_avoid_sv1","""event"",""trial"",""time""
""fullscreenenter"",""1"",""2221""
","
","
","""event"",""trial"",""time""
""fullscreenenter"",""1"",""2221""
","
","","","","","","null","<div style=""font-size:60px;"">+</div>","null","","fixation","","",""
"memory-trial","195","395464","0.0-18.0-1.75","4465","approach_avoid_sv1","""event"",""trial"",""time""
""fullscreenenter"",""1"",""2221""
","
","
","""event"",""trial"",""time""
""fullscreenenter"",""1"",""2221""
","
","","","","","","1076.7000000476837","images/cat7.png","","","memory_trial","1","definitely_old",""
"html-keyboard-response","196","395995","0.0-18.0-0.76","4465","approach_avoid_sv1","""event"",""trial"",""time""
""fullscreenenter"",""1"",""2221""
","
","
","""event"",""trial"",""time""
""fullscreenenter"",""1"",""2221""
","
","","","","","","null","<div style=""font-size:60px;"">+</div>","null","","fixation","","",""
"memory-trial","197","397946","0.0-18.0-1.76","4465","approach_avoid_sv1","""event"",""trial"",""time""
""fullscreenenter"",""1"",""2221""
","
","
","""event"",""trial"",""time""
""fullscreenenter"",""1"",""2221""
","
","","","","","","888.8999998569489","images/tree6.png","","","memory_trial","1","definitely_old",""
"html-keyboard-response","198","398482","0.0-18.0-0.77","4465","approach_avoid_sv1","""event"",""trial"",""time""
""fullscreenenter"",""1"",""2221""
","
","
","""event"",""trial"",""time""
""fullscreenenter"",""1"",""2221""
","
","","","","","","null","<div style=""font-size:60px;"">+</div>","null","","fixation","","",""
"memory-trial","199","400562","0.0-18.0-1.77","4465","approach_avoid_sv1","""event"",""trial"",""time""
""fullscreenenter"",""1"",""2221""
","
","
","""event"",""trial"",""time""
""fullscreenenter"",""1"",""2221""
","
","","","","","","1021.0999999046326","images/cow4.png","","","memory_trial","3","maybe_new",""
"html-keyboard-response","200","401098","0.0-18.0-0.78","4465","approach_avoid_sv1","""event"",""trial"",""time""
""fullscreenenter"",""1"",""2221""
","
","
","""event"",""trial"",""time""
""fullscreenenter"",""1"",""2221""
","
","","","","","","null","<div style=""font-size:60px;"">+</div>","null","","fixation","","",""
"memory-trial","201","403170","0.0-18.0-1.78","4465","approach_avoid_sv1","""event"",""trial"",""time""
""fullscreenenter"",""1"",""2221""
","
","
","""event"",""trial"",""time""
""fullscreenenter"",""1"",""2221""
","
","","","","","","1013.0999999046326","images/dog4.png","","","memory_trial","2","maybe_old",""
"html-keyboard-response","202","403672","0.0-18.0-0.79","4465","approach_avoid_sv1","""event"",""trial"",""time""
""fullscreenenter"",""1"",""2221""
","
","
","""event"",""trial"",""time""
""fullscreenenter"",""1"",""2221""
","
","","","","","","null","<div style=""font-size:60px;"">+</div>","null","","fixation","","",""
"memory-trial","203","405569","0.0-18.0-1.79","4465","approach_avoid_sv1","""event"",""trial"",""time""
""fullscreenenter"",""1"",""2221""
","
","
","""event"",""trial"",""time""
""fullscreenenter"",""1"",""2221""
","
","","","","","","836.2000000476837","images/chair1.png","","","memory_trial","1","definitely_old",""
"html-keyboard-response","204","406097","0.0-18.0-0.80","4465","approach_avoid_sv1","""event"",""trial"",""time""
""fullscreenenter"",""1"",""2221""
","
","
","""event"",""trial"",""time""
""fullscreenenter"",""1"",""2221""
","
","","","","","","null","<div style=""font-size:60px;"">+</div>","null","","fixation","","",""
"memory-trial","205","408570","0.0-18.0-1.80","4465","approach_avoid_sv1","""event"",""trial"",""time""
""fullscreenenter"",""1"",""2221""
","
","
","""event"",""trial"",""time""
""fullscreenenter"",""1"",""2221""
","
","","","","","","1443.2000000476837","images/banana2.png","","","memory_trial","4","definitely_new",""
"html-keyboard-response","206","409098","0.0-18.0-0.81","4465","approach_avoid_sv1","""event"",""trial"",""time""
""fullscreenenter"",""1"",""2221""
","
","
","""event"",""trial"",""time""
""fullscreenenter"",""1"",""2221""
","
","","","","","","null","<div style=""font-size:60px;"">+</div>","null","","fixation","","",""
"memory-trial","207","411194","0.0-18.0-1.81","4465","approach_avoid_sv1","""event"",""trial"",""time""
""fullscreenenter"",""1"",""2221""
","
","
","""event"",""trial"",""time""
""fullscreenenter"",""1"",""2221""
","
","","","","","","1036","images/cow7.png","","","memory_trial","3","maybe_new",""
"html-keyboard-response","208","411722","0.0-18.0-0.82","4465","approach_avoid_sv1","""event"",""trial"",""time""
""fullscreenenter"",""1"",""2221""
","
","
","""event"",""trial"",""time""
""fullscreenenter"",""1"",""2221""
","
","","","","","","null","<div style=""font-size:60px;"">+</div>","null","","fixation","","",""
"memory-trial","209","413490","0.0-18.0-1.82","4465","approach_avoid_sv1","""event"",""trial"",""time""
""fullscreenenter"",""1"",""2221""
","
","
","""event"",""trial"",""time""
""fullscreenenter"",""1"",""2221""
","
","","","","","","705.3999998569489","images/rodent2.png","","","memory_trial","3","maybe_new",""
"html-keyboard-response","210","414000","0.0-18.0-0.83","4465","approach_avoid_sv1","""event"",""trial"",""time""
""fullscreenenter"",""1"",""2221""
","
","
","""event"",""trial"",""time""
""fullscreenenter"",""1"",""2221""
","
","","","","","","null","<div style=""font-size:60px;"">+</div>","null","","fixation","","",""
"memory-trial","211","415876","0.0-18.0-1.83","4465","approach_avoid_sv1","""event"",""trial"",""time""
""fullscreenenter"",""1"",""2221""
","
","
","""event"",""trial"",""time""
""fullscreenenter"",""1"",""2221""
","
","","","","","","815","images/chair5.png","","","memory_trial","2","maybe_old",""
"html-keyboard-response","212","416410","0.0-18.0-0.84","4465","approach_avoid_sv1","""event"",""trial"",""time""
""fullscreenenter"",""1"",""2221""
","
","
","""event"",""trial"",""time""
""fullscreenenter"",""1"",""2221""
","
","","","","","","null","<div style=""font-size:60px;"">+</div>","null","","fixation","","",""
"memory-trial","213","418505","0.0-18.0-1.84","4465","approach_avoid_sv1","""event"",""trial"",""time""
""fullscreenenter"",""1"",""2221""
","
","
","""event"",""trial"",""time""
""fullscreenenter"",""1"",""2221""
","
","","","","","","1034.4000000953674","images/dog8.png","","","memory_trial","2","maybe_old",""
"html-keyboard-response","214","419034","0.0-18.0-0.85","4465","approach_avoid_sv1","""event"",""trial"",""time""
""fullscreenenter"",""1"",""2221""
","
","
","""event"",""trial"",""time""
""fullscreenenter"",""1"",""2221""
","
","","","","","","null","<div style=""font-size:60px;"">+</div>","null","","fixation","","",""
"memory-trial","215","421359","0.0-18.0-1.85","4465","approach_avoid_sv1","""event"",""trial"",""time""
""fullscreenenter"",""1"",""2221""
","
","
","""event"",""trial"",""time""
""fullscreenenter"",""1"",""2221""
","
","","","","","","1322.7000000476837","images/banana7.png","","","memory_trial","3","maybe_new",""
"html-keyboard-response","216","421889","0.0-18.0-0.86","4465","approach_avoid_sv1","""event"",""trial"",""time""
""fullscreenenter"",""1"",""2221""
","
","
","""event"",""trial"",""time""
""fullscreenenter"",""1"",""2221""
","
","","","","","","null","<div style=""font-size:60px;"">+</div>","null","","fixation","","",""
"memory-trial","217","424051","0.0-18.0-1.86","4465","approach_avoid_sv1","""event"",""trial"",""time""
""fullscreenenter"",""1"",""2221""
","
","
","""event"",""trial"",""time""
""fullscreenenter"",""1"",""2221""
","
","","","","","","1099.3999998569489","images/dog3.png","","","memory_trial","1","definitely_old",""
"html-keyboard-response","218","424586","0.0-18.0-0.87","4465","approach_avoid_sv1","""event"",""trial"",""time""
""fullscreenenter"",""1"",""2221""
","
","
","""event"",""trial"",""time""
""fullscreenenter"",""1"",""2221""
","
","","","","","","null","<div style=""font-size:60px;"">+</div>","null","","fixation","","",""
"memory-trial","219","427452","0.0-18.0-1.87","4465","approach_avoid_sv1","""event"",""trial"",""time""
""fullscreenenter"",""1"",""2221""
","
","
","""event"",""trial"",""time""
""fullscreenenter"",""1"",""2221""
","
","","","","","","1802.7999999523163","images/train3.png","","","memory_trial","3","maybe_new",""
"html-keyboard-response","220","427986","0.0-18.0-0.88","4465","approach_avoid_sv1","""event"",""trial"",""time""
""fullscreenenter"",""1"",""2221""
","
","
","""event"",""trial"",""time""
""fullscreenenter"",""1"",""2221""
","
","","","","","","null","<div style=""font-size:60px;"">+</div>","null","","fixation","","",""
"memory-trial","221","430082","0.0-18.0-1.88","4465","approach_avoid_sv1","""event"",""trial"",""time""
""fullscreenenter"",""1"",""2221""
","
","
","""event"",""trial"",""time""
""fullscreenenter"",""1"",""2221""
","
","","","","","","1037","images/truck8.png","","","memory_trial","2","maybe_old",""
"html-keyboard-response","222","430609","0.0-18.0-0.89","4465","approach_avoid_sv1","""event"",""trial"",""time""
""fullscreenenter"",""1"",""2221""
","
","
","""event"",""trial"",""time""
""fullscreenenter"",""1"",""2221""
","
","","","","","","null","<div style=""font-size:60px;"">+</div>","null","","fixation","","",""
"memory-trial","223","432794","0.0-18.0-1.89","4465","approach_avoid_sv1","""event"",""trial"",""time""
""fullscreenenter"",""1"",""2221""
","
","
","""event"",""trial"",""time""
""fullscreenenter"",""1"",""2221""
","
","","","","","","1124.8999998569489","images/horse7.png","","","memory_trial","3","maybe_new",""
"html-keyboard-response","224","433331","0.0-18.0-0.90","4465","approach_avoid_sv1","""event"",""trial"",""time""
""fullscreenenter"",""1"",""2221""
","
","
","""event"",""trial"",""time""
""fullscreenenter"",""1"",""2221""
","
","","","","","","null","<div style=""font-size:60px;"">+</div>","null","","fixation","","",""
"memory-trial","225","435705","0.0-18.0-1.90","4465","approach_avoid_sv1","""event"",""trial"",""time""
""fullscreenenter"",""1"",""2221""
","
","
","""event"",""trial"",""time""
""fullscreenenter"",""1"",""2221""
","
","","","","","","1343.5999999046326","images/straw7.png","","","memory_trial","2","maybe_old",""
"html-keyboard-response","226","436233","0.0-18.0-0.91","4465","approach_avoid_sv1","""event"",""trial"",""time""
""fullscreenenter"",""1"",""2221""
","
","
","""event"",""trial"",""time""
""fullscreenenter"",""1"",""2221""
","
","","","","","","null","<div style=""font-size:60px;"">+</div>","null","","fixation","","",""
"memory-trial","227","438411","0.0-18.0-1.91","4465","approach_avoid_sv1","""event"",""trial"",""time""
""fullscreenenter"",""1"",""2221""
","
","
","""event"",""trial"",""time""
""fullscreenenter"",""1"",""2221""
","
","","","","","","1119.7999999523163","images/cat1.png","","","memory_trial","4","definitely_new",""
"html-button-response","228","440521","0.0-18.0-2.91-0.91","4465","approach_avoid_sv1","""event"",""trial"",""time""
""fullscreenenter"",""1"",""2221""
","
","
","""event"",""trial"",""time""
""fullscreenenter"",""1"",""2221""
","
","","","","","","2109.7000000476837","<p> Take a break! </p><p> Click the button to continue. </p>","0","","break","","",""
"html-keyboard-response","229","441024","0.0-18.0-0.92","4465","approach_avoid_sv1","""event"",""trial"",""time""
""fullscreenenter"",""1"",""2221""
","
","
","""event"",""trial"",""time""
""fullscreenenter"",""1"",""2221""
","
","","","","","","null","<div style=""font-size:60px;"">+</div>","null","","fixation","","",""
"memory-trial","230","443952","0.0-18.0-1.92","4465","approach_avoid_sv1","""event"",""trial"",""time""
""fullscreenenter"",""1"",""2221""
","
","
","""event"",""trial"",""time""
""fullscreenenter"",""1"",""2221""
","
","","","","","","1921.1999998092651","images/straw8.png","","","memory_trial","3","maybe_new",""
"html-keyboard-response","231","444482","0.0-18.0-0.93","4465","approach_avoid_sv1","""event"",""trial"",""time""
""fullscreenenter"",""1"",""2221""
","
","
","""event"",""trial"",""time""
""fullscreenenter"",""1"",""2221""
","
","","","","","","null","<div style=""font-size:60px;"">+</div>","null","","fixation","","",""
"memory-trial","232","446329","0.0-18.0-1.93","4465","approach_avoid_sv1","""event"",""trial"",""time""
""fullscreenenter"",""1"",""2221""
","
","
","""event"",""trial"",""time""
""fullscreenenter"",""1"",""2221""
","
","","","","","","791.7000000476837","images/apple5.png","","","memory_trial","1","definitely_old",""
"html-keyboard-response","233","446868","0.0-18.0-0.94","4465","approach_avoid_sv1","""event"",""trial"",""time""
""fullscreenenter"",""1"",""2221""
","
","
","""event"",""trial"",""time""
""fullscreenenter"",""1"",""2221""
","
","","","","","","null","<div style=""font-size:60px;"">+</div>","null","","fixation","","",""
"memory-trial","234","448921","0.0-18.0-1.94","4465","approach_avoid_sv1","""event"",""trial"",""time""
""fullscreenenter"",""1"",""2221""
","
","
","""event"",""trial"",""time""
""fullscreenenter"",""1"",""2221""
","
","","","","","","991.4000000953674","images/cat5.png","","","memory_trial","1","definitely_old",""
"html-keyboard-response","235","449449","0.0-18.0-0.95","4465","approach_avoid_sv1","""event"",""trial"",""time""
""fullscreenenter"",""1"",""2221""
","
","
","""event"",""trial"",""time""
""fullscreenenter"",""1"",""2221""
","
","","","","","","null","<div style=""font-size:60px;"">+</div>","null","","fixation","","",""
"memory-trial","236","451410","0.0-18.0-1.95","4465","approach_avoid_sv1","""event"",""trial"",""time""
""fullscreenenter"",""1"",""2221""
","
","
","""event"",""trial"",""time""
""fullscreenenter"",""1"",""2221""
","
","","","","","","902.2000000476837","images/table5.png","","","memory_trial","2","maybe_old",""
"html-keyboard-response","237","451952","0.0-18.0-0.96","4465","approach_avoid_sv1","""event"",""trial"",""time""
""fullscreenenter"",""1"",""2221""
","
","
","""event"",""trial"",""time""
""fullscreenenter"",""1"",""2221""
","
","","","","","","null","<div style=""font-size:60px;"">+</div>","null","","fixation","","",""
"memory-trial","238","453938","0.0-18.0-1.96","4465","approach_avoid_sv1","""event"",""trial"",""time""
""fullscreenenter"",""1"",""2221""
","
","
","""event"",""trial"",""time""
""fullscreenenter"",""1"",""2221""
","
","","","","","","930.4000000953674","images/sofa3.png","","","memory_trial","3","maybe_new",""
"html-keyboard-response","239","454474","0.0-18.0-0.97","4465","approach_avoid_sv1","""event"",""trial"",""time""
""fullscreenenter"",""1"",""2221""
","
","
","""event"",""trial"",""time""
""fullscreenenter"",""1"",""2221""
","
","","","","","","null","<div style=""font-size:60px;"">+</div>","null","","fixation","","",""
"memory-trial","240","456354","0.0-18.0-1.97","4465","approach_avoid_sv1","""event"",""trial"",""time""
""fullscreenenter"",""1"",""2221""
","
","
","""event"",""trial"",""time""
""fullscreenenter"",""1"",""2221""
","
","","","","","","820.2000000476837","images/sofa1.png","","","memory_trial","2","maybe_old",""
"html-keyboard-response","241","456881","0.0-18.0-0.98","4465","approach_avoid_sv1","""event"",""trial"",""time""
""fullscreenenter"",""1"",""2221""
","
","
","""event"",""trial"",""time""
""fullscreenenter"",""1"",""2221""
","
","","","","","","null","<div style=""font-size:60px;"">+</div>","null","","fixation","","",""
"memory-trial","242","458761","0.0-18.0-1.98","4465","approach_avoid_sv1","""event"",""trial"",""time""
""fullscreenenter"",""1"",""2221""
","
","
","""event"",""trial"",""time""
""fullscreenenter"",""1"",""2221""
","
","","","","","","822.4000000953674","images/rabbit6.png","","","memory_trial","3","maybe_new",""
"html-keyboard-response","243","459290","0.0-18.0-0.99","4465","approach_avoid_sv1","""event"",""trial"",""time""
""fullscreenenter"",""1"",""2221""
","
","
","""event"",""trial"",""time""
""fullscreenenter"",""1"",""2221""
","
","","","","","","null","<div style=""font-size:60px;"">+</div>","null","","fixation","","",""
"memory-trial","244","461954","0.0-18.0-1.99","4465","approach_avoid_sv1","""event"",""trial"",""time""
""fullscreenenter"",""1"",""2221""
","
","
","""event"",""trial"",""time""
""fullscreenenter"",""1"",""2221""
","
","","","","","","1606.8999998569489","images/flower2.png","","","memory_trial","4","definitely_new",""
"html-keyboard-response","245","462481","0.0-18.0-0.100","4465","approach_avoid_sv1","""event"",""trial"",""time""
""fullscreenenter"",""1"",""2221""
","
","
","""event"",""trial"",""time""
""fullscreenenter"",""1"",""2221""
","
","","","","","","null","<div style=""font-size:60px;"">+</div>","null","","fixation","","",""
"memory-trial","246","464458","0.0-18.0-1.100","4465","approach_avoid_sv1","""event"",""trial"",""time""
""fullscreenenter"",""1"",""2221""
","
","
","""event"",""trial"",""time""
""fullscreenenter"",""1"",""2221""
","
","","","","","","920.6000001430511","images/truck2.png","","","memory_trial","4","definitely_new",""
"html-keyboard-response","247","464994","0.0-18.0-0.101","4465","approach_avoid_sv1","""event"",""trial"",""time""
""fullscreenenter"",""1"",""2221""
","
","
","""event"",""trial"",""time""
""fullscreenenter"",""1"",""2221""
","
","","","","","","null","<div style=""font-size:60px;"">+</div>","null","","fixation","","",""
"memory-trial","248","466971","0.0-18.0-1.101","4465","approach_avoid_sv1","""event"",""trial"",""time""
""fullscreenenter"",""1"",""2221""
","
","
","""event"",""trial"",""time""
""fullscreenenter"",""1"",""2221""
","
","","","","","","915.4000000953674","images/table8.png","","","memory_trial","1","definitely_old",""
"html-keyboard-response","249","467480","0.0-18.0-0.102","4465","approach_avoid_sv1","""event"",""trial"",""time""
""fullscreenenter"",""1"",""2221""
","
","
","""event"",""trial"",""time""
""fullscreenenter"",""1"",""2221""
","
","","","","","","null","<div style=""font-size:60px;"">+</div>","null","","fixation","","",""
"memory-trial","250","469930","0.0-18.0-1.102","4465","approach_avoid_sv1","""event"",""trial"",""time""
""fullscreenenter"",""1"",""2221""
","
","
","""event"",""trial"",""time""
""fullscreenenter"",""1"",""2221""
","
","","","","","","1394","images/goat1.png","","","memory_trial","3","maybe_new",""
"html-keyboard-response","251","470465","0.0-18.0-0.103","4465","approach_avoid_sv1","""event"",""trial"",""time""
""fullscreenenter"",""1"",""2221""
","
","
","""event"",""trial"",""time""
""fullscreenenter"",""1"",""2221""
","
","","","","","","null","<div style=""font-size:60px;"">+</div>","null","","fixation","","",""
"memory-trial","252","472746","0.0-18.0-1.103","4465","approach_avoid_sv1","""event"",""trial"",""time""
""fullscreenenter"",""1"",""2221""
","
","
","""event"",""trial"",""time""
""fullscreenenter"",""1"",""2221""
","
","","","","","","1222.3000001907349","images/apple4.png","","","memory_trial","4","definitely_new",""
"html-keyboard-response","253","473274","0.0-18.0-0.104","4465","approach_avoid_sv1","""event"",""trial"",""time""
""fullscreenenter"",""1"",""2221""
","
","
","""event"",""trial"",""time""
""fullscreenenter"",""1"",""2221""
","
","","","","","","null","<div style=""font-size:60px;"">+</div>","null","","fixation","","",""
"memory-trial","254","475018","0.0-18.0-1.104","4465","approach_avoid_sv1","""event"",""trial"",""time""
""fullscreenenter"",""1"",""2221""
","
","
","""event"",""trial"",""time""
""fullscreenenter"",""1"",""2221""
","
","","","","","","686.2000000476837","images/dog6.png","","","memory_trial","1","definitely_old",""
"html-keyboard-response","255","475545","0.0-18.0-0.105","4465","approach_avoid_sv1","""event"",""trial"",""time""
""fullscreenenter"",""1"",""2221""
","
","
","""event"",""trial"",""time""
""fullscreenenter"",""1"",""2221""
","
","","","","","","null","<div style=""font-size:60px;"">+</div>","null","","fixation","","",""
"memory-trial","256","477658","0.0-18.0-1.105","4465","approach_avoid_sv1","""event"",""trial"",""time""
""fullscreenenter"",""1"",""2221""
","
","
","""event"",""trial"",""time""
""fullscreenenter"",""1"",""2221""
","
","","","","","","1050.8999998569489","images/plane6.png","","","memory_trial","1","definitely_old",""
"html-keyboard-response","257","478195","0.0-18.0-0.106","4465","approach_avoid_sv1","""event"",""trial"",""time""
""fullscreenenter"",""1"",""2221""
","
","
","""event"",""trial"",""time""
""fullscreenenter"",""1"",""2221""
","
","","","","","","null","<div style=""font-size:60px;"">+</div>","null","","fixation","","",""
"memory-trial","258","480712","0.0-18.0-1.106","4465","approach_avoid_sv1","""event"",""trial"",""time""
""fullscreenenter"",""1"",""2221""
","
","
","""event"",""trial"",""time""
""fullscreenenter"",""1"",""2221""
","
","","","","","","1508.0999999046326","images/cow5.png","","","memory_trial","4","definitely_new",""
"html-keyboard-response","259","481244","0.0-18.0-0.107","4465","approach_avoid_sv1","""event"",""trial"",""time""
""fullscreenenter"",""1"",""2221""
","
","
","""event"",""trial"",""time""
""fullscreenenter"",""1"",""2221""
","
","","","","","","null","<div style=""font-size:60px;"">+</div>","null","","fixation","","",""
"memory-trial","260","483105","0.0-18.0-1.107","4465","approach_avoid_sv1","""event"",""trial"",""time""
""fullscreenenter"",""1"",""2221""
","
","
","""event"",""trial"",""time""
""fullscreenenter"",""1"",""2221""
","
","","","","","","800.2999999523163","images/bed2.png","","","memory_trial","2","maybe_old",""
"html-keyboard-response","261","483634","0.0-18.0-0.108","4465","approach_avoid_sv1","""event"",""trial"",""time""
""fullscreenenter"",""1"",""2221""
","
","
","""event"",""trial"",""time""
""fullscreenenter"",""1"",""2221""
","
","","","","","","null","<div style=""font-size:60px;"">+</div>","null","","fixation","","",""
"memory-trial","262","485946","0.0-18.0-1.108","4465","approach_avoid_sv1","""event"",""trial"",""time""
""fullscreenenter"",""1"",""2221""
","
","
","""event"",""trial"",""time""
""fullscreenenter"",""1"",""2221""
","
","","","","","","1280.6000001430511","images/plane1.png","","","memory_trial","4","definitely_new",""
"html-keyboard-response","263","486474","0.0-18.0-0.109","4465","approach_avoid_sv1","""event"",""trial"",""time""
""fullscreenenter"",""1"",""2221""
","
","
","""event"",""trial"",""time""
""fullscreenenter"",""1"",""2221""
","
","","","","","","null","<div style=""font-size:60px;"">+</div>","null","","fixation","","",""
"memory-trial","264","488634","0.0-18.0-1.109","4465","approach_avoid_sv1","""event"",""trial"",""time""
""fullscreenenter"",""1"",""2221""
","
","
","""event"",""trial"",""time""
""fullscreenenter"",""1"",""2221""
","
","","","","","","1102.8000001907349","images/dog7.png","","","memory_trial","3","maybe_new",""
"html-keyboard-response","265","489170","0.0-18.0-0.110","4465","approach_avoid_sv1","""event"",""trial"",""time""
""fullscreenenter"",""1"",""2221""
","
","
","""event"",""trial"",""time""
""fullscreenenter"",""1"",""2221""
","
","","","","","","null","<div style=""font-size:60px;"">+</div>","null","","fixation","","",""
"memory-trial","266","491528","0.0-18.0-1.110","4465","approach_avoid_sv1","""event"",""trial"",""time""
""fullscreenenter"",""1"",""2221""
","
","
","""event"",""trial"",""time""
""fullscreenenter"",""1"",""2221""
","
","","","","","","1347.5","images/flower8.png","","","memory_trial","1","definitely_old",""
"html-keyboard-response","267","492031","0.0-18.0-0.111","4465","approach_avoid_sv1","""event"",""trial"",""time""
""fullscreenenter"",""1"",""2221""
","
","
","""event"",""trial"",""time""
""fullscreenenter"",""1"",""2221""
","
","","","","","","null","<div style=""font-size:60px;"">+</div>","null","","fixation","","",""
"memory-trial","268","493720","0.0-18.0-1.111","4465","approach_avoid_sv1","""event"",""trial"",""time""
""fullscreenenter"",""1"",""2221""
","
","
","""event"",""trial"",""time""
""fullscreenenter"",""1"",""2221""
","
","","","","","","669","images/cow1.png","","","memory_trial","3","maybe_new",""
"html-keyboard-response","269","494223","0.0-18.0-0.112","4465","approach_avoid_sv1","""event"",""trial"",""time""
""fullscreenenter"",""1"",""2221""
","
","
","""event"",""trial"",""time""
""fullscreenenter"",""1"",""2221""
","
","","","","","","null","<div style=""font-size:60px;"">+</div>","null","","fixation","","",""
"memory-trial","270","496266","0.0-18.0-1.112","4465","approach_avoid_sv1","""event"",""trial"",""time""
""fullscreenenter"",""1"",""2221""
","
","
","""event"",""trial"",""time""
""fullscreenenter"",""1"",""2221""
","
","","","","","","1005.7000000476837","images/cat3.png","","","memory_trial","2","maybe_old",""
"html-keyboard-response","271","496795","0.0-18.0-0.113","4465","approach_avoid_sv1","""event"",""trial"",""time""
""fullscreenenter"",""1"",""2221""
","
","
","""event"",""trial"",""time""
""fullscreenenter"",""1"",""2221""
","
","","","","","","null","<div style=""font-size:60px;"">+</div>","null","","fixation","","",""
"memory-trial","272","498775","0.0-18.0-1.113","4465","approach_avoid_sv1","""event"",""trial"",""time""
""fullscreenenter"",""1"",""2221""
","
","
","""event"",""trial"",""time""
""fullscreenenter"",""1"",""2221""
","
","","","","","","943.2999999523163","images/orange4.png","","","memory_trial","1","definitely_old",""
"html-keyboard-response","273","499307","0.0-18.0-0.114","4465","approach_avoid_sv1","""event"",""trial"",""time""
""fullscreenenter"",""1"",""2221""
","
","
","""event"",""trial"",""time""
""fullscreenenter"",""1"",""2221""
","
","","","","","","null","<div style=""font-size:60px;"">+</div>","null","","fixation","","",""
"memory-trial","274","501418","0.0-18.0-1.114","4465","approach_avoid_sv1","""event"",""trial"",""time""
""fullscreenenter"",""1"",""2221""
","
","
","""event"",""trial"",""time""
""fullscreenenter"",""1"",""2221""
","
","","","","","","1055.0999999046326","images/chair4.png","","","memory_trial","3","maybe_new",""
"html-keyboard-response","275","501945","0.0-18.0-0.115","4465","approach_avoid_sv1","""event"",""trial"",""time""
""fullscreenenter"",""1"",""2221""
","
","
","""event"",""trial"",""time""
""fullscreenenter"",""1"",""2221""
","
","","","","","","null","<div style=""font-size:60px;"">+</div>","null","","fixation","","",""
"memory-trial","276","504283","0.0-18.0-1.115","4465","approach_avoid_sv1","""event"",""trial"",""time""
""fullscreenenter"",""1"",""2221""
","
","
","""event"",""trial"",""time""
""fullscreenenter"",""1"",""2221""
","
","","","","","","1278.4000000953674","images/banana8.png","","","memory_trial","4","definitely_new",""
"html-keyboard-response","277","504818","0.0-18.0-0.116","4465","approach_avoid_sv1","""event"",""trial"",""time""
""fullscreenenter"",""1"",""2221""
","
","
","""event"",""trial"",""time""
""fullscreenenter"",""1"",""2221""
","
","","","","","","null","<div style=""font-size:60px;"">+</div>","null","","fixation","","",""
"memory-trial","278","506867","0.0-18.0-1.116","4465","approach_avoid_sv1","""event"",""trial"",""time""
""fullscreenenter"",""1"",""2221""
","
","
","""event"",""trial"",""time""
""fullscreenenter"",""1"",""2221""
","
","","","","","","988.7999999523163","images/table3.png","","","memory_trial","3","maybe_new",""
"html-keyboard-response","279","507402","0.0-18.0-0.117","4465","approach_avoid_sv1","""event"",""trial"",""time""
""fullscreenenter"",""1"",""2221""
","
","
","""event"",""trial"",""time""
""fullscreenenter"",""1"",""2221""
","
","","","","","","null","<div style=""font-size:60px;"">+</div>","null","","fixation","","",""
"memory-trial","280","509218","0.0-18.0-1.117","4465","approach_avoid_sv1","""event"",""trial"",""time""
""fullscreenenter"",""1"",""2221""
","
","
","""event"",""trial"",""time""
""fullscreenenter"",""1"",""2221""
","
","","","","","","757.1000001430511","images/sheep3.png","","","memory_trial","3","maybe_new",""
"html-keyboard-response","281","509745","0.0-18.0-0.118","4465","approach_avoid_sv1","""event"",""trial"",""time""
""fullscreenenter"",""1"",""2221""
","
","
","""event"",""trial"",""time""
""fullscreenenter"",""1"",""2221""
","
","","","","","","null","<div style=""font-size:60px;"">+</div>","null","","fixation","","",""
"memory-trial","282","511647","0.0-18.0-1.118","4465","approach_avoid_sv1","""event"",""trial"",""time""
""fullscreenenter"",""1"",""2221""
","
","
","""event"",""trial"",""time""
""fullscreenenter"",""1"",""2221""
","
","","","","","","894.8999998569489","images/table6.png","","","memory_trial","1","definitely_old",""
"html-keyboard-response","283","512152","0.0-18.0-0.119","4465","approach_avoid_sv1","""event"",""trial"",""time""
""fullscreenenter"",""1"",""2221""
","
","
","""event"",""trial"",""time""
""fullscreenenter"",""1"",""2221""
","
","","","","","","null","<div style=""font-size:60px;"">+</div>","null","","fixation","","",""
"memory-trial","284","513903","0.0-18.0-1.119","4465","approach_avoid_sv1","""event"",""trial"",""time""
""fullscreenenter"",""1"",""2221""
","
","
","""event"",""trial"",""time""
""fullscreenenter"",""1"",""2221""
","
","","","","","","748","images/bush4.png","","","memory_trial","1","definitely_old",""
"html-keyboard-response","285","514434","0.0-18.0-0.120","4465","approach_avoid_sv1","""event"",""trial"",""time""
""fullscreenenter"",""1"",""2221""
","
","
","""event"",""trial"",""time""
""fullscreenenter"",""1"",""2221""
","
","","","","","","null","<div style=""font-size:60px;"">+</div>","null","","fixation","","",""
"memory-trial","286","516144","0.0-18.0-1.120","4465","approach_avoid_sv1","""event"",""trial"",""time""
""fullscreenenter"",""1"",""2221""
","
","
","""event"",""trial"",""time""
""fullscreenenter"",""1"",""2221""
","
","","","","","","678.7999999523163","images/sofa5.png","","","memory_trial","1","definitely_old",""
"html-keyboard-response","287","516660","0.0-18.0-0.121","4465","approach_avoid_sv1","""event"",""trial"",""time""
""fullscreenenter"",""1"",""2221""
","
","
","""event"",""trial"",""time""
""fullscreenenter"",""1"",""2221""
","
","","","","","","null","<div style=""font-size:60px;"">+</div>","null","","fixation","","",""
"memory-trial","288","518663","0.0-18.0-1.121","4465","approach_avoid_sv1","""event"",""trial"",""time""
""fullscreenenter"",""1"",""2221""
","
","
","""event"",""trial"",""time""
""fullscreenenter"",""1"",""2221""
","
","","","","","","1000","images/boat6.png","","","memory_trial","2","maybe_old",""
"html-keyboard-response","289","519168","0.0-18.0-0.122","4465","approach_avoid_sv1","""event"",""trial"",""time""
""fullscreenenter"",""1"",""2221""
","
","
","""event"",""trial"",""time""
""fullscreenenter"",""1"",""2221""
","
","","","","","","null","<div style=""font-size:60px;"">+</div>","null","","fixation","","",""
"memory-trial","290","521024","0.0-18.0-1.122","4465","approach_avoid_sv1","""event"",""trial"",""time""
""fullscreenenter"",""1"",""2221""
","
","
","""event"",""trial"",""time""
""fullscreenenter"",""1"",""2221""
","
","","","","","","847.5","images/horse1.png","","","memory_trial","1","definitely_old",""
"html-keyboard-response","291","521537","0.0-18.0-0.123","4465","approach_avoid_sv1","""event"",""trial"",""time""
""fullscreenenter"",""1"",""2221""
","
","
","""event"",""trial"",""time""
""fullscreenenter"",""1"",""2221""
","
","","","","","","null","<div style=""font-size:60px;"">+</div>","null","","fixation","","",""
"memory-trial","292","523455","0.0-18.0-1.123","4465","approach_avoid_sv1","""event"",""trial"",""time""
""fullscreenenter"",""1"",""2221""
","
","
","""event"",""trial"",""time""
""fullscreenenter"",""1"",""2221""
","
","","","","","","907.7999999523163","images/plane2.png","","","memory_trial","4","definitely_new",""
"html-keyboard-response","293","523959","0.0-18.0-0.124","4465","approach_avoid_sv1","""event"",""trial"",""time""
""fullscreenenter"",""1"",""2221""
","
","
","""event"",""trial"",""time""
""fullscreenenter"",""1"",""2221""
","
","","","","","","null","<div style=""font-size:60px;"">+</div>","null","","fixation","","",""
"memory-trial","294","525785","0.0-18.0-1.124","4465","approach_avoid_sv1","""event"",""trial"",""time""
""fullscreenenter"",""1"",""2221""
","
","
","""event"",""trial"",""time""
""fullscreenenter"",""1"",""2221""
","
","","","","","","790.9000000953674","images/banana5.png","","","memory_trial","3","maybe_new",""
"html-keyboard-response","295","526314","0.0-18.0-0.125","4465","approach_avoid_sv1","""event"",""trial"",""time""
""fullscreenenter"",""1"",""2221""
","
","
","""event"",""trial"",""time""
""fullscreenenter"",""1"",""2221""
","
","","","","","","null","<div style=""font-size:60px;"">+</div>","null","","fixation","","",""
"memory-trial","296","528523","0.0-18.0-1.125","4465","approach_avoid_sv1","""event"",""trial"",""time""
""fullscreenenter"",""1"",""2221""
","
","
","""event"",""trial"",""time""
""fullscreenenter"",""1"",""2221""
","
","","","","","","1171.2000000476837","images/bed5.png","","","memory_trial","2","maybe_old",""
"html-keyboard-response","297","529058","0.0-18.0-0.126","4465","approach_avoid_sv1","""event"",""trial"",""time""
""fullscreenenter"",""1"",""2221""
","
","
","""event"",""trial"",""time""
