"trial_type","trial_index","time_elapsed","internal_node_id","subject_id","task_version","interactions","blur_events","focus_events","fullscreenenter_events","fullscreenexit_events","success","timeout","failed_images","failed_audio","failed_video","rt","stimulus","response","button_pressed","task_part","key_press","answer","correct"
"pavlovia","0","3","0.0-0.0","4462","approach_avoid_sv1","""event"",""trial"",""time""
""fullscreenenter"",""1"",""6346""
","
","
","""event"",""trial"",""time""
""fullscreenenter"",""1"",""6346""
","
","","","","","","","","","","","","",""
"fullscreen","1","7344","0.0-1.0","4462","approach_avoid_sv1","""event"",""trial"",""time""
""fullscreenenter"",""1"",""6346""
","
","
","""event"",""trial"",""time""
""fullscreenenter"",""1"",""6346""
","
","true","","","","","","","","","","","",""
"preload","2","11264","0.0-2.0","4462","approach_avoid_sv1","""event"",""trial"",""time""
""fullscreenenter"",""1"",""6346""
","
","
","""event"",""trial"",""time""
""fullscreenenter"",""1"",""6346""
","
","true","false","[]","[]","[]","","","","","","","",""
"preload","3","13887","0.0-3.0","4462","approach_avoid_sv1","""event"",""trial"",""time""
""fullscreenenter"",""1"",""6346""
","
","
","""event"",""trial"",""time""
""fullscreenenter"",""1"",""6346""
","
","true","false","[]","[]","[]","","","","","","","",""
"preload","4","14128","0.0-4.0","4462","approach_avoid_sv1","""event"",""trial"",""time""
""fullscreenenter"",""1"",""6346""
","
","
","""event"",""trial"",""time""
""fullscreenenter"",""1"",""6346""
","
","true","false","[]","[]","[]","","","","","","","",""
"audio-keyboard-response","5","17276","0.0-5.0","4462","approach_avoid_sv1","""event"",""trial"",""time""
""fullscreenenter"",""1"",""6346""
","
","
","""event"",""trial"",""time""
""fullscreenenter"",""1"",""6346""
","
","","","","","","3146.666666666667","audio/beep_loop.wav","n","","","","",""
"audio-button-response","6","18771","0.0-6.0","4462","approach_avoid_sv1","""event"",""trial"",""time""
""fullscreenenter"",""1"",""6346""
","
","
","""event"",""trial"",""time""
""fullscreenenter"",""1"",""6346""
","
","","","","","","1493","audio/turtle.wav","3","","","","",""
"audio-button-response","7","21121","0.0-7.0","4462","approach_avoid_sv1","""event"",""trial"",""time""
""fullscreenenter"",""1"",""6346""
","
","
","""event"",""trial"",""time""
""fullscreenenter"",""1"",""6346""
","
","","","","","","1344","audio/shark.wav","2","","","","",""
"preload","8","26365","0.0-8.0","4462","approach_avoid_sv1","""event"",""trial"",""time""
""fullscreenenter"",""1"",""6346""
","
","
","""event"",""trial"",""time""
""fullscreenenter"",""1"",""6346""
","
","true","false","[]","[]","[]","","","","","","","",""
"learning-instructions","9","33456","0.0-9.0-0.0","4462","approach_avoid_sv1","""event"",""trial"",""time""
""fullscreenenter"",""1"",""6346""
","
","
","""event"",""trial"",""time""
""fullscreenenter"",""1"",""6346""
","
","","","","","","2611.5","<p> Welcome back! </p><p> Last week, you had to make choices about lots of different items.  </p>","","0","instructions","","",""
"learning-instructions","10","38439","0.0-9.0-0.1","4462","approach_avoid_sv1","""event"",""trial"",""time""
""fullscreenenter"",""1"",""6346""
","
","
","""event"",""trial"",""time""
""fullscreenenter"",""1"",""6346""
","
","","","","","","869.1000000014901","<p> Today, we are going to ask you to try to remember all the items. </p>","","0","instructions","","",""
"learning-instructions","11","49840","0.0-9.0-0.2","4462","approach_avoid_sv1","""event"",""trial"",""time""
""fullscreenenter"",""1"",""6346""
","
","
","""event"",""trial"",""time""
""fullscreenenter"",""1"",""6346""
","
","","","","","","1266.9000000022352","<p> On every trial, you will see an image. </p><p> The image may be an OLD image you saw during the games last week or it may be a NEW image that was not presented. </p>","","0","instructions","","",""
"learning-instructions","12","61324","0.0-9.0-0.3","4462","approach_avoid_sv1","""event"",""trial"",""time""
""fullscreenenter"",""1"",""6346""
","
","
","""event"",""trial"",""time""
""fullscreenenter"",""1"",""6346""
","
","","","","","","2983.699999999255","<p> You need to select whether the image is:  </p><p>  'Definitely old', 'Maybe old', 'Maybe new', or 'Definitely new.'  </p><div class=""mem-choice-instructions-grid""><div class=""choice-option"" id=""choice-option-1"" ><img src=""images/definitely_old_1.png"" id=""choice-option-img-1"" class=""choice-option-img"" stage=""1""></div><div class=""choice-option"" id=""choice-option-2"" ><img src=""images/maybe_old_1.png"" id=""choice-option-img-2"" class=""choice-option-img"" stage=""1""></div><div class=""choice-option"" id=""choice-option-3"" ><img src=""images/maybe_new_1.png"" id=""choice-option-img-3"" class=""choice-option-img"" stage=""1""></div><div class=""choice-option"" id=""choice-option-4"" > <img src=""images/definitely_new_1.png"" id=""choice-option-img-4"" class=""choice-option-img"" stage=""1""></div></div>","","0","instructions","","",""
"learning-instructions","13","68907","0.0-9.0-0.4","4462","approach_avoid_sv1","""event"",""trial"",""time""
""fullscreenenter"",""1"",""6346""
","
","
","""event"",""trial"",""time""
""fullscreenenter"",""1"",""6346""
","
","","","","","","1062.800000000745","<p> You should use the 1, 2, 3, and 4 keys to make your responses.  </p><div class=""mem-choice-instructions-grid""><div class=""choice-option"" id=""choice-option-1"" ><img src=""images/definitely_old.png"" id=""choice-option-img-1"" class=""choice-option-img"" stage=""1""></div><div class=""choice-option"" id=""choice-option-2"" ><img src=""images/maybe_old.png"" id=""choice-option-img-2"" class=""choice-option-img"" stage=""1""></div><div class=""choice-option"" id=""choice-option-3"" ><img src=""images/maybe_new.png"" id=""choice-option-img-3"" class=""choice-option-img"" stage=""1""></div><div class=""choice-option"" id=""choice-option-4"" > <img src=""images/definitely_new.png"" id=""choice-option-img-4"" class=""choice-option-img"" stage=""1""></div></div>","","0","instructions","","",""
"learning-instructions","14","77425","0.0-9.0-0.5","4462","approach_avoid_sv1","""event"",""trial"",""time""
""fullscreenenter"",""1"",""6346""
","
","
","""event"",""trial"",""time""
""fullscreenenter"",""1"",""6346""
","
","","","","","","2188.7000000029802","<p> You will have 10 seconds to make each response.  </p><p>  Make sure to respond before time runs out! </p>","","0","instructions","","",""
"learning-instructions","15","86959","0.0-9.0-0.6","4462","approach_avoid_sv1","""event"",""trial"",""time""
""fullscreenenter"",""1"",""6346""
","
","
","""event"",""trial"",""time""
""fullscreenenter"",""1"",""6346""
","
","","","","","","2458.099999997765","<p> Today, you will see each image ONCE only.  </p><p>  That means none of the images will repeat. </p>","","0","instructions","","",""
"learning-instructions","16","101093","0.0-9.0-0.7","4462","approach_avoid_sv1","""event"",""trial"",""time""
""fullscreenenter"",""1"",""6346""
","
","
","""event"",""trial"",""time""
""fullscreenenter"",""1"",""6346""
","
","","","","","","1460.699999999255","<p> Before you play the real game, it is time to practice. </p><p>  Just like in the real game, some of the images in the practice will be ones you have seen before. </p><p>  Others will be entirely new. </p>","","0","instructions","","",""
"html-button-response","17","104160","0.0-10.0","4462","approach_avoid_sv1","""event"",""trial"",""time""
""fullscreenenter"",""1"",""6346""
","
","
","""event"",""trial"",""time""
""fullscreenenter"",""1"",""6346""
","
","","","","","","2964.10000000149","<p> Ready to practice? </p><p> Remember, use the 1, 2, 3, and 4 keys to make your responses. </p>","0","","instructions","","",""
"html-keyboard-response","18","104769","0.0-11.0-0.0","4462","approach_avoid_sv1","""event"",""trial"",""time""
""fullscreenenter"",""1"",""6346""
","
","
","""event"",""trial"",""time""
""fullscreenenter"",""1"",""6346""
","
","","","","","","null","<div style=""font-size:60px;"">+</div>","null","","fixation","","",""
"memory-trial","19","108854","0.0-11.0-1.0","4462","approach_avoid_sv1","""event"",""trial"",""time""
""fullscreenenter"",""1"",""6346""
","
","
","""event"",""trial"",""time""
""fullscreenenter"",""1"",""6346""
","
","","","","","","3081.199999999255","images/racket3.png","","","practice","1","definitely_old",""
"html-keyboard-response","20","109361","0.0-11.0-0.1","4462","approach_avoid_sv1","""event"",""trial"",""time""
""fullscreenenter"",""1"",""6346""
","
","
","""event"",""trial"",""time""
""fullscreenenter"",""1"",""6346""
","
","","","","","","null","<div style=""font-size:60px;"">+</div>","null","","fixation","","",""
"memory-trial","21","111547","0.0-11.0-1.1","4462","approach_avoid_sv1","""event"",""trial"",""time""
""fullscreenenter"",""1"",""6346""
","
","
","""event"",""trial"",""time""
""fullscreenenter"",""1"",""6346""
","
","","","","","","1180","images/racket5.png","","","practice","2","maybe_old",""
"html-keyboard-response","22","112054","0.0-11.0-0.2","4462","approach_avoid_sv1","""event"",""trial"",""time""
""fullscreenenter"",""1"",""6346""
","
","
","""event"",""trial"",""time""
""fullscreenenter"",""1"",""6346""
","
","","","","","","null","<div style=""font-size:60px;"">+</div>","null","","fixation","","",""
"memory-trial","23","115507","0.0-11.0-1.2","4462","approach_avoid_sv1","""event"",""trial"",""time""
""fullscreenenter"",""1"",""6346""
","
","
","""event"",""trial"",""time""
""fullscreenenter"",""1"",""6346""
","
","","","","","","2450","images/ball1.png","","","practice","4","definitely_new",""
"html-keyboard-response","24","116014","0.0-11.0-0.3","4462","approach_avoid_sv1","""event"",""trial"",""time""
""fullscreenenter"",""1"",""6346""
","
","
","""event"",""trial"",""time""
""fullscreenenter"",""1"",""6346""
","
","","","","","","null","<div style=""font-size:60px;"">+</div>","null","","fixation","","",""
"memory-trial","25","118645","0.0-11.0-1.3","4462","approach_avoid_sv1","""event"",""trial"",""time""
""fullscreenenter"",""1"",""6346""
","
","
","""event"",""trial"",""time""
""fullscreenenter"",""1"",""6346""
","
","","","","","","1627.300000000745","images/ball2.png","","","practice","4","definitely_new",""
"html-keyboard-response","26","119152","0.0-11.0-0.4","4462","approach_avoid_sv1","""event"",""trial"",""time""
""fullscreenenter"",""1"",""6346""
","
","
","""event"",""trial"",""time""
""fullscreenenter"",""1"",""6346""
","
","","","","","","null","<div style=""font-size:60px;"">+</div>","null","","fixation","","",""
"memory-trial","27","122509","0.0-11.0-1.4","4462","approach_avoid_sv1","""event"",""trial"",""time""
""fullscreenenter"",""1"",""6346""
","
","
","""event"",""trial"",""time""
""fullscreenenter"",""1"",""6346""
","
","","","","","","2351.699999999255","images/racket2.png","","","practice","2","maybe_old",""
"html-keyboard-response","28","123016","0.0-11.0-0.5","4462","approach_avoid_sv1","""event"",""trial"",""time""
""fullscreenenter"",""1"",""6346""
","
","
","""event"",""trial"",""time""
""fullscreenenter"",""1"",""6346""
","
","","","","","","null","<div style=""font-size:60px;"">+</div>","null","","fixation","","",""
"memory-trial","29","125477","0.0-11.0-1.5","4462","approach_avoid_sv1","""event"",""trial"",""time""
""fullscreenenter"",""1"",""6346""
","
","
","""event"",""trial"",""time""
""fullscreenenter"",""1"",""6346""
","
","","","","","","1456.300000000745","images/ball5.png","","","practice","1","definitely_old",""
"html-keyboard-response","30","125979","0.0-11.0-0.6","4462","approach_avoid_sv1","""event"",""trial"",""time""
""fullscreenenter"",""1"",""6346""
","
","
","""event"",""trial"",""time""
""fullscreenenter"",""1"",""6346""
","
","","","","","","null","<div style=""font-size:60px;"">+</div>","null","","fixation","","",""
"memory-trial","31","128659","0.0-11.0-1.6","4462","approach_avoid_sv1","""event"",""trial"",""time""
""fullscreenenter"",""1"",""6346""
","
","
","""event"",""trial"",""time""
""fullscreenenter"",""1"",""6346""
","
","","","","","","1675.5","images/ball3.png","","","practice","1","definitely_old",""
"html-keyboard-response","32","129166","0.0-11.0-0.7","4462","approach_avoid_sv1","""event"",""trial"",""time""
""fullscreenenter"",""1"",""6346""
","
","
","""event"",""trial"",""time""
""fullscreenenter"",""1"",""6346""
","
","","","","","","null","<div style=""font-size:60px;"">+</div>","null","","fixation","","",""
"memory-trial","33","132706","0.0-11.0-1.7","4462","approach_avoid_sv1","""event"",""trial"",""time""
""fullscreenenter"",""1"",""6346""
","
","
","""event"",""trial"",""time""
""fullscreenenter"",""1"",""6346""
","
","","","","","","2535.5","images/racket1.png","","","practice","2","maybe_old",""
"learning-instructions","34","141946","0.0-12.0-0.0","4462","approach_avoid_sv1","""event"",""trial"",""time""
""fullscreenenter"",""1"",""6346""
","
","
","""event"",""trial"",""time""
""fullscreenenter"",""1"",""6346""
","
","","","","","","1903.7999999970198","<p> Great! You have completed the practice. </p><p> Before you start, we're going to ask you a few questions about how the game works.  </p>","","0","instructions","","",""
"preload","35","146719","0.0-13.0","4462","approach_avoid_sv1","""event"",""trial"",""time""
""fullscreenenter"",""1"",""6346""
","
","
","""event"",""trial"",""time""
""fullscreenenter"",""1"",""6346""
","
","true","false","[]","[]","[]","","","","","","","",""
"comp-q","36","154897","0.0-14.0-0.0","4462","approach_avoid_sv1","""event"",""trial"",""time""
""fullscreenenter"",""1"",""6346""
","
","
","""event"",""trial"",""time""
""fullscreenenter"",""1"",""6346""
","
","","","","","","2347","<p> <b> True or False? </b> </p><p> In this game, you will only see each image once. </p>","","0","comp_question","","","true"
"comp-q","37","162948","0.0-14.0-1.0","4462","approach_avoid_sv1","""event"",""trial"",""time""
""fullscreenenter"",""1"",""6346""
","
","
","""event"",""trial"",""time""
""fullscreenenter"",""1"",""6346""
","
","","","","","","1709.199999999255","<p> <b> That's right! </b> You will see many different images <i> one time each </i> in this game. </p>","","0","comp_answer","","",""
"comp-q","38","169048","0.0-15.0-0.0","4462","approach_avoid_sv1","""event"",""trial"",""time""
""fullscreenenter"",""1"",""6346""
","
","
","""event"",""trial"",""time""
""fullscreenenter"",""1"",""6346""
","
","","","","","","1094.2999999970198","<p> <b> True or False? </b> </p><p> You should use the mouse and click to make your response. </p>","","1","comp_question","","","true"
"comp-q","39","182132","0.0-15.0-1.0","4462","approach_avoid_sv1","""event"",""trial"",""time""
""fullscreenenter"",""1"",""6346""
","
","
","""event"",""trial"",""time""
""fullscreenenter"",""1"",""6346""
","
","","","","","","6583.10000000149","<p><b> That's right! </b> You should use the '1', '2', '3', and '4' keys to make your response. </p>","","0","comp_answer","","",""
"comp-q","40","188799","0.0-16.0-0.0","4462","approach_avoid_sv1","""event"",""trial"",""time""
""fullscreenenter"",""1"",""6346""
","
","
","""event"",""trial"",""time""
""fullscreenenter"",""1"",""6346""
","
","","","","","","988.1999999992549","<p> <b> True or False? </b> </p><p> You will have as much time as you want to make each choice. </p>","","0","comp_question","","","false"
"comp-q","41","194699","0.0-16.0-1.0","4462","approach_avoid_sv1","""event"",""trial"",""time""
""fullscreenenter"",""1"",""6346""
","
","
","""event"",""trial"",""time""
""fullscreenenter"",""1"",""6346""
","
","","","","","","1155","<p> <b>Incorrect.</b> You will only have 10 seconds to make each choice.</p>","","0","comp_answer","","",""
"comp-q","42","201150","0.0-16.1-0.1","4462","approach_avoid_sv1","""event"",""trial"",""time""
""fullscreenenter"",""1"",""6346""
","
","
","""event"",""trial"",""time""
""fullscreenenter"",""1"",""6346""
","
","","","","","","772.8999999985099","<p> <b> True or False? </b> </p><p> You will have as much time as you want to make each choice. </p>","","0","comp_question","","","false"
"comp-q","43","206816","0.0-16.1-1.1","4462","approach_avoid_sv1","""event"",""trial"",""time""
""fullscreenenter"",""1"",""6346""
","
","
","""event"",""trial"",""time""
""fullscreenenter"",""1"",""6346""
","
","","","","","","919.1999999992549","<p> <b>Incorrect.</b> You will only have 10 seconds to make each choice.</p>","","0","comp_answer","","",""
"comp-q","44","213534","0.0-16.2-0.2","4462","approach_avoid_sv1","""event"",""trial"",""time""
""fullscreenenter"",""1"",""6346""
","
","
","""event"",""trial"",""time""
""fullscreenenter"",""1"",""6346""
","
","","","","","","1039.199999999255","<p> <b> True or False? </b> </p><p> You will have as much time as you want to make each choice. </p>","","0","comp_question","","","false"
"comp-q","45","219484","0.0-16.2-1.2","4462","approach_avoid_sv1","""event"",""trial"",""time""
""fullscreenenter"",""1"",""6346""
","
","
","""event"",""trial"",""time""
""fullscreenenter"",""1"",""6346""
","
","","","","","","1208.300000000745","<p> <b>Incorrect.</b> You will only have 10 seconds to make each choice.</p>","","0","comp_answer","","",""
"comp-q","46","226504","0.0-16.3-0.3","4462","approach_avoid_sv1","""event"",""trial"",""time""
""fullscreenenter"",""1"",""6346""
","
","
","""event"",""trial"",""time""
""fullscreenenter"",""1"",""6346""
","
","","","","","","1342","<p> <b> True or False? </b> </p><p> You will have as much time as you want to make each choice. </p>","","0","comp_question","","","false"
"comp-q","47","231885","0.0-16.3-1.3","4462","approach_avoid_sv1","""event"",""trial"",""time""
""fullscreenenter"",""1"",""6346""
","
","
","""event"",""trial"",""time""
""fullscreenenter"",""1"",""6346""
","
","","","","","","637.6999999992549","<p> <b>Incorrect.</b> You will only have 10 seconds to make each choice.</p>","","0","comp_answer","","",""
"comp-q","48","241052","0.0-16.4-0.4","4462","approach_avoid_sv1","""event"",""trial"",""time""
""fullscreenenter"",""1"",""6346""
","
","
","""event"",""trial"",""time""
""fullscreenenter"",""1"",""6346""
","
","","","","","","3489.599999997765","<p> <b> True or False? </b> </p><p> You will have as much time as you want to make each choice. </p>","","0","comp_question","","","false"
"comp-q","49","248503","0.0-16.4-1.4","4462","approach_avoid_sv1","""event"",""trial"",""time""
""fullscreenenter"",""1"",""6346""
","
","
","""event"",""trial"",""time""
""fullscreenenter"",""1"",""6346""
","
","","","","","","2704.900000002235","<p> <b>Incorrect.</b> You will only have 10 seconds to make each choice.</p>","","0","comp_answer","","",""
"comp-q","50","259003","0.0-16.5-0.5","4462","approach_avoid_sv1","""event"",""trial"",""time""
""fullscreenenter"",""1"",""6346""
","
","
","""event"",""trial"",""time""
""fullscreenenter"",""1"",""6346""
","
","","","","","","4825.5","<p> <b> True or False? </b> </p><p> You will have as much time as you want to make each choice. </p>","","0","comp_question","","","false"
"comp-q","51","268653","0.0-16.5-1.5","4462","approach_avoid_sv1","""event"",""trial"",""time""
""fullscreenenter"",""1"",""6346""
","
","
","""event"",""trial"",""time""
""fullscreenenter"",""1"",""6346""
","
","","","","","","4907.199999999255","<p> <b>Incorrect.</b> You will only have 10 seconds to make each choice.</p>","","0","comp_answer","","",""
"comp-q","52","275605","0.0-16.6-0.6","4462","approach_avoid_sv1","""event"",""trial"",""time""
""fullscreenenter"",""1"",""6346""
","
","
","""event"",""trial"",""time""
""fullscreenenter"",""1"",""6346""
","
","","","","","","1271.4000000022352","<p> <b> True or False? </b> </p><p> You will have as much time as you want to make each choice. </p>","","1","comp_question","","","true"
"comp-q","53","285772","0.0-16.6-1.6","4462","approach_avoid_sv1","""event"",""trial"",""time""
""fullscreenenter"",""1"",""6346""
","
","
","""event"",""trial"",""time""
""fullscreenenter"",""1"",""6346""
","
","","","","","","5469.900000002235","<p> <b> That's right! </b> You will only have 10 seconds to make each choice. </p>","","0","comp_answer","","",""
"learning-instructions","54","296939","0.0-17.0","4462","approach_avoid_sv1","""event"",""trial"",""time""
""fullscreenenter"",""1"",""6346""
","
","
","""event"",""trial"",""time""
""fullscreenenter"",""1"",""6346""
","
","","","","","","2497.800000000745","<p> Great! You are now ready to begin the game. </p><p> Remember, use the 1, 2, 3, and 4 keys to make your responses. </p>","","0","instructions","","",""
"html-keyboard-response","55","297543","0.0-18.0-0.0","4462","approach_avoid_sv1","""event"",""trial"",""time""
""fullscreenenter"",""1"",""6346""
","
","
","""event"",""trial"",""time""
""fullscreenenter"",""1"",""6346""
","
","","","","","","null","<div style=""font-size:60px;"">+</div>","null","","fixation","","",""
"memory-trial","56","300383","0.0-18.0-1.0","4462","approach_avoid_sv1","""event"",""trial"",""time""
""fullscreenenter"",""1"",""6346""
","
","
","""event"",""trial"",""time""
""fullscreenenter"",""1"",""6346""
","
","","","","","","1832.8999999985099","images/sofa2.png","","","memory_trial","1","definitely_old",""
"html-keyboard-response","57","300889","0.0-18.0-0.1","4462","approach_avoid_sv1","""event"",""trial"",""time""
""fullscreenenter"",""1"",""6346""
","
","
","""event"",""trial"",""time""
""fullscreenenter"",""1"",""6346""
","
","","","","","","null","<div style=""font-size:60px;"">+</div>","null","","fixation","","",""
"memory-trial","58","303535","0.0-18.0-1.1","4462","approach_avoid_sv1","""event"",""trial"",""time""
""fullscreenenter"",""1"",""6346""
","
","
","""event"",""trial"",""time""
""fullscreenenter"",""1"",""6346""
","
","","","","","","1642.1000000014901","images/plane3.png","","","memory_trial","1","definitely_old",""
"html-keyboard-response","59","304039","0.0-18.0-0.2","4462","approach_avoid_sv1","""event"",""trial"",""time""
""fullscreenenter"",""1"",""6346""
","
","
","""event"",""trial"",""time""
""fullscreenenter"",""1"",""6346""
","
","","","","","","null","<div style=""font-size:60px;"">+</div>","null","","fixation","","",""
"memory-trial","60","306175","0.0-18.0-1.2","4462","approach_avoid_sv1","""event"",""trial"",""time""
""fullscreenenter"",""1"",""6346""
","
","
","""event"",""trial"",""time""
""fullscreenenter"",""1"",""6346""
","
","","","","","","1131.699999999255","images/cow3.png","","","memory_trial","4","definitely_new",""
"html-keyboard-response","61","306682","0.0-18.0-0.3","4462","approach_avoid_sv1","""event"",""trial"",""time""
""fullscreenenter"",""1"",""6346""
","
","
","""event"",""trial"",""time""
""fullscreenenter"",""1"",""6346""
","
","","","","","","null","<div style=""font-size:60px;"">+</div>","null","","fixation","","",""
"memory-trial","62","309059","0.0-18.0-1.3","4462","approach_avoid_sv1","""event"",""trial"",""time""
""fullscreenenter"",""1"",""6346""
","
","
","""event"",""trial"",""time""
""fullscreenenter"",""1"",""6346""
","
","","","","","","1370","images/cat3.png","","","memory_trial","4","definitely_new",""
"html-keyboard-response","63","309564","0.0-18.0-0.4","4462","approach_avoid_sv1","""event"",""trial"",""time""
""fullscreenenter"",""1"",""6346""
","
","
","""event"",""trial"",""time""
""fullscreenenter"",""1"",""6346""
","
","","","","","","null","<div style=""font-size:60px;"">+</div>","null","","fixation","","",""
"memory-trial","64","312095","0.0-18.0-1.4","4462","approach_avoid_sv1","""event"",""trial"",""time""
""fullscreenenter"",""1"",""6346""
","
","
","""event"",""trial"",""time""
""fullscreenenter"",""1"",""6346""
","
","","","","","","1526","images/flower4.png","","","memory_trial","1","definitely_old",""
"html-keyboard-response","65","312600","0.0-18.0-0.5","4462","approach_avoid_sv1","""event"",""trial"",""time""
""fullscreenenter"",""1"",""6346""
","
","
","""event"",""trial"",""time""
""fullscreenenter"",""1"",""6346""
","
","","","","","","null","<div style=""font-size:60px;"">+</div>","null","","fixation","","",""
"memory-trial","66","317022","0.0-18.0-1.5","4462","approach_avoid_sv1","""event"",""trial"",""time""
""fullscreenenter"",""1"",""6346""
","
","
","""event"",""trial"",""time""
""fullscreenenter"",""1"",""6346""
","
","","","","","","3414.5","images/goat3.png","","","memory_trial","3","maybe_new",""
"html-keyboard-response","67","317525","0.0-18.0-0.6","4462","approach_avoid_sv1","""event"",""trial"",""time""
""fullscreenenter"",""1"",""6346""
","
","
","""event"",""trial"",""time""
""fullscreenenter"",""1"",""6346""
","
","","","","","","null","<div style=""font-size:60px;"">+</div>","null","","fixation","","",""
"memory-trial","68","319870","0.0-18.0-1.6","4462","approach_avoid_sv1","""event"",""trial"",""time""
""fullscreenenter"",""1"",""6346""
","
","
","""event"",""trial"",""time""
""fullscreenenter"",""1"",""6346""
","
","","","","","","1339.5","images/bush3.png","","","memory_trial","1","definitely_old",""
"html-keyboard-response","69","320377","0.0-18.0-0.7","4462","approach_avoid_sv1","""event"",""trial"",""time""
""fullscreenenter"",""1"",""6346""
","
","
","""event"",""trial"",""time""
""fullscreenenter"",""1"",""6346""
","
","","","","","","null","<div style=""font-size:60px;"">+</div>","null","","fixation","","",""
"memory-trial","70","322476","0.0-18.0-1.7","4462","approach_avoid_sv1","""event"",""trial"",""time""
""fullscreenenter"",""1"",""6346""
","
","
","""event"",""trial"",""time""
""fullscreenenter"",""1"",""6346""
","
","","","","","","1089.6000000014901","images/chair6.png","","","memory_trial","1","definitely_old",""
"html-keyboard-response","71","322983","0.0-18.0-0.8","4462","approach_avoid_sv1","""event"",""trial"",""time""
""fullscreenenter"",""1"",""6346""
","
","
","""event"",""trial"",""time""
""fullscreenenter"",""1"",""6346""
","
","","","","","","null","<div style=""font-size:60px;"">+</div>","null","","fixation","","",""
"memory-trial","72","324759","0.0-18.0-1.8","4462","approach_avoid_sv1","""event"",""trial"",""time""
""fullscreenenter"",""1"",""6346""
","
","
","""event"",""trial"",""time""
""fullscreenenter"",""1"",""6346""
","
","","","","","","768.1000000014901","images/banana4.png","","","memory_trial","4","definitely_new",""
"html-keyboard-response","73","325264","0.0-18.0-0.9","4462","approach_avoid_sv1","""event"",""trial"",""time""
""fullscreenenter"",""1"",""6346""
","
","
","""event"",""trial"",""time""
""fullscreenenter"",""1"",""6346""
","
","","","","","","null","<div style=""font-size:60px;"">+</div>","null","","fixation","","",""
"memory-trial","74","327926","0.0-18.0-1.9","4462","approach_avoid_sv1","""event"",""trial"",""time""
""fullscreenenter"",""1"",""6346""
","
","
","""event"",""trial"",""time""
""fullscreenenter"",""1"",""6346""
","
","","","","","","1655.5999999977648","images/cow1.png","","","memory_trial","4","definitely_new",""
"html-keyboard-response","75","328432","0.0-18.0-0.10","4462","approach_avoid_sv1","""event"",""trial"",""time""
""fullscreenenter"",""1"",""6346""
","
","
","""event"",""trial"",""time""
""fullscreenenter"",""1"",""6346""
","
","","","","","","null","<div style=""font-size:60px;"">+</div>","null","","fixation","","",""
"memory-trial","76","331472","0.0-18.0-1.10","4462","approach_avoid_sv1","""event"",""trial"",""time""
""fullscreenenter"",""1"",""6346""
","
","
","""event"",""trial"",""time""
""fullscreenenter"",""1"",""6346""
","
","","","","","","2033.6000000014901","images/tree8.png","","","memory_trial","3","maybe_new",""
"html-keyboard-response","77","331978","0.0-18.0-0.11","4462","approach_avoid_sv1","""event"",""trial"",""time""
""fullscreenenter"",""1"",""6346""
","
","
","""event"",""trial"",""time""
""fullscreenenter"",""1"",""6346""
","
","","","","","","null","<div style=""font-size:60px;"">+</div>","null","","fixation","","",""
"memory-trial","78","335605","0.0-18.0-1.11","4462","approach_avoid_sv1","""event"",""trial"",""time""
""fullscreenenter"",""1"",""6346""
","
","
","""event"",""trial"",""time""
""fullscreenenter"",""1"",""6346""
","
","","","","","","2620.5","images/flower7.png","","","memory_trial","4","definitely_new",""
"html-keyboard-response","79","336112","0.0-18.0-0.12","4462","approach_avoid_sv1","""event"",""trial"",""time""
""fullscreenenter"",""1"",""6346""
","
","
","""event"",""trial"",""time""
""fullscreenenter"",""1"",""6346""
","
","","","","","","null","<div style=""font-size:60px;"">+</div>","null","","fixation","","",""
"memory-trial","80","338227","0.0-18.0-1.12","4462","approach_avoid_sv1","""event"",""trial"",""time""
""fullscreenenter"",""1"",""6346""
","
","
","""event"",""trial"",""time""
""fullscreenenter"",""1"",""6346""
","
","","","","","","1107.300000000745","images/dog2.png","","","memory_trial","1","definitely_old",""
"html-keyboard-response","81","338730","0.0-18.0-0.13","4462","approach_avoid_sv1","""event"",""trial"",""time""
""fullscreenenter"",""1"",""6346""
","
","
","""event"",""trial"",""time""
""fullscreenenter"",""1"",""6346""
","
","","","","","","null","<div style=""font-size:60px;"">+</div>","null","","fixation","","",""
"memory-trial","82","340555","0.0-18.0-1.13","4462","approach_avoid_sv1","""event"",""trial"",""time""
""fullscreenenter"",""1"",""6346""
","
","
","""event"",""trial"",""time""
""fullscreenenter"",""1"",""6346""
","
","","","","","","817","images/horse1.png","","","memory_trial","4","definitely_new",""
"html-keyboard-response","83","341061","0.0-18.0-0.14","4462","approach_avoid_sv1","""event"",""trial"",""time""
""fullscreenenter"",""1"",""6346""
","
","
","""event"",""trial"",""time""
""fullscreenenter"",""1"",""6346""
","
","","","","","","null","<div style=""font-size:60px;"">+</div>","null","","fixation","","",""
"memory-trial","84","343269","0.0-18.0-1.14","4462","approach_avoid_sv1","""event"",""trial"",""time""
""fullscreenenter"",""1"",""6346""
","
","
","""event"",""trial"",""time""
""fullscreenenter"",""1"",""6346""
","
","","","","","","1199.6000000014901","images/chair8.png","","","memory_trial","3","maybe_new",""
"html-keyboard-response","85","343776","0.0-18.0-0.15","4462","approach_avoid_sv1","""event"",""trial"",""time""
""fullscreenenter"",""1"",""6346""
","
","
","""event"",""trial"",""time""
""fullscreenenter"",""1"",""6346""
","
","","","","","","null","<div style=""font-size:60px;"">+</div>","null","","fixation","","",""
"memory-trial","86","347125","0.0-18.0-1.15","4462","approach_avoid_sv1","""event"",""trial"",""time""
""fullscreenenter"",""1"",""6346""
","
","
","""event"",""trial"",""time""
""fullscreenenter"",""1"",""6346""
","
","","","","","","2343.60000000149","images/table6.png","","","memory_trial","2","maybe_old",""
"html-keyboard-response","87","347629","0.0-18.0-0.16","4462","approach_avoid_sv1","""event"",""trial"",""time""
""fullscreenenter"",""1"",""6346""
","
","
","""event"",""trial"",""time""
""fullscreenenter"",""1"",""6346""
","
","","","","","","null","<div style=""font-size:60px;"">+</div>","null","","fixation","","",""
"memory-trial","88","350272","0.0-18.0-1.16","4462","approach_avoid_sv1","""event"",""trial"",""time""
""fullscreenenter"",""1"",""6346""
","
","
","""event"",""trial"",""time""
""fullscreenenter"",""1"",""6346""
","
","","","","","","1635.9000000022352","images/truck5.png","","","memory_trial","2","maybe_old",""
"html-keyboard-response","89","350779","0.0-18.0-0.17","4462","approach_avoid_sv1","""event"",""trial"",""time""
""fullscreenenter"",""1"",""6346""
","
","
","""event"",""trial"",""time""
""fullscreenenter"",""1"",""6346""
","
","","","","","","null","<div style=""font-size:60px;"">+</div>","null","","fixation","","",""
"memory-trial","90","354181","0.0-18.0-1.17","4462","approach_avoid_sv1","""event"",""trial"",""time""
""fullscreenenter"",""1"",""6346""
","
","
","""event"",""trial"",""time""
""fullscreenenter"",""1"",""6346""
","
","","","","","","2394.89999999851","images/chair3.png","","","memory_trial","1","definitely_old",""
"html-keyboard-response","91","354688","0.0-18.0-0.18","4462","approach_avoid_sv1","""event"",""trial"",""time""
""fullscreenenter"",""1"",""6346""
","
","
","""event"",""trial"",""time""
""fullscreenenter"",""1"",""6346""
","
","","","","","","null","<div style=""font-size:60px;"">+</div>","null","","fixation","","",""
"memory-trial","92","356619","0.0-18.0-1.18","4462","approach_avoid_sv1","""event"",""trial"",""time""
""fullscreenenter"",""1"",""6346""
","
","
","""event"",""trial"",""time""
""fullscreenenter"",""1"",""6346""
","
","","","","","","921.5","images/orange1.png","","","memory_trial","3","maybe_new",""
"html-keyboard-response","93","357125","0.0-18.0-0.19","4462","approach_avoid_sv1","""event"",""trial"",""time""
""fullscreenenter"",""1"",""6346""
","
","
","""event"",""trial"",""time""
""fullscreenenter"",""1"",""6346""
","
","","","","","","null","<div style=""font-size:60px;"">+</div>","null","","fixation","","",""
"memory-trial","94","358960","0.0-18.0-1.19","4462","approach_avoid_sv1","""event"",""trial"",""time""
""fullscreenenter"",""1"",""6346""
","
","
","""event"",""trial"",""time""
""fullscreenenter"",""1"",""6346""
","
","","","","","","826.5999999977648","images/apple8.png","","","memory_trial","1","definitely_old",""
"html-keyboard-response","95","359467","0.0-18.0-0.20","4462","approach_avoid_sv1","""event"",""trial"",""time""
""fullscreenenter"",""1"",""6346""
","
","
","""event"",""trial"",""time""
""fullscreenenter"",""1"",""6346""
","
","","","","","","null","<div style=""font-size:60px;"">+</div>","null","","fixation","","",""
"memory-trial","96","361628","0.0-18.0-1.20","4462","approach_avoid_sv1","""event"",""trial"",""time""
""fullscreenenter"",""1"",""6346""
","
","
","""event"",""trial"",""time""
""fullscreenenter"",""1"",""6346""
","
","","","","","","1156.699999999255","images/bush5.png","","","memory_trial","3","maybe_new",""
"html-keyboard-response","97","362133","0.0-18.0-0.21","4462","approach_avoid_sv1","""event"",""trial"",""time""
""fullscreenenter"",""1"",""6346""
","
","
","""event"",""trial"",""time""
""fullscreenenter"",""1"",""6346""
","
","","","","","","null","<div style=""font-size:60px;"">+</div>","null","","fixation","","",""
"memory-trial","98","365110","0.0-18.0-1.21","4462","approach_avoid_sv1","""event"",""trial"",""time""
""fullscreenenter"",""1"",""6346""
","
","
","""event"",""trial"",""time""
""fullscreenenter"",""1"",""6346""
","
","","","","","","1968.199999999255","images/plane2.png","","","memory_trial","4","definitely_new",""
"html-keyboard-response","99","365616","0.0-18.0-0.22","4462","approach_avoid_sv1","""event"",""trial"",""time""
""fullscreenenter"",""1"",""6346""
","
","
","""event"",""trial"",""time""
""fullscreenenter"",""1"",""6346""
","
","","","","","","null","<div style=""font-size:60px;"">+</div>","null","","fixation","","",""
"memory-trial","100","367579","0.0-18.0-1.22","4462","approach_avoid_sv1","""event"",""trial"",""time""
""fullscreenenter"",""1"",""6346""
","
","
","""event"",""trial"",""time""
""fullscreenenter"",""1"",""6346""
","
","","","","","","954.6999999992549","images/dog4.png","","","memory_trial","1","definitely_old",""
"html-keyboard-response","101","368086","0.0-18.0-0.23","4462","approach_avoid_sv1","""event"",""trial"",""time""
""fullscreenenter"",""1"",""6346""
","
","
","""event"",""trial"",""time""
""fullscreenenter"",""1"",""6346""
","
","","","","","","null","<div style=""font-size:60px;"">+</div>","null","","fixation","","",""
"memory-trial","102","370203","0.0-18.0-1.23","4462","approach_avoid_sv1","""event"",""trial"",""time""
""fullscreenenter"",""1"",""6346""
","
","
","""event"",""trial"",""time""
""fullscreenenter"",""1"",""6346""
","
","","","","","","1112.8999999985099","images/tree4.png","","","memory_trial","4","definitely_new",""
"html-keyboard-response","103","370710","0.0-18.0-0.24","4462","approach_avoid_sv1","""event"",""trial"",""time""
""fullscreenenter"",""1"",""6346""
","
","
","""event"",""trial"",""time""
""fullscreenenter"",""1"",""6346""
","
","","","","","","null","<div style=""font-size:60px;"">+</div>","null","","fixation","","",""
"memory-trial","104","372822","0.0-18.0-1.24","4462","approach_avoid_sv1","""event"",""trial"",""time""
""fullscreenenter"",""1"",""6346""
","
","
","""event"",""trial"",""time""
""fullscreenenter"",""1"",""6346""
","
","","","","","","1106.5","images/goat5.png","","","memory_trial","4","definitely_new",""
"html-keyboard-response","105","373328","0.0-18.0-0.25","4462","approach_avoid_sv1","""event"",""trial"",""time""
""fullscreenenter"",""1"",""6346""
","
","
","""event"",""trial"",""time""
""fullscreenenter"",""1"",""6346""
","
","","","","","","null","<div style=""font-size:60px;"">+</div>","null","","fixation","","",""
"memory-trial","106","375201","0.0-18.0-1.25","4462","approach_avoid_sv1","""event"",""trial"",""time""
""fullscreenenter"",""1"",""6346""
","
","
","""event"",""trial"",""time""
""fullscreenenter"",""1"",""6346""
","
","","","","","","864.9000000022352","images/table7.png","","","memory_trial","4","definitely_new",""
"html-keyboard-response","107","375707","0.0-18.0-0.26","4462","approach_avoid_sv1","""event"",""trial"",""time""
""fullscreenenter"",""1"",""6346""
","
","
","""event"",""trial"",""time""
""fullscreenenter"",""1"",""6346""
","
","","","","","","null","<div style=""font-size:60px;"">+</div>","null","","fixation","","",""
"memory-trial","108","377793","0.0-18.0-1.26","4462","approach_avoid_sv1","""event"",""trial"",""time""
""fullscreenenter"",""1"",""6346""
","
","
","""event"",""trial"",""time""
""fullscreenenter"",""1"",""6346""
","
","","","","","","1078.300000000745","images/cactus7.png","","","memory_trial","1","definitely_old",""
"html-keyboard-response","109","378299","0.0-18.0-0.27","4462","approach_avoid_sv1","""event"",""trial"",""time""
""fullscreenenter"",""1"",""6346""
","
","
","""event"",""trial"",""time""
""fullscreenenter"",""1"",""6346""
","
","","","","","","null","<div style=""font-size:60px;"">+</div>","null","","fixation","","",""
"memory-trial","110","380821","0.0-18.0-1.27","4462","approach_avoid_sv1","""event"",""trial"",""time""
""fullscreenenter"",""1"",""6346""
","
","
","""event"",""trial"",""time""
""fullscreenenter"",""1"",""6346""
","
","","","","","","1513.8999999985099","images/straw2.png","","","memory_trial","4","definitely_new",""
"html-keyboard-response","111","381323","0.0-18.0-0.28","4462","approach_avoid_sv1","""event"",""trial"",""time""
""fullscreenenter"",""1"",""6346""
","
","
","""event"",""trial"",""time""
""fullscreenenter"",""1"",""6346""
","
","","","","","","null","<div style=""font-size:60px;"">+</div>","null","","fixation","","",""
"memory-trial","112","383425","0.0-18.0-1.28","4462","approach_avoid_sv1","""event"",""trial"",""time""
""fullscreenenter"",""1"",""6346""
","
","
","""event"",""trial"",""time""
""fullscreenenter"",""1"",""6346""
","
","","","","","","1093","images/straw1.png","","","memory_trial","4","definitely_new",""
"html-keyboard-response","113","383931","0.0-18.0-0.29","4462","approach_avoid_sv1","""event"",""trial"",""time""
""fullscreenenter"",""1"",""6346""
","
","
","""event"",""trial"",""time""
""fullscreenenter"",""1"",""6346""
","
","","","","","","null","<div style=""font-size:60px;"">+</div>","null","","fixation","","",""
"memory-trial","114","386273","0.0-18.0-1.29","4462","approach_avoid_sv1","""event"",""trial"",""time""
""fullscreenenter"",""1"",""6346""
","
","
","""event"",""trial"",""time""
""fullscreenenter"",""1"",""6346""
","
","","","","","","1333","images/plane7.png","","","memory_trial","4","definitely_new",""
"html-keyboard-response","115","386779","0.0-18.0-0.30","4462","approach_avoid_sv1","""event"",""trial"",""time""
""fullscreenenter"",""1"",""6346""
","
","
","""event"",""trial"",""time""
""fullscreenenter"",""1"",""6346""
","
","","","","","","null","<div style=""font-size:60px;"">+</div>","null","","fixation","","",""
"memory-trial","116","390956","0.0-18.0-1.30","4462","approach_avoid_sv1","""event"",""trial"",""time""
""fullscreenenter"",""1"",""6346""
","
","
","""event"",""trial"",""time""
""fullscreenenter"",""1"",""6346""
","
","","","","","","3169.199999999255","images/train7.png","","","memory_trial","4","definitely_new",""
"html-keyboard-response","117","391462","0.0-18.0-0.31","4462","approach_avoid_sv1","""event"",""trial"",""time""
""fullscreenenter"",""1"",""6346""
","
","
","""event"",""trial"",""time""
""fullscreenenter"",""1"",""6346""
","
","","","","","","null","<div style=""font-size:60px;"">+</div>","null","","fixation","","",""
"memory-trial","118","393857","0.0-18.0-1.31","4462","approach_avoid_sv1","""event"",""trial"",""time""
""fullscreenenter"",""1"",""6346""
","
","
","""event"",""trial"",""time""
""fullscreenenter"",""1"",""6346""
","
","","","","","","1385.800000000745","images/apple5.png","","","memory_trial","4","definitely_new",""
"html-keyboard-response","119","394363","0.0-18.0-0.32","4462","approach_avoid_sv1","""event"",""trial"",""time""
""fullscreenenter"",""1"",""6346""
","
","
","""event"",""trial"",""time""
""fullscreenenter"",""1"",""6346""
","
","","","","","","null","<div style=""font-size:60px;"">+</div>","null","","fixation","","",""
"memory-trial","120","397148","0.0-18.0-1.32","4462","approach_avoid_sv1","""event"",""trial"",""time""
""fullscreenenter"",""1"",""6346""
","
","
","""event"",""trial"",""time""
""fullscreenenter"",""1"",""6346""
","
","","","","","","1776.0999999977648","images/boat1.png","","","memory_trial","4","definitely_new",""
"html-keyboard-response","121","397654","0.0-18.0-0.33","4462","approach_avoid_sv1","""event"",""trial"",""time""
""fullscreenenter"",""1"",""6346""
","
","
","""event"",""trial"",""time""
""fullscreenenter"",""1"",""6346""
","
","","","","","","null","<div style=""font-size:60px;"">+</div>","null","","fixation","","",""
"memory-trial","122","400306","0.0-18.0-1.33","4462","approach_avoid_sv1","""event"",""trial"",""time""
""fullscreenenter"",""1"",""6346""
","
","
","""event"",""trial"",""time""
""fullscreenenter"",""1"",""6346""
","
","","","","","","1645.1000000014901","images/bed3.png","","","memory_trial","1","definitely_old",""
"html-keyboard-response","123","400812","0.0-18.0-0.34","4462","approach_avoid_sv1","""event"",""trial"",""time""
""fullscreenenter"",""1"",""6346""
","
","
","""event"",""trial"",""time""
""fullscreenenter"",""1"",""6346""
","
","","","","","","null","<div style=""font-size:60px;"">+</div>","null","","fixation","","",""
"memory-trial","124","402561","0.0-18.0-1.34","4462","approach_avoid_sv1","""event"",""trial"",""time""
""fullscreenenter"",""1"",""6346""
","
","
","""event"",""trial"",""time""
""fullscreenenter"",""1"",""6346""
","
","","","","","","740.3999999985099","images/sofa6.png","","","memory_trial","1","definitely_old",""
"html-keyboard-response","125","403068","0.0-18.0-0.35","4462","approach_avoid_sv1","""event"",""trial"",""time""
""fullscreenenter"",""1"",""6346""
","
","
","""event"",""trial"",""time""
""fullscreenenter"",""1"",""6346""
","
","","","","","","null","<div style=""font-size:60px;"">+</div>","null","","fixation","","",""
"memory-trial","126","406476","0.0-18.0-1.35","4462","approach_avoid_sv1","""event"",""trial"",""time""
""fullscreenenter"",""1"",""6346""
","
","
","""event"",""trial"",""time""
""fullscreenenter"",""1"",""6346""
","
","","","","","","2402.300000000745","images/cow8.png","","","memory_trial","4","definitely_new",""
"html-keyboard-response","127","406982","0.0-18.0-0.36","4462","approach_avoid_sv1","""event"",""trial"",""time""
""fullscreenenter"",""1"",""6346""
","
","
","""event"",""trial"",""time""
""fullscreenenter"",""1"",""6346""
","
","","","","","","null","<div style=""font-size:60px;"">+</div>","null","","fixation","","",""
"memory-trial","128","409681","0.0-18.0-1.36","4462","approach_avoid_sv1","""event"",""trial"",""time""
""fullscreenenter"",""1"",""6346""
","
","
","""event"",""trial"",""time""
""fullscreenenter"",""1"",""6346""
","
","","","","","","1690.3999999985099","images/orange8.png","","","memory_trial","4","definitely_new",""
"html-keyboard-response","129","410188","0.0-18.0-0.37","4462","approach_avoid_sv1","""event"",""trial"",""time""
""fullscreenenter"",""1"",""6346""
","
","
","""event"",""trial"",""time""
""fullscreenenter"",""1"",""6346""
","
","","","","","","null","<div style=""font-size:60px;"">+</div>","null","","fixation","","",""
"memory-trial","130","412668","0.0-18.0-1.37","4462","approach_avoid_sv1","""event"",""trial"",""time""
""fullscreenenter"",""1"",""6346""
","
","
","""event"",""trial"",""time""
""fullscreenenter"",""1"",""6346""
","
","","","","","","1473","images/bed1.png","","","memory_trial","1","definitely_old",""
"html-keyboard-response","131","413174","0.0-18.0-0.38","4462","approach_avoid_sv1","""event"",""trial"",""time""
""fullscreenenter"",""1"",""6346""
","
","
","""event"",""trial"",""time""
""fullscreenenter"",""1"",""6346""
","
","","","","","","null","<div style=""font-size:60px;"">+</div>","null","","fixation","","",""
"memory-trial","132","415489","0.0-18.0-1.38","4462","approach_avoid_sv1","""event"",""trial"",""time""
""fullscreenenter"",""1"",""6346""
","
","
","""event"",""trial"",""time""
""fullscreenenter"",""1"",""6346""
","
","","","","","","1308.5","images/bush2.png","","","memory_trial","4","definitely_new",""
"html-keyboard-response","133","415996","0.0-18.0-0.39","4462","approach_avoid_sv1","""event"",""trial"",""time""
""fullscreenenter"",""1"",""6346""
","
","
","""event"",""trial"",""time""
""fullscreenenter"",""1"",""6346""
","
","","","","","","null","<div style=""font-size:60px;"">+</div>","null","","fixation","","",""
"memory-trial","134","417665","0.0-18.0-1.39","4462","approach_avoid_sv1","""event"",""trial"",""time""
""fullscreenenter"",""1"",""6346""
","
","
","""event"",""trial"",""time""
""fullscreenenter"",""1"",""6346""
","
","","","","","","662.6000000014901","images/apple2.png","","","memory_trial","1","definitely_old",""
"html-keyboard-response","135","418172","0.0-18.0-0.40","4462","approach_avoid_sv1","""event"",""trial"",""time""
""fullscreenenter"",""1"",""6346""
","
","
","""event"",""trial"",""time""
""fullscreenenter"",""1"",""6346""
","
","","","","","","null","<div style=""font-size:60px;"">+</div>","null","","fixation","","",""
"memory-trial","136","420460","0.0-18.0-1.40","4462","approach_avoid_sv1","""event"",""trial"",""time""
""fullscreenenter"",""1"",""6346""
","
","
","""event"",""trial"",""time""
""fullscreenenter"",""1"",""6346""
","
","","","","","","1283","images/rabbit8.png","","","memory_trial","1","definitely_old",""
"html-keyboard-response","137","420965","0.0-18.0-0.41","4462","approach_avoid_sv1","""event"",""trial"",""time""
""fullscreenenter"",""1"",""6346""
","
","
","""event"",""trial"",""time""
""fullscreenenter"",""1"",""6346""
","
","","","","","","null","<div style=""font-size:60px;"">+</div>","null","","fixation","","",""
"memory-trial","138","422700","0.0-18.0-1.41","4462","approach_avoid_sv1","""event"",""trial"",""time""
""fullscreenenter"",""1"",""6346""
","
","
","""event"",""trial"",""time""
""fullscreenenter"",""1"",""6346""
","
","","","","","","729","images/train3.png","","","memory_trial","1","definitely_old",""
"html-button-response","139","587457","0.0-18.0-2.41-0.41","4462","approach_avoid_sv1","""event"",""trial"",""time""
""fullscreenenter"",""1"",""6346""
","
","
","""event"",""trial"",""time""
""fullscreenenter"",""1"",""6346""
","
","","","","","","164751.80000000075","<p> Take a break! </p><p> Click the button to continue. </p>","0","","break","","",""
"html-keyboard-response","140","587962","0.0-18.0-0.42","4462","approach_avoid_sv1","""event"",""trial"",""time""
""fullscreenenter"",""1"",""6346""
","
","
","""event"",""trial"",""time""
""fullscreenenter"",""1"",""6346""
","
","","","","","","null","<div style=""font-size:60px;"">+</div>","null","","fixation","","",""
"memory-trial","141","591353","0.0-18.0-1.42","4462","approach_avoid_sv1","""event"",""trial"",""time""
""fullscreenenter"",""1"",""6346""
","
","
","""event"",""trial"",""time""
""fullscreenenter"",""1"",""6346""
","
","","","","","","2382.89999999851","images/boat3.png","","","memory_trial","4","definitely_new",""
"html-keyboard-response","142","591860","0.0-18.0-0.43","4462","approach_avoid_sv1","""event"",""trial"",""time""
""fullscreenenter"",""1"",""6346""
","
","
","""event"",""trial"",""time""
""fullscreenenter"",""1"",""6346""
","
","","","","","","null","<div style=""font-size:60px;"">+</div>","null","","fixation","","",""
"memory-trial","143","594095","0.0-18.0-1.43","4462","approach_avoid_sv1","""event"",""trial"",""time""
""fullscreenenter"",""1"",""6346""
","
","
","""event"",""trial"",""time""
""fullscreenenter"",""1"",""6346""
","
","","","","","","1226.699999999255","images/tree1.png","","","memory_trial","4","definitely_new",""
"html-keyboard-response","144","594601","0.0-18.0-0.44","4462","approach_avoid_sv1","""event"",""trial"",""time""
""fullscreenenter"",""1"",""6346""
","
","
","""event"",""trial"",""time""
""fullscreenenter"",""1"",""6346""
","
","","","","","","null","<div style=""font-size:60px;"">+</div>","null","","fixation","","",""
"memory-trial","145","596394","0.0-18.0-1.44","4462","approach_avoid_sv1","""event"",""trial"",""time""
""fullscreenenter"",""1"",""6346""
","
","
","""event"",""trial"",""time""
""fullscreenenter"",""1"",""6346""
","
","","","","","","787","images/bush6.png","","","memory_trial","1","definitely_old",""
"html-keyboard-response","146","596901","0.0-18.0-0.45","4462","approach_avoid_sv1","""event"",""trial"",""time""
""fullscreenenter"",""1"",""6346""
","
","
","""event"",""trial"",""time""
""fullscreenenter"",""1"",""6346""
","
","","","","","","null","<div style=""font-size:60px;"">+</div>","null","","fixation","","",""
"memory-trial","147","598586","0.0-18.0-1.45","4462","approach_avoid_sv1","""event"",""trial"",""time""
""fullscreenenter"",""1"",""6346""
","
","
","""event"",""trial"",""time""
""fullscreenenter"",""1"",""6346""
","
","","","","","","678.5","images/plane6.png","","","memory_trial","1","definitely_old",""
"html-keyboard-response","148","599092","0.0-18.0-0.46","4462","approach_avoid_sv1","""event"",""trial"",""time""
""fullscreenenter"",""1"",""6346""
","
","
","""event"",""trial"",""time""
""fullscreenenter"",""1"",""6346""
","
","","","","","","null","<div style=""font-size:60px;"">+</div>","null","","fixation","","",""
"memory-trial","149","600666","0.0-18.0-1.46","4462","approach_avoid_sv1","""event"",""trial"",""time""
""fullscreenenter"",""1"",""6346""
","
","
","""event"",""trial"",""time""
""fullscreenenter"",""1"",""6346""
","
","","","","","","568.1999999992549","images/bed4.png","","","memory_trial","4","definitely_new",""
"html-keyboard-response","150","601172","0.0-18.0-0.47","4462","approach_avoid_sv1","""event"",""trial"",""time""
""fullscreenenter"",""1"",""6346""
","
","
","""event"",""trial"",""time""
""fullscreenenter"",""1"",""6346""
","
","","","","","","null","<div style=""font-size:60px;"">+</div>","null","","fixation","","",""
"memory-trial","151","603550","0.0-18.0-1.47","4462","approach_avoid_sv1","""event"",""trial"",""time""
""fullscreenenter"",""1"",""6346""
","
","
","""event"",""trial"",""time""
""fullscreenenter"",""1"",""6346""
","
","","","","","","1373.6000000014901","images/sofa7.png","","","memory_trial","1","definitely_old",""
"html-keyboard-response","152","604052","0.0-18.0-0.48","4462","approach_avoid_sv1","""event"",""trial"",""time""
""fullscreenenter"",""1"",""6346""
","
","
","""event"",""trial"",""time""
""fullscreenenter"",""1"",""6346""
","
","","","","","","null","<div style=""font-size:60px;"">+</div>","null","","fixation","","",""
"memory-trial","153","606265","0.0-18.0-1.48","4462","approach_avoid_sv1","""event"",""trial"",""time""
""fullscreenenter"",""1"",""6346""
","
","
","""event"",""trial"",""time""
""fullscreenenter"",""1"",""6346""
","
","","","","","","1206.5999999977648","images/cat2.png","","","memory_trial","4","definitely_new",""
"html-keyboard-response","154","606766","0.0-18.0-0.49","4462","approach_avoid_sv1","""event"",""trial"",""time""
""fullscreenenter"",""1"",""6346""
","
","
","""event"",""trial"",""time""
""fullscreenenter"",""1"",""6346""
","
","","","","","","null","<div style=""font-size:60px;"">+</div>","null","","fixation","","",""
"memory-trial","155","608837","0.0-18.0-1.49","4462","approach_avoid_sv1","""event"",""trial"",""time""
""fullscreenenter"",""1"",""6346""
","
","
","""event"",""trial"",""time""
""fullscreenenter"",""1"",""6346""
","
","","","","","","1063.699999999255","images/bed5.png","","","memory_trial","1","definitely_old",""
"html-keyboard-response","156","609343","0.0-18.0-0.50","4462","approach_avoid_sv1","""event"",""trial"",""time""
""fullscreenenter"",""1"",""6346""
","
","
","""event"",""trial"",""time""
""fullscreenenter"",""1"",""6346""
","
","","","","","","null","<div style=""font-size:60px;"">+</div>","null","","fixation","","",""
"memory-trial","157","611567","0.0-18.0-1.50","4462","approach_avoid_sv1","""event"",""trial"",""time""
""fullscreenenter"",""1"",""6346""
","
","
","""event"",""trial"",""time""
""fullscreenenter"",""1"",""6346""
","
","","","","","","1219","images/horse6.png","","","memory_trial","1","definitely_old",""
"html-keyboard-response","158","612070","0.0-18.0-0.51","4462","approach_avoid_sv1","""event"",""trial"",""time""
""fullscreenenter"",""1"",""6346""
","
","
","""event"",""trial"",""time""
""fullscreenenter"",""1"",""6346""
","
","","","","","","null","<div style=""font-size:60px;"">+</div>","null","","fixation","","",""
"memory-trial","159","613892","0.0-18.0-1.51","4462","approach_avoid_sv1","""event"",""trial"",""time""
""fullscreenenter"",""1"",""6346""
","
","
","""event"",""trial"",""time""
""fullscreenenter"",""1"",""6346""
","
","","","","","","814.8000000007451","images/tree6.png","","","memory_trial","4","definitely_new",""
"html-keyboard-response","160","614398","0.0-18.0-0.52","4462","approach_avoid_sv1","""event"",""trial"",""time""
""fullscreenenter"",""1"",""6346""
","
","
","""event"",""trial"",""time""
""fullscreenenter"",""1"",""6346""
","
","","","","","","null","<div style=""font-size:60px;"">+</div>","null","","fixation","","",""
"memory-trial","161","619583","0.0-18.0-1.52","4462","approach_avoid_sv1","""event"",""trial"",""time""
""fullscreenenter"",""1"",""6346""
","
","
","""event"",""trial"",""time""
""fullscreenenter"",""1"",""6346""
","
","","","","","","4179.5","images/apple1.png","","","memory_trial","4","definitely_new",""
"html-keyboard-response","162","620088","0.0-18.0-0.53","4462","approach_avoid_sv1","""event"",""trial"",""time""
""fullscreenenter"",""1"",""6346""
","
","
","""event"",""trial"",""time""
""fullscreenenter"",""1"",""6346""
","
","","","","","","null","<div style=""font-size:60px;"">+</div>","null","","fixation","","",""
"memory-trial","163","622360","0.0-18.0-1.53","4462","approach_avoid_sv1","""event"",""trial"",""time""
""fullscreenenter"",""1"",""6346""
","
","
","""event"",""trial"",""time""
""fullscreenenter"",""1"",""6346""
","
","","","","","","1264.3999999985099","images/tree5.png","","","memory_trial","4","definitely_new",""
"html-keyboard-response","164","622865","0.0-18.0-0.54","4462","approach_avoid_sv1","""event"",""trial"",""time""
""fullscreenenter"",""1"",""6346""
","
","
","""event"",""trial"",""time""
""fullscreenenter"",""1"",""6346""
","
","","","","","","null","<div style=""font-size:60px;"">+</div>","null","","fixation","","",""
"memory-trial","165","625055","0.0-18.0-1.54","4462","approach_avoid_sv1","""event"",""trial"",""time""
""fullscreenenter"",""1"",""6346""
","
","
","""event"",""trial"",""time""
""fullscreenenter"",""1"",""6346""
","
","","","","","","1186.8999999985099","images/straw6.png","","","memory_trial","1","definitely_old",""
"html-keyboard-response","166","625557","0.0-18.0-0.55","4462","approach_avoid_sv1","""event"",""trial"",""time""
""fullscreenenter"",""1"",""6346""
","
","
","""event"",""trial"",""time""
""fullscreenenter"",""1"",""6346""
","
","","","","","","null","<div style=""font-size:60px;"">+</div>","null","","fixation","","",""
"memory-trial","167","627418","0.0-18.0-1.55","4462","approach_avoid_sv1","""event"",""trial"",""time""
""fullscreenenter"",""1"",""6346""
","
","
","""event"",""trial"",""time""
""fullscreenenter"",""1"",""6346""
","
","","","","","","853.1999999992549","images/apple6.png","","","memory_trial","4","definitely_new",""
"html-keyboard-response","168","627919","0.0-18.0-0.56","4462","approach_avoid_sv1","""event"",""trial"",""time""
""fullscreenenter"",""1"",""6346""
","
","
","""event"",""trial"",""time""
""fullscreenenter"",""1"",""6346""
","
","","","","","","null","<div style=""font-size:60px;"">+</div>","null","","fixation","","",""
"memory-trial","169","629729","0.0-18.0-1.56","4462","approach_avoid_sv1","""event"",""trial"",""time""
""fullscreenenter"",""1"",""6346""
","
","
","""event"",""trial"",""time""
""fullscreenenter"",""1"",""6346""
","
","","","","","","805.2000000029802","images/sofa8.png","","","memory_trial","1","definitely_old",""
"html-keyboard-response","170","630235","0.0-18.0-0.57","4462","approach_avoid_sv1","""event"",""trial"",""time""
""fullscreenenter"",""1"",""6346""
","
","
","""event"",""trial"",""time""
""fullscreenenter"",""1"",""6346""
","
","","","","","","null","<div style=""font-size:60px;"">+</div>","null","","fixation","","",""
"memory-trial","171","632074","0.0-18.0-1.57","4462","approach_avoid_sv1","""event"",""trial"",""time""
""fullscreenenter"",""1"",""6346""
","
","
","""event"",""trial"",""time""
""fullscreenenter"",""1"",""6346""
","
","","","","","","833.9000000022352","images/banana6.png","","","memory_trial","4","definitely_new",""
"html-keyboard-response","172","632575","0.0-18.0-0.58","4462","approach_avoid_sv1","""event"",""trial"",""time""
""fullscreenenter"",""1"",""6346""
","
","
","""event"",""trial"",""time""
""fullscreenenter"",""1"",""6346""
","
","","","","","","null","<div style=""font-size:60px;"">+</div>","null","","fixation","","",""
"memory-trial","173","633971","0.0-18.0-1.58","4462","approach_avoid_sv1","""event"",""trial"",""time""
""fullscreenenter"",""1"",""6346""
","
","
","""event"",""trial"",""time""
""fullscreenenter"",""1"",""6346""
","
","","","","","","388.30000000074506","images/boat6.png","","","memory_trial","1","definitely_old",""
"html-keyboard-response","174","634476","0.0-18.0-0.59","4462","approach_avoid_sv1","""event"",""trial"",""time""
""fullscreenenter"",""1"",""6346""
","
","
","""event"",""trial"",""time""
""fullscreenenter"",""1"",""6346""
","
","","","","","","null","<div style=""font-size:60px;"">+</div>","null","","fixation","","",""
"memory-trial","175","636463","0.0-18.0-1.59","4462","approach_avoid_sv1","""event"",""trial"",""time""
""fullscreenenter"",""1"",""6346""
","
","
","""event"",""trial"",""time""
""fullscreenenter"",""1"",""6346""
","
","","","","","","980.6000000014901","images/boat7.png","","","memory_trial","4","definitely_new",""
"html-keyboard-response","176","636964","0.0-18.0-0.60","4462","approach_avoid_sv1","""event"",""trial"",""time""
""fullscreenenter"",""1"",""6346""
","
","
","""event"",""trial"",""time""
""fullscreenenter"",""1"",""6346""
","
","","","","","","null","<div style=""font-size:60px;"">+</div>","null","","fixation","","",""
"memory-trial","177","638822","0.0-18.0-1.60","4462","approach_avoid_sv1","""event"",""trial"",""time""
""fullscreenenter"",""1"",""6346""
","
","
","""event"",""trial"",""time""
""fullscreenenter"",""1"",""6346""
","
","","","","","","851.4000000022352","images/rodent3.png","","","memory_trial","1","definitely_old",""
"html-keyboard-response","178","639327","0.0-18.0-0.61","4462","approach_avoid_sv1","""event"",""trial"",""time""
""fullscreenenter"",""1"",""6346""
","
","
","""event"",""trial"",""time""
""fullscreenenter"",""1"",""6346""
","
","","","","","","null","<div style=""font-size:60px;"">+</div>","null","","fixation","","",""
"memory-trial","179","642666","0.0-18.0-1.61","4462","approach_avoid_sv1","""event"",""trial"",""time""
""fullscreenenter"",""1"",""6346""
","
","
","""event"",""trial"",""time""
""fullscreenenter"",""1"",""6346""
","
","","","","","","2333.300000000745","images/horse4.png","","","memory_trial","1","definitely_old",""
"html-keyboard-response","180","643167","0.0-18.0-0.62","4462","approach_avoid_sv1","""event"",""trial"",""time""
""fullscreenenter"",""1"",""6346""
","
","
","""event"",""trial"",""time""
""fullscreenenter"",""1"",""6346""
","
","","","","","","null","<div style=""font-size:60px;"">+</div>","null","","fixation","","",""
"memory-trial","181","646383","0.0-18.0-1.62","4462","approach_avoid_sv1","""event"",""trial"",""time""
""fullscreenenter"",""1"",""6346""
","
","
","""event"",""trial"",""time""
""fullscreenenter"",""1"",""6346""
","
","","","","","","2210.39999999851","images/cactus5.png","","","memory_trial","1","definitely_old",""
"html-keyboard-response","182","646885","0.0-18.0-0.63","4462","approach_avoid_sv1","""event"",""trial"",""time""
""fullscreenenter"",""1"",""6346""
","
","
","""event"",""trial"",""time""
""fullscreenenter"",""1"",""6346""
","
","","","","","","null","<div style=""font-size:60px;"">+</div>","null","","fixation","","",""
"memory-trial","183","648821","0.0-18.0-1.63","4462","approach_avoid_sv1","""event"",""trial"",""time""
""fullscreenenter"",""1"",""6346""
","
","
","""event"",""trial"",""time""
""fullscreenenter"",""1"",""6346""
","
","","","","","","930","images/flower3.png","","","memory_trial","1","definitely_old",""
"html-keyboard-response","184","649327","0.0-18.0-0.64","4462","approach_avoid_sv1","""event"",""trial"",""time""
""fullscreenenter"",""1"",""6346""
","
","
","""event"",""trial"",""time""
""fullscreenenter"",""1"",""6346""
","
","","","","","","null","<div style=""font-size:60px;"">+</div>","null","","fixation","","",""
"memory-trial","185","651423","0.0-18.0-1.64","4462","approach_avoid_sv1","""event"",""trial"",""time""
""fullscreenenter"",""1"",""6346""
","
","
","""event"",""trial"",""time""
""fullscreenenter"",""1"",""6346""
","
","","","","","","1093.3999999985099","images/chair7.png","","","memory_trial","1","definitely_old",""
"html-keyboard-response","186","651926","0.0-18.0-0.65","4462","approach_avoid_sv1","""event"",""trial"",""time""
""fullscreenenter"",""1"",""6346""
","
","
","""event"",""trial"",""time""
""fullscreenenter"",""1"",""6346""
","
","","","","","","null","<div style=""font-size:60px;"">+</div>","null","","fixation","","",""
"memory-trial","187","653829","0.0-18.0-1.65","4462","approach_avoid_sv1","""event"",""trial"",""time""
""fullscreenenter"",""1"",""6346""
","
","
","""event"",""trial"",""time""
""fullscreenenter"",""1"",""6346""
","
","","","","","","899.5999999977648","images/truck1.png","","","memory_trial","1","definitely_old",""
"html-keyboard-response","188","654335","0.0-18.0-0.66","4462","approach_avoid_sv1","""event"",""trial"",""time""
""fullscreenenter"",""1"",""6346""
","
","
","""event"",""trial"",""time""
""fullscreenenter"",""1"",""6346""
","
","","","","","","null","<div style=""font-size:60px;"">+</div>","null","","fixation","","",""
"memory-trial","189","656549","0.0-18.0-1.66","4462","approach_avoid_sv1","""event"",""trial"",""time""
""fullscreenenter"",""1"",""6346""
","
","
","""event"",""trial"",""time""
""fullscreenenter"",""1"",""6346""
","
","","","","","","1207.800000000745","images/cow7.png","","","memory_trial","4","definitely_new",""
"html-keyboard-response","190","657055","0.0-18.0-0.67","4462","approach_avoid_sv1","""event"",""trial"",""time""
""fullscreenenter"",""1"",""6346""
","
","
","""event"",""trial"",""time""
""fullscreenenter"",""1"",""6346""
","
","","","","","","null","<div style=""font-size:60px;"">+</div>","null","","fixation","","",""
"memory-trial","191","659055","0.0-18.0-1.67","4462","approach_avoid_sv1","""event"",""trial"",""time""
""fullscreenenter"",""1"",""6346""
","
","
","""event"",""trial"",""time""
""fullscreenenter"",""1"",""6346""
","
","","","","","","994.5","images/goat1.png","","","memory_trial","4","definitely_new",""
"html-keyboard-response","192","659562","0.0-18.0-0.68","4462","approach_avoid_sv1","""event"",""trial"",""time""
""fullscreenenter"",""1"",""6346""
","
","
","""event"",""trial"",""time""
""fullscreenenter"",""1"",""6346""
","
","","","","","","null","<div style=""font-size:60px;"">+</div>","null","","fixation","","",""
"memory-trial","193","661680","0.0-18.0-1.68","4462","approach_avoid_sv1","""event"",""trial"",""time""
""fullscreenenter"",""1"",""6346""
","
","
","""event"",""trial"",""time""
""fullscreenenter"",""1"",""6346""
","
","","","","","","1111.2999999970198","images/cat5.png","","","memory_trial","1","definitely_old",""
"html-keyboard-response","194","662186","0.0-18.0-0.69","4462","approach_avoid_sv1","""event"",""trial"",""time""
""fullscreenenter"",""1"",""6346""
","
","
","""event"",""trial"",""time""
""fullscreenenter"",""1"",""6346""
","
","","","","","","null","<div style=""font-size:60px;"">+</div>","null","","fixation","","",""
"memory-trial","195","664432","0.0-18.0-1.69","4462","approach_avoid_sv1","""event"",""trial"",""time""
""fullscreenenter"",""1"",""6346""
","
","
","""event"",""trial"",""time""
""fullscreenenter"",""1"",""6346""
","
","","","","","","1240.5","images/truck4.png","","","memory_trial","4","definitely_new",""
"html-keyboard-response","196","664933","0.0-18.0-0.70","4462","approach_avoid_sv1","""event"",""trial"",""time""
""fullscreenenter"",""1"",""6346""
","
","
","""event"",""trial"",""time""
""fullscreenenter"",""1"",""6346""
","
","","","","","","null","<div style=""font-size:60px;"">+</div>","null","","fixation","","",""
"memory-trial","197","667477","0.0-18.0-1.70","4462","approach_avoid_sv1","""event"",""trial"",""time""
""fullscreenenter"",""1"",""6346""
","
","
","""event"",""trial"",""time""
""fullscreenenter"",""1"",""6346""
","
","","","","","","1539.6000000014901","images/flower1.png","","","memory_trial","1","definitely_old",""
"html-keyboard-response","198","667983","0.0-18.0-0.71","4462","approach_avoid_sv1","""event"",""trial"",""time""
""fullscreenenter"",""1"",""6346""
","
","
","""event"",""trial"",""time""
""fullscreenenter"",""1"",""6346""
","
","","","","","","null","<div style=""font-size:60px;"">+</div>","null","","fixation","","",""
"memory-trial","199","670138","0.0-18.0-1.71","4462","approach_avoid_sv1","""event"",""trial"",""time""
""fullscreenenter"",""1"",""6346""
","
","
","""event"",""trial"",""time""
""fullscreenenter"",""1"",""6346""
","
","","","","","","1150.5999999977648","images/cow5.png","","","memory_trial","4","definitely_new",""
"html-keyboard-response","200","670643","0.0-18.0-0.72","4462","approach_avoid_sv1","""event"",""trial"",""time""
""fullscreenenter"",""1"",""6346""
","
","
","""event"",""trial"",""time""
""fullscreenenter"",""1"",""6346""
","
","","","","","","null","<div style=""font-size:60px;"">+</div>","null","","fixation","","",""
"memory-trial","201","672441","0.0-18.0-1.72","4462","approach_avoid_sv1","""event"",""trial"",""time""
""fullscreenenter"",""1"",""6346""
","
","
","""event"",""trial"",""time""
""fullscreenenter"",""1"",""6346""
","
","","","","","","789.8999999985099","images/plane4.png","","","memory_trial","1","definitely_old",""
"html-keyboard-response","202","672945","0.0-18.0-0.73","4462","approach_avoid_sv1","""event"",""trial"",""time""
""fullscreenenter"",""1"",""6346""
","
","
","""event"",""trial"",""time""
""fullscreenenter"",""1"",""6346""
","
","","","","","","null","<div style=""font-size:60px;"">+</div>","null","","fixation","","",""
"memory-trial","203","675214","0.0-18.0-1.73","4462","approach_avoid_sv1","""event"",""trial"",""time""
""fullscreenenter"",""1"",""6346""
","
","
","""event"",""trial"",""time""
""fullscreenenter"",""1"",""6346""
","
","","","","","","1261.699999999255","images/horse3.png","","","memory_trial","4","definitely_new",""
"html-keyboard-response","204","675717","0.0-18.0-0.74","4462","approach_avoid_sv1","""event"",""trial"",""time""
""fullscreenenter"",""1"",""6346""
","
","
","""event"",""trial"",""time""
""fullscreenenter"",""1"",""6346""
","
","","","","","","null","<div style=""font-size:60px;"">+</div>","null","","fixation","","",""
"memory-trial","205","678411","0.0-18.0-1.74","4462","approach_avoid_sv1","""event"",""trial"",""time""
""fullscreenenter"",""1"",""6346""
","
","
","""event"",""trial"",""time""
""fullscreenenter"",""1"",""6346""
","
","","","","","","1687.800000000745","images/truck3.png","","","memory_trial","4","definitely_new",""
"html-keyboard-response","206","678917","0.0-18.0-0.75","4462","approach_avoid_sv1","""event"",""trial"",""time""
""fullscreenenter"",""1"",""6346""
","
","
","""event"",""trial"",""time""
""fullscreenenter"",""1"",""6346""
","
","","","","","","null","<div style=""font-size:60px;"">+</div>","null","","fixation","","",""
"memory-trial","207","681701","0.0-18.0-1.75","4462","approach_avoid_sv1","""event"",""trial"",""time""
""fullscreenenter"",""1"",""6346""
","
","
","""event"",""trial"",""time""
""fullscreenenter"",""1"",""6346""
","
","","","","","","1778.800000000745","images/rabbit6.png","","","memory_trial","4","definitely_new",""
"html-keyboard-response","208","682208","0.0-18.0-0.76","4462","approach_avoid_sv1","""event"",""trial"",""time""
""fullscreenenter"",""1"",""6346""
","
","
","""event"",""trial"",""time""
""fullscreenenter"",""1"",""6346""
","
","","","","","","null","<div style=""font-size:60px;"">+</div>","null","","fixation","","",""
"memory-trial","209","684629","0.0-18.0-1.76","4462","approach_avoid_sv1","""event"",""trial"",""time""
""fullscreenenter"",""1"",""6346""
","
","
","""event"",""trial"",""time""
""fullscreenenter"",""1"",""6346""
","
","","","","","","1417.199999999255","images/rabbit7.png","","","memory_trial","1","definitely_old",""
"html-keyboard-response","210","685131","0.0-18.0-0.77","4462","approach_avoid_sv1","""event"",""trial"",""time""
""fullscreenenter"",""1"",""6346""
","
","
","""event"",""trial"",""time""
""fullscreenenter"",""1"",""6346""
","
","","","","","","null","<div style=""font-size:60px;"">+</div>","null","","fixation","","",""
"memory-trial","211","691552","0.0-18.0-1.77","4462","approach_avoid_sv1","""event"",""trial"",""time""
""fullscreenenter"",""1"",""6346""
","
","
","""event"",""trial"",""time""
""fullscreenenter"",""1"",""6346""
","
","","","","","","5414.89999999851","images/table2.png","","","memory_trial","1","definitely_old",""
"html-keyboard-response","212","692058","0.0-18.0-0.78","4462","approach_avoid_sv1","""event"",""trial"",""time""
""fullscreenenter"",""1"",""6346""
","
","
","""event"",""trial"",""time""
""fullscreenenter"",""1"",""6346""
","
","","","","","","null","<div style=""font-size:60px;"">+</div>","null","","fixation","","",""
"memory-trial","213","696645","0.0-18.0-1.78","4462","approach_avoid_sv1","""event"",""trial"",""time""
""fullscreenenter"",""1"",""6346""
","
","
","""event"",""trial"",""time""
""fullscreenenter"",""1"",""6346""
","
","","","","","","3582.699999999255","images/straw3.png","","","memory_trial","4","definitely_new",""
"html-keyboard-response","214","697152","0.0-18.0-0.79","4462","approach_avoid_sv1","""event"",""trial"",""time""
""fullscreenenter"",""1"",""6346""
","
","
","""event"",""trial"",""time""
""fullscreenenter"",""1"",""6346""
","
","","","","","","null","<div style=""font-size:60px;"">+</div>","null","","fixation","","",""
"memory-trial","215","702336","0.0-18.0-1.79","4462","approach_avoid_sv1","""event"",""trial"",""time""
""fullscreenenter"",""1"",""6346""
","
","
","""event"",""trial"",""time""
""fullscreenenter"",""1"",""6346""
","
","","","","","","4180.099999997765","images/cat1.png","","","memory_trial","4","definitely_new",""
"html-keyboard-response","216","702837","0.0-18.0-0.80","4462","approach_avoid_sv1","""event"",""trial"",""time""
""fullscreenenter"",""1"",""6346""
","
","
","""event"",""trial"",""time""
""fullscreenenter"",""1"",""6346""
","
","","","","","","null","<div style=""font-size:60px;"">+</div>","null","","fixation","","",""
"memory-trial","217","705974","0.0-18.0-1.80","4462","approach_avoid_sv1","""event"",""trial"",""time""
""fullscreenenter"",""1"",""6346""
","
","
","""event"",""trial"",""time""
""fullscreenenter"",""1"",""6346""
","
","","","","","","2128.400000002235","images/table4.png","","","memory_trial","4","definitely_new",""
"html-keyboard-response","218","706480","0.0-18.0-0.81","4462","approach_avoid_sv1","""event"",""trial"",""time""
""fullscreenenter"",""1"",""6346""
","
","
","""event"",""trial"",""time""
""fullscreenenter"",""1"",""6346""
","
","","","","","","null","<div style=""font-size:60px;"">+</div>","null","","fixation","","",""
"memory-trial","219","714486","0.0-18.0-1.81","4462","approach_avoid_sv1","""event"",""trial"",""time""
""fullscreenenter"",""1"",""6346""
","
","
","""event"",""trial"",""time""
""fullscreenenter"",""1"",""6346""
","
","","","","","","6998.300000000745","images/rodent2.png","","","memory_trial","4","definitely_new",""
"html-keyboard-response","220","714992","0.0-18.0-0.82","4462","approach_avoid_sv1","""event"",""trial"",""time""
""fullscreenenter"",""1"",""6346""
","
","
","""event"",""trial"",""time""
""fullscreenenter"",""1"",""6346""
","
","","","","","","null","<div style=""font-size:60px;"">+</div>","null","","fixation","","",""
"memory-trial","221","720107","0.0-18.0-1.82","4462","approach_avoid_sv1","""event"",""trial"",""time""
""fullscreenenter"",""1"",""6346""
","
","
","""event"",""trial"",""time""
""fullscreenenter"",""1"",""6346""
","
","","","","","","4111","images/cat8.png","","","memory_trial","4","definitely_new",""
"html-keyboard-response","222","720614","0.0-18.0-0.83","4462","approach_avoid_sv1","""event"",""trial"",""time""
""fullscreenenter"",""1"",""6346""
","
","
","""event"",""trial"",""time""
""fullscreenenter"",""1"",""6346""
","
","","","","","","null","<div style=""font-size:60px;"">+</div>","null","","fixation","","",""
"memory-trial","223","722902","0.0-18.0-1.83","4462","approach_avoid_sv1","""event"",""trial"",""time""
""fullscreenenter"",""1"",""6346""
","
","
","""event"",""trial"",""time""
""fullscreenenter"",""1"",""6346""
","
","","","","","","1284.699999999255","images/cow4.png","","","memory_trial","1","definitely_old",""
"html-keyboard-response","224","723408","0.0-18.0-0.84","4462","approach_avoid_sv1","""event"",""trial"",""time""
""fullscreenenter"",""1"",""6346""
","
","
","""event"",""trial"",""time""
""fullscreenenter"",""1"",""6346""
","
","","","","","","null","<div style=""font-size:60px;"">+</div>","null","","fixation","","",""
"memory-trial","225","725190","0.0-18.0-1.84","4462","approach_avoid_sv1","""event"",""trial"",""time""
""fullscreenenter"",""1"",""6346""
","
","
","""event"",""trial"",""time""
""fullscreenenter"",""1"",""6346""
","
","","","","","","774.5","images/train5.png","","","memory_trial","1","definitely_old",""
"html-keyboard-response","226","725696","0.0-18.0-0.85","4462","approach_avoid_sv1","""event"",""trial"",""time""
""fullscreenenter"",""1"",""6346""
","
","
","""event"",""trial"",""time""
""fullscreenenter"",""1"",""6346""
","
","","","","","","null","<div style=""font-size:60px;"">+</div>","null","","fixation","","",""
"memory-trial","227","727734","0.0-18.0-1.85","4462","approach_avoid_sv1","""event"",""trial"",""time""
""fullscreenenter"",""1"",""6346""
","
","
","""event"",""trial"",""time""
""fullscreenenter"",""1"",""6346""
","
","","","","","","1032.699999999255","images/chair5.png","","","memory_trial","4","definitely_new",""
"html-keyboard-response","228","728240","0.0-18.0-0.86","4462","approach_avoid_sv1","""event"",""trial"",""time""
""fullscreenenter"",""1"",""6346""
","
","
","""event"",""trial"",""time""
""fullscreenenter"",""1"",""6346""
","
","","","","","","null","<div style=""font-size:60px;"">+</div>","null","","fixation","","",""
"memory-trial","229","730153","0.0-18.0-1.86","4462","approach_avoid_sv1","""event"",""trial"",""time""
""fullscreenenter"",""1"",""6346""
","
","
","""event"",""trial"",""time""
""fullscreenenter"",""1"",""6346""
","
","","","","","","906.9000000022352","images/straw4.png","","","memory_trial","4","definitely_new",""
"html-keyboard-response","230","730657","0.0-18.0-0.87","4462","approach_avoid_sv1","""event"",""trial"",""time""
""fullscreenenter"",""1"",""6346""
","
","
","""event"",""trial"",""time""
""fullscreenenter"",""1"",""6346""
","
","","","","","","null","<div style=""font-size:60px;"">+</div>","null","","fixation","","",""
"memory-trial","231","733377","0.0-18.0-1.87","4462","approach_avoid_sv1","""event"",""trial"",""time""
""fullscreenenter"",""1"",""6346""
","
","
","""event"",""trial"",""time""
""fullscreenenter"",""1"",""6346""
","
","","","","","","1713.6000000014901","images/boat4.png","","","memory_trial","4","definitely_new",""
"html-keyboard-response","232","733883","0.0-18.0-0.88","4462","approach_avoid_sv1","""event"",""trial"",""time""
""fullscreenenter"",""1"",""6346""
","
","
","""event"",""trial"",""time""
""fullscreenenter"",""1"",""6346""
","
","","","","","","null","<div style=""font-size:60px;"">+</div>","null","","fixation","","",""
"memory-trial","233","736230","0.0-18.0-1.88","4462","approach_avoid_sv1","""event"",""trial"",""time""
""fullscreenenter"",""1"",""6346""
","
","
","""event"",""trial"",""time""
""fullscreenenter"",""1"",""6346""
","
","","","","","","1340.8999999985099","images/orange4.png","","","memory_trial","4","definitely_new",""
"html-keyboard-response","234","736737","0.0-18.0-0.89","4462","approach_avoid_sv1","""event"",""trial"",""time""
""fullscreenenter"",""1"",""6346""
","
","
","""event"",""trial"",""time""
""fullscreenenter"",""1"",""6346""
","
","","","","","","null","<div style=""font-size:60px;"">+</div>","null","","fixation","","",""
"memory-trial","235","738838","0.0-18.0-1.89","4462","approach_avoid_sv1","""event"",""trial"",""time""
""fullscreenenter"",""1"",""6346""
","
","
","""event"",""trial"",""time""
""fullscreenenter"",""1"",""6346""
","
","","","","","","1096","images/goat2.png","","","memory_trial","4","definitely_new",""
"html-keyboard-response","236","739345","0.0-18.0-0.90","4462","approach_avoid_sv1","""event"",""trial"",""time""
""fullscreenenter"",""1"",""6346""
","
","
","""event"",""trial"",""time""
""fullscreenenter"",""1"",""6346""
","
","","","","","","null","<div style=""font-size:60px;"">+</div>","null","","fixation","","",""
"memory-trial","237","741204","0.0-18.0-1.90","4462","approach_avoid_sv1","""event"",""trial"",""time""
""fullscreenenter"",""1"",""6346""
","
","
","""event"",""trial"",""time""
""fullscreenenter"",""1"",""6346""
","
","","","","","","851.6000000014901","images/rodent6.png","","","memory_trial","4","definitely_new",""
"html-keyboard-response","238","741708","0.0-18.0-0.91","4462","approach_avoid_sv1","""event"",""trial"",""time""
""fullscreenenter"",""1"",""6346""
","
","
","""event"",""trial"",""time""
""fullscreenenter"",""1"",""6346""
","
","","","","","","null","<div style=""font-size:60px;"">+</div>","null","","fixation","","",""
"memory-trial","239","743526","0.0-18.0-1.91","4462","approach_avoid_sv1","""event"",""trial"",""time""
""fullscreenenter"",""1"",""6346""
","
","
","""event"",""trial"",""time""
""fullscreenenter"",""1"",""6346""
","
","","","","","","812.1999999992549","images/flower2.png","","","memory_trial","1","definitely_old",""
"html-button-response","240","762786","0.0-18.0-2.91-0.91","4462","approach_avoid_sv1","""event"",""trial"",""time""
""fullscreenenter"",""1"",""6346""
","
","
","""event"",""trial"",""time""
""fullscreenenter"",""1"",""6346""
","
","","","","","","19257.20000000298","<p> Take a break! </p><p> Click the button to continue. </p>","0","","break","","",""
"html-keyboard-response","241","763287","0.0-18.0-0.92","4462","approach_avoid_sv1","""event"",""trial"",""time""
""fullscreenenter"",""1"",""6346""
","
","
","""event"",""trial"",""time""
""fullscreenenter"",""1"",""6346""
","
","","","","","","null","<div style=""font-size:60px;"">+</div>","null","","fixation","","",""
"memory-trial","242","765347","0.0-18.0-1.92","4462","approach_avoid_sv1","""event"",""trial"",""time""
""fullscreenenter"",""1"",""6346""
","
","
","""event"",""trial"",""time""
""fullscreenenter"",""1"",""6346""
","
","","","","","","1051.300000000745","images/rodent7.png","","","memory_trial","1","definitely_old",""
"html-keyboard-response","243","765852","0.0-18.0-0.93","4462","approach_avoid_sv1","""event"",""trial"",""time""
""fullscreenenter"",""1"",""6346""
","
","
","""event"",""trial"",""time""
""fullscreenenter"",""1"",""6346""
","
","","","","","","null","<div style=""font-size:60px;"">+</div>","null","","fixation","","",""
"memory-trial","244","769036","0.0-18.0-1.93","4462","approach_avoid_sv1","""event"",""trial"",""time""
""fullscreenenter"",""1"",""6346""
","
","
","""event"",""trial"",""time""
""fullscreenenter"",""1"",""6346""
","
","","","","","","2176.099999997765","images/horse2.png","","","memory_trial","4","definitely_new",""
"html-keyboard-response","245","769542","0.0-18.0-0.94","4462","approach_avoid_sv1","""event"",""trial"",""time""
""fullscreenenter"",""1"",""6346""
","
","
","""event"",""trial"",""time""
""fullscreenenter"",""1"",""6346""
","
","","","","","","null","<div style=""font-size:60px;"">+</div>","null","","fixation","","",""
"memory-trial","246","772120","0.0-18.0-1.94","4462","approach_avoid_sv1","""event"",""trial"",""time""
""fullscreenenter"",""1"",""6346""
","
","
","""event"",""trial"",""time""
""fullscreenenter"",""1"",""6346""
","
","","","","","","1573.2999999970198","images/tree7.png","","","memory_trial","4","definitely_new",""
"html-keyboard-response","247","772625","0.0-18.0-0.95","4462","approach_avoid_sv1","""event"",""trial"",""time""
""fullscreenenter"",""1"",""6346""
","
","
","""event"",""trial"",""time""
""fullscreenenter"",""1"",""6346""
","
","","","","","","null","<div style=""font-size:60px;"">+</div>","null","","fixation","","",""
"memory-trial","248","776066","0.0-18.0-1.95","4462","approach_avoid_sv1","""event"",""trial"",""time""
""fullscreenenter"",""1"",""6346""
","
","
","""event"",""trial"",""time""
""fullscreenenter"",""1"",""6346""
","
","","","","","","2434","images/apple3.png","","","memory_trial","4","definitely_new",""
"html-keyboard-response","249","776570","0.0-18.0-0.96","4462","approach_avoid_sv1","""event"",""trial"",""time""
""fullscreenenter"",""1"",""6346""
","
","
","""event"",""trial"",""time""
""fullscreenenter"",""1"",""6346""
","
","","","","","","null","<div style=""font-size:60px;"">+</div>","null","","fixation","","",""
"memory-trial","250","778387","0.0-18.0-1.96","4462","approach_avoid_sv1","""event"",""trial"",""time""
""fullscreenenter"",""1"",""6346""
","
","
","""event"",""trial"",""time""
""fullscreenenter"",""1"",""6346""
","
","","","","","","810.2999999970198","images/train6.png","","","memory_trial","1","definitely_old",""
"html-keyboard-response","251","778892","0.0-18.0-0.97","4462","approach_avoid_sv1","""event"",""trial"",""time""
""fullscreenenter"",""1"",""6346""
","
","
","""event"",""trial"",""time""
""fullscreenenter"",""1"",""6346""
","
","","","","","","null","<div style=""font-size:60px;"">+</div>","null","","fixation","","",""
"memory-trial","252","780887","0.0-18.0-1.97","4462","approach_avoid_sv1","""event"",""trial"",""time""
""fullscreenenter"",""1"",""6346""
","
","
","""event"",""trial"",""time""
""fullscreenenter"",""1"",""6346""
","
","","","","","","989.1999999992549","images/dog5.png","","","memory_trial","1","definitely_old",""
"html-keyboard-response","253","781388","0.0-18.0-0.98","4462","approach_avoid_sv1","""event"",""trial"",""time""
""fullscreenenter"",""1"",""6346""
","
","
","""event"",""trial"",""time""
""fullscreenenter"",""1"",""6346""
","
","","","","","","null","<div style=""font-size:60px;"">+</div>","null","","fixation","","",""
"memory-trial","254","785223","0.0-18.0-1.98","4462","approach_avoid_sv1","""event"",""trial"",""time""
""fullscreenenter"",""1"",""6346""
","
","
","""event"",""trial"",""time""
""fullscreenenter"",""1"",""6346""
","
","","","","","","2827","images/sofa3.png","","","memory_trial","4","definitely_new",""
"html-keyboard-response","255","785729","0.0-18.0-0.99","4462","approach_avoid_sv1","""event"",""trial"",""time""
""fullscreenenter"",""1"",""6346""
","
","
","""event"",""trial"",""time""
""fullscreenenter"",""1"",""6346""
","
","","","","","","null","<div style=""font-size:60px;"">+</div>","null","","fixation","","",""
"memory-trial","256","788037","0.0-18.0-1.99","4462","approach_avoid_sv1","""event"",""trial"",""time""
""fullscreenenter"",""1"",""6346""
","
","
","""event"",""trial"",""time""
""fullscreenenter"",""1"",""6346""
","
","","","","","","1301.199999999255","images/bush1.png","","","memory_trial","1","definitely_old",""
"html-keyboard-response","257","788540","0.0-18.0-0.100","4462","approach_avoid_sv1","""event"",""trial"",""time""
""fullscreenenter"",""1"",""6346""
","
","
","""event"",""trial"",""time""
""fullscreenenter"",""1"",""6346""
","
","","","","","","null","<div style=""font-size:60px;"">+</div>","null","","fixation","","",""
"memory-trial","258","790578","0.0-18.0-1.100","4462","approach_avoid_sv1","""event"",""trial"",""time""
""fullscreenenter"",""1"",""6346""
","
","
","""event"",""trial"",""time""
""fullscreenenter"",""1"",""6346""
","
","","","","","","1029.699999999255","images/plane8.png","","","memory_trial","1","definitely_old",""
"html-keyboard-response","259","791084","0.0-18.0-0.101","4462","approach_avoid_sv1","""event"",""trial"",""time""
""fullscreenenter"",""1"",""6346""
","
","
","""event"",""trial"",""time""
""fullscreenenter"",""1"",""6346""
","
","","","","","","null","<div style=""font-size:60px;"">+</div>","null","","fixation","","",""
"memory-trial","260","794045","0.0-18.0-1.101","4462","approach_avoid_sv1","""event"",""trial"",""time""
""fullscreenenter"",""1"",""6346""
","
","
","""event"",""trial"",""time""
""fullscreenenter"",""1"",""6346""
","
","","","","","","1955.300000000745","images/straw7.png","","","memory_trial","4","definitely_new",""
"html-keyboard-response","261","794551","0.0-18.0-0.102","4462","approach_avoid_sv1","""event"",""trial"",""time""
""fullscreenenter"",""1"",""6346""
","
","
","""event"",""trial"",""time""
""fullscreenenter"",""1"",""6346""
","
","","","","","","null","<div style=""font-size:60px;"">+</div>","null","","fixation","","",""
"memory-trial","262","796679","0.0-18.0-1.102","4462","approach_avoid_sv1","""event"",""trial"",""time""
""fullscreenenter"",""1"",""6346""
","
","
","""event"",""trial"",""time""
""fullscreenenter"",""1"",""6346""
","
","","","","","","1123","images/rodent4.png","","","memory_trial","1","definitely_old",""
"html-keyboard-response","263","797186","0.0-18.0-0.103","4462","approach_avoid_sv1","""event"",""trial"",""time""
""fullscreenenter"",""1"",""6346""
","
","
","""event"",""trial"",""time""
""fullscreenenter"",""1"",""6346""
","
","","","","","","null","<div style=""font-size:60px;"">+</div>","null","","fixation","","",""
"memory-trial","264","799346","0.0-18.0-1.103","4462","approach_avoid_sv1","""event"",""trial"",""time""
""fullscreenenter"",""1"",""6346""
","
","
","""event"",""trial"",""time""
""fullscreenenter"",""1"",""6346""
","
","","","","","","1155.800000000745","images/goat7.png","","","memory_trial","4","definitely_new",""
"html-keyboard-response","265","799852","0.0-18.0-0.104","4462","approach_avoid_sv1","""event"",""trial"",""time""
""fullscreenenter"",""1"",""6346""
","
","
","""event"",""trial"",""time""
""fullscreenenter"",""1"",""6346""
","
","","","","","","null","<div style=""font-size:60px;"">+</div>","null","","fixation","","",""
"memory-trial","266","805380","0.0-18.0-1.104","4462","approach_avoid_sv1","""event"",""trial"",""time""
""fullscreenenter"",""1"",""6346""
","
","
","""event"",""trial"",""time""
""fullscreenenter"",""1"",""6346""
","
","","","","","","4520.5","images/chair4.png","","","memory_trial","3","maybe_new",""
"html-keyboard-response","267","805885","0.0-18.0-0.105","4462","approach_avoid_sv1","""event"",""trial"",""time""
""fullscreenenter"",""1"",""6346""
","
","
","""event"",""trial"",""time""
""fullscreenenter"",""1"",""6346""
","
","","","","","","null","<div style=""font-size:60px;"">+</div>","null","","fixation","","",""
"memory-trial","268","810173","0.0-18.0-1.105","4462","approach_avoid_sv1","""event"",""trial"",""time""
""fullscreenenter"",""1"",""6346""
","
","
","""event"",""trial"",""time""
""fullscreenenter"",""1"",""6346""
","
","","","","","","3281","images/cactus4.png","","","memory_trial","1","definitely_old",""
"html-keyboard-response","269","810679","0.0-18.0-0.106","4462","approach_avoid_sv1","""event"",""trial"",""time""
""fullscreenenter"",""1"",""6346""
","
","
","""event"",""trial"",""time""
""fullscreenenter"",""1"",""6346""
","
","","","","","","null","<div style=""font-size:60px;"">+</div>","null","","fixation","","",""
"memory-trial","270","813448","0.0-18.0-1.106","4462","approach_avoid_sv1","""event"",""trial"",""time""
""fullscreenenter"",""1"",""6346""
","
","
","""event"",""trial"",""time""
""fullscreenenter"",""1"",""6346""
","
","","","","","","1760.5","images/cat7.png","","","memory_trial","1","definitely_old",""
"html-keyboard-response","271","813950","0.0-18.0-0.107","4462","approach_avoid_sv1","""event"",""trial"",""time""
""fullscreenenter"",""1"",""6346""
","
","
","""event"",""trial"",""time""
""fullscreenenter"",""1"",""6346""
","
","","","","","","null","<div style=""font-size:60px;"">+</div>","null","","fixation","","",""
"memory-trial","272","817711","0.0-18.0-1.107","4462","approach_avoid_sv1","""event"",""trial"",""time""
""fullscreenenter"",""1"",""6346""
","
","
","""event"",""trial"",""time""
""fullscreenenter"",""1"",""6346""
","
","","","","","","2754.7999999970198","images/cat6.png","","","memory_trial","4","definitely_new",""
"html-keyboard-response","273","818216","0.0-18.0-0.108","4462","approach_avoid_sv1","""event"",""trial"",""time""
""fullscreenenter"",""1"",""6346""
","
","
","""event"",""trial"",""time""
""fullscreenenter"",""1"",""6346""
","
","","","","","","null","<div style=""font-size:60px;"">+</div>","null","","fixation","","",""
"memory-trial","274","820466","0.0-18.0-1.108","4462","approach_avoid_sv1","""event"",""trial"",""time""
""fullscreenenter"",""1"",""6346""
","
","
","""event"",""trial"",""time""
""fullscreenenter"",""1"",""6346""
","
","","","","","","1243.5","images/chair1.png","","","memory_trial","1","definitely_old",""
"html-keyboard-response","275","820972","0.0-18.0-0.109","4462","approach_avoid_sv1","""event"",""trial"",""time""
""fullscreenenter"",""1"",""6346""
","
","
","""event"",""trial"",""time""
""fullscreenenter"",""1"",""6346""
","
","","","","","","null","<div style=""font-size:60px;"">+</div>","null","","fixation","","",""
"memory-trial","276","823309","0.0-18.0-1.109","4462","approach_avoid_sv1","""event"",""trial"",""time""
""fullscreenenter"",""1"",""6346""
","
","
","""event"",""trial"",""time""
""fullscreenenter"",""1"",""6346""
","
","","","","","","1333.199999999255","images/flower8.png","","","memory_trial","1","definitely_old",""
"html-keyboard-response","277","823815","0.0-18.0-0.110","4462","approach_avoid_sv1","""event"",""trial"",""time""
""fullscreenenter"",""1"",""6346""
","
","
","""event"",""trial"",""time""
""fullscreenenter"",""1"",""6346""
","
","","","","","","null","<div style=""font-size:60px;"">+</div>","null","","fixation","","",""
"memory-trial","278","825789","0.0-18.0-1.110","4462","approach_avoid_sv1","""event"",""trial"",""time""
""fullscreenenter"",""1"",""6346""
","
","
","""event"",""trial"",""time""
""fullscreenenter"",""1"",""6346""
","
","","","","","","967.5","images/truck6.png","","","memory_trial","1","definitely_old",""
"html-keyboard-response","279","826292","0.0-18.0-0.111","4462","approach_avoid_sv1","""event"",""trial"",""time""
""fullscreenenter"",""1"",""6346""
","
","
","""event"",""trial"",""time""
""fullscreenenter"",""1"",""6346""
","
","","","","","","null","<div style=""font-size:60px;"">+</div>","null","","fixation","","",""
"memory-trial","280","828803","0.0-18.0-1.111","4462","approach_avoid_sv1","""event"",""trial"",""time""
""fullscreenenter"",""1"",""6346""
","
","
","""event"",""trial"",""time""
""fullscreenenter"",""1"",""6346""
","
","","","","","","1505.699999999255","images/rabbit5.png","","","memory_trial","1","definitely_old",""
"html-keyboard-response","281","829309","0.0-18.0-0.112","4462","approach_avoid_sv1","""event"",""trial"",""time""
""fullscreenenter"",""1"",""6346""
","
","
","""event"",""trial"",""time""
""fullscreenenter"",""1"",""6346""
","
","","","","","","null","<div style=""font-size:60px;"">+</div>","null","","fixation","","",""
"memory-trial","282","831528","0.0-18.0-1.112","4462","approach_avoid_sv1","""event"",""trial"",""time""
""fullscreenenter"",""1"",""6346""
","
","
","""event"",""trial"",""time""
""fullscreenenter"",""1"",""6346""
","
","","","","","","1212","images/bed8.png","","","memory_trial","2","maybe_old",""
"html-keyboard-response","283","832034","0.0-18.0-0.113","4462","approach_avoid_sv1","""event"",""trial"",""time""
""fullscreenenter"",""1"",""6346""
","
","
","""event"",""trial"",""time""
""fullscreenenter"",""1"",""6346""
","
","","","","","","null","<div style=""font-size:60px;"">+</div>","null","","fixation","","",""
"memory-trial","284","835199","0.0-18.0-1.113","4462","approach_avoid_sv1","""event"",""trial"",""time""
""fullscreenenter"",""1"",""6346""
","
","
","""event"",""trial"",""time""
""fullscreenenter"",""1"",""6346""
","
","","","","","","2155.800000000745","images/boat5.png","","","memory_trial","4","definitely_new",""
"html-keyboard-response","285","835704","0.0-18.0-0.114","4462","approach_avoid_sv1","""event"",""trial"",""time""
""fullscreenenter"",""1"",""6346""
","
","
","""event"",""trial"",""time""
""fullscreenenter"",""1"",""6346""
","
","","","","","","null","<div style=""font-size:60px;"">+</div>","null","","fixation","","",""
"memory-trial","286","837785","0.0-18.0-1.114","4462","approach_avoid_sv1","""event"",""trial"",""time""
""fullscreenenter"",""1"",""6346""
","
","
","""event"",""trial"",""time""
""fullscreenenter"",""1"",""6346""
","
","","","","","","1076.3999999985099","images/cactus2.png","","","memory_trial","1","definitely_old",""
"html-keyboard-response","287","838290","0.0-18.0-0.115","4462","approach_avoid_sv1","""event"",""trial"",""time""
""fullscreenenter"",""1"",""6346""
","
","
","""event"",""trial"",""time""
""fullscreenenter"",""1"",""6346""
","
","","","","","","null","<div style=""font-size:60px;"">+</div>","null","","fixation","","",""
"memory-trial","288","840675","0.0-18.0-1.115","4462","approach_avoid_sv1","""event"",""trial"",""time""
""fullscreenenter"",""1"",""6346""
","
","
","""event"",""trial"",""time""
""fullscreenenter"",""1"",""6346""
","
","","","","","","1379.8999999985099","images/table5.png","","","memory_trial","4","definitely_new",""
"html-keyboard-response","289","841181","0.0-18.0-0.116","4462","approach_avoid_sv1","""event"",""trial"",""time""
""fullscreenenter"",""1"",""6346""
","
","
","""event"",""trial"",""time""
""fullscreenenter"",""1"",""6346""
","
","","","","","","null","<div style=""font-size:60px;"">+</div>","null","","fixation","","",""
"memory-trial","290","843918","0.0-18.0-1.116","4462","approach_avoid_sv1","""event"",""trial"",""time""
""fullscreenenter"",""1"",""6346""
","
","
","""event"",""trial"",""time""
""fullscreenenter"",""1"",""6346""
","
","","","","","","1731.699999999255","images/dog7.png","","","memory_trial","1","definitely_old",""
"html-keyboard-response","291","844424","0.0-18.0-0.117","4462","approach_avoid_sv1","""event"",""trial"",""time""
""fullscreenenter"",""1"",""6346""
","
","
","""event"",""trial"",""time""
""fullscreenenter"",""1"",""6346""
","
","","","","","","null","<div style=""font-size:60px;"">+</div>","null","","fixation","","",""
"memory-trial","292","849155","0.0-18.0-1.117","4462","approach_avoid_sv1","""event"",""trial"",""time""
""fullscreenenter"",""1"",""6346""
","
","
","""event"",""trial"",""time""
""fullscreenenter"",""1"",""6346""
","
","","","","","","3723.89999999851","images/boat8.png","","","memory_trial","4","definitely_new",""
"html-keyboard-response","293","849661","0.0-18.0-0.118","4462","approach_avoid_sv1","""event"",""trial"",""time""
""fullscreenenter"",""1"",""6346""
","
","
","""event"",""trial"",""time""
""fullscreenenter"",""1"",""6346""
","
","","","","","","null","<div style=""font-size:60px;"">+</div>","null","","fixation","","",""
"memory-trial","294","852963","0.0-18.0-1.118","4462","approach_avoid_sv1","""event"",""trial"",""time""
""fullscreenenter"",""1"",""6346""
","
","
","""event"",""trial"",""time""
""fullscreenenter"",""1"",""6346""
","
","","","","","","2296.89999999851","images/sheep4.png","","","memory_trial","1","definitely_old",""
"html-keyboard-response","295","853469","0.0-18.0-0.119","4462","approach_avoid_sv1","""event"",""trial"",""time""
""fullscreenenter"",""1"",""6346""
","
","
","""event"",""trial"",""time""
""fullscreenenter"",""1"",""6346""
","
