"trial_type","trial_index","time_elapsed","internal_node_id","subject_id","task_version","interactions","blur_events","focus_events","fullscreenenter_events","fullscreenexit_events","success","timeout","failed_images","failed_audio","failed_video","rt","stimulus","response","button_pressed","task_part","key_press","answer","correct"
"pavlovia","0","4","0.0-0.0","5036","approach_avoid_sv1","""event"",""trial"",""time""
""fullscreenenter"",""1"",""2655""
","
","
","""event"",""trial"",""time""
""fullscreenenter"",""1"",""2655""
","
","","","","","","","","","","","","",""
"fullscreen","1","3647","0.0-1.0","5036","approach_avoid_sv1","""event"",""trial"",""time""
""fullscreenenter"",""1"",""2655""
","
","
","""event"",""trial"",""time""
""fullscreenenter"",""1"",""2655""
","
","true","","","","","","","","","","","",""
"preload","2","4812","0.0-2.0","5036","approach_avoid_sv1","""event"",""trial"",""time""
""fullscreenenter"",""1"",""2655""
","
","
","""event"",""trial"",""time""
""fullscreenenter"",""1"",""2655""
","
","true","false","[]","[]","[]","","","","","","","",""
"preload","3","5446","0.0-3.0","5036","approach_avoid_sv1","""event"",""trial"",""time""
""fullscreenenter"",""1"",""2655""
","
","
","""event"",""trial"",""time""
""fullscreenenter"",""1"",""2655""
","
","true","false","[]","[]","[]","","","","","","","",""
"preload","4","5647","0.0-4.0","5036","approach_avoid_sv1","""event"",""trial"",""time""
""fullscreenenter"",""1"",""2655""
","
","
","""event"",""trial"",""time""
""fullscreenenter"",""1"",""2655""
","
","true","false","[]","[]","[]","","","","","","","",""
"audio-keyboard-response","5","7314","0.0-5.0","5036","approach_avoid_sv1","""event"",""trial"",""time""
""fullscreenenter"",""1"",""2655""
","
","
","""event"",""trial"",""time""
""fullscreenenter"",""1"",""2655""
","
","","","","","","1666.031746031746","audio/beep_loop.wav"," ","","","","",""
"audio-button-response","6","9381","0.0-6.0","5036","approach_avoid_sv1","""event"",""trial"",""time""
""fullscreenenter"",""1"",""2655""
","
","
","""event"",""trial"",""time""
""fullscreenenter"",""1"",""2655""
","
","","","","","","2067","audio/turtle.wav","3","","","","",""
"audio-button-response","7","11481","0.0-7.0","5036","approach_avoid_sv1","""event"",""trial"",""time""
""fullscreenenter"",""1"",""2655""
","
","
","""event"",""trial"",""time""
""fullscreenenter"",""1"",""2655""
","
","","","","","","1097","audio/shark.wav","2","","","","",""
"preload","8","13822","0.0-8.0","5036","approach_avoid_sv1","""event"",""trial"",""time""
""fullscreenenter"",""1"",""2655""
","
","
","""event"",""trial"",""time""
""fullscreenenter"",""1"",""2655""
","
","true","false","[]","[]","[]","","","","","","","",""
"learning-instructions","9","20017","0.0-9.0-0.0","5036","approach_avoid_sv1","""event"",""trial"",""time""
""fullscreenenter"",""1"",""2655""
","
","
","""event"",""trial"",""time""
""fullscreenenter"",""1"",""2655""
","
","","","","","","1717.1000000238419","<p> Welcome back! </p><p> Last week, you had to make choices about lots of different items.  </p>","","0","instructions","","",""
"learning-instructions","10","24634","0.0-9.0-0.1","5036","approach_avoid_sv1","""event"",""trial"",""time""
""fullscreenenter"",""1"",""2655""
","
","
","""event"",""trial"",""time""
""fullscreenenter"",""1"",""2655""
","
","","","","","","506.69999998807907","<p> Today, we are going to ask you to try to remember all the items. </p>","","0","instructions","","",""
"learning-instructions","11","35169","0.0-9.0-0.2","5036","approach_avoid_sv1","""event"",""trial"",""time""
""fullscreenenter"",""1"",""2655""
","
","
","""event"",""trial"",""time""
""fullscreenenter"",""1"",""2655""
","
","","","","","","407.30000001192093","<p> On every trial, you will see an image. </p><p> The image may be an OLD image you saw during the games last week or it may be a NEW image that was not presented. </p>","","0","instructions","","",""
"learning-instructions","12","44138","0.0-9.0-0.3","5036","approach_avoid_sv1","""event"",""trial"",""time""
""fullscreenenter"",""1"",""2655""
","
","
","""event"",""trial"",""time""
""fullscreenenter"",""1"",""2655""
","
","","","","","","476.80000001192093","<p> You need to select whether the image is:  </p><p>  'Definitely old', 'Maybe old', 'Maybe new', or 'Definitely new.'  </p><div class=""mem-choice-instructions-grid""><div class=""choice-option"" id=""choice-option-1"" ><img src=""images/definitely_old_1.png"" id=""choice-option-img-1"" class=""choice-option-img"" stage=""1""></div><div class=""choice-option"" id=""choice-option-2"" ><img src=""images/maybe_old_1.png"" id=""choice-option-img-2"" class=""choice-option-img"" stage=""1""></div><div class=""choice-option"" id=""choice-option-3"" ><img src=""images/maybe_new_1.png"" id=""choice-option-img-3"" class=""choice-option-img"" stage=""1""></div><div class=""choice-option"" id=""choice-option-4"" > <img src=""images/definitely_new_1.png"" id=""choice-option-img-4"" class=""choice-option-img"" stage=""1""></div></div>","","0","instructions","","",""
"learning-instructions","13","51806","0.0-9.0-0.4","5036","approach_avoid_sv1","""event"",""trial"",""time""
""fullscreenenter"",""1"",""2655""
","
","
","""event"",""trial"",""time""
""fullscreenenter"",""1"",""2655""
","
","","","","","","1155.800000011921","<p> You should use the 1, 2, 3, and 4 keys to make your responses.  </p><div class=""mem-choice-instructions-grid""><div class=""choice-option"" id=""choice-option-1"" ><img src=""images/definitely_old.png"" id=""choice-option-img-1"" class=""choice-option-img"" stage=""1""></div><div class=""choice-option"" id=""choice-option-2"" ><img src=""images/maybe_old.png"" id=""choice-option-img-2"" class=""choice-option-img"" stage=""1""></div><div class=""choice-option"" id=""choice-option-3"" ><img src=""images/maybe_new.png"" id=""choice-option-img-3"" class=""choice-option-img"" stage=""1""></div><div class=""choice-option"" id=""choice-option-4"" > <img src=""images/definitely_new.png"" id=""choice-option-img-4"" class=""choice-option-img"" stage=""1""></div></div>","","0","instructions","","",""
"learning-instructions","14","59257","0.0-9.0-0.5","5036","approach_avoid_sv1","""event"",""trial"",""time""
""fullscreenenter"",""1"",""2655""
","
","
","""event"",""trial"",""time""
""fullscreenenter"",""1"",""2655""
","
","","","","","","1131.0999999642372","<p> You will have 10 seconds to make each response.  </p><p>  Make sure to respond before time runs out! </p>","","0","instructions","","",""
"learning-instructions","15","67393","0.0-9.0-0.6","5036","approach_avoid_sv1","""event"",""trial"",""time""
""fullscreenenter"",""1"",""2655""
","
","
","""event"",""trial"",""time""
""fullscreenenter"",""1"",""2655""
","
","","","","","","1058.7999999523163","<p> Today, you will see each image ONCE only.  </p><p>  That means none of the images will repeat. </p>","","0","instructions","","",""
"learning-instructions","16","80496","0.0-9.0-0.7","5036","approach_avoid_sv1","""event"",""trial"",""time""
""fullscreenenter"",""1"",""2655""
","
","
","""event"",""trial"",""time""
""fullscreenenter"",""1"",""2655""
","
","","","","","","439.2999999523163","<p> Before you play the real game, it is time to practice. </p><p>  Just like in the real game, some of the images in the practice will be ones you have seen before. </p><p>  Others will be entirely new. </p>","","0","instructions","","",""
"html-button-response","17","88565","0.0-10.0","5036","approach_avoid_sv1","""event"",""trial"",""time""
""fullscreenenter"",""1"",""2655""
","
","
","""event"",""trial"",""time""
""fullscreenenter"",""1"",""2655""
","
","","","","","","7967.200000047684","<p> Ready to practice? </p><p> Remember, use the 1, 2, 3, and 4 keys to make your responses. </p>","0","","instructions","","",""
"html-keyboard-response","18","89168","0.0-11.0-0.0","5036","approach_avoid_sv1","""event"",""trial"",""time""
""fullscreenenter"",""1"",""2655""
","
","
","""event"",""trial"",""time""
""fullscreenenter"",""1"",""2655""
","
","","","","","","null","<div style=""font-size:60px;"">+</div>","null","","fixation","","",""
"memory-trial","19","92936","0.0-11.0-1.0","5036","approach_avoid_sv1","""event"",""trial"",""time""
""fullscreenenter"",""1"",""2655""
","
","
","""event"",""trial"",""time""
""fullscreenenter"",""1"",""2655""
","
","","","","","","2764.800000011921","images/racket3.png","","","practice","1","definitely_old",""
"html-keyboard-response","20","93437","0.0-11.0-0.1","5036","approach_avoid_sv1","""event"",""trial"",""time""
""fullscreenenter"",""1"",""2655""
","
","
","""event"",""trial"",""time""
""fullscreenenter"",""1"",""2655""
","
","","","","","","null","<div style=""font-size:60px;"">+</div>","null","","fixation","","",""
"memory-trial","21","95855","0.0-11.0-1.1","5036","approach_avoid_sv1","""event"",""trial"",""time""
""fullscreenenter"",""1"",""2655""
","
","
","""event"",""trial"",""time""
""fullscreenenter"",""1"",""2655""
","
","","","","","","1415.5","images/ball2.png","","","practice","1","definitely_old",""
"html-keyboard-response","22","96360","0.0-11.0-0.2","5036","approach_avoid_sv1","""event"",""trial"",""time""
""fullscreenenter"",""1"",""2655""
","
","
","""event"",""trial"",""time""
""fullscreenenter"",""1"",""2655""
","
","","","","","","null","<div style=""font-size:60px;"">+</div>","null","","fixation","","",""
"memory-trial","23","99730","0.0-11.0-1.2","5036","approach_avoid_sv1","""event"",""trial"",""time""
""fullscreenenter"",""1"",""2655""
","
","
","""event"",""trial"",""time""
""fullscreenenter"",""1"",""2655""
","
","","","","","","2365.199999988079","images/racket2.png","","","practice","2","maybe_old",""
"html-keyboard-response","24","100234","0.0-11.0-0.3","5036","approach_avoid_sv1","""event"",""trial"",""time""
""fullscreenenter"",""1"",""2655""
","
","
","""event"",""trial"",""time""
""fullscreenenter"",""1"",""2655""
","
","","","","","","null","<div style=""font-size:60px;"">+</div>","null","","fixation","","",""
"memory-trial","25","102886","0.0-11.0-1.3","5036","approach_avoid_sv1","""event"",""trial"",""time""
""fullscreenenter"",""1"",""2655""
","
","
","""event"",""trial"",""time""
""fullscreenenter"",""1"",""2655""
","
","","","","","","1650.6000000238419","images/racket1.png","","","practice","4","definitely_new",""
"html-keyboard-response","26","103387","0.0-11.0-0.4","5036","approach_avoid_sv1","""event"",""trial"",""time""
""fullscreenenter"",""1"",""2655""
","
","
","""event"",""trial"",""time""
""fullscreenenter"",""1"",""2655""
","
","","","","","","null","<div style=""font-size:60px;"">+</div>","null","","fixation","","",""
"memory-trial","27","106055","0.0-11.0-1.4","5036","approach_avoid_sv1","""event"",""trial"",""time""
""fullscreenenter"",""1"",""2655""
","
","
","""event"",""trial"",""time""
""fullscreenenter"",""1"",""2655""
","
","","","","","","1665.199999988079","images/ball3.png","","","practice","4","definitely_new",""
"html-keyboard-response","28","106559","0.0-11.0-0.5","5036","approach_avoid_sv1","""event"",""trial"",""time""
""fullscreenenter"",""1"",""2655""
","
","
","""event"",""trial"",""time""
""fullscreenenter"",""1"",""2655""
","
","","","","","","null","<div style=""font-size:60px;"">+</div>","null","","fixation","","",""
"memory-trial","29","109016","0.0-11.0-1.5","5036","approach_avoid_sv1","""event"",""trial"",""time""
""fullscreenenter"",""1"",""2655""
","
","
","""event"",""trial"",""time""
""fullscreenenter"",""1"",""2655""
","
","","","","","","1453.7999999523163","images/ball1.png","","","practice","3","maybe_new",""
"html-keyboard-response","30","109517","0.0-11.0-0.6","5036","approach_avoid_sv1","""event"",""trial"",""time""
""fullscreenenter"",""1"",""2655""
","
","
","""event"",""trial"",""time""
""fullscreenenter"",""1"",""2655""
","
","","","","","","null","<div style=""font-size:60px;"">+</div>","null","","fixation","","",""
"memory-trial","31","112070","0.0-11.0-1.6","5036","approach_avoid_sv1","""event"",""trial"",""time""
""fullscreenenter"",""1"",""2655""
","
","
","""event"",""trial"",""time""
""fullscreenenter"",""1"",""2655""
","
","","","","","","1550.4000000357628","images/racket5.png","","","practice","2","maybe_old",""
"html-keyboard-response","32","112575","0.0-11.0-0.7","5036","approach_avoid_sv1","""event"",""trial"",""time""
""fullscreenenter"",""1"",""2655""
","
","
","""event"",""trial"",""time""
""fullscreenenter"",""1"",""2655""
","
","","","","","","null","<div style=""font-size:60px;"">+</div>","null","","fixation","","",""
"memory-trial","33","115193","0.0-11.0-1.7","5036","approach_avoid_sv1","""event"",""trial"",""time""
""fullscreenenter"",""1"",""2655""
","
","
","""event"",""trial"",""time""
""fullscreenenter"",""1"",""2655""
","
","","","","","","1613.5999999642372","images/ball5.png","","","practice","2","maybe_old",""
"learning-instructions","34","123544","0.0-12.0-0.0","5036","approach_avoid_sv1","""event"",""trial"",""time""
""fullscreenenter"",""1"",""2655""
","
","
","""event"",""trial"",""time""
""fullscreenenter"",""1"",""2655""
","
","","","","","","1027.9000000357628","<p> Great! You have completed the practice. </p><p> Before you start, we're going to ask you a few questions about how the game works.  </p>","","0","instructions","","",""
"preload","35","124699","0.0-13.0","5036","approach_avoid_sv1","""event"",""trial"",""time""
""fullscreenenter"",""1"",""2655""
","
","
","""event"",""trial"",""time""
""fullscreenenter"",""1"",""2655""
","
","true","false","[]","[]","[]","","","","","","","",""
"comp-q","36","131446","0.0-14.0-0.0","5036","approach_avoid_sv1","""event"",""trial"",""time""
""fullscreenenter"",""1"",""2655""
","
","
","""event"",""trial"",""time""
""fullscreenenter"",""1"",""2655""
","
","","","","","","919","<p> <b> True or False? </b> </p><p> In this game, you will only see each image once. </p>","","0","comp_question","","","true"
"comp-q","37","138831","0.0-14.0-1.0","5036","approach_avoid_sv1","""event"",""trial"",""time""
""fullscreenenter"",""1"",""2655""
","
","
","""event"",""trial"",""time""
""fullscreenenter"",""1"",""2655""
","
","","","","","","1047.800000011921","<p> <b> That's right! </b> You will see many different images <i> one time each </i> in this game. </p>","","0","comp_answer","","",""
"comp-q","38","144382","0.0-15.0-0.0","5036","approach_avoid_sv1","""event"",""trial"",""time""
""fullscreenenter"",""1"",""2655""
","
","
","""event"",""trial"",""time""
""fullscreenenter"",""1"",""2655""
","
","","","","","","544.8000000119209","<p> <b> True or False? </b> </p><p> You should use the mouse and click to make your response. </p>","","1","comp_question","","","true"
"comp-q","39","151617","0.0-15.0-1.0","5036","approach_avoid_sv1","""event"",""trial"",""time""
""fullscreenenter"",""1"",""2655""
","
","
","""event"",""trial"",""time""
""fullscreenenter"",""1"",""2655""
","
","","","","","","732.1999999880791","<p><b> That's right! </b> You should use the '1', '2', '3', and '4' keys to make your response. </p>","","0","comp_answer","","",""
"comp-q","40","157752","0.0-16.0-0.0","5036","approach_avoid_sv1","""event"",""trial"",""time""
""fullscreenenter"",""1"",""2655""
","
","
","""event"",""trial"",""time""
""fullscreenenter"",""1"",""2655""
","
","","","","","","458.69999998807907","<p> <b> True or False? </b> </p><p> You will have as much time as you want to make each choice. </p>","","1","comp_question","","","true"
"comp-q","41","163469","0.0-16.0-1.0","5036","approach_avoid_sv1","""event"",""trial"",""time""
""fullscreenenter"",""1"",""2655""
","
","
","""event"",""trial"",""time""
""fullscreenenter"",""1"",""2655""
","
","","","","","","1027.5","<p> <b> That's right! </b> You will only have 10 seconds to make each choice. </p>","","0","comp_answer","","",""
"learning-instructions","42","175072","0.0-17.0","5036","approach_avoid_sv1","""event"",""trial"",""time""
""fullscreenenter"",""1"",""2655""
","
","
","""event"",""trial"",""time""
""fullscreenenter"",""1"",""2655""
","
","","","","","","2936","<p> Great! You are now ready to begin the game. </p><p> Remember, use the 1, 2, 3, and 4 keys to make your responses. </p>","","0","instructions","","",""
"html-keyboard-response","43","175674","0.0-18.0-0.0","5036","approach_avoid_sv1","""event"",""trial"",""time""
""fullscreenenter"",""1"",""2655""
","
","
","""event"",""trial"",""time""
""fullscreenenter"",""1"",""2655""
","
","","","","","","null","<div style=""font-size:60px;"">+</div>","null","","fixation","","",""
"memory-trial","44","177848","0.0-18.0-1.0","5036","approach_avoid_sv1","""event"",""trial"",""time""
""fullscreenenter"",""1"",""2655""
","
","
","""event"",""trial"",""time""
""fullscreenenter"",""1"",""2655""
","
","","","","","","1166.5","images/flower6.png","","","memory_trial","1","definitely_old",""
"html-keyboard-response","45","178351","0.0-18.0-0.1","5036","approach_avoid_sv1","""event"",""trial"",""time""
""fullscreenenter"",""1"",""2655""
","
","
","""event"",""trial"",""time""
""fullscreenenter"",""1"",""2655""
","
","","","","","","null","<div style=""font-size:60px;"">+</div>","null","","fixation","","",""
"memory-trial","46","181405","0.0-18.0-1.1","5036","approach_avoid_sv1","""event"",""trial"",""time""
""fullscreenenter"",""1"",""2655""
","
","
","""event"",""trial"",""time""
""fullscreenenter"",""1"",""2655""
","
","","","","","","2051.099999964237","images/truck7.png","","","memory_trial","3","maybe_new",""
"html-keyboard-response","47","181907","0.0-18.0-0.2","5036","approach_avoid_sv1","""event"",""trial"",""time""
""fullscreenenter"",""1"",""2655""
","
","
","""event"",""trial"",""time""
""fullscreenenter"",""1"",""2655""
","
","","","","","","null","<div style=""font-size:60px;"">+</div>","null","","fixation","","",""
"memory-trial","48","184277","0.0-18.0-1.2","5036","approach_avoid_sv1","""event"",""trial"",""time""
""fullscreenenter"",""1"",""2655""
","
","
","""event"",""trial"",""time""
""fullscreenenter"",""1"",""2655""
","
","","","","","","1366","images/train8.png","","","memory_trial","1","definitely_old",""
"html-keyboard-response","49","184781","0.0-18.0-0.3","5036","approach_avoid_sv1","""event"",""trial"",""time""
""fullscreenenter"",""1"",""2655""
","
","
","""event"",""trial"",""time""
""fullscreenenter"",""1"",""2655""
","
","","","","","","null","<div style=""font-size:60px;"">+</div>","null","","fixation","","",""
"memory-trial","50","187077","0.0-18.0-1.3","5036","approach_avoid_sv1","""event"",""trial"",""time""
""fullscreenenter"",""1"",""2655""
","
","
","""event"",""trial"",""time""
""fullscreenenter"",""1"",""2655""
","
","","","","","","1293.1000000238419","images/chair4.png","","","memory_trial","4","definitely_new",""
"html-keyboard-response","51","187582","0.0-18.0-0.4","5036","approach_avoid_sv1","""event"",""trial"",""time""
""fullscreenenter"",""1"",""2655""
","
","
","""event"",""trial"",""time""
""fullscreenenter"",""1"",""2655""
","
","","","","","","null","<div style=""font-size:60px;"">+</div>","null","","fixation","","",""
"memory-trial","52","189775","0.0-18.0-1.4","5036","approach_avoid_sv1","""event"",""trial"",""time""
""fullscreenenter"",""1"",""2655""
","
","
","""event"",""trial"",""time""
""fullscreenenter"",""1"",""2655""
","
","","","","","","1187.8999999761581","images/sheep8.png","","","memory_trial","1","definitely_old",""
"html-keyboard-response","53","190279","0.0-18.0-0.5","5036","approach_avoid_sv1","""event"",""trial"",""time""
""fullscreenenter"",""1"",""2655""
","
","
","""event"",""trial"",""time""
""fullscreenenter"",""1"",""2655""
","
","","","","","","null","<div style=""font-size:60px;"">+</div>","null","","fixation","","",""
"memory-trial","54","192333","0.0-18.0-1.5","5036","approach_avoid_sv1","""event"",""trial"",""time""
""fullscreenenter"",""1"",""2655""
","
","
","""event"",""trial"",""time""
""fullscreenenter"",""1"",""2655""
","
","","","","","","1048.6000000238419","images/dog2.png","","","memory_trial","1","definitely_old",""
"html-keyboard-response","55","192836","0.0-18.0-0.6","5036","approach_avoid_sv1","""event"",""trial"",""time""
""fullscreenenter"",""1"",""2655""
","
","
","""event"",""trial"",""time""
""fullscreenenter"",""1"",""2655""
","
","","","","","","null","<div style=""font-size:60px;"">+</div>","null","","fixation","","",""
"memory-trial","56","195100","0.0-18.0-1.6","5036","approach_avoid_sv1","""event"",""trial"",""time""
""fullscreenenter"",""1"",""2655""
","
","
","""event"",""trial"",""time""
""fullscreenenter"",""1"",""2655""
","
","","","","","","1261.1000000238419","images/truck5.png","","","memory_trial","4","definitely_new",""
"html-keyboard-response","57","195603","0.0-18.0-0.7","5036","approach_avoid_sv1","""event"",""trial"",""time""
""fullscreenenter"",""1"",""2655""
","
","
","""event"",""trial"",""time""
""fullscreenenter"",""1"",""2655""
","
","","","","","","null","<div style=""font-size:60px;"">+</div>","null","","fixation","","",""
"memory-trial","58","197734","0.0-18.0-1.7","5036","approach_avoid_sv1","""event"",""trial"",""time""
""fullscreenenter"",""1"",""2655""
","
","
","""event"",""trial"",""time""
""fullscreenenter"",""1"",""2655""
","
","","","","","","1126.300000011921","images/rodent1.png","","","memory_trial","1","definitely_old",""
"html-keyboard-response","59","198239","0.0-18.0-0.8","5036","approach_avoid_sv1","""event"",""trial"",""time""
""fullscreenenter"",""1"",""2655""
","
","
","""event"",""trial"",""time""
""fullscreenenter"",""1"",""2655""
","
","","","","","","null","<div style=""font-size:60px;"">+</div>","null","","fixation","","",""
"memory-trial","60","200229","0.0-18.0-1.8","5036","approach_avoid_sv1","""event"",""trial"",""time""
""fullscreenenter"",""1"",""2655""
","
","
","""event"",""trial"",""time""
""fullscreenenter"",""1"",""2655""
","
","","","","","","985.3000000119209","images/orange1.png","","","memory_trial","1","definitely_old",""
"html-keyboard-response","61","200734","0.0-18.0-0.9","5036","approach_avoid_sv1","""event"",""trial"",""time""
""fullscreenenter"",""1"",""2655""
","
","
","""event"",""trial"",""time""
""fullscreenenter"",""1"",""2655""
","
","","","","","","null","<div style=""font-size:60px;"">+</div>","null","","fixation","","",""
"memory-trial","62","202995","0.0-18.0-1.9","5036","approach_avoid_sv1","""event"",""trial"",""time""
""fullscreenenter"",""1"",""2655""
","
","
","""event"",""trial"",""time""
""fullscreenenter"",""1"",""2655""
","
","","","","","","1258.6000000238419","images/table4.png","","","memory_trial","3","maybe_new",""
"html-keyboard-response","63","203499","0.0-18.0-0.10","5036","approach_avoid_sv1","""event"",""trial"",""time""
""fullscreenenter"",""1"",""2655""
","
","
","""event"",""trial"",""time""
""fullscreenenter"",""1"",""2655""
","
","","","","","","null","<div style=""font-size:60px;"">+</div>","null","","fixation","","",""
"memory-trial","64","205885","0.0-18.0-1.10","5036","approach_avoid_sv1","""event"",""trial"",""time""
""fullscreenenter"",""1"",""2655""
","
","
","""event"",""trial"",""time""
""fullscreenenter"",""1"",""2655""
","
","","","","","","1381.8999999761581","images/rabbit7.png","","","memory_trial","4","definitely_new",""
"html-keyboard-response","65","206390","0.0-18.0-0.11","5036","approach_avoid_sv1","""event"",""trial"",""time""
""fullscreenenter"",""1"",""2655""
","
","
","""event"",""trial"",""time""
""fullscreenenter"",""1"",""2655""
","
","","","","","","null","<div style=""font-size:60px;"">+</div>","null","","fixation","","",""
"memory-trial","66","208944","0.0-18.0-1.11","5036","approach_avoid_sv1","""event"",""trial"",""time""
""fullscreenenter"",""1"",""2655""
","
","
","""event"",""trial"",""time""
""fullscreenenter"",""1"",""2655""
","
","","","","","","1546.8999999761581","images/chair6.png","","","memory_trial","3","maybe_new",""
"html-keyboard-response","67","209449","0.0-18.0-0.12","5036","approach_avoid_sv1","""event"",""trial"",""time""
""fullscreenenter"",""1"",""2655""
","
","
","""event"",""trial"",""time""
""fullscreenenter"",""1"",""2655""
","
","","","","","","null","<div style=""font-size:60px;"">+</div>","null","","fixation","","",""
"memory-trial","68","211731","0.0-18.0-1.12","5036","approach_avoid_sv1","""event"",""trial"",""time""
""fullscreenenter"",""1"",""2655""
","
","
","""event"",""trial"",""time""
""fullscreenenter"",""1"",""2655""
","
","","","","","","1279.699999988079","images/banana1.png","","","memory_trial","1","definitely_old",""
"html-keyboard-response","69","212235","0.0-18.0-0.13","5036","approach_avoid_sv1","""event"",""trial"",""time""
""fullscreenenter"",""1"",""2655""
","
","
","""event"",""trial"",""time""
""fullscreenenter"",""1"",""2655""
","
","","","","","","null","<div style=""font-size:60px;"">+</div>","null","","fixation","","",""
"memory-trial","70","214795","0.0-18.0-1.13","5036","approach_avoid_sv1","""event"",""trial"",""time""
""fullscreenenter"",""1"",""2655""
","
","
","""event"",""trial"",""time""
""fullscreenenter"",""1"",""2655""
","
","","","","","","1556.3999999761581","images/goat3.png","","","memory_trial","4","definitely_new",""
"html-keyboard-response","71","215300","0.0-18.0-0.14","5036","approach_avoid_sv1","""event"",""trial"",""time""
""fullscreenenter"",""1"",""2655""
","
","
","""event"",""trial"",""time""
""fullscreenenter"",""1"",""2655""
","
","","","","","","null","<div style=""font-size:60px;"">+</div>","null","","fixation","","",""
"memory-trial","72","217276","0.0-18.0-1.14","5036","approach_avoid_sv1","""event"",""trial"",""time""
""fullscreenenter"",""1"",""2655""
","
","
","""event"",""trial"",""time""
""fullscreenenter"",""1"",""2655""
","
","","","","","","972.0999999642372","images/cactus7.png","","","memory_trial","1","definitely_old",""
"html-keyboard-response","73","217780","0.0-18.0-0.15","5036","approach_avoid_sv1","""event"",""trial"",""time""
""fullscreenenter"",""1"",""2655""
","
","
","""event"",""trial"",""time""
""fullscreenenter"",""1"",""2655""
","
","","","","","","null","<div style=""font-size:60px;"">+</div>","null","","fixation","","",""
"memory-trial","74","219942","0.0-18.0-1.15","5036","approach_avoid_sv1","""event"",""trial"",""time""
""fullscreenenter"",""1"",""2655""
","
","
","""event"",""trial"",""time""
""fullscreenenter"",""1"",""2655""
","
","","","","","","1156.300000011921","images/bush5.png","","","memory_trial","4","definitely_new",""
"html-keyboard-response","75","220443","0.0-18.0-0.16","5036","approach_avoid_sv1","""event"",""trial"",""time""
""fullscreenenter"",""1"",""2655""
","
","
","""event"",""trial"",""time""
""fullscreenenter"",""1"",""2655""
","
","","","","","","null","<div style=""font-size:60px;"">+</div>","null","","fixation","","",""
"memory-trial","76","223212","0.0-18.0-1.16","5036","approach_avoid_sv1","""event"",""trial"",""time""
""fullscreenenter"",""1"",""2655""
","
","
","""event"",""trial"",""time""
""fullscreenenter"",""1"",""2655""
","
","","","","","","1764.9000000357628","images/tree3.png","","","memory_trial","2","maybe_old",""
"html-keyboard-response","77","223717","0.0-18.0-0.17","5036","approach_avoid_sv1","""event"",""trial"",""time""
""fullscreenenter"",""1"",""2655""
","
","
","""event"",""trial"",""time""
""fullscreenenter"",""1"",""2655""
","
","","","","","","null","<div style=""font-size:60px;"">+</div>","null","","fixation","","",""
"memory-trial","78","225629","0.0-18.0-1.17","5036","approach_avoid_sv1","""event"",""trial"",""time""
""fullscreenenter"",""1"",""2655""
","
","
","""event"",""trial"",""time""
""fullscreenenter"",""1"",""2655""
","
","","","","","","906.6999999880791","images/bed5.png","","","memory_trial","1","definitely_old",""
"html-keyboard-response","79","226132","0.0-18.0-0.18","5036","approach_avoid_sv1","""event"",""trial"",""time""
""fullscreenenter"",""1"",""2655""
","
","
","""event"",""trial"",""time""
""fullscreenenter"",""1"",""2655""
","
","","","","","","null","<div style=""font-size:60px;"">+</div>","null","","fixation","","",""
"memory-trial","80","228076","0.0-18.0-1.18","5036","approach_avoid_sv1","""event"",""trial"",""time""
""fullscreenenter"",""1"",""2655""
","
","
","""event"",""trial"",""time""
""fullscreenenter"",""1"",""2655""
","
","","","","","","938.5999999642372","images/banana7.png","","","memory_trial","1","definitely_old",""
"html-keyboard-response","81","228581","0.0-18.0-0.19","5036","approach_avoid_sv1","""event"",""trial"",""time""
""fullscreenenter"",""1"",""2655""
","
","
","""event"",""trial"",""time""
""fullscreenenter"",""1"",""2655""
","
","","","","","","null","<div style=""font-size:60px;"">+</div>","null","","fixation","","",""
"memory-trial","82","231031","0.0-18.0-1.19","5036","approach_avoid_sv1","""event"",""trial"",""time""
""fullscreenenter"",""1"",""2655""
","
","
","""event"",""trial"",""time""
""fullscreenenter"",""1"",""2655""
","
","","","","","","1443.199999988079","images/sofa2.png","","","memory_trial","4","definitely_new",""
"html-keyboard-response","83","231536","0.0-18.0-0.20","5036","approach_avoid_sv1","""event"",""trial"",""time""
""fullscreenenter"",""1"",""2655""
","
","
","""event"",""trial"",""time""
""fullscreenenter"",""1"",""2655""
","
","","","","","","null","<div style=""font-size:60px;"">+</div>","null","","fixation","","",""
"memory-trial","84","233457","0.0-18.0-1.20","5036","approach_avoid_sv1","""event"",""trial"",""time""
""fullscreenenter"",""1"",""2655""
","
","
","""event"",""trial"",""time""
""fullscreenenter"",""1"",""2655""
","
","","","","","","919.8000000119209","images/sheep7.png","","","memory_trial","1","definitely_old",""
"html-keyboard-response","85","233962","0.0-18.0-0.21","5036","approach_avoid_sv1","""event"",""trial"",""time""
""fullscreenenter"",""1"",""2655""
","
","
","""event"",""trial"",""time""
""fullscreenenter"",""1"",""2655""
","
","","","","","","null","<div style=""font-size:60px;"">+</div>","null","","fixation","","",""
"memory-trial","86","235907","0.0-18.0-1.21","5036","approach_avoid_sv1","""event"",""trial"",""time""
""fullscreenenter"",""1"",""2655""
","
","
","""event"",""trial"",""time""
""fullscreenenter"",""1"",""2655""
","
","","","","","","940.9000000357628","images/boat1.png","","","memory_trial","1","definitely_old",""
"html-keyboard-response","87","236412","0.0-18.0-0.22","5036","approach_avoid_sv1","""event"",""trial"",""time""
""fullscreenenter"",""1"",""2655""
","
","
","""event"",""trial"",""time""
""fullscreenenter"",""1"",""2655""
","
","","","","","","null","<div style=""font-size:60px;"">+</div>","null","","fixation","","",""
"memory-trial","88","238322","0.0-18.0-1.22","5036","approach_avoid_sv1","""event"",""trial"",""time""
""fullscreenenter"",""1"",""2655""
","
","
","""event"",""trial"",""time""
""fullscreenenter"",""1"",""2655""
","
","","","","","","907.6999999880791","images/plane4.png","","","memory_trial","1","definitely_old",""
"html-keyboard-response","89","238827","0.0-18.0-0.23","5036","approach_avoid_sv1","""event"",""trial"",""time""
""fullscreenenter"",""1"",""2655""
","
","
","""event"",""trial"",""time""
""fullscreenenter"",""1"",""2655""
","
","","","","","","null","<div style=""font-size:60px;"">+</div>","null","","fixation","","",""
"memory-trial","90","241220","0.0-18.0-1.23","5036","approach_avoid_sv1","""event"",""trial"",""time""
""fullscreenenter"",""1"",""2655""
","
","
","""event"",""trial"",""time""
""fullscreenenter"",""1"",""2655""
","
","","","","","","1390.0999999642372","images/train2.png","","","memory_trial","3","maybe_new",""
"html-keyboard-response","91","241725","0.0-18.0-0.24","5036","approach_avoid_sv1","""event"",""trial"",""time""
""fullscreenenter"",""1"",""2655""
","
","
","""event"",""trial"",""time""
""fullscreenenter"",""1"",""2655""
","
","","","","","","null","<div style=""font-size:60px;"">+</div>","null","","fixation","","",""
"memory-trial","92","243877","0.0-18.0-1.24","5036","approach_avoid_sv1","""event"",""trial"",""time""
""fullscreenenter"",""1"",""2655""
","
","
","""event"",""trial"",""time""
""fullscreenenter"",""1"",""2655""
","
","","","","","","1146.8999999761581","images/boat3.png","","","memory_trial","1","definitely_old",""
"html-keyboard-response","93","244382","0.0-18.0-0.25","5036","approach_avoid_sv1","""event"",""trial"",""time""
""fullscreenenter"",""1"",""2655""
","
","
","""event"",""trial"",""time""
""fullscreenenter"",""1"",""2655""
","
","","","","","","null","<div style=""font-size:60px;"">+</div>","null","","fixation","","",""
"memory-trial","94","247099","0.0-18.0-1.25","5036","approach_avoid_sv1","""event"",""trial"",""time""
""fullscreenenter"",""1"",""2655""
","
","
","""event"",""trial"",""time""
""fullscreenenter"",""1"",""2655""
","
","","","","","","1712.9000000357628","images/bed4.png","","","memory_trial","3","maybe_new",""
"html-keyboard-response","95","247604","0.0-18.0-0.26","5036","approach_avoid_sv1","""event"",""trial"",""time""
""fullscreenenter"",""1"",""2655""
","
","
","""event"",""trial"",""time""
""fullscreenenter"",""1"",""2655""
","
","","","","","","null","<div style=""font-size:60px;"">+</div>","null","","fixation","","",""
"memory-trial","96","249636","0.0-18.0-1.26","5036","approach_avoid_sv1","""event"",""trial"",""time""
""fullscreenenter"",""1"",""2655""
","
","
","""event"",""trial"",""time""
""fullscreenenter"",""1"",""2655""
","
","","","","","","1027.5","images/train6.png","","","memory_trial","1","definitely_old",""
"html-keyboard-response","97","250140","0.0-18.0-0.27","5036","approach_avoid_sv1","""event"",""trial"",""time""
""fullscreenenter"",""1"",""2655""
","
","
","""event"",""trial"",""time""
""fullscreenenter"",""1"",""2655""
","
","","","","","","null","<div style=""font-size:60px;"">+</div>","null","","fixation","","",""
"memory-trial","98","252514","0.0-18.0-1.27","5036","approach_avoid_sv1","""event"",""trial"",""time""
""fullscreenenter"",""1"",""2655""
","
","
","""event"",""trial"",""time""
""fullscreenenter"",""1"",""2655""
","
","","","","","","1371.2000000476837","images/dog8.png","","","memory_trial","1","definitely_old",""
"html-keyboard-response","99","253019","0.0-18.0-0.28","5036","approach_avoid_sv1","""event"",""trial"",""time""
""fullscreenenter"",""1"",""2655""
","
","
","""event"",""trial"",""time""
""fullscreenenter"",""1"",""2655""
","
","","","","","","null","<div style=""font-size:60px;"">+</div>","null","","fixation","","",""
"memory-trial","100","255442","0.0-18.0-1.28","5036","approach_avoid_sv1","""event"",""trial"",""time""
""fullscreenenter"",""1"",""2655""
","
","
","""event"",""trial"",""time""
""fullscreenenter"",""1"",""2655""
","
","","","","","","1419.699999988079","images/rabbit1.png","","","memory_trial","2","maybe_old",""
"html-keyboard-response","101","255944","0.0-18.0-0.29","5036","approach_avoid_sv1","""event"",""trial"",""time""
""fullscreenenter"",""1"",""2655""
","
","
","""event"",""trial"",""time""
""fullscreenenter"",""1"",""2655""
","
","","","","","","null","<div style=""font-size:60px;"">+</div>","null","","fixation","","",""
"memory-trial","102","257891","0.0-18.0-1.29","5036","approach_avoid_sv1","""event"",""trial"",""time""
""fullscreenenter"",""1"",""2655""
","
","
","""event"",""trial"",""time""
""fullscreenenter"",""1"",""2655""
","
","","","","","","941.7000000476837","images/horse8.png","","","memory_trial","1","definitely_old",""
"html-keyboard-response","103","258395","0.0-18.0-0.30","5036","approach_avoid_sv1","""event"",""trial"",""time""
""fullscreenenter"",""1"",""2655""
","
","
","""event"",""trial"",""time""
""fullscreenenter"",""1"",""2655""
","
","","","","","","null","<div style=""font-size:60px;"">+</div>","null","","fixation","","",""
"memory-trial","104","261332","0.0-18.0-1.30","5036","approach_avoid_sv1","""event"",""trial"",""time""
""fullscreenenter"",""1"",""2655""
","
","
","""event"",""trial"",""time""
""fullscreenenter"",""1"",""2655""
","
","","","","","","1932.300000011921","images/truck2.png","","","memory_trial","3","maybe_new",""
"html-keyboard-response","105","261836","0.0-18.0-0.31","5036","approach_avoid_sv1","""event"",""trial"",""time""
""fullscreenenter"",""1"",""2655""
","
","
","""event"",""trial"",""time""
""fullscreenenter"",""1"",""2655""
","
","","","","","","null","<div style=""font-size:60px;"">+</div>","null","","fixation","","",""
"memory-trial","106","263793","0.0-18.0-1.31","5036","approach_avoid_sv1","""event"",""trial"",""time""
""fullscreenenter"",""1"",""2655""
","
","
","""event"",""trial"",""time""
""fullscreenenter"",""1"",""2655""
","
","","","","","","954.1999999880791","images/orange7.png","","","memory_trial","1","definitely_old",""
"html-keyboard-response","107","264298","0.0-18.0-0.32","5036","approach_avoid_sv1","""event"",""trial"",""time""
""fullscreenenter"",""1"",""2655""
","
","
","""event"",""trial"",""time""
""fullscreenenter"",""1"",""2655""
","
","","","","","","null","<div style=""font-size:60px;"">+</div>","null","","fixation","","",""
"memory-trial","108","266353","0.0-18.0-1.32","5036","approach_avoid_sv1","""event"",""trial"",""time""
""fullscreenenter"",""1"",""2655""
","
","
","""event"",""trial"",""time""
""fullscreenenter"",""1"",""2655""
","
","","","","","","1052.5","images/tree6.png","","","memory_trial","4","definitely_new",""
"html-keyboard-response","109","266857","0.0-18.0-0.33","5036","approach_avoid_sv1","""event"",""trial"",""time""
""fullscreenenter"",""1"",""2655""
","
","
","""event"",""trial"",""time""
""fullscreenenter"",""1"",""2655""
","
","","","","","","null","<div style=""font-size:60px;"">+</div>","null","","fixation","","",""
"memory-trial","110","269836","0.0-18.0-1.33","5036","approach_avoid_sv1","""event"",""trial"",""time""
""fullscreenenter"",""1"",""2655""
","
","
","""event"",""trial"",""time""
""fullscreenenter"",""1"",""2655""
","
","","","","","","1973.0999999642372","images/cactus6.png","","","memory_trial","2","maybe_old",""
"html-keyboard-response","111","270341","0.0-18.0-0.34","5036","approach_avoid_sv1","""event"",""trial"",""time""
""fullscreenenter"",""1"",""2655""
","
","
","""event"",""trial"",""time""
""fullscreenenter"",""1"",""2655""
","
","","","","","","null","<div style=""font-size:60px;"">+</div>","null","","fixation","","",""
"memory-trial","112","273209","0.0-18.0-1.34","5036","approach_avoid_sv1","""event"",""trial"",""time""
""fullscreenenter"",""1"",""2655""
","
","
","""event"",""trial"",""time""
""fullscreenenter"",""1"",""2655""
","
","","","","","","1864.300000011921","images/train3.png","","","memory_trial","4","definitely_new",""
"html-keyboard-response","113","273713","0.0-18.0-0.35","5036","approach_avoid_sv1","""event"",""trial"",""time""
""fullscreenenter"",""1"",""2655""
","
","
","""event"",""trial"",""time""
""fullscreenenter"",""1"",""2655""
","
","","","","","","null","<div style=""font-size:60px;"">+</div>","null","","fixation","","",""
"memory-trial","114","276003","0.0-18.0-1.35","5036","approach_avoid_sv1","""event"",""trial"",""time""
""fullscreenenter"",""1"",""2655""
","
","
","""event"",""trial"",""time""
""fullscreenenter"",""1"",""2655""
","
","","","","","","1285.5","images/tree7.png","","","memory_trial","4","definitely_new",""
"html-keyboard-response","115","276508","0.0-18.0-0.36","5036","approach_avoid_sv1","""event"",""trial"",""time""
""fullscreenenter"",""1"",""2655""
","
","
","""event"",""trial"",""time""
""fullscreenenter"",""1"",""2655""
","
","","","","","","null","<div style=""font-size:60px;"">+</div>","null","","fixation","","",""
"memory-trial","116","278306","0.0-18.0-1.36","5036","approach_avoid_sv1","""event"",""trial"",""time""
""fullscreenenter"",""1"",""2655""
","
","
","""event"",""trial"",""time""
""fullscreenenter"",""1"",""2655""
","
","","","","","","793.4000000357628","images/cow3.png","","","memory_trial","1","definitely_old",""
"html-keyboard-response","117","278811","0.0-18.0-0.37","5036","approach_avoid_sv1","""event"",""trial"",""time""
""fullscreenenter"",""1"",""2655""
","
","
","""event"",""trial"",""time""
""fullscreenenter"",""1"",""2655""
","
","","","","","","null","<div style=""font-size:60px;"">+</div>","null","","fixation","","",""
"memory-trial","118","281260","0.0-18.0-1.37","5036","approach_avoid_sv1","""event"",""trial"",""time""
""fullscreenenter"",""1"",""2655""
","
","
","""event"",""trial"",""time""
""fullscreenenter"",""1"",""2655""
","
","","","","","","1443","images/banana2.png","","","memory_trial","2","maybe_old",""
"html-keyboard-response","119","281765","0.0-18.0-0.38","5036","approach_avoid_sv1","""event"",""trial"",""time""
""fullscreenenter"",""1"",""2655""
","
","
","""event"",""trial"",""time""
""fullscreenenter"",""1"",""2655""
","
","","","","","","null","<div style=""font-size:60px;"">+</div>","null","","fixation","","",""
"memory-trial","120","284516","0.0-18.0-1.38","5036","approach_avoid_sv1","""event"",""trial"",""time""
""fullscreenenter"",""1"",""2655""
","
","
","""event"",""trial"",""time""
""fullscreenenter"",""1"",""2655""
","
","","","","","","1745.3999999761581","images/flower7.png","","","memory_trial","3","maybe_new",""
"html-keyboard-response","121","285021","0.0-18.0-0.39","5036","approach_avoid_sv1","""event"",""trial"",""time""
""fullscreenenter"",""1"",""2655""
","
","
","""event"",""trial"",""time""
""fullscreenenter"",""1"",""2655""
","
","","","","","","null","<div style=""font-size:60px;"">+</div>","null","","fixation","","",""
"memory-trial","122","287424","0.0-18.0-1.39","5036","approach_avoid_sv1","""event"",""trial"",""time""
""fullscreenenter"",""1"",""2655""
","
","
","""event"",""trial"",""time""
""fullscreenenter"",""1"",""2655""
","
","","","","","","1400.8999999761581","images/goat1.png","","","memory_trial","4","definitely_new",""
"html-keyboard-response","123","287929","0.0-18.0-0.40","5036","approach_avoid_sv1","""event"",""trial"",""time""
""fullscreenenter"",""1"",""2655""
","
","
","""event"",""trial"",""time""
""fullscreenenter"",""1"",""2655""
","
","","","","","","null","<div style=""font-size:60px;"">+</div>","null","","fixation","","",""
"memory-trial","124","289857","0.0-18.0-1.40","5036","approach_avoid_sv1","""event"",""trial"",""time""
""fullscreenenter"",""1"",""2655""
","
","
","""event"",""trial"",""time""
""fullscreenenter"",""1"",""2655""
","
","","","","","","924.5","images/tree5.png","","","memory_trial","1","definitely_old",""
"html-keyboard-response","125","290361","0.0-18.0-0.41","5036","approach_avoid_sv1","""event"",""trial"",""time""
""fullscreenenter"",""1"",""2655""
","
","
","""event"",""trial"",""time""
""fullscreenenter"",""1"",""2655""
","
","","","","","","null","<div style=""font-size:60px;"">+</div>","null","","fixation","","",""
"memory-trial","126","292167","0.0-18.0-1.41","5036","approach_avoid_sv1","""event"",""trial"",""time""
""fullscreenenter"",""1"",""2655""
","
","
","""event"",""trial"",""time""
""fullscreenenter"",""1"",""2655""
","
","","","","","","804.8999999761581","images/flower5.png","","","memory_trial","1","definitely_old",""
"html-button-response","127","294212","0.0-18.0-2.41-0.41","5036","approach_avoid_sv1","""event"",""trial"",""time""
""fullscreenenter"",""1"",""2655""
","
","
","""event"",""trial"",""time""
""fullscreenenter"",""1"",""2655""
","
","","","","","","2044.4000000357628","<p> Take a break! </p><p> Click the button to continue. </p>","0","","break","","",""
"html-keyboard-response","128","294715","0.0-18.0-0.42","5036","approach_avoid_sv1","""event"",""trial"",""time""
""fullscreenenter"",""1"",""2655""
","
","
","""event"",""trial"",""time""
""fullscreenenter"",""1"",""2655""
","
","","","","","","null","<div style=""font-size:60px;"">+</div>","null","","fixation","","",""
"memory-trial","129","297391","0.0-18.0-1.42","5036","approach_avoid_sv1","""event"",""trial"",""time""
""fullscreenenter"",""1"",""2655""
","
","
","""event"",""trial"",""time""
""fullscreenenter"",""1"",""2655""
","
","","","","","","1674.300000011921","images/cow4.png","","","memory_trial","2","maybe_old",""
"html-keyboard-response","130","297896","0.0-18.0-0.43","5036","approach_avoid_sv1","""event"",""trial"",""time""
""fullscreenenter"",""1"",""2655""
","
","
","""event"",""trial"",""time""
""fullscreenenter"",""1"",""2655""
","
","","","","","","null","<div style=""font-size:60px;"">+</div>","null","","fixation","","",""
"memory-trial","131","300179","0.0-18.0-1.43","5036","approach_avoid_sv1","""event"",""trial"",""time""
""fullscreenenter"",""1"",""2655""
","
","
","""event"",""trial"",""time""
""fullscreenenter"",""1"",""2655""
","
","","","","","","1277.7999999523163","images/table8.png","","","memory_trial","3","maybe_new",""
"html-keyboard-response","132","300684","0.0-18.0-0.44","5036","approach_avoid_sv1","""event"",""trial"",""time""
""fullscreenenter"",""1"",""2655""
","
","
","""event"",""trial"",""time""
""fullscreenenter"",""1"",""2655""
","
","","","","","","null","<div style=""font-size:60px;"">+</div>","null","","fixation","","",""
"memory-trial","133","302824","0.0-18.0-1.44","5036","approach_avoid_sv1","""event"",""trial"",""time""
""fullscreenenter"",""1"",""2655""
","
","
","""event"",""trial"",""time""
""fullscreenenter"",""1"",""2655""
","
","","","","","","1137.0999999642372","images/truck3.png","","","memory_trial","4","definitely_new",""
"html-keyboard-response","134","303329","0.0-18.0-0.45","5036","approach_avoid_sv1","""event"",""trial"",""time""
""fullscreenenter"",""1"",""2655""
","
","
","""event"",""trial"",""time""
""fullscreenenter"",""1"",""2655""
","
","","","","","","null","<div style=""font-size:60px;"">+</div>","null","","fixation","","",""
"memory-trial","135","305703","0.0-18.0-1.45","5036","approach_avoid_sv1","""event"",""trial"",""time""
""fullscreenenter"",""1"",""2655""
","
","
","""event"",""trial"",""time""
""fullscreenenter"",""1"",""2655""
","
","","","","","","1371.699999988079","images/dog4.png","","","memory_trial","4","definitely_new",""
"html-keyboard-response","136","306209","0.0-18.0-0.46","5036","approach_avoid_sv1","""event"",""trial"",""time""
""fullscreenenter"",""1"",""2655""
","
","
","""event"",""trial"",""time""
""fullscreenenter"",""1"",""2655""
","
","","","","","","null","<div style=""font-size:60px;"">+</div>","null","","fixation","","",""
"memory-trial","137","308280","0.0-18.0-1.46","5036","approach_avoid_sv1","""event"",""trial"",""time""
""fullscreenenter"",""1"",""2655""
","
","
","""event"",""trial"",""time""
""fullscreenenter"",""1"",""2655""
","
","","","","","","1068","images/rodent6.png","","","memory_trial","1","definitely_old",""
"html-keyboard-response","138","308785","0.0-18.0-0.47","5036","approach_avoid_sv1","""event"",""trial"",""time""
""fullscreenenter"",""1"",""2655""
","
","
","""event"",""trial"",""time""
""fullscreenenter"",""1"",""2655""
","
","","","","","","null","<div style=""font-size:60px;"">+</div>","null","","fixation","","",""
"memory-trial","139","311264","0.0-18.0-1.47","5036","approach_avoid_sv1","""event"",""trial"",""time""
""fullscreenenter"",""1"",""2655""
","
","
","""event"",""trial"",""time""
""fullscreenenter"",""1"",""2655""
","
","","","","","","1476.3999999761581","images/boat2.png","","","memory_trial","3","maybe_new",""
"html-keyboard-response","140","311770","0.0-18.0-0.48","5036","approach_avoid_sv1","""event"",""trial"",""time""
""fullscreenenter"",""1"",""2655""
","
","
","""event"",""trial"",""time""
""fullscreenenter"",""1"",""2655""
","
","","","","","","null","<div style=""font-size:60px;"">+</div>","null","","fixation","","",""
"memory-trial","141","313641","0.0-18.0-1.48","5036","approach_avoid_sv1","""event"",""trial"",""time""
""fullscreenenter"",""1"",""2655""
","
","
","""event"",""trial"",""time""
""fullscreenenter"",""1"",""2655""
","
","","","","","","867","images/cactus1.png","","","memory_trial","1","definitely_old",""
"html-keyboard-response","142","314143","0.0-18.0-0.49","5036","approach_avoid_sv1","""event"",""trial"",""time""
""fullscreenenter"",""1"",""2655""
","
","
","""event"",""trial"",""time""
""fullscreenenter"",""1"",""2655""
","
","","","","","","null","<div style=""font-size:60px;"">+</div>","null","","fixation","","",""
"memory-trial","143","316328","0.0-18.0-1.49","5036","approach_avoid_sv1","""event"",""trial"",""time""
""fullscreenenter"",""1"",""2655""
","
","
","""event"",""trial"",""time""
""fullscreenenter"",""1"",""2655""
","
","","","","","","1180.7000000476837","images/table5.png","","","memory_trial","1","definitely_old",""
"html-keyboard-response","144","316833","0.0-18.0-0.50","5036","approach_avoid_sv1","""event"",""trial"",""time""
""fullscreenenter"",""1"",""2655""
","
","
","""event"",""trial"",""time""
""fullscreenenter"",""1"",""2655""
","
","","","","","","null","<div style=""font-size:60px;"">+</div>","null","","fixation","","",""
"memory-trial","145","319355","0.0-18.0-1.50","5036","approach_avoid_sv1","""event"",""trial"",""time""
""fullscreenenter"",""1"",""2655""
","
","
","""event"",""trial"",""time""
""fullscreenenter"",""1"",""2655""
","
","","","","","","1515.7000000476837","images/orange5.png","","","memory_trial","3","maybe_new",""
"html-keyboard-response","146","319855","0.0-18.0-0.51","5036","approach_avoid_sv1","""event"",""trial"",""time""
""fullscreenenter"",""1"",""2655""
","
","
","""event"",""trial"",""time""
""fullscreenenter"",""1"",""2655""
","
","","","","","","null","<div style=""font-size:60px;"">+</div>","null","","fixation","","",""
"memory-trial","147","322491","0.0-18.0-1.51","5036","approach_avoid_sv1","""event"",""trial"",""time""
""fullscreenenter"",""1"",""2655""
","
","
","""event"",""trial"",""time""
""fullscreenenter"",""1"",""2655""
","
","","","","","","1629.199999988079","images/goat8.png","","","memory_trial","2","maybe_old",""
"html-keyboard-response","148","322996","0.0-18.0-0.52","5036","approach_avoid_sv1","""event"",""trial"",""time""
""fullscreenenter"",""1"",""2655""
","
","
","""event"",""trial"",""time""
""fullscreenenter"",""1"",""2655""
","
","","","","","","null","<div style=""font-size:60px;"">+</div>","null","","fixation","","",""
"memory-trial","149","325911","0.0-18.0-1.52","5036","approach_avoid_sv1","""event"",""trial"",""time""
""fullscreenenter"",""1"",""2655""
","
","
","""event"",""trial"",""time""
""fullscreenenter"",""1"",""2655""
","
","","","","","","1912.3999999761581","images/plane5.png","","","memory_trial","3","maybe_new",""
"html-keyboard-response","150","326415","0.0-18.0-0.53","5036","approach_avoid_sv1","""event"",""trial"",""time""
""fullscreenenter"",""1"",""2655""
","
","
","""event"",""trial"",""time""
""fullscreenenter"",""1"",""2655""
","
","","","","","","null","<div style=""font-size:60px;"">+</div>","null","","fixation","","",""
"memory-trial","151","328551","0.0-18.0-1.53","5036","approach_avoid_sv1","""event"",""trial"",""time""
""fullscreenenter"",""1"",""2655""
","
","
","""event"",""trial"",""time""
""fullscreenenter"",""1"",""2655""
","
","","","","","","1132.699999988079","images/horse2.png","","","memory_trial","4","definitely_new",""
"html-keyboard-response","152","329056","0.0-18.0-0.54","5036","approach_avoid_sv1","""event"",""trial"",""time""
""fullscreenenter"",""1"",""2655""
","
","
","""event"",""trial"",""time""
""fullscreenenter"",""1"",""2655""
","
","","","","","","null","<div style=""font-size:60px;"">+</div>","null","","fixation","","",""
"memory-trial","153","331663","0.0-18.0-1.54","5036","approach_avoid_sv1","""event"",""trial"",""time""
""fullscreenenter"",""1"",""2655""
","
","
","""event"",""trial"",""time""
""fullscreenenter"",""1"",""2655""
","
","","","","","","1603.6000000238419","images/rabbit3.png","","","memory_trial","3","maybe_new",""
"html-keyboard-response","154","332168","0.0-18.0-0.55","5036","approach_avoid_sv1","""event"",""trial"",""time""
""fullscreenenter"",""1"",""2655""
","
","
","""event"",""trial"",""time""
""fullscreenenter"",""1"",""2655""
","
","","","","","","null","<div style=""font-size:60px;"">+</div>","null","","fixation","","",""
"memory-trial","155","334112","0.0-18.0-1.55","5036","approach_avoid_sv1","""event"",""trial"",""time""
""fullscreenenter"",""1"",""2655""
","
","
","""event"",""trial"",""time""
""fullscreenenter"",""1"",""2655""
","
","","","","","","940.8000000119209","images/bush8.png","","","memory_trial","4","definitely_new",""
"html-keyboard-response","156","334617","0.0-18.0-0.56","5036","approach_avoid_sv1","""event"",""trial"",""time""
""fullscreenenter"",""1"",""2655""
","
","
","""event"",""trial"",""time""
""fullscreenenter"",""1"",""2655""
","
","","","","","","null","<div style=""font-size:60px;"">+</div>","null","","fixation","","",""
"memory-trial","157","336962","0.0-18.0-1.56","5036","approach_avoid_sv1","""event"",""trial"",""time""
""fullscreenenter"",""1"",""2655""
","
","
","""event"",""trial"",""time""
""fullscreenenter"",""1"",""2655""
","
","","","","","","1338.800000011921","images/sheep4.png","","","memory_trial","3","maybe_new",""
"html-keyboard-response","158","337467","0.0-18.0-0.57","5036","approach_avoid_sv1","""event"",""trial"",""time""
""fullscreenenter"",""1"",""2655""
","
","
","""event"",""trial"",""time""
""fullscreenenter"",""1"",""2655""
","
","","","","","","null","<div style=""font-size:60px;"">+</div>","null","","fixation","","",""
"memory-trial","159","339575","0.0-18.0-1.57","5036","approach_avoid_sv1","""event"",""trial"",""time""
""fullscreenenter"",""1"",""2655""
","
","
","""event"",""trial"",""time""
""fullscreenenter"",""1"",""2655""
","
","","","","","","1104.5","images/chair5.png","","","memory_trial","2","maybe_old",""
"html-keyboard-response","160","340079","0.0-18.0-0.58","5036","approach_avoid_sv1","""event"",""trial"",""time""
""fullscreenenter"",""1"",""2655""
","
","
","""event"",""trial"",""time""
""fullscreenenter"",""1"",""2655""
","
","","","","","","null","<div style=""font-size:60px;"">+</div>","null","","fixation","","",""
"memory-trial","161","342303","0.0-18.0-1.58","5036","approach_avoid_sv1","""event"",""trial"",""time""
""fullscreenenter"",""1"",""2655""
","
","
","""event"",""trial"",""time""
""fullscreenenter"",""1"",""2655""
","
","","","","","","1220.4000000357628","images/flower8.png","","","memory_trial","1","definitely_old",""
"html-keyboard-response","162","342807","0.0-18.0-0.59","5036","approach_avoid_sv1","""event"",""trial"",""time""
""fullscreenenter"",""1"",""2655""
","
","
","""event"",""trial"",""time""
""fullscreenenter"",""1"",""2655""
","
","","","","","","null","<div style=""font-size:60px;"">+</div>","null","","fixation","","",""
"memory-trial","163","345298","0.0-18.0-1.59","5036","approach_avoid_sv1","""event"",""trial"",""time""
""fullscreenenter"",""1"",""2655""
","
","
","""event"",""trial"",""time""
""fullscreenenter"",""1"",""2655""
","
","","","","","","1485.300000011921","images/horse7.png","","","memory_trial","2","maybe_old",""
"html-keyboard-response","164","345803","0.0-18.0-0.60","5036","approach_avoid_sv1","""event"",""trial"",""time""
""fullscreenenter"",""1"",""2655""
","
","
","""event"",""trial"",""time""
""fullscreenenter"",""1"",""2655""
","
","","","","","","null","<div style=""font-size:60px;"">+</div>","null","","fixation","","",""
"memory-trial","165","347689","0.0-18.0-1.60","5036","approach_avoid_sv1","""event"",""trial"",""time""
""fullscreenenter"",""1"",""2655""
","
","
","""event"",""trial"",""time""
""fullscreenenter"",""1"",""2655""
","
","","","","","","880.3000000119209","images/cow5.png","","","memory_trial","1","definitely_old",""
"html-keyboard-response","166","348195","0.0-18.0-0.61","5036","approach_avoid_sv1","""event"",""trial"",""time""
""fullscreenenter"",""1"",""2655""
","
","
","""event"",""trial"",""time""
""fullscreenenter"",""1"",""2655""
","
","","","","","","null","<div style=""font-size:60px;"">+</div>","null","","fixation","","",""
"memory-trial","167","350761","0.0-18.0-1.61","5036","approach_avoid_sv1","""event"",""trial"",""time""
""fullscreenenter"",""1"",""2655""
","
","
","""event"",""trial"",""time""
""fullscreenenter"",""1"",""2655""
","
","","","","","","1560.300000011921","images/bush7.png","","","memory_trial","3","maybe_new",""
"html-keyboard-response","168","351265","0.0-18.0-0.62","5036","approach_avoid_sv1","""event"",""trial"",""time""
""fullscreenenter"",""1"",""2655""
","
","
","""event"",""trial"",""time""
""fullscreenenter"",""1"",""2655""
","
","","","","","","null","<div style=""font-size:60px;"">+</div>","null","","fixation","","",""
"memory-trial","169","353445","0.0-18.0-1.62","5036","approach_avoid_sv1","""event"",""trial"",""time""
""fullscreenenter"",""1"",""2655""
","
","
","""event"",""trial"",""time""
""fullscreenenter"",""1"",""2655""
","
","","","","","","1175.199999988079","images/chair3.png","","","memory_trial","2","maybe_old",""
"html-keyboard-response","170","353949","0.0-18.0-0.63","5036","approach_avoid_sv1","""event"",""trial"",""time""
""fullscreenenter"",""1"",""2655""
","
","
","""event"",""trial"",""time""
""fullscreenenter"",""1"",""2655""
","
","","","","","","null","<div style=""font-size:60px;"">+</div>","null","","fixation","","",""
"memory-trial","171","356490","0.0-18.0-1.63","5036","approach_avoid_sv1","""event"",""trial"",""time""
""fullscreenenter"",""1"",""2655""
","
","
","""event"",""trial"",""time""
""fullscreenenter"",""1"",""2655""
","
","","","","","","1535.199999988079","images/rodent4.png","","","memory_trial","1","definitely_old",""
"html-keyboard-response","172","356995","0.0-18.0-0.64","5036","approach_avoid_sv1","""event"",""trial"",""time""
""fullscreenenter"",""1"",""2655""
","
","
","""event"",""trial"",""time""
""fullscreenenter"",""1"",""2655""
","
","","","","","","null","<div style=""font-size:60px;"">+</div>","null","","fixation","","",""
"memory-trial","173","359160","0.0-18.0-1.64","5036","approach_avoid_sv1","""event"",""trial"",""time""
""fullscreenenter"",""1"",""2655""
","
","
","""event"",""trial"",""time""
""fullscreenenter"",""1"",""2655""
","
","","","","","","1160.6000000238419","images/boat5.png","","","memory_trial","1","definitely_old",""
"html-keyboard-response","174","359664","0.0-18.0-0.65","5036","approach_avoid_sv1","""event"",""trial"",""time""
""fullscreenenter"",""1"",""2655""
","
","
","""event"",""trial"",""time""
""fullscreenenter"",""1"",""2655""
","
","","","","","","null","<div style=""font-size:60px;"">+</div>","null","","fixation","","",""
"memory-trial","175","362265","0.0-18.0-1.65","5036","approach_avoid_sv1","""event"",""trial"",""time""
""fullscreenenter"",""1"",""2655""
","
","
","""event"",""trial"",""time""
""fullscreenenter"",""1"",""2655""
","
","","","","","","1595","images/chair1.png","","","memory_trial","1","definitely_old",""
"html-keyboard-response","176","362770","0.0-18.0-0.66","5036","approach_avoid_sv1","""event"",""trial"",""time""
""fullscreenenter"",""1"",""2655""
","
","
","""event"",""trial"",""time""
""fullscreenenter"",""1"",""2655""
","
","","","","","","null","<div style=""font-size:60px;"">+</div>","null","","fixation","","",""
"memory-trial","177","364976","0.0-18.0-1.66","5036","approach_avoid_sv1","""event"",""trial"",""time""
""fullscreenenter"",""1"",""2655""
","
","
","""event"",""trial"",""time""
""fullscreenenter"",""1"",""2655""
","
","","","","","","1200.0999999642372","images/truck1.png","","","memory_trial","4","definitely_new",""
"html-keyboard-response","178","365480","0.0-18.0-0.67","5036","approach_avoid_sv1","""event"",""trial"",""time""
""fullscreenenter"",""1"",""2655""
","
","
","""event"",""trial"",""time""
""fullscreenenter"",""1"",""2655""
","
","","","","","","null","<div style=""font-size:60px;"">+</div>","null","","fixation","","",""
"memory-trial","179","367390","0.0-18.0-1.67","5036","approach_avoid_sv1","""event"",""trial"",""time""
""fullscreenenter"",""1"",""2655""
","
","
","""event"",""trial"",""time""
""fullscreenenter"",""1"",""2655""
","
","","","","","","907.4000000357628","images/rabbit4.png","","","memory_trial","4","definitely_new",""
"html-keyboard-response","180","367895","0.0-18.0-0.68","5036","approach_avoid_sv1","""event"",""trial"",""time""
""fullscreenenter"",""1"",""2655""
","
","
","""event"",""trial"",""time""
""fullscreenenter"",""1"",""2655""
","
","","","","","","null","<div style=""font-size:60px;"">+</div>","null","","fixation","","",""
"memory-trial","181","370287","0.0-18.0-1.68","5036","approach_avoid_sv1","""event"",""trial"",""time""
""fullscreenenter"",""1"",""2655""
","
","
","""event"",""trial"",""time""
""fullscreenenter"",""1"",""2655""
","
","","","","","","1387.2000000476837","images/apple4.png","","","memory_trial","1","definitely_old",""
"html-keyboard-response","182","370793","0.0-18.0-0.69","5036","approach_avoid_sv1","""event"",""trial"",""time""
""fullscreenenter"",""1"",""2655""
","
","
","""event"",""trial"",""time""
""fullscreenenter"",""1"",""2655""
","
","","","","","","null","<div style=""font-size:60px;"">+</div>","null","","fixation","","",""
"memory-trial","183","373343","0.0-18.0-1.69","5036","approach_avoid_sv1","""event"",""trial"",""time""
""fullscreenenter"",""1"",""2655""
","
","
","""event"",""trial"",""time""
""fullscreenenter"",""1"",""2655""
","
","","","","","","1545.5999999642372","images/cactus4.png","","","memory_trial","2","maybe_old",""
"html-keyboard-response","184","373847","0.0-18.0-0.70","5036","approach_avoid_sv1","""event"",""trial"",""time""
""fullscreenenter"",""1"",""2655""
","
","
","""event"",""trial"",""time""
""fullscreenenter"",""1"",""2655""
","
","","","","","","null","<div style=""font-size:60px;"">+</div>","null","","fixation","","",""
"memory-trial","185","375732","0.0-18.0-1.70","5036","approach_avoid_sv1","""event"",""trial"",""time""
""fullscreenenter"",""1"",""2655""
","
","
","""event"",""trial"",""time""
""fullscreenenter"",""1"",""2655""
","
","","","","","","883.2999999523163","images/cat4.png","","","memory_trial","1","definitely_old",""
"html-keyboard-response","186","376237","0.0-18.0-0.71","5036","approach_avoid_sv1","""event"",""trial"",""time""
""fullscreenenter"",""1"",""2655""
","
","
","""event"",""trial"",""time""
""fullscreenenter"",""1"",""2655""
","
","","","","","","null","<div style=""font-size:60px;"">+</div>","null","","fixation","","",""
"memory-trial","187","379679","0.0-18.0-1.71","5036","approach_avoid_sv1","""event"",""trial"",""time""
""fullscreenenter"",""1"",""2655""
","
","
","""event"",""trial"",""time""
""fullscreenenter"",""1"",""2655""
","
","","","","","","2438.5","images/apple3.png","","","memory_trial","3","maybe_new",""
"html-keyboard-response","188","380184","0.0-18.0-0.72","5036","approach_avoid_sv1","""event"",""trial"",""time""
""fullscreenenter"",""1"",""2655""
","
","
","""event"",""trial"",""time""
""fullscreenenter"",""1"",""2655""
","
","","","","","","null","<div style=""font-size:60px;"">+</div>","null","","fixation","","",""
"memory-trial","189","382798","0.0-18.0-1.72","5036","approach_avoid_sv1","""event"",""trial"",""time""
""fullscreenenter"",""1"",""2655""
","
","
","""event"",""trial"",""time""
""fullscreenenter"",""1"",""2655""
","
","","","","","","1609.7999999523163","images/apple7.png","","","memory_trial","2","maybe_old",""
"html-keyboard-response","190","383303","0.0-18.0-0.73","5036","approach_avoid_sv1","""event"",""trial"",""time""
""fullscreenenter"",""1"",""2655""
","
","
","""event"",""trial"",""time""
""fullscreenenter"",""1"",""2655""
","
","","","","","","null","<div style=""font-size:60px;"">+</div>","null","","fixation","","",""
"memory-trial","191","385542","0.0-18.0-1.73","5036","approach_avoid_sv1","""event"",""trial"",""time""
""fullscreenenter"",""1"",""2655""
","
","
","""event"",""trial"",""time""
""fullscreenenter"",""1"",""2655""
","
","","","","","","1234.7000000476837","images/cactus2.png","","","memory_trial","2","maybe_old",""
"html-keyboard-response","192","386047","0.0-18.0-0.74","5036","approach_avoid_sv1","""event"",""trial"",""time""
""fullscreenenter"",""1"",""2655""
","
","
","""event"",""trial"",""time""
""fullscreenenter"",""1"",""2655""
","
","","","","","","null","<div style=""font-size:60px;"">+</div>","null","","fixation","","",""
"memory-trial","193","389863","0.0-18.0-1.74","5036","approach_avoid_sv1","""event"",""trial"",""time""
""fullscreenenter"",""1"",""2655""
","
","
","""event"",""trial"",""time""
""fullscreenenter"",""1"",""2655""
","
","","","","","","2810.600000023842","images/tree8.png","","","memory_trial","2","maybe_old",""
"html-keyboard-response","194","390367","0.0-18.0-0.75","5036","approach_avoid_sv1","""event"",""trial"",""time""
""fullscreenenter"",""1"",""2655""
","
","
","""event"",""trial"",""time""
""fullscreenenter"",""1"",""2655""
","
","","","","","","null","<div style=""font-size:60px;"">+</div>","null","","fixation","","",""
"memory-trial","195","392471","0.0-18.0-1.75","5036","approach_avoid_sv1","""event"",""trial"",""time""
""fullscreenenter"",""1"",""2655""
","
","
","""event"",""trial"",""time""
""fullscreenenter"",""1"",""2655""
","
","","","","","","1099.1000000238419","images/apple5.png","","","memory_trial","1","definitely_old",""
"html-keyboard-response","196","392972","0.0-18.0-0.76","5036","approach_avoid_sv1","""event"",""trial"",""time""
""fullscreenenter"",""1"",""2655""
","
","
","""event"",""trial"",""time""
""fullscreenenter"",""1"",""2655""
","
","","","","","","null","<div style=""font-size:60px;"">+</div>","null","","fixation","","",""
"memory-trial","197","394988","0.0-18.0-1.76","5036","approach_avoid_sv1","""event"",""trial"",""time""
""fullscreenenter"",""1"",""2655""
","
","
","""event"",""trial"",""time""
""fullscreenenter"",""1"",""2655""
","
","","","","","","1013.5","images/plane2.png","","","memory_trial","1","definitely_old",""
"html-keyboard-response","198","395492","0.0-18.0-0.77","5036","approach_avoid_sv1","""event"",""trial"",""time""
""fullscreenenter"",""1"",""2655""
","
","
","""event"",""trial"",""time""
""fullscreenenter"",""1"",""2655""
","
","","","","","","null","<div style=""font-size:60px;"">+</div>","null","","fixation","","",""
"memory-trial","199","397296","0.0-18.0-1.77","5036","approach_avoid_sv1","""event"",""trial"",""time""
""fullscreenenter"",""1"",""2655""
","
","
","""event"",""trial"",""time""
""fullscreenenter"",""1"",""2655""
","
","","","","","","798.1000000238419","images/rodent2.png","","","memory_trial","1","definitely_old",""
"html-keyboard-response","200","397799","0.0-18.0-0.78","5036","approach_avoid_sv1","""event"",""trial"",""time""
""fullscreenenter"",""1"",""2655""
","
","
","""event"",""trial"",""time""
""fullscreenenter"",""1"",""2655""
","
","","","","","","null","<div style=""font-size:60px;"">+</div>","null","","fixation","","",""
"memory-trial","201","400582","0.0-18.0-1.78","5036","approach_avoid_sv1","""event"",""trial"",""time""
""fullscreenenter"",""1"",""2655""
","
","
","""event"",""trial"",""time""
""fullscreenenter"",""1"",""2655""
","
","","","","","","1779.5999999642372","images/apple2.png","","","memory_trial","3","maybe_new",""
"html-keyboard-response","202","401087","0.0-18.0-0.79","5036","approach_avoid_sv1","""event"",""trial"",""time""
""fullscreenenter"",""1"",""2655""
","
","
","""event"",""trial"",""time""
""fullscreenenter"",""1"",""2655""
","
","","","","","","null","<div style=""font-size:60px;"">+</div>","null","","fixation","","",""
"memory-trial","203","402846","0.0-18.0-1.79","5036","approach_avoid_sv1","""event"",""trial"",""time""
""fullscreenenter"",""1"",""2655""
","
","
","""event"",""trial"",""time""
""fullscreenenter"",""1"",""2655""
","
","","","","","","753.1999999880791","images/straw8.png","","","memory_trial","4","definitely_new",""
"html-keyboard-response","204","403351","0.0-18.0-0.80","5036","approach_avoid_sv1","""event"",""trial"",""time""
""fullscreenenter"",""1"",""2655""
","
","
","""event"",""trial"",""time""
""fullscreenenter"",""1"",""2655""
","
","","","","","","null","<div style=""font-size:60px;"">+</div>","null","","fixation","","",""
"memory-trial","205","405621","0.0-18.0-1.80","5036","approach_avoid_sv1","""event"",""trial"",""time""
""fullscreenenter"",""1"",""2655""
","
","
","""event"",""trial"",""time""
""fullscreenenter"",""1"",""2655""
","
","","","","","","1265.5999999642372","images/cat3.png","","","memory_trial","4","definitely_new",""
"html-keyboard-response","206","406126","0.0-18.0-0.81","5036","approach_avoid_sv1","""event"",""trial"",""time""
""fullscreenenter"",""1"",""2655""
","
","
","""event"",""trial"",""time""
""fullscreenenter"",""1"",""2655""
","
","","","","","","null","<div style=""font-size:60px;"">+</div>","null","","fixation","","",""
"memory-trial","207","407948","0.0-18.0-1.81","5036","approach_avoid_sv1","""event"",""trial"",""time""
""fullscreenenter"",""1"",""2655""
","
","
","""event"",""trial"",""time""
""fullscreenenter"",""1"",""2655""
","
","","","","","","819.1999999880791","images/train5.png","","","memory_trial","4","definitely_new",""
"html-keyboard-response","208","408454","0.0-18.0-0.82","5036","approach_avoid_sv1","""event"",""trial"",""time""
""fullscreenenter"",""1"",""2655""
","
","
","""event"",""trial"",""time""
""fullscreenenter"",""1"",""2655""
","
","","","","","","null","<div style=""font-size:60px;"">+</div>","null","","fixation","","",""
"memory-trial","209","411297","0.0-18.0-1.82","5036","approach_avoid_sv1","""event"",""trial"",""time""
""fullscreenenter"",""1"",""2655""
","
","
","""event"",""trial"",""time""
""fullscreenenter"",""1"",""2655""
","
","","","","","","1836.2000000476837","images/rabbit8.png","","","memory_trial","4","definitely_new",""
"html-keyboard-response","210","411797","0.0-18.0-0.83","5036","approach_avoid_sv1","""event"",""trial"",""time""
""fullscreenenter"",""1"",""2655""
","
","
","""event"",""trial"",""time""
""fullscreenenter"",""1"",""2655""
","
","","","","","","null","<div style=""font-size:60px;"">+</div>","null","","fixation","","",""
"memory-trial","211","414508","0.0-18.0-1.83","5036","approach_avoid_sv1","""event"",""trial"",""time""
""fullscreenenter"",""1"",""2655""
","
","
","""event"",""trial"",""time""
""fullscreenenter"",""1"",""2655""
","
","","","","","","1707.699999988079","images/horse5.png","","","memory_trial","3","maybe_new",""
"html-keyboard-response","212","415013","0.0-18.0-0.84","5036","approach_avoid_sv1","""event"",""trial"",""time""
""fullscreenenter"",""1"",""2655""
","
","
","""event"",""trial"",""time""
""fullscreenenter"",""1"",""2655""
","
","","","","","","null","<div style=""font-size:60px;"">+</div>","null","","fixation","","",""
"memory-trial","213","416885","0.0-18.0-1.84","5036","approach_avoid_sv1","""event"",""trial"",""time""
""fullscreenenter"",""1"",""2655""
","
","
","""event"",""trial"",""time""
""fullscreenenter"",""1"",""2655""
","
","","","","","","867.5","images/horse3.png","","","memory_trial","1","definitely_old",""
"html-keyboard-response","214","417387","0.0-18.0-0.85","5036","approach_avoid_sv1","""event"",""trial"",""time""
""fullscreenenter"",""1"",""2655""
","
","
","""event"",""trial"",""time""
""fullscreenenter"",""1"",""2655""
","
","","","","","","null","<div style=""font-size:60px;"">+</div>","null","","fixation","","",""
"memory-trial","215","420203","0.0-18.0-1.85","5036","approach_avoid_sv1","""event"",""trial"",""time""
""fullscreenenter"",""1"",""2655""
","
","
","""event"",""trial"",""time""
""fullscreenenter"",""1"",""2655""
","
","","","","","","1813.5999999642372","images/cat8.png","","","memory_trial","3","maybe_new",""
"html-keyboard-response","216","420708","0.0-18.0-0.86","5036","approach_avoid_sv1","""event"",""trial"",""time""
""fullscreenenter"",""1"",""2655""
","
","
","""event"",""trial"",""time""
""fullscreenenter"",""1"",""2655""
","
","","","","","","null","<div style=""font-size:60px;"">+</div>","null","","fixation","","",""
"memory-trial","217","424150","0.0-18.0-1.86","5036","approach_avoid_sv1","""event"",""trial"",""time""
""fullscreenenter"",""1"",""2655""
","
","
","""event"",""trial"",""time""
""fullscreenenter"",""1"",""2655""
","
","","","","","","2437","images/straw1.png","","","memory_trial","4","definitely_new",""
"html-keyboard-response","218","424655","0.0-18.0-0.87","5036","approach_avoid_sv1","""event"",""trial"",""time""
""fullscreenenter"",""1"",""2655""
","
","
","""event"",""trial"",""time""
""fullscreenenter"",""1"",""2655""
","
","","","","","","null","<div style=""font-size:60px;"">+</div>","null","","fixation","","",""
"memory-trial","219","427511","0.0-18.0-1.87","5036","approach_avoid_sv1","""event"",""trial"",""time""
""fullscreenenter"",""1"",""2655""
","
","
","""event"",""trial"",""time""
""fullscreenenter"",""1"",""2655""
","
","","","","","","1849.0999999642372","images/cow7.png","","","memory_trial","2","maybe_old",""
"html-keyboard-response","220","428016","0.0-18.0-0.88","5036","approach_avoid_sv1","""event"",""trial"",""time""
""fullscreenenter"",""1"",""2655""
","
","
","""event"",""trial"",""time""
""fullscreenenter"",""1"",""2655""
","
","","","","","","null","<div style=""font-size:60px;"">+</div>","null","","fixation","","",""
"memory-trial","221","430741","0.0-18.0-1.88","5036","approach_avoid_sv1","""event"",""trial"",""time""
""fullscreenenter"",""1"",""2655""
","
","
","""event"",""trial"",""time""
""fullscreenenter"",""1"",""2655""
","
","","","","","","1719.8999999761581","images/rabbit6.png","","","memory_trial","4","definitely_new",""
"html-keyboard-response","222","431243","0.0-18.0-0.89","5036","approach_avoid_sv1","""event"",""trial"",""time""
""fullscreenenter"",""1"",""2655""
","
","
","""event"",""trial"",""time""
""fullscreenenter"",""1"",""2655""
","
","","","","","","null","<div style=""font-size:60px;"">+</div>","null","","fixation","","",""
"memory-trial","223","433548","0.0-18.0-1.89","5036","approach_avoid_sv1","""event"",""trial"",""time""
""fullscreenenter"",""1"",""2655""
","
","
","""event"",""trial"",""time""
""fullscreenenter"",""1"",""2655""
","
","","","","","","1300.8999999761581","images/bed3.png","","","memory_trial","3","maybe_new",""
"html-keyboard-response","224","434053","0.0-18.0-0.90","5036","approach_avoid_sv1","""event"",""trial"",""time""
""fullscreenenter"",""1"",""2655""
","
","
","""event"",""trial"",""time""
""fullscreenenter"",""1"",""2655""
","
","","","","","","null","<div style=""font-size:60px;"">+</div>","null","","fixation","","",""
"memory-trial","225","436317","0.0-18.0-1.90","5036","approach_avoid_sv1","""event"",""trial"",""time""
""fullscreenenter"",""1"",""2655""
","
","
","""event"",""trial"",""time""
""fullscreenenter"",""1"",""2655""
","
","","","","","","1259.6000000238419","images/table7.png","","","memory_trial","1","definitely_old",""
"html-keyboard-response","226","436821","0.0-18.0-0.91","5036","approach_avoid_sv1","""event"",""trial"",""time""
""fullscreenenter"",""1"",""2655""
","
","
","""event"",""trial"",""time""
""fullscreenenter"",""1"",""2655""
","
","","","","","","null","<div style=""font-size:60px;"">+</div>","null","","fixation","","",""
"memory-trial","227","438900","0.0-18.0-1.91","5036","approach_avoid_sv1","""event"",""trial"",""time""
""fullscreenenter"",""1"",""2655""
","
","
","""event"",""trial"",""time""
""fullscreenenter"",""1"",""2655""
","
","","","","","","1074.800000011921","images/straw5.png","","","memory_trial","4","definitely_new",""
"html-button-response","228","440535","0.0-18.0-2.91-0.91","5036","approach_avoid_sv1","""event"",""trial"",""time""
""fullscreenenter"",""1"",""2655""
","
","
","""event"",""trial"",""time""
""fullscreenenter"",""1"",""2655""
","
","","","","","","1634.199999988079","<p> Take a break! </p><p> Click the button to continue. </p>","0","","break","","",""
"html-keyboard-response","229","441039","0.0-18.0-0.92","5036","approach_avoid_sv1","""event"",""trial"",""time""
""fullscreenenter"",""1"",""2655""
","
","
","""event"",""trial"",""time""
""fullscreenenter"",""1"",""2655""
","
","","","","","","null","<div style=""font-size:60px;"">+</div>","null","","fixation","","",""
"memory-trial","230","443375","0.0-18.0-1.92","5036","approach_avoid_sv1","""event"",""trial"",""time""
""fullscreenenter"",""1"",""2655""
","
","
","""event"",""trial"",""time""
""fullscreenenter"",""1"",""2655""
","
","","","","","","1328.6000000238419","images/goat6.png","","","memory_trial","2","maybe_old",""
"html-keyboard-response","231","443880","0.0-18.0-0.93","5036","approach_avoid_sv1","""event"",""trial"",""time""
""fullscreenenter"",""1"",""2655""
","
","
","""event"",""trial"",""time""
""fullscreenenter"",""1"",""2655""
","
","","","","","","null","<div style=""font-size:60px;"">+</div>","null","","fixation","","",""
"memory-trial","232","446060","0.0-18.0-1.93","5036","approach_avoid_sv1","""event"",""trial"",""time""
""fullscreenenter"",""1"",""2655""
","
","
","""event"",""trial"",""time""
""fullscreenenter"",""1"",""2655""
","
","","","","","","1176.0999999642372","images/flower1.png","","","memory_trial","1","definitely_old",""
"html-keyboard-response","233","446562","0.0-18.0-0.94","5036","approach_avoid_sv1","""event"",""trial"",""time""
""fullscreenenter"",""1"",""2655""
","
","
","""event"",""trial"",""time""
""fullscreenenter"",""1"",""2655""
","
","","","","","","null","<div style=""font-size:60px;"">+</div>","null","","fixation","","",""
"memory-trial","234","448983","0.0-18.0-1.94","5036","approach_avoid_sv1","""event"",""trial"",""time""
""fullscreenenter"",""1"",""2655""
","
","
","""event"",""trial"",""time""
""fullscreenenter"",""1"",""2655""
","
","","","","","","1413.699999988079","images/sofa1.png","","","memory_trial","3","maybe_new",""
"html-keyboard-response","235","449487","0.0-18.0-0.95","5036","approach_avoid_sv1","""event"",""trial"",""time""
""fullscreenenter"",""1"",""2655""
","
","
","""event"",""trial"",""time""
""fullscreenenter"",""1"",""2655""
","
","","","","","","null","<div style=""font-size:60px;"">+</div>","null","","fixation","","",""
"memory-trial","236","451771","0.0-18.0-1.95","5036","approach_avoid_sv1","""event"",""trial"",""time""
""fullscreenenter"",""1"",""2655""
","
","
","""event"",""trial"",""time""
""fullscreenenter"",""1"",""2655""
","
","","","","","","1279.300000011921","images/tree4.png","","","memory_trial","1","definitely_old",""
"html-keyboard-response","237","452274","0.0-18.0-0.96","5036","approach_avoid_sv1","""event"",""trial"",""time""
""fullscreenenter"",""1"",""2655""
","
","
","""event"",""trial"",""time""
""fullscreenenter"",""1"",""2655""
","
","","","","","","null","<div style=""font-size:60px;"">+</div>","null","","fixation","","",""
"memory-trial","238","454668","0.0-18.0-1.96","5036","approach_avoid_sv1","""event"",""trial"",""time""
""fullscreenenter"",""1"",""2655""
","
","
","""event"",""trial"",""time""
""fullscreenenter"",""1"",""2655""
","
","","","","","","1388.5","images/plane8.png","","","memory_trial","1","definitely_old",""
"html-keyboard-response","239","455171","0.0-18.0-0.97","5036","approach_avoid_sv1","""event"",""trial"",""time""
""fullscreenenter"",""1"",""2655""
","
","
","""event"",""trial"",""time""
""fullscreenenter"",""1"",""2655""
","
","","","","","","null","<div style=""font-size:60px;"">+</div>","null","","fixation","","",""
"memory-trial","240","458421","0.0-18.0-1.97","5036","approach_avoid_sv1","""event"",""trial"",""time""
""fullscreenenter"",""1"",""2655""
","
","
","""event"",""trial"",""time""
""fullscreenenter"",""1"",""2655""
","
","","","","","","2244.5","images/cactus3.png","","","memory_trial","3","maybe_new",""
"html-keyboard-response","241","458926","0.0-18.0-0.98","5036","approach_avoid_sv1","""event"",""trial"",""time""
""fullscreenenter"",""1"",""2655""
","
","
","""event"",""trial"",""time""
""fullscreenenter"",""1"",""2655""
","
","","","","","","null","<div style=""font-size:60px;"">+</div>","null","","fixation","","",""
"memory-trial","242","461231","0.0-18.0-1.98","5036","approach_avoid_sv1","""event"",""trial"",""time""
""fullscreenenter"",""1"",""2655""
","
","
","""event"",""trial"",""time""
""fullscreenenter"",""1"",""2655""
","
","","","","","","1297.300000011921","images/bush3.png","","","memory_trial","3","maybe_new",""
"html-keyboard-response","243","461736","0.0-18.0-0.99","5036","approach_avoid_sv1","""event"",""trial"",""time""
""fullscreenenter"",""1"",""2655""
","
","
","""event"",""trial"",""time""
""fullscreenenter"",""1"",""2655""
","
","","","","","","null","<div style=""font-size:60px;"">+</div>","null","","fixation","","",""
"memory-trial","244","463587","0.0-18.0-1.99","5036","approach_avoid_sv1","""event"",""trial"",""time""
""fullscreenenter"",""1"",""2655""
","
","
","""event"",""trial"",""time""
""fullscreenenter"",""1"",""2655""
","
","","","","","","847.1999999880791","images/sofa7.png","","","memory_trial","4","definitely_new",""
"html-keyboard-response","245","464093","0.0-18.0-0.100","5036","approach_avoid_sv1","""event"",""trial"",""time""
""fullscreenenter"",""1"",""2655""
","
","
","""event"",""trial"",""time""
""fullscreenenter"",""1"",""2655""
","
","","","","","","null","<div style=""font-size:60px;"">+</div>","null","","fixation","","",""
"memory-trial","246","466420","0.0-18.0-1.100","5036","approach_avoid_sv1","""event"",""trial"",""time""
""fullscreenenter"",""1"",""2655""
","
","
","""event"",""trial"",""time""
""fullscreenenter"",""1"",""2655""
","
","","","","","","1322","images/cactus8.png","","","memory_trial","4","definitely_new",""
"html-keyboard-response","247","466925","0.0-18.0-0.101","5036","approach_avoid_sv1","""event"",""trial"",""time""
""fullscreenenter"",""1"",""2655""
","
","
","""event"",""trial"",""time""
""fullscreenenter"",""1"",""2655""
","
","","","","","","null","<div style=""font-size:60px;"">+</div>","null","","fixation","","",""
"memory-trial","248","469074","0.0-18.0-1.101","5036","approach_avoid_sv1","""event"",""trial"",""time""
""fullscreenenter"",""1"",""2655""
","
","
","""event"",""trial"",""time""
""fullscreenenter"",""1"",""2655""
","
","","","","","","1145.5999999642372","images/bed1.png","","","memory_trial","1","definitely_old",""
"html-keyboard-response","249","469580","0.0-18.0-0.102","5036","approach_avoid_sv1","""event"",""trial"",""time""
""fullscreenenter"",""1"",""2655""
","
","
","""event"",""trial"",""time""
""fullscreenenter"",""1"",""2655""
","
","","","","","","null","<div style=""font-size:60px;"">+</div>","null","","fixation","","",""
"memory-trial","250","471716","0.0-18.0-1.102","5036","approach_avoid_sv1","""event"",""trial"",""time""
""fullscreenenter"",""1"",""2655""
","
","
","""event"",""trial"",""time""
""fullscreenenter"",""1"",""2655""
","
","","","","","","1131.6000000238419","images/goat2.png","","","memory_trial","2","maybe_old",""
"html-keyboard-response","251","472219","0.0-18.0-0.103","5036","approach_avoid_sv1","""event"",""trial"",""time""
""fullscreenenter"",""1"",""2655""
","
","
","""event"",""trial"",""time""
""fullscreenenter"",""1"",""2655""
","
","","","","","","null","<div style=""font-size:60px;"">+</div>","null","","fixation","","",""
"memory-trial","252","474657","0.0-18.0-1.103","5036","approach_avoid_sv1","""event"",""trial"",""time""
""fullscreenenter"",""1"",""2655""
","
","
","""event"",""trial"",""time""
""fullscreenenter"",""1"",""2655""
","
","","","","","","1434.800000011921","images/bush6.png","","","memory_trial","3","maybe_new",""
"html-keyboard-response","253","475162","0.0-18.0-0.104","5036","approach_avoid_sv1","""event"",""trial"",""time""
""fullscreenenter"",""1"",""2655""
","
","
","""event"",""trial"",""time""
""fullscreenenter"",""1"",""2655""
","
","","","","","","null","<div style=""font-size:60px;"">+</div>","null","","fixation","","",""
"memory-trial","254","477931","0.0-18.0-1.104","5036","approach_avoid_sv1","""event"",""trial"",""time""
""fullscreenenter"",""1"",""2655""
","
","
","""event"",""trial"",""time""
""fullscreenenter"",""1"",""2655""
","
","","","","","","1764.199999988079","images/orange6.png","","","memory_trial","1","definitely_old",""
"html-keyboard-response","255","478436","0.0-18.0-0.105","5036","approach_avoid_sv1","""event"",""trial"",""time""
""fullscreenenter"",""1"",""2655""
","
","
","""event"",""trial"",""time""
""fullscreenenter"",""1"",""2655""
","
","","","","","","null","<div style=""font-size:60px;"">+</div>","null","","fixation","","",""
"memory-trial","256","480596","0.0-18.0-1.105","5036","approach_avoid_sv1","""event"",""trial"",""time""
""fullscreenenter"",""1"",""2655""
","
","
","""event"",""trial"",""time""
""fullscreenenter"",""1"",""2655""
","
","","","","","","1153","images/boat6.png","","","memory_trial","1","definitely_old",""
"html-keyboard-response","257","481100","0.0-18.0-0.106","5036","approach_avoid_sv1","""event"",""trial"",""time""
""fullscreenenter"",""1"",""2655""
","
","
","""event"",""trial"",""time""
""fullscreenenter"",""1"",""2655""
","
","","","","","","null","<div style=""font-size:60px;"">+</div>","null","","fixation","","",""
"memory-trial","258","483540","0.0-18.0-1.106","5036","approach_avoid_sv1","""event"",""trial"",""time""
""fullscreenenter"",""1"",""2655""
","
","
","""event"",""trial"",""time""
""fullscreenenter"",""1"",""2655""
","
","","","","","","1435.300000011921","images/truck6.png","","","memory_trial","2","maybe_old",""
"html-keyboard-response","259","484044","0.0-18.0-0.107","5036","approach_avoid_sv1","""event"",""trial"",""time""
""fullscreenenter"",""1"",""2655""
","
","
","""event"",""trial"",""time""
""fullscreenenter"",""1"",""2655""
","
","","","","","","null","<div style=""font-size:60px;"">+</div>","null","","fixation","","",""
"memory-trial","260","486339","0.0-18.0-1.107","5036","approach_avoid_sv1","""event"",""trial"",""time""
""fullscreenenter"",""1"",""2655""
","
","
","""event"",""trial"",""time""
""fullscreenenter"",""1"",""2655""
","
","","","","","","1290.8999999761581","images/dog5.png","","","memory_trial","1","definitely_old",""
"html-keyboard-response","261","486843","0.0-18.0-0.108","5036","approach_avoid_sv1","""event"",""trial"",""time""
""fullscreenenter"",""1"",""2655""
","
","
","""event"",""trial"",""time""
""fullscreenenter"",""1"",""2655""
","
","","","","","","null","<div style=""font-size:60px;"">+</div>","null","","fixation","","",""
"memory-trial","262","489523","0.0-18.0-1.108","5036","approach_avoid_sv1","""event"",""trial"",""time""
""fullscreenenter"",""1"",""2655""
","
","
","""event"",""trial"",""time""
""fullscreenenter"",""1"",""2655""
","
","","","","","","1675.0999999642372","images/rodent7.png","","","memory_trial","4","definitely_new",""
"html-keyboard-response","263","490028","0.0-18.0-0.109","5036","approach_avoid_sv1","""event"",""trial"",""time""
""fullscreenenter"",""1"",""2655""
","
","
","""event"",""trial"",""time""
""fullscreenenter"",""1"",""2655""
","
","","","","","","null","<div style=""font-size:60px;"">+</div>","null","","fixation","","",""
"memory-trial","264","491856","0.0-18.0-1.109","5036","approach_avoid_sv1","""event"",""trial"",""time""
""fullscreenenter"",""1"",""2655""
","
","
","""event"",""trial"",""time""
""fullscreenenter"",""1"",""2655""
","
","","","","","","825.6000000238419","images/horse1.png","","","memory_trial","1","definitely_old",""
"html-keyboard-response","265","492361","0.0-18.0-0.110","5036","approach_avoid_sv1","""event"",""trial"",""time""
""fullscreenenter"",""1"",""2655""
","
","
","""event"",""trial"",""time""
""fullscreenenter"",""1"",""2655""
","
","","","","","","null","<div style=""font-size:60px;"">+</div>","null","","fixation","","",""
"memory-trial","266","495393","0.0-18.0-1.110","5036","approach_avoid_sv1","""event"",""trial"",""time""
""fullscreenenter"",""1"",""2655""
","
","
","""event"",""trial"",""time""
""fullscreenenter"",""1"",""2655""
","
","","","","","","2028.8999999761581","images/table1.png","","","memory_trial","3","maybe_new",""
"html-keyboard-response","267","495897","0.0-18.0-0.111","5036","approach_avoid_sv1","""event"",""trial"",""time""
""fullscreenenter"",""1"",""2655""
","
","
","""event"",""trial"",""time""
""fullscreenenter"",""1"",""2655""
","
","","","","","","null","<div style=""font-size:60px;"">+</div>","null","","fixation","","",""
"memory-trial","268","497784","0.0-18.0-1.111","5036","approach_avoid_sv1","""event"",""trial"",""time""
""fullscreenenter"",""1"",""2655""
","
","
","""event"",""trial"",""time""
""fullscreenenter"",""1"",""2655""
","
","","","","","","884.9000000357628","images/cat7.png","","","memory_trial","1","definitely_old",""
"html-keyboard-response","269","498288","0.0-18.0-0.112","5036","approach_avoid_sv1","""event"",""trial"",""time""
""fullscreenenter"",""1"",""2655""
","
","
","""event"",""trial"",""time""
""fullscreenenter"",""1"",""2655""
","
","","","","","","null","<div style=""font-size:60px;"">+</div>","null","","fixation","","",""
"memory-trial","270","500666","0.0-18.0-1.112","5036","approach_avoid_sv1","""event"",""trial"",""time""
""fullscreenenter"",""1"",""2655""
","
","
","""event"",""trial"",""time""
""fullscreenenter"",""1"",""2655""
","
","","","","","","1373.699999988079","images/cow1.png","","","memory_trial","4","definitely_new",""
"html-keyboard-response","271","501168","0.0-18.0-0.113","5036","approach_avoid_sv1","""event"",""trial"",""time""
""fullscreenenter"",""1"",""2655""
","
","
","""event"",""trial"",""time""
""fullscreenenter"",""1"",""2655""
","
","","","","","","null","<div style=""font-size:60px;"">+</div>","null","","fixation","","",""
"memory-trial","272","503580","0.0-18.0-1.113","5036","approach_avoid_sv1","""event"",""trial"",""time""
""fullscreenenter"",""1"",""2655""
","
","
","""event"",""trial"",""time""
""fullscreenenter"",""1"",""2655""
","
","","","","","","1406.3999999761581","images/dog7.png","","","memory_trial","4","definitely_new",""
"html-keyboard-response","273","504082","0.0-18.0-0.114","5036","approach_avoid_sv1","""event"",""trial"",""time""
""fullscreenenter"",""1"",""2655""
","
","
","""event"",""trial"",""time""
""fullscreenenter"",""1"",""2655""
","
","","","","","","null","<div style=""font-size:60px;"">+</div>","null","","fixation","","",""
"memory-trial","274","506171","0.0-18.0-1.114","5036","approach_avoid_sv1","""event"",""trial"",""time""
""fullscreenenter"",""1"",""2655""
","
","
","""event"",""trial"",""time""
""fullscreenenter"",""1"",""2655""
","
","","","","","","1084.4000000357628","images/bed6.png","","","memory_trial","4","definitely_new",""
"html-keyboard-response","275","506676","0.0-18.0-0.115","5036","approach_avoid_sv1","""event"",""trial"",""time""
""fullscreenenter"",""1"",""2655""
","
","
","""event"",""trial"",""time""
""fullscreenenter"",""1"",""2655""
","
","","","","","","null","<div style=""font-size:60px;"">+</div>","null","","fixation","","",""
"memory-trial","276","509323","0.0-18.0-1.115","5036","approach_avoid_sv1","""event"",""trial"",""time""
""fullscreenenter"",""1"",""2655""
","
","
","""event"",""trial"",""time""
""fullscreenenter"",""1"",""2655""
","
","","","","","","1640.300000011921","images/sheep6.png","","","memory_trial","1","definitely_old",""
"html-keyboard-response","277","509828","0.0-18.0-0.116","5036","approach_avoid_sv1","""event"",""trial"",""time""
""fullscreenenter"",""1"",""2655""
","
","
","""event"",""trial"",""time""
""fullscreenenter"",""1"",""2655""
","
","","","","","","null","<div style=""font-size:60px;"">+</div>","null","","fixation","","",""
"memory-trial","278","511728","0.0-18.0-1.116","5036","approach_avoid_sv1","""event"",""trial"",""time""
""fullscreenenter"",""1"",""2655""
","
","
","""event"",""trial"",""time""
""fullscreenenter"",""1"",""2655""
","
","","","","","","896.3000000119209","images/orange3.png","","","memory_trial","1","definitely_old",""
"html-keyboard-response","279","512232","0.0-18.0-0.117","5036","approach_avoid_sv1","""event"",""trial"",""time""
""fullscreenenter"",""1"",""2655""
","
","
","""event"",""trial"",""time""
""fullscreenenter"",""1"",""2655""
","
","","","","","","null","<div style=""font-size:60px;"">+</div>","null","","fixation","","",""
"memory-trial","280","514298","0.0-18.0-1.117","5036","approach_avoid_sv1","""event"",""trial"",""time""
""fullscreenenter"",""1"",""2655""
","
","
","""event"",""trial"",""time""
""fullscreenenter"",""1"",""2655""
","
","","","","","","1061.300000011921","images/orange2.png","","","memory_trial","1","definitely_old",""
"html-keyboard-response","281","514802","0.0-18.0-0.118","5036","approach_avoid_sv1","""event"",""trial"",""time""
""fullscreenenter"",""1"",""2655""
","
","
","""event"",""trial"",""time""
""fullscreenenter"",""1"",""2655""
","
","","","","","","null","<div style=""font-size:60px;"">+</div>","null","","fixation","","",""
"memory-trial","282","516592","0.0-18.0-1.118","5036","approach_avoid_sv1","""event"",""trial"",""time""
""fullscreenenter"",""1"",""2655""
","
","
","""event"",""trial"",""time""
""fullscreenenter"",""1"",""2655""
","
","","","","","","787.3999999761581","images/plane7.png","","","memory_trial","1","definitely_old",""
"html-keyboard-response","283","517095","0.0-18.0-0.119","5036","approach_avoid_sv1","""event"",""trial"",""time""
""fullscreenenter"",""1"",""2655""
","
","
","""event"",""trial"",""time""
""fullscreenenter"",""1"",""2655""
","
","","","","","","null","<div style=""font-size:60px;"">+</div>","null","","fixation","","",""
"memory-trial","284","520064","0.0-18.0-1.119","5036","approach_avoid_sv1","""event"",""trial"",""time""
""fullscreenenter"",""1"",""2655""
","
","
","""event"",""trial"",""time""
""fullscreenenter"",""1"",""2655""
","
","","","","","","1965.5","images/table3.png","","","memory_trial","3","maybe_new",""
"html-keyboard-response","285","520567","0.0-18.0-0.120","5036","approach_avoid_sv1","""event"",""trial"",""time""
""fullscreenenter"",""1"",""2655""
","
","
","""event"",""trial"",""time""
""fullscreenenter"",""1"",""2655""
","
","","","","","","null","<div style=""font-size:60px;"">+</div>","null","","fixation","","",""
"memory-trial","286","522689","0.0-18.0-1.120","5036","approach_avoid_sv1","""event"",""trial"",""time""
""fullscreenenter"",""1"",""2655""
","
","
","""event"",""trial"",""time""
""fullscreenenter"",""1"",""2655""
","
","","","","","","1117","images/banana4.png","","","memory_trial","3","maybe_new",""
"html-keyboard-response","287","523191","0.0-18.0-0.121","5036","approach_avoid_sv1","""event"",""trial"",""time""
""fullscreenenter"",""1"",""2655""
","
","
","""event"",""trial"",""time""
""fullscreenenter"",""1"",""2655""
","
","","","","","","null","<div style=""font-size:60px;"">+</div>","null","","fixation","","",""
"memory-trial","288","525066","0.0-18.0-1.121","5036","approach_avoid_sv1","""event"",""trial"",""time""
""fullscreenenter"",""1"",""2655""
","
","
","""event"",""trial"",""time""
""fullscreenenter"",""1"",""2655""
","
","","","","","","869.6999999880791","images/cactus5.png","","","memory_trial","1","definitely_old",""
"html-keyboard-response","289","525571","0.0-18.0-0.122","5036","approach_avoid_sv1","""event"",""trial"",""time""
""fullscreenenter"",""1"",""2655""
","
","
","""event"",""trial"",""time""
""fullscreenenter"",""1"",""2655""
","
","","","","","","null","<div style=""font-size:60px;"">+</div>","null","","fixation","","",""
"memory-trial","290","528897","0.0-18.0-1.122","5036","approach_avoid_sv1","""event"",""trial"",""time""
""fullscreenenter"",""1"",""2655""
","
","
","""event"",""trial"",""time""
""fullscreenenter"",""1"",""2655""
","
","","","","","","2322.7000000476837","images/goat4.png","","","memory_trial","3","maybe_new",""
"html-keyboard-response","291","529402","0.0-18.0-0.123","5036","approach_avoid_sv1","""event"",""trial"",""time""
""fullscreenenter"",""1"",""2655""
","
","
","""event"",""trial"",""time""
""fullscreenenter"",""1"",""2655""
","
","","","","","","null","<div style=""font-size:60px;"">+</div>","null","","fixation","","",""
"memory-trial","292","531439","0.0-18.0-1.123","5036","approach_avoid_sv1","""event"",""trial"",""time""
""fullscreenenter"",""1"",""2655""
","
","
","""event"",""trial"",""time""
""fullscreenenter"",""1"",""2655""
","
","","","","","","1034.5","images/bush4.png","","","memory_trial","4","definitely_new",""
"html-keyboard-response","293","531945","0.0-18.0-0.124","5036","approach_avoid_sv1","""event"",""trial"",""time""
""fullscreenenter"",""1"",""2655""
","
","
","""event"",""trial"",""time""
""fullscreenenter"",""1"",""2655""
","
","","","","","","null","<div style=""font-size:60px;"">+</div>","null","","fixation","","",""
"memory-trial","294","534665","0.0-18.0-1.124","5036","approach_avoid_sv1","""event"",""trial"",""time""
""fullscreenenter"",""1"",""2655""
","
","
","""event"",""trial"",""time""
""fullscreenenter"",""1"",""2655""
","
","","","","","","1715.800000011921","images/rabbit2.png","","","memory_trial","3","maybe_new",""
"html-keyboard-response","295","535166","0.0-18.0-0.125","5036","approach_avoid_sv1","""event"",""trial"",""time""
""fullscreenenter"",""1"",""2655""
","
","
","""event"",""trial"",""time""
""fullscreenenter"",""1"",""2655""
","
","","","","","","null","<div style=""font-size:60px;"">+</div>","null","","fixation","","",""
"memory-trial","296","538481","0.0-18.0-1.125","5036","approach_avoid_sv1","""event"",""trial"",""time""
""fullscreenenter"",""1"",""2655""
","
","
","""event"",""trial"",""time""
""fullscreenenter"",""1"",""2655""
","
","","","","","","2309.600000023842","images/cat1.png","","","memory_trial","2","maybe_old",""
"html-keyboard-response","297","538985","0.0-18.0-0.126","5036","approach_avoid_sv1","""event"",""trial"",""time""
""fullscreenenter"",""1"",""2655""
","
","
