"trial_type","trial_index","time_elapsed","internal_node_id","subject_id","task_version","interactions","blur_events","focus_events","fullscreenenter_events","fullscreenexit_events","success","timeout","failed_images","failed_audio","failed_video","rt","stimulus","response","button_pressed","task_part","key_press","answer","correct"
"pavlovia","0","6","0.0-0.0","4468","approach_avoid_sv1","""event"",""trial"",""time""
""fullscreenenter"",""1"",""5556""
","
","
","""event"",""trial"",""time""
""fullscreenenter"",""1"",""5556""
","
","","","","","","","","","","","","",""
"fullscreen","1","6541","0.0-1.0","4468","approach_avoid_sv1","""event"",""trial"",""time""
""fullscreenenter"",""1"",""5556""
","
","
","""event"",""trial"",""time""
""fullscreenenter"",""1"",""5556""
","
","true","","","","","","","","","","","",""
"preload","2","8174","0.0-2.0","4468","approach_avoid_sv1","""event"",""trial"",""time""
""fullscreenenter"",""1"",""5556""
","
","
","""event"",""trial"",""time""
""fullscreenenter"",""1"",""5556""
","
","true","false","[]","[]","[]","","","","","","","",""
"preload","3","9334","0.0-3.0","4468","approach_avoid_sv1","""event"",""trial"",""time""
""fullscreenenter"",""1"",""5556""
","
","
","""event"",""trial"",""time""
""fullscreenenter"",""1"",""5556""
","
","true","false","[]","[]","[]","","","","","","","",""
"preload","4","9562","0.0-4.0","4468","approach_avoid_sv1","""event"",""trial"",""time""
""fullscreenenter"",""1"",""5556""
","
","
","""event"",""trial"",""time""
""fullscreenenter"",""1"",""5556""
","
","true","false","[]","[]","[]","","","","","","","",""
"audio-keyboard-response","5","11474","0.0-5.0","4468","approach_avoid_sv1","""event"",""trial"",""time""
""fullscreenenter"",""1"",""5556""
","
","
","""event"",""trial"",""time""
""fullscreenenter"",""1"",""5556""
","
","","","","","","1912.0000000000002","audio/beep_loop.wav"," ","","","","",""
"audio-button-response","6","13318","0.0-6.0","4468","approach_avoid_sv1","""event"",""trial"",""time""
""fullscreenenter"",""1"",""5556""
","
","
","""event"",""trial"",""time""
""fullscreenenter"",""1"",""5556""
","
","","","","","","1840","audio/turtle.wav","3","","","","",""
"audio-button-response","7","15769","0.0-7.0","4468","approach_avoid_sv1","""event"",""trial"",""time""
""fullscreenenter"",""1"",""5556""
","
","
","""event"",""trial"",""time""
""fullscreenenter"",""1"",""5556""
","
","","","","","","1429","audio/shark.wav","2","","","","",""
"preload","8","18343","0.0-8.0","4468","approach_avoid_sv1","""event"",""trial"",""time""
""fullscreenenter"",""1"",""5556""
","
","
","""event"",""trial"",""time""
""fullscreenenter"",""1"",""5556""
","
","true","false","[]","[]","[]","","","","","","","",""
"learning-instructions","9","24953","0.0-9.0-0.0","4468","approach_avoid_sv1","""event"",""trial"",""time""
""fullscreenenter"",""1"",""5556""
","
","
","""event"",""trial"",""time""
""fullscreenenter"",""1"",""5556""
","
","","","","","","2131.800000190735","<p> Welcome back! </p><p> Last week, you had to make choices about lots of different items.  </p>","","0","instructions","","",""
"learning-instructions","10","29649","0.0-9.0-0.1","4468","approach_avoid_sv1","""event"",""trial"",""time""
""fullscreenenter"",""1"",""5556""
","
","
","""event"",""trial"",""time""
""fullscreenenter"",""1"",""5556""
","
","","","","","","577.8000001907349","<p> Today, we are going to ask you to try to remember all the items. </p>","","0","instructions","","",""
"learning-instructions","11","40362","0.0-9.0-0.2","4468","approach_avoid_sv1","""event"",""trial"",""time""
""fullscreenenter"",""1"",""5556""
","
","
","""event"",""trial"",""time""
""fullscreenenter"",""1"",""5556""
","
","","","","","","580.8000001907349","<p> On every trial, you will see an image. </p><p> The image may be an OLD image you saw during the games last week or it may be a NEW image that was not presented. </p>","","0","instructions","","",""
"learning-instructions","12","49249","0.0-9.0-0.3","4468","approach_avoid_sv1","""event"",""trial"",""time""
""fullscreenenter"",""1"",""5556""
","
","
","""event"",""trial"",""time""
""fullscreenenter"",""1"",""5556""
","
","","","","","","377.80000019073486","<p> You need to select whether the image is:  </p><p>  'Definitely old', 'Maybe old', 'Maybe new', or 'Definitely new.'  </p><div class=""mem-choice-instructions-grid""><div class=""choice-option"" id=""choice-option-1"" ><img src=""images/definitely_old_1.png"" id=""choice-option-img-1"" class=""choice-option-img"" stage=""1""></div><div class=""choice-option"" id=""choice-option-2"" ><img src=""images/maybe_old_1.png"" id=""choice-option-img-2"" class=""choice-option-img"" stage=""1""></div><div class=""choice-option"" id=""choice-option-3"" ><img src=""images/maybe_new_1.png"" id=""choice-option-img-3"" class=""choice-option-img"" stage=""1""></div><div class=""choice-option"" id=""choice-option-4"" > <img src=""images/definitely_new_1.png"" id=""choice-option-img-4"" class=""choice-option-img"" stage=""1""></div></div>","","0","instructions","","",""
"learning-instructions","13","56449","0.0-9.0-0.4","4468","approach_avoid_sv1","""event"",""trial"",""time""
""fullscreenenter"",""1"",""5556""
","
","
","""event"",""trial"",""time""
""fullscreenenter"",""1"",""5556""
","
","","","","","","687","<p> You should use the 1, 2, 3, and 4 keys to make your responses.  </p><div class=""mem-choice-instructions-grid""><div class=""choice-option"" id=""choice-option-1"" ><img src=""images/definitely_old.png"" id=""choice-option-img-1"" class=""choice-option-img"" stage=""1""></div><div class=""choice-option"" id=""choice-option-2"" ><img src=""images/maybe_old.png"" id=""choice-option-img-2"" class=""choice-option-img"" stage=""1""></div><div class=""choice-option"" id=""choice-option-3"" ><img src=""images/maybe_new.png"" id=""choice-option-img-3"" class=""choice-option-img"" stage=""1""></div><div class=""choice-option"" id=""choice-option-4"" > <img src=""images/definitely_new.png"" id=""choice-option-img-4"" class=""choice-option-img"" stage=""1""></div></div>","","0","instructions","","",""
"learning-instructions","14","63610","0.0-9.0-0.5","4468","approach_avoid_sv1","""event"",""trial"",""time""
""fullscreenenter"",""1"",""5556""
","
","
","""event"",""trial"",""time""
""fullscreenenter"",""1"",""5556""
","
","","","","","","828.6000003814697","<p> You will have 10 seconds to make each response.  </p><p>  Make sure to respond before time runs out! </p>","","0","instructions","","",""
"learning-instructions","15","71315","0.0-9.0-0.6","4468","approach_avoid_sv1","""event"",""trial"",""time""
""fullscreenenter"",""1"",""5556""
","
","
","""event"",""trial"",""time""
""fullscreenenter"",""1"",""5556""
","
","","","","","","624","<p> Today, you will see each image ONCE only.  </p><p>  That means none of the images will repeat. </p>","","0","instructions","","",""
"learning-instructions","16","84796","0.0-9.0-0.7","4468","approach_avoid_sv1","""event"",""trial"",""time""
""fullscreenenter"",""1"",""5556""
","
","
","""event"",""trial"",""time""
""fullscreenenter"",""1"",""5556""
","
","","","","","","805.2000002861023","<p> Before you play the real game, it is time to practice. </p><p>  Just like in the real game, some of the images in the practice will be ones you have seen before. </p><p>  Others will be entirely new. </p>","","0","instructions","","",""
"html-button-response","17","86742","0.0-10.0","4468","approach_avoid_sv1","""event"",""trial"",""time""
""fullscreenenter"",""1"",""5556""
","
","
","""event"",""trial"",""time""
""fullscreenenter"",""1"",""5556""
","
","","","","","","1836.2999997138977","<p> Ready to practice? </p><p> Remember, use the 1, 2, 3, and 4 keys to make your responses. </p>","0","","instructions","","",""
"html-keyboard-response","18","87369","0.0-11.0-0.0","4468","approach_avoid_sv1","""event"",""trial"",""time""
""fullscreenenter"",""1"",""5556""
","
","
","""event"",""trial"",""time""
""fullscreenenter"",""1"",""5556""
","
","","","","","","null","<div style=""font-size:60px;"">+</div>","null","","fixation","","",""
"memory-trial","19","91114","0.0-11.0-1.0","4468","approach_avoid_sv1","""event"",""trial"",""time""
""fullscreenenter"",""1"",""5556""
","
","
","""event"",""trial"",""time""
""fullscreenenter"",""1"",""5556""
","
","","","","","","2740.8999996185303","images/racket5.png","","","practice","2","maybe_old",""
"html-keyboard-response","20","91619","0.0-11.0-0.1","4468","approach_avoid_sv1","""event"",""trial"",""time""
""fullscreenenter"",""1"",""5556""
","
","
","""event"",""trial"",""time""
""fullscreenenter"",""1"",""5556""
","
","","","","","","null","<div style=""font-size:60px;"">+</div>","null","","fixation","","",""
"memory-trial","21","93913","0.0-11.0-1.1","4468","approach_avoid_sv1","""event"",""trial"",""time""
""fullscreenenter"",""1"",""5556""
","
","
","""event"",""trial"",""time""
""fullscreenenter"",""1"",""5556""
","
","","","","","","1283.5","images/racket1.png","","","practice","2","maybe_old",""
"html-keyboard-response","22","94428","0.0-11.0-0.2","4468","approach_avoid_sv1","""event"",""trial"",""time""
""fullscreenenter"",""1"",""5556""
","
","
","""event"",""trial"",""time""
""fullscreenenter"",""1"",""5556""
","
","","","","","","null","<div style=""font-size:60px;"">+</div>","null","","fixation","","",""
"memory-trial","23","96823","0.0-11.0-1.2","4468","approach_avoid_sv1","""event"",""trial"",""time""
""fullscreenenter"",""1"",""5556""
","
","
","""event"",""trial"",""time""
""fullscreenenter"",""1"",""5556""
","
","","","","","","1380.6999998092651","images/ball3.png","","","practice","3","maybe_new",""
"html-keyboard-response","24","97335","0.0-11.0-0.3","4468","approach_avoid_sv1","""event"",""trial"",""time""
""fullscreenenter"",""1"",""5556""
","
","
","""event"",""trial"",""time""
""fullscreenenter"",""1"",""5556""
","
","","","","","","null","<div style=""font-size:60px;"">+</div>","null","","fixation","","",""
"memory-trial","25","99873","0.0-11.0-1.3","4468","approach_avoid_sv1","""event"",""trial"",""time""
""fullscreenenter"",""1"",""5556""
","
","
","""event"",""trial"",""time""
""fullscreenenter"",""1"",""5556""
","
","","","","","","1530.9000000953674","images/ball2.png","","","practice","2","maybe_old",""
"html-keyboard-response","26","100385","0.0-11.0-0.4","4468","approach_avoid_sv1","""event"",""trial"",""time""
""fullscreenenter"",""1"",""5556""
","
","
","""event"",""trial"",""time""
""fullscreenenter"",""1"",""5556""
","
","","","","","","null","<div style=""font-size:60px;"">+</div>","null","","fixation","","",""
"memory-trial","27","102810","0.0-11.0-1.4","4468","approach_avoid_sv1","""event"",""trial"",""time""
""fullscreenenter"",""1"",""5556""
","
","
","""event"",""trial"",""time""
""fullscreenenter"",""1"",""5556""
","
","","","","","","1417.9000000953674","images/racket3.png","","","practice","1","definitely_old",""
"html-keyboard-response","28","103323","0.0-11.0-0.5","4468","approach_avoid_sv1","""event"",""trial"",""time""
""fullscreenenter"",""1"",""5556""
","
","
","""event"",""trial"",""time""
""fullscreenenter"",""1"",""5556""
","
","","","","","","null","<div style=""font-size:60px;"">+</div>","null","","fixation","","",""
"memory-trial","29","105290","0.0-11.0-1.5","4468","approach_avoid_sv1","""event"",""trial"",""time""
""fullscreenenter"",""1"",""5556""
","
","
","""event"",""trial"",""time""
""fullscreenenter"",""1"",""5556""
","
","","","","","","951.8000001907349","images/racket2.png","","","practice","2","maybe_old",""
"html-keyboard-response","30","105804","0.0-11.0-0.6","4468","approach_avoid_sv1","""event"",""trial"",""time""
""fullscreenenter"",""1"",""5556""
","
","
","""event"",""trial"",""time""
""fullscreenenter"",""1"",""5556""
","
","","","","","","null","<div style=""font-size:60px;"">+</div>","null","","fixation","","",""
"memory-trial","31","108455","0.0-11.0-1.6","4468","approach_avoid_sv1","""event"",""trial"",""time""
""fullscreenenter"",""1"",""5556""
","
","
","""event"",""trial"",""time""
""fullscreenenter"",""1"",""5556""
","
","","","","","","1637.0999999046326","images/ball5.png","","","practice","2","maybe_old",""
"html-keyboard-response","32","108962","0.0-11.0-0.7","4468","approach_avoid_sv1","""event"",""trial"",""time""
""fullscreenenter"",""1"",""5556""
","
","
","""event"",""trial"",""time""
""fullscreenenter"",""1"",""5556""
","
","","","","","","null","<div style=""font-size:60px;"">+</div>","null","","fixation","","",""
"memory-trial","33","111193","0.0-11.0-1.7","4468","approach_avoid_sv1","""event"",""trial"",""time""
""fullscreenenter"",""1"",""5556""
","
","
","""event"",""trial"",""time""
""fullscreenenter"",""1"",""5556""
","
","","","","","","1215.2000002861023","images/ball1.png","","","practice","2","maybe_old",""
"learning-instructions","34","119812","0.0-12.0-0.0","4468","approach_avoid_sv1","""event"",""trial"",""time""
""fullscreenenter"",""1"",""5556""
","
","
","""event"",""trial"",""time""
""fullscreenenter"",""1"",""5556""
","
","","","","","","1310.2000002861023","<p> Great! You have completed the practice. </p><p> Before you start, we're going to ask you a few questions about how the game works.  </p>","","0","instructions","","",""
"preload","35","121284","0.0-13.0","4468","approach_avoid_sv1","""event"",""trial"",""time""
""fullscreenenter"",""1"",""5556""
","
","
","""event"",""trial"",""time""
""fullscreenenter"",""1"",""5556""
","
","true","false","[]","[]","[]","","","","","","","",""
"comp-q","36","128347","0.0-14.0-0.0","4468","approach_avoid_sv1","""event"",""trial"",""time""
""fullscreenenter"",""1"",""5556""
","
","
","""event"",""trial"",""time""
""fullscreenenter"",""1"",""5556""
","
","","","","","","1236.0999999046326","<p> <b> True or False? </b> </p><p> In this game, you will only see each image once. </p>","","0","comp_question","","","true"
"comp-q","37","136004","0.0-14.0-1.0","4468","approach_avoid_sv1","""event"",""trial"",""time""
""fullscreenenter"",""1"",""5556""
","
","
","""event"",""trial"",""time""
""fullscreenenter"",""1"",""5556""
","
","","","","","","1313.1999998092651","<p> <b> That's right! </b> You will see many different images <i> one time each </i> in this game. </p>","","0","comp_answer","","",""
"comp-q","38","142141","0.0-15.0-0.0","4468","approach_avoid_sv1","""event"",""trial"",""time""
""fullscreenenter"",""1"",""5556""
","
","
","""event"",""trial"",""time""
""fullscreenenter"",""1"",""5556""
","
","","","","","","1119.7000002861023","<p> <b> True or False? </b> </p><p> You should use the mouse and click to make your response. </p>","","1","comp_question","","","true"
"comp-q","39","149967","0.0-15.0-1.0","4468","approach_avoid_sv1","""event"",""trial"",""time""
""fullscreenenter"",""1"",""5556""
","
","
","""event"",""trial"",""time""
""fullscreenenter"",""1"",""5556""
","
","","","","","","1305.5","<p><b> That's right! </b> You should use the '1', '2', '3', and '4' keys to make your response. </p>","","0","comp_answer","","",""
"comp-q","40","156590","0.0-16.0-0.0","4468","approach_avoid_sv1","""event"",""trial"",""time""
""fullscreenenter"",""1"",""5556""
","
","
","""event"",""trial"",""time""
""fullscreenenter"",""1"",""5556""
","
","","","","","","939.3000001907349","<p> <b> True or False? </b> </p><p> You will have as much time as you want to make each choice. </p>","","1","comp_question","","","true"
"comp-q","41","162319","0.0-16.0-1.0","4468","approach_avoid_sv1","""event"",""trial"",""time""
""fullscreenenter"",""1"",""5556""
","
","
","""event"",""trial"",""time""
""fullscreenenter"",""1"",""5556""
","
","","","","","","1027.6999998092651","<p> <b> That's right! </b> You will only have 10 seconds to make each choice. </p>","","0","comp_answer","","",""
"learning-instructions","42","172384","0.0-17.0","4468","approach_avoid_sv1","""event"",""trial"",""time""
""fullscreenenter"",""1"",""5556""
","
","
","""event"",""trial"",""time""
""fullscreenenter"",""1"",""5556""
","
","","","","","","1392","<p> Great! You are now ready to begin the game. </p><p> Remember, use the 1, 2, 3, and 4 keys to make your responses. </p>","","0","instructions","","",""
"html-keyboard-response","43","173003","0.0-18.0-0.0","4468","approach_avoid_sv1","""event"",""trial"",""time""
""fullscreenenter"",""1"",""5556""
","
","
","""event"",""trial"",""time""
""fullscreenenter"",""1"",""5556""
","
","","","","","","null","<div style=""font-size:60px;"">+</div>","null","","fixation","","",""
"memory-trial","44","175355","0.0-18.0-1.0","4468","approach_avoid_sv1","""event"",""trial"",""time""
""fullscreenenter"",""1"",""5556""
","
","
","""event"",""trial"",""time""
""fullscreenenter"",""1"",""5556""
","
","","","","","","1332","images/cow7.png","","","memory_trial","2","maybe_old",""
"html-keyboard-response","45","175866","0.0-18.0-0.1","4468","approach_avoid_sv1","""event"",""trial"",""time""
""fullscreenenter"",""1"",""5556""
","
","
","""event"",""trial"",""time""
""fullscreenenter"",""1"",""5556""
","
","","","","","","null","<div style=""font-size:60px;"">+</div>","null","","fixation","","",""
"memory-trial","46","178076","0.0-18.0-1.1","4468","approach_avoid_sv1","""event"",""trial"",""time""
""fullscreenenter"",""1"",""5556""
","
","
","""event"",""trial"",""time""
""fullscreenenter"",""1"",""5556""
","
","","","","","","1194.0999999046326","images/boat7.png","","","memory_trial","1","definitely_old",""
"html-keyboard-response","47","178593","0.0-18.0-0.2","4468","approach_avoid_sv1","""event"",""trial"",""time""
""fullscreenenter"",""1"",""5556""
","
","
","""event"",""trial"",""time""
""fullscreenenter"",""1"",""5556""
","
","","","","","","null","<div style=""font-size:60px;"">+</div>","null","","fixation","","",""
"memory-trial","48","180965","0.0-18.0-1.2","4468","approach_avoid_sv1","""event"",""trial"",""time""
""fullscreenenter"",""1"",""5556""
","
","
","""event"",""trial"",""time""
""fullscreenenter"",""1"",""5556""
","
","","","","","","1364.2999997138977","images/cactus6.png","","","memory_trial","3","maybe_new",""
"html-keyboard-response","49","181482","0.0-18.0-0.3","4468","approach_avoid_sv1","""event"",""trial"",""time""
""fullscreenenter"",""1"",""5556""
","
","
","""event"",""trial"",""time""
""fullscreenenter"",""1"",""5556""
","
","","","","","","null","<div style=""font-size:60px;"">+</div>","null","","fixation","","",""
"memory-trial","50","183322","0.0-18.0-1.3","4468","approach_avoid_sv1","""event"",""trial"",""time""
""fullscreenenter"",""1"",""5556""
","
","
","""event"",""trial"",""time""
""fullscreenenter"",""1"",""5556""
","
","","","","","","834.3000001907349","images/cactus3.png","","","memory_trial","3","maybe_new",""
"html-keyboard-response","51","183838","0.0-18.0-0.4","4468","approach_avoid_sv1","""event"",""trial"",""time""
""fullscreenenter"",""1"",""5556""
","
","
","""event"",""trial"",""time""
""fullscreenenter"",""1"",""5556""
","
","","","","","","null","<div style=""font-size:60px;"">+</div>","null","","fixation","","",""
"memory-trial","52","185840","0.0-18.0-1.4","4468","approach_avoid_sv1","""event"",""trial"",""time""
""fullscreenenter"",""1"",""5556""
","
","
","""event"",""trial"",""time""
""fullscreenenter"",""1"",""5556""
","
","","","","","","984.9000000953674","images/dog6.png","","","memory_trial","4","definitely_new",""
"html-keyboard-response","53","186350","0.0-18.0-0.5","4468","approach_avoid_sv1","""event"",""trial"",""time""
""fullscreenenter"",""1"",""5556""
","
","
","""event"",""trial"",""time""
""fullscreenenter"",""1"",""5556""
","
","","","","","","null","<div style=""font-size:60px;"">+</div>","null","","fixation","","",""
"memory-trial","54","188212","0.0-18.0-1.5","4468","approach_avoid_sv1","""event"",""trial"",""time""
""fullscreenenter"",""1"",""5556""
","
","
","""event"",""trial"",""time""
""fullscreenenter"",""1"",""5556""
","
","","","","","","852.5","images/cactus8.png","","","memory_trial","3","maybe_new",""
"html-keyboard-response","55","188724","0.0-18.0-0.6","4468","approach_avoid_sv1","""event"",""trial"",""time""
""fullscreenenter"",""1"",""5556""
","
","
","""event"",""trial"",""time""
""fullscreenenter"",""1"",""5556""
","
","","","","","","null","<div style=""font-size:60px;"">+</div>","null","","fixation","","",""
"memory-trial","56","190508","0.0-18.0-1.6","4468","approach_avoid_sv1","""event"",""trial"",""time""
""fullscreenenter"",""1"",""5556""
","
","
","""event"",""trial"",""time""
""fullscreenenter"",""1"",""5556""
","
","","","","","","774.4000000953674","images/chair8.png","","","memory_trial","1","definitely_old",""
"html-keyboard-response","57","191019","0.0-18.0-0.7","4468","approach_avoid_sv1","""event"",""trial"",""time""
""fullscreenenter"",""1"",""5556""
","
","
","""event"",""trial"",""time""
""fullscreenenter"",""1"",""5556""
","
","","","","","","null","<div style=""font-size:60px;"">+</div>","null","","fixation","","",""
"memory-trial","58","193174","0.0-18.0-1.7","4468","approach_avoid_sv1","""event"",""trial"",""time""
""fullscreenenter"",""1"",""5556""
","
","
","""event"",""trial"",""time""
""fullscreenenter"",""1"",""5556""
","
","","","","","","1144.5","images/goat6.png","","","memory_trial","2","maybe_old",""
"html-keyboard-response","59","193691","0.0-18.0-0.8","4468","approach_avoid_sv1","""event"",""trial"",""time""
""fullscreenenter"",""1"",""5556""
","
","
","""event"",""trial"",""time""
""fullscreenenter"",""1"",""5556""
","
","","","","","","null","<div style=""font-size:60px;"">+</div>","null","","fixation","","",""
"memory-trial","60","196118","0.0-18.0-1.8","4468","approach_avoid_sv1","""event"",""trial"",""time""
""fullscreenenter"",""1"",""5556""
","
","
","""event"",""trial"",""time""
""fullscreenenter"",""1"",""5556""
","
","","","","","","1406","images/flower7.png","","","memory_trial","3","maybe_new",""
"html-keyboard-response","61","196624","0.0-18.0-0.9","4468","approach_avoid_sv1","""event"",""trial"",""time""
""fullscreenenter"",""1"",""5556""
","
","
","""event"",""trial"",""time""
""fullscreenenter"",""1"",""5556""
","
","","","","","","null","<div style=""font-size:60px;"">+</div>","null","","fixation","","",""
"memory-trial","62","198694","0.0-18.0-1.9","4468","approach_avoid_sv1","""event"",""trial"",""time""
""fullscreenenter"",""1"",""5556""
","
","
","""event"",""trial"",""time""
""fullscreenenter"",""1"",""5556""
","
","","","","","","1046.8000001907349","images/rabbit2.png","","","memory_trial","3","maybe_new",""
"html-keyboard-response","63","199204","0.0-18.0-0.10","4468","approach_avoid_sv1","""event"",""trial"",""time""
""fullscreenenter"",""1"",""5556""
","
","
","""event"",""trial"",""time""
""fullscreenenter"",""1"",""5556""
","
","","","","","","null","<div style=""font-size:60px;"">+</div>","null","","fixation","","",""
"memory-trial","64","201210","0.0-18.0-1.10","4468","approach_avoid_sv1","""event"",""trial"",""time""
""fullscreenenter"",""1"",""5556""
","
","
","""event"",""trial"",""time""
""fullscreenenter"",""1"",""5556""
","
","","","","","","1000.4000000953674","images/plane3.png","","","memory_trial","3","maybe_new",""
"html-keyboard-response","65","201724","0.0-18.0-0.11","4468","approach_avoid_sv1","""event"",""trial"",""time""
""fullscreenenter"",""1"",""5556""
","
","
","""event"",""trial"",""time""
""fullscreenenter"",""1"",""5556""
","
","","","","","","null","<div style=""font-size:60px;"">+</div>","null","","fixation","","",""
"memory-trial","66","203953","0.0-18.0-1.11","4468","approach_avoid_sv1","""event"",""trial"",""time""
""fullscreenenter"",""1"",""5556""
","
","
","""event"",""trial"",""time""
""fullscreenenter"",""1"",""5556""
","
","","","","","","1226.8000001907349","images/straw3.png","","","memory_trial","2","maybe_old",""
"html-keyboard-response","67","204457","0.0-18.0-0.12","4468","approach_avoid_sv1","""event"",""trial"",""time""
""fullscreenenter"",""1"",""5556""
","
","
","""event"",""trial"",""time""
""fullscreenenter"",""1"",""5556""
","
","","","","","","null","<div style=""font-size:60px;"">+</div>","null","","fixation","","",""
"memory-trial","68","206329","0.0-18.0-1.12","4468","approach_avoid_sv1","""event"",""trial"",""time""
""fullscreenenter"",""1"",""5556""
","
","
","""event"",""trial"",""time""
""fullscreenenter"",""1"",""5556""
","
","","","","","","870.1000003814697","images/flower1.png","","","memory_trial","1","definitely_old",""
"html-keyboard-response","69","206841","0.0-18.0-0.13","4468","approach_avoid_sv1","""event"",""trial"",""time""
""fullscreenenter"",""1"",""5556""
","
","
","""event"",""trial"",""time""
""fullscreenenter"",""1"",""5556""
","
","","","","","","null","<div style=""font-size:60px;"">+</div>","null","","fixation","","",""
"memory-trial","70","208953","0.0-18.0-1.13","4468","approach_avoid_sv1","""event"",""trial"",""time""
""fullscreenenter"",""1"",""5556""
","
","
","""event"",""trial"",""time""
""fullscreenenter"",""1"",""5556""
","
","","","","","","1108.5","images/dog3.png","","","memory_trial","2","maybe_old",""
"html-keyboard-response","71","209457","0.0-18.0-0.14","4468","approach_avoid_sv1","""event"",""trial"",""time""
""fullscreenenter"",""1"",""5556""
","
","
","""event"",""trial"",""time""
""fullscreenenter"",""1"",""5556""
","
","","","","","","null","<div style=""font-size:60px;"">+</div>","null","","fixation","","",""
"memory-trial","72","211527","0.0-18.0-1.14","4468","approach_avoid_sv1","""event"",""trial"",""time""
""fullscreenenter"",""1"",""5556""
","
","
","""event"",""trial"",""time""
""fullscreenenter"",""1"",""5556""
","
","","","","","","1054.9000000953674","images/chair5.png","","","memory_trial","3","maybe_new",""
"html-keyboard-response","73","212032","0.0-18.0-0.15","4468","approach_avoid_sv1","""event"",""trial"",""time""
""fullscreenenter"",""1"",""5556""
","
","
","""event"",""trial"",""time""
""fullscreenenter"",""1"",""5556""
","
","","","","","","null","<div style=""font-size:60px;"">+</div>","null","","fixation","","",""
"memory-trial","74","213770","0.0-18.0-1.15","4468","approach_avoid_sv1","""event"",""trial"",""time""
""fullscreenenter"",""1"",""5556""
","
","
","""event"",""trial"",""time""
""fullscreenenter"",""1"",""5556""
","
","","","","","","724.5999999046326","images/sofa5.png","","","memory_trial","3","maybe_new",""
"html-keyboard-response","75","214273","0.0-18.0-0.16","4468","approach_avoid_sv1","""event"",""trial"",""time""
""fullscreenenter"",""1"",""5556""
","
","
","""event"",""trial"",""time""
""fullscreenenter"",""1"",""5556""
","
","","","","","","null","<div style=""font-size:60px;"">+</div>","null","","fixation","","",""
"memory-trial","76","216577","0.0-18.0-1.16","4468","approach_avoid_sv1","""event"",""trial"",""time""
""fullscreenenter"",""1"",""5556""
","
","
","""event"",""trial"",""time""
""fullscreenenter"",""1"",""5556""
","
","","","","","","1301.2000002861023","images/bed5.png","","","memory_trial","1","definitely_old",""
"html-keyboard-response","77","217081","0.0-18.0-0.17","4468","approach_avoid_sv1","""event"",""trial"",""time""
""fullscreenenter"",""1"",""5556""
","
","
","""event"",""trial"",""time""
""fullscreenenter"",""1"",""5556""
","
","","","","","","null","<div style=""font-size:60px;"">+</div>","null","","fixation","","",""
"memory-trial","78","218847","0.0-18.0-1.17","4468","approach_avoid_sv1","""event"",""trial"",""time""
""fullscreenenter"",""1"",""5556""
","
","
","""event"",""trial"",""time""
""fullscreenenter"",""1"",""5556""
","
","","","","","","757.9000000953674","images/sheep2.png","","","memory_trial","3","maybe_new",""
"html-keyboard-response","79","219354","0.0-18.0-0.18","4468","approach_avoid_sv1","""event"",""trial"",""time""
""fullscreenenter"",""1"",""5556""
","
","
","""event"",""trial"",""time""
""fullscreenenter"",""1"",""5556""
","
","","","","","","null","<div style=""font-size:60px;"">+</div>","null","","fixation","","",""
"memory-trial","80","221465","0.0-18.0-1.18","4468","approach_avoid_sv1","""event"",""trial"",""time""
""fullscreenenter"",""1"",""5556""
","
","
","""event"",""trial"",""time""
""fullscreenenter"",""1"",""5556""
","
","","","","","","1103.5999999046326","images/orange8.png","","","memory_trial","4","definitely_new",""
"html-keyboard-response","81","221969","0.0-18.0-0.19","4468","approach_avoid_sv1","""event"",""trial"",""time""
""fullscreenenter"",""1"",""5556""
","
","
","""event"",""trial"",""time""
""fullscreenenter"",""1"",""5556""
","
","","","","","","null","<div style=""font-size:60px;"">+</div>","null","","fixation","","",""
"memory-trial","82","224553","0.0-18.0-1.19","4468","approach_avoid_sv1","""event"",""trial"",""time""
""fullscreenenter"",""1"",""5556""
","
","
","""event"",""trial"",""time""
""fullscreenenter"",""1"",""5556""
","
","","","","","","1580.5","images/dog1.png","","","memory_trial","3","maybe_new",""
"html-keyboard-response","83","225059","0.0-18.0-0.20","4468","approach_avoid_sv1","""event"",""trial"",""time""
""fullscreenenter"",""1"",""5556""
","
","
","""event"",""trial"",""time""
""fullscreenenter"",""1"",""5556""
","
","","","","","","null","<div style=""font-size:60px;"">+</div>","null","","fixation","","",""
"memory-trial","84","227377","0.0-18.0-1.20","4468","approach_avoid_sv1","""event"",""trial"",""time""
""fullscreenenter"",""1"",""5556""
","
","
","""event"",""trial"",""time""
""fullscreenenter"",""1"",""5556""
","
","","","","","","1311.6000003814697","images/rabbit4.png","","","memory_trial","2","maybe_old",""
"html-keyboard-response","85","227882","0.0-18.0-0.21","4468","approach_avoid_sv1","""event"",""trial"",""time""
""fullscreenenter"",""1"",""5556""
","
","
","""event"",""trial"",""time""
""fullscreenenter"",""1"",""5556""
","
","","","","","","null","<div style=""font-size:60px;"">+</div>","null","","fixation","","",""
"memory-trial","86","229960","0.0-18.0-1.21","4468","approach_avoid_sv1","""event"",""trial"",""time""
""fullscreenenter"",""1"",""5556""
","
","
","""event"",""trial"",""time""
""fullscreenenter"",""1"",""5556""
","
","","","","","","1067.8000001907349","images/plane1.png","","","memory_trial","4","definitely_new",""
"html-keyboard-response","87","230479","0.0-18.0-0.22","4468","approach_avoid_sv1","""event"",""trial"",""time""
""fullscreenenter"",""1"",""5556""
","
","
","""event"",""trial"",""time""
""fullscreenenter"",""1"",""5556""
","
","","","","","","null","<div style=""font-size:60px;"">+</div>","null","","fixation","","",""
"memory-trial","88","232729","0.0-18.0-1.22","4468","approach_avoid_sv1","""event"",""trial"",""time""
""fullscreenenter"",""1"",""5556""
","
","
","""event"",""trial"",""time""
""fullscreenenter"",""1"",""5556""
","
","","","","","","1244.1999998092651","images/banana3.png","","","memory_trial","3","maybe_new",""
"html-keyboard-response","89","233233","0.0-18.0-0.23","4468","approach_avoid_sv1","""event"",""trial"",""time""
""fullscreenenter"",""1"",""5556""
","
","
","""event"",""trial"",""time""
""fullscreenenter"",""1"",""5556""
","
","","","","","","null","<div style=""font-size:60px;"">+</div>","null","","fixation","","",""
"memory-trial","90","235215","0.0-18.0-1.23","4468","approach_avoid_sv1","""event"",""trial"",""time""
""fullscreenenter"",""1"",""5556""
","
","
","""event"",""trial"",""time""
""fullscreenenter"",""1"",""5556""
","
","","","","","","961.6000003814697","images/rabbit8.png","","","memory_trial","2","maybe_old",""
"html-keyboard-response","91","235721","0.0-18.0-0.24","4468","approach_avoid_sv1","""event"",""trial"",""time""
""fullscreenenter"",""1"",""5556""
","
","
","""event"",""trial"",""time""
""fullscreenenter"",""1"",""5556""
","
","","","","","","null","<div style=""font-size:60px;"">+</div>","null","","fixation","","",""
"memory-trial","92","237506","0.0-18.0-1.24","4468","approach_avoid_sv1","""event"",""trial"",""time""
""fullscreenenter"",""1"",""5556""
","
","
","""event"",""trial"",""time""
""fullscreenenter"",""1"",""5556""
","
","","","","","","778","images/bush8.png","","","memory_trial","3","maybe_new",""
"html-keyboard-response","93","238009","0.0-18.0-0.25","4468","approach_avoid_sv1","""event"",""trial"",""time""
""fullscreenenter"",""1"",""5556""
","
","
","""event"",""trial"",""time""
""fullscreenenter"",""1"",""5556""
","
","","","","","","null","<div style=""font-size:60px;"">+</div>","null","","fixation","","",""
"memory-trial","94","240018","0.0-18.0-1.25","4468","approach_avoid_sv1","""event"",""trial"",""time""
""fullscreenenter"",""1"",""5556""
","
","
","""event"",""trial"",""time""
""fullscreenenter"",""1"",""5556""
","
","","","","","","1001.0999999046326","images/cat3.png","","","memory_trial","1","definitely_old",""
"html-keyboard-response","95","240521","0.0-18.0-0.26","4468","approach_avoid_sv1","""event"",""trial"",""time""
""fullscreenenter"",""1"",""5556""
","
","
","""event"",""trial"",""time""
""fullscreenenter"",""1"",""5556""
","
","","","","","","null","<div style=""font-size:60px;"">+</div>","null","","fixation","","",""
"memory-trial","96","242386","0.0-18.0-1.26","4468","approach_avoid_sv1","""event"",""trial"",""time""
""fullscreenenter"",""1"",""5556""
","
","
","""event"",""trial"",""time""
""fullscreenenter"",""1"",""5556""
","
","","","","","","859.6999998092651","images/tree3.png","","","memory_trial","1","definitely_old",""
"html-keyboard-response","97","242889","0.0-18.0-0.27","4468","approach_avoid_sv1","""event"",""trial"",""time""
""fullscreenenter"",""1"",""5556""
","
","
","""event"",""trial"",""time""
""fullscreenenter"",""1"",""5556""
","
","","","","","","null","<div style=""font-size:60px;"">+</div>","null","","fixation","","",""
"memory-trial","98","244960","0.0-18.0-1.27","4468","approach_avoid_sv1","""event"",""trial"",""time""
""fullscreenenter"",""1"",""5556""
","
","
","""event"",""trial"",""time""
""fullscreenenter"",""1"",""5556""
","
","","","","","","1055.3999996185303","images/orange3.png","","","memory_trial","3","maybe_new",""
"html-keyboard-response","99","245465","0.0-18.0-0.28","4468","approach_avoid_sv1","""event"",""trial"",""time""
""fullscreenenter"",""1"",""5556""
","
","
","""event"",""trial"",""time""
""fullscreenenter"",""1"",""5556""
","
","","","","","","null","<div style=""font-size:60px;"">+</div>","null","","fixation","","",""
"memory-trial","100","247362","0.0-18.0-1.28","4468","approach_avoid_sv1","""event"",""trial"",""time""
""fullscreenenter"",""1"",""5556""
","
","
","""event"",""trial"",""time""
""fullscreenenter"",""1"",""5556""
","
","","","","","","887.9000000953674","images/bush7.png","","","memory_trial","1","definitely_old",""
"html-keyboard-response","101","247866","0.0-18.0-0.29","4468","approach_avoid_sv1","""event"",""trial"",""time""
""fullscreenenter"",""1"",""5556""
","
","
","""event"",""trial"",""time""
""fullscreenenter"",""1"",""5556""
","
","","","","","","null","<div style=""font-size:60px;"">+</div>","null","","fixation","","",""
"memory-trial","102","250115","0.0-18.0-1.29","4468","approach_avoid_sv1","""event"",""trial"",""time""
""fullscreenenter"",""1"",""5556""
","
","
","""event"",""trial"",""time""
""fullscreenenter"",""1"",""5556""
","
","","","","","","1234.6000003814697","images/boat1.png","","","memory_trial","3","maybe_new",""
"html-keyboard-response","103","250630","0.0-18.0-0.30","4468","approach_avoid_sv1","""event"",""trial"",""time""
""fullscreenenter"",""1"",""5556""
","
","
","""event"",""trial"",""time""
""fullscreenenter"",""1"",""5556""
","
","","","","","","null","<div style=""font-size:60px;"">+</div>","null","","fixation","","",""
"memory-trial","104","252537","0.0-18.0-1.30","4468","approach_avoid_sv1","""event"",""trial"",""time""
""fullscreenenter"",""1"",""5556""
","
","
","""event"",""trial"",""time""
""fullscreenenter"",""1"",""5556""
","
","","","","","","900.0999999046326","images/sheep7.png","","","memory_trial","2","maybe_old",""
"html-keyboard-response","105","253041","0.0-18.0-0.31","4468","approach_avoid_sv1","""event"",""trial"",""time""
""fullscreenenter"",""1"",""5556""
","
","
","""event"",""trial"",""time""
""fullscreenenter"",""1"",""5556""
","
","","","","","","null","<div style=""font-size:60px;"">+</div>","null","","fixation","","",""
"memory-trial","106","255066","0.0-18.0-1.31","4468","approach_avoid_sv1","""event"",""trial"",""time""
""fullscreenenter"",""1"",""5556""
","
","
","""event"",""trial"",""time""
""fullscreenenter"",""1"",""5556""
","
","","","","","","1019.9000000953674","images/boat6.png","","","memory_trial","3","maybe_new",""
"html-keyboard-response","107","255569","0.0-18.0-0.32","4468","approach_avoid_sv1","""event"",""trial"",""time""
""fullscreenenter"",""1"",""5556""
","
","
","""event"",""trial"",""time""
""fullscreenenter"",""1"",""5556""
","
","","","","","","null","<div style=""font-size:60px;"">+</div>","null","","fixation","","",""
"memory-trial","108","257380","0.0-18.0-1.32","4468","approach_avoid_sv1","""event"",""trial"",""time""
""fullscreenenter"",""1"",""5556""
","
","
","""event"",""trial"",""time""
""fullscreenenter"",""1"",""5556""
","
","","","","","","795.4000000953674","images/sofa2.png","","","memory_trial","3","maybe_new",""
"html-keyboard-response","109","257889","0.0-18.0-0.33","4468","approach_avoid_sv1","""event"",""trial"",""time""
""fullscreenenter"",""1"",""5556""
","
","
","""event"",""trial"",""time""
""fullscreenenter"",""1"",""5556""
","
","","","","","","null","<div style=""font-size:60px;"">+</div>","null","","fixation","","",""
"memory-trial","110","259769","0.0-18.0-1.33","4468","approach_avoid_sv1","""event"",""trial"",""time""
""fullscreenenter"",""1"",""5556""
","
","
","""event"",""trial"",""time""
""fullscreenenter"",""1"",""5556""
","
","","","","","","869.8000001907349","images/horse2.png","","","memory_trial","1","definitely_old",""
"html-keyboard-response","111","260273","0.0-18.0-0.34","4468","approach_avoid_sv1","""event"",""trial"",""time""
""fullscreenenter"",""1"",""5556""
","
","
","""event"",""trial"",""time""
""fullscreenenter"",""1"",""5556""
","
","","","","","","null","<div style=""font-size:60px;"">+</div>","null","","fixation","","",""
"memory-trial","112","262602","0.0-18.0-1.34","4468","approach_avoid_sv1","""event"",""trial"",""time""
""fullscreenenter"",""1"",""5556""
","
","
","""event"",""trial"",""time""
""fullscreenenter"",""1"",""5556""
","
","","","","","","1324.1999998092651","images/rodent7.png","","","memory_trial","2","maybe_old",""
"html-keyboard-response","113","263105","0.0-18.0-0.35","4468","approach_avoid_sv1","""event"",""trial"",""time""
""fullscreenenter"",""1"",""5556""
","
","
","""event"",""trial"",""time""
""fullscreenenter"",""1"",""5556""
","
","","","","","","null","<div style=""font-size:60px;"">+</div>","null","","fixation","","",""
"memory-trial","114","265451","0.0-18.0-1.35","4468","approach_avoid_sv1","""event"",""trial"",""time""
""fullscreenenter"",""1"",""5556""
","
","
","""event"",""trial"",""time""
""fullscreenenter"",""1"",""5556""
","
","","","","","","1334.5","images/apple5.png","","","memory_trial","2","maybe_old",""
"html-keyboard-response","115","265954","0.0-18.0-0.36","4468","approach_avoid_sv1","""event"",""trial"",""time""
""fullscreenenter"",""1"",""5556""
","
","
","""event"",""trial"",""time""
""fullscreenenter"",""1"",""5556""
","
","","","","","","null","<div style=""font-size:60px;"">+</div>","null","","fixation","","",""
"memory-trial","116","267921","0.0-18.0-1.36","4468","approach_avoid_sv1","""event"",""trial"",""time""
""fullscreenenter"",""1"",""5556""
","
","
","""event"",""trial"",""time""
""fullscreenenter"",""1"",""5556""
","
","","","","","","955.9000000953674","images/cow5.png","","","memory_trial","3","maybe_new",""
"html-keyboard-response","117","268425","0.0-18.0-0.37","4468","approach_avoid_sv1","""event"",""trial"",""time""
""fullscreenenter"",""1"",""5556""
","
","
","""event"",""trial"",""time""
""fullscreenenter"",""1"",""5556""
","
","","","","","","null","<div style=""font-size:60px;"">+</div>","null","","fixation","","",""
"memory-trial","118","270065","0.0-18.0-1.37","4468","approach_avoid_sv1","""event"",""trial"",""time""
""fullscreenenter"",""1"",""5556""
","
","
","""event"",""trial"",""time""
""fullscreenenter"",""1"",""5556""
","
","","","","","","631.8000001907349","images/orange2.png","","","memory_trial","3","maybe_new",""
"html-keyboard-response","119","270579","0.0-18.0-0.38","4468","approach_avoid_sv1","""event"",""trial"",""time""
""fullscreenenter"",""1"",""5556""
","
","
","""event"",""trial"",""time""
""fullscreenenter"",""1"",""5556""
","
","","","","","","null","<div style=""font-size:60px;"">+</div>","null","","fixation","","",""
"memory-trial","120","273059","0.0-18.0-1.38","4468","approach_avoid_sv1","""event"",""trial"",""time""
""fullscreenenter"",""1"",""5556""
","
","
","""event"",""trial"",""time""
""fullscreenenter"",""1"",""5556""
","
","","","","","","1467.6000003814697","images/banana2.png","","","memory_trial","2","maybe_old",""
"html-keyboard-response","121","273561","0.0-18.0-0.39","4468","approach_avoid_sv1","""event"",""trial"",""time""
""fullscreenenter"",""1"",""5556""
","
","
","""event"",""trial"",""time""
""fullscreenenter"",""1"",""5556""
","
","","","","","","null","<div style=""font-size:60px;"">+</div>","null","","fixation","","",""
"memory-trial","122","275354","0.0-18.0-1.39","4468","approach_avoid_sv1","""event"",""trial"",""time""
""fullscreenenter"",""1"",""5556""
","
","
","""event"",""trial"",""time""
""fullscreenenter"",""1"",""5556""
","
","","","","","","786.5999999046326","images/cactus7.png","","","memory_trial","3","maybe_new",""
"html-keyboard-response","123","275871","0.0-18.0-0.40","4468","approach_avoid_sv1","""event"",""trial"",""time""
""fullscreenenter"",""1"",""5556""
","
","
","""event"",""trial"",""time""
""fullscreenenter"",""1"",""5556""
","
","","","","","","null","<div style=""font-size:60px;"">+</div>","null","","fixation","","",""
"memory-trial","124","277553","0.0-18.0-1.40","4468","approach_avoid_sv1","""event"",""trial"",""time""
""fullscreenenter"",""1"",""5556""
","
","
","""event"",""trial"",""time""
""fullscreenenter"",""1"",""5556""
","
","","","","","","677.0999999046326","images/dog5.png","","","memory_trial","3","maybe_new",""
"html-keyboard-response","125","278072","0.0-18.0-0.41","4468","approach_avoid_sv1","""event"",""trial"",""time""
""fullscreenenter"",""1"",""5556""
","
","
","""event"",""trial"",""time""
""fullscreenenter"",""1"",""5556""
","
","","","","","","null","<div style=""font-size:60px;"">+</div>","null","","fixation","","",""
"memory-trial","126","279945","0.0-18.0-1.41","4468","approach_avoid_sv1","""event"",""trial"",""time""
""fullscreenenter"",""1"",""5556""
","
","
","""event"",""trial"",""time""
""fullscreenenter"",""1"",""5556""
","
","","","","","","867.5999999046326","images/cat6.png","","","memory_trial","2","maybe_old",""
"html-button-response","127","295399","0.0-18.0-2.41-0.41","4468","approach_avoid_sv1","""event"",""trial"",""time""
""fullscreenenter"",""1"",""5556""
","
","
","""event"",""trial"",""time""
""fullscreenenter"",""1"",""5556""
","
","","","","","","15452.700000286102","<p> Take a break! </p><p> Click the button to continue. </p>","0","","break","","",""
"html-keyboard-response","128","295906","0.0-18.0-0.42","4468","approach_avoid_sv1","""event"",""trial"",""time""
""fullscreenenter"",""1"",""5556""
","
","
","""event"",""trial"",""time""
""fullscreenenter"",""1"",""5556""
","
","","","","","","null","<div style=""font-size:60px;"">+</div>","null","","fixation","","",""
"memory-trial","129","298091","0.0-18.0-1.42","4468","approach_avoid_sv1","""event"",""trial"",""time""
""fullscreenenter"",""1"",""5556""
","
","
","""event"",""trial"",""time""
""fullscreenenter"",""1"",""5556""
","
","","","","","","1177.7999997138977","images/train7.png","","","memory_trial","1","definitely_old",""
"html-keyboard-response","130","298601","0.0-18.0-0.43","4468","approach_avoid_sv1","""event"",""trial"",""time""
""fullscreenenter"",""1"",""5556""
","
","
","""event"",""trial"",""time""
""fullscreenenter"",""1"",""5556""
","
","","","","","","null","<div style=""font-size:60px;"">+</div>","null","","fixation","","",""
"memory-trial","131","300441","0.0-18.0-1.43","4468","approach_avoid_sv1","""event"",""trial"",""time""
""fullscreenenter"",""1"",""5556""
","
","
","""event"",""trial"",""time""
""fullscreenenter"",""1"",""5556""
","
","","","","","","830.9000000953674","images/bed3.png","","","memory_trial","2","maybe_old",""
"html-keyboard-response","132","300952","0.0-18.0-0.44","4468","approach_avoid_sv1","""event"",""trial"",""time""
""fullscreenenter"",""1"",""5556""
","
","
","""event"",""trial"",""time""
""fullscreenenter"",""1"",""5556""
","
","","","","","","null","<div style=""font-size:60px;"">+</div>","null","","fixation","","",""
"memory-trial","133","303081","0.0-18.0-1.44","4468","approach_avoid_sv1","""event"",""trial"",""time""
""fullscreenenter"",""1"",""5556""
","
","
","""event"",""trial"",""time""
""fullscreenenter"",""1"",""5556""
","
","","","","","","1120.5999999046326","images/horse3.png","","","memory_trial","1","definitely_old",""
"html-keyboard-response","134","303586","0.0-18.0-0.45","4468","approach_avoid_sv1","""event"",""trial"",""time""
""fullscreenenter"",""1"",""5556""
","
","
","""event"",""trial"",""time""
""fullscreenenter"",""1"",""5556""
","
","","","","","","null","<div style=""font-size:60px;"">+</div>","null","","fixation","","",""
"memory-trial","135","305409","0.0-18.0-1.45","4468","approach_avoid_sv1","""event"",""trial"",""time""
""fullscreenenter"",""1"",""5556""
","
","
","""event"",""trial"",""time""
""fullscreenenter"",""1"",""5556""
","
","","","","","","816.5999999046326","images/rodent6.png","","","memory_trial","3","maybe_new",""
"html-keyboard-response","136","305925","0.0-18.0-0.46","4468","approach_avoid_sv1","""event"",""trial"",""time""
""fullscreenenter"",""1"",""5556""
","
","
","""event"",""trial"",""time""
""fullscreenenter"",""1"",""5556""
","
","","","","","","null","<div style=""font-size:60px;"">+</div>","null","","fixation","","",""
"memory-trial","137","307792","0.0-18.0-1.46","4468","approach_avoid_sv1","""event"",""trial"",""time""
""fullscreenenter"",""1"",""5556""
","
","
","""event"",""trial"",""time""
""fullscreenenter"",""1"",""5556""
","
","","","","","","841.1999998092651","images/tree6.png","","","memory_trial","1","definitely_old",""
"html-keyboard-response","138","308298","0.0-18.0-0.47","4468","approach_avoid_sv1","""event"",""trial"",""time""
""fullscreenenter"",""1"",""5556""
","
","
","""event"",""trial"",""time""
""fullscreenenter"",""1"",""5556""
","
","","","","","","null","<div style=""font-size:60px;"">+</div>","null","","fixation","","",""
"memory-trial","139","310489","0.0-18.0-1.47","4468","approach_avoid_sv1","""event"",""trial"",""time""
""fullscreenenter"",""1"",""5556""
","
","
","""event"",""trial"",""time""
""fullscreenenter"",""1"",""5556""
","
","","","","","","1184.5999999046326","images/banana5.png","","","memory_trial","2","maybe_old",""
"html-keyboard-response","140","310994","0.0-18.0-0.48","4468","approach_avoid_sv1","""event"",""trial"",""time""
""fullscreenenter"",""1"",""5556""
","
","
","""event"",""trial"",""time""
""fullscreenenter"",""1"",""5556""
","
","","","","","","null","<div style=""font-size:60px;"">+</div>","null","","fixation","","",""
"memory-trial","141","313253","0.0-18.0-1.48","4468","approach_avoid_sv1","""event"",""trial"",""time""
""fullscreenenter"",""1"",""5556""
","
","
","""event"",""trial"",""time""
""fullscreenenter"",""1"",""5556""
","
","","","","","","1242.7000002861023","images/goat5.png","","","memory_trial","2","maybe_old",""
"html-keyboard-response","142","313761","0.0-18.0-0.49","4468","approach_avoid_sv1","""event"",""trial"",""time""
""fullscreenenter"",""1"",""5556""
","
","
","""event"",""trial"",""time""
""fullscreenenter"",""1"",""5556""
","
","","","","","","null","<div style=""font-size:60px;"">+</div>","null","","fixation","","",""
"memory-trial","143","315906","0.0-18.0-1.49","4468","approach_avoid_sv1","""event"",""trial"",""time""
""fullscreenenter"",""1"",""5556""
","
","
","""event"",""trial"",""time""
""fullscreenenter"",""1"",""5556""
","
","","","","","","1138.5","images/plane6.png","","","memory_trial","3","maybe_new",""
"html-keyboard-response","144","316409","0.0-18.0-0.50","4468","approach_avoid_sv1","""event"",""trial"",""time""
""fullscreenenter"",""1"",""5556""
","
","
","""event"",""trial"",""time""
""fullscreenenter"",""1"",""5556""
","
","","","","","","null","<div style=""font-size:60px;"">+</div>","null","","fixation","","",""
"memory-trial","145","318098","0.0-18.0-1.50","4468","approach_avoid_sv1","""event"",""trial"",""time""
""fullscreenenter"",""1"",""5556""
","
","
","""event"",""trial"",""time""
""fullscreenenter"",""1"",""5556""
","
","","","","","","679.6999998092651","images/orange5.png","","","memory_trial","3","maybe_new",""
"html-keyboard-response","146","318601","0.0-18.0-0.51","4468","approach_avoid_sv1","""event"",""trial"",""time""
""fullscreenenter"",""1"",""5556""
","
","
","""event"",""trial"",""time""
""fullscreenenter"",""1"",""5556""
","
","","","","","","null","<div style=""font-size:60px;"">+</div>","null","","fixation","","",""
"memory-trial","147","320570","0.0-18.0-1.51","4468","approach_avoid_sv1","""event"",""trial"",""time""
""fullscreenenter"",""1"",""5556""
","
","
","""event"",""trial"",""time""
""fullscreenenter"",""1"",""5556""
","
","","","","","","964.5999999046326","images/goat7.png","","","memory_trial","2","maybe_old",""
"html-keyboard-response","148","321085","0.0-18.0-0.52","4468","approach_avoid_sv1","""event"",""trial"",""time""
""fullscreenenter"",""1"",""5556""
","
","
","""event"",""trial"",""time""
""fullscreenenter"",""1"",""5556""
","
","","","","","","null","<div style=""font-size:60px;"">+</div>","null","","fixation","","",""
"memory-trial","149","322969","0.0-18.0-1.52","4468","approach_avoid_sv1","""event"",""trial"",""time""
""fullscreenenter"",""1"",""5556""
","
","
","""event"",""trial"",""time""
""fullscreenenter"",""1"",""5556""
","
","","","","","","876.4000000953674","images/table1.png","","","memory_trial","1","definitely_old",""
"html-keyboard-response","150","323473","0.0-18.0-0.53","4468","approach_avoid_sv1","""event"",""trial"",""time""
""fullscreenenter"",""1"",""5556""
","
","
","""event"",""trial"",""time""
""fullscreenenter"",""1"",""5556""
","
","","","","","","null","<div style=""font-size:60px;"">+</div>","null","","fixation","","",""
"memory-trial","151","325360","0.0-18.0-1.53","4468","approach_avoid_sv1","""event"",""trial"",""time""
""fullscreenenter"",""1"",""5556""
","
","
","""event"",""trial"",""time""
""fullscreenenter"",""1"",""5556""
","
","","","","","","884.5999999046326","images/train3.png","","","memory_trial","1","definitely_old",""
"html-keyboard-response","152","325865","0.0-18.0-0.54","4468","approach_avoid_sv1","""event"",""trial"",""time""
""fullscreenenter"",""1"",""5556""
","
","
","""event"",""trial"",""time""
""fullscreenenter"",""1"",""5556""
","
","","","","","","null","<div style=""font-size:60px;"">+</div>","null","","fixation","","",""
"memory-trial","153","327771","0.0-18.0-1.54","4468","approach_avoid_sv1","""event"",""trial"",""time""
""fullscreenenter"",""1"",""5556""
","
","
","""event"",""trial"",""time""
""fullscreenenter"",""1"",""5556""
","
","","","","","","885.1999998092651","images/bush2.png","","","memory_trial","1","definitely_old",""
"html-keyboard-response","154","328281","0.0-18.0-0.55","4468","approach_avoid_sv1","""event"",""trial"",""time""
""fullscreenenter"",""1"",""5556""
","
","
","""event"",""trial"",""time""
""fullscreenenter"",""1"",""5556""
","
","","","","","","null","<div style=""font-size:60px;"">+</div>","null","","fixation","","",""
"memory-trial","155","330102","0.0-18.0-1.55","4468","approach_avoid_sv1","""event"",""trial"",""time""
""fullscreenenter"",""1"",""5556""
","
","
","""event"",""trial"",""time""
""fullscreenenter"",""1"",""5556""
","
","","","","","","809.3000001907349","images/cow8.png","","","memory_trial","2","maybe_old",""
"html-keyboard-response","156","330609","0.0-18.0-0.56","4468","approach_avoid_sv1","""event"",""trial"",""time""
""fullscreenenter"",""1"",""5556""
","
","
","""event"",""trial"",""time""
""fullscreenenter"",""1"",""5556""
","
","","","","","","null","<div style=""font-size:60px;"">+</div>","null","","fixation","","",""
"memory-trial","157","332585","0.0-18.0-1.56","4468","approach_avoid_sv1","""event"",""trial"",""time""
""fullscreenenter"",""1"",""5556""
","
","
","""event"",""trial"",""time""
""fullscreenenter"",""1"",""5556""
","
","","","","","","972.4000000953674","images/banana6.png","","","memory_trial","2","maybe_old",""
"html-keyboard-response","158","333102","0.0-18.0-0.57","4468","approach_avoid_sv1","""event"",""trial"",""time""
""fullscreenenter"",""1"",""5556""
","
","
","""event"",""trial"",""time""
""fullscreenenter"",""1"",""5556""
","
","","","","","","null","<div style=""font-size:60px;"">+</div>","null","","fixation","","",""
"memory-trial","159","334969","0.0-18.0-1.57","4468","approach_avoid_sv1","""event"",""trial"",""time""
""fullscreenenter"",""1"",""5556""
","
","
","""event"",""trial"",""time""
""fullscreenenter"",""1"",""5556""
","
","","","","","","859.0999999046326","images/rodent5.png","","","memory_trial","2","maybe_old",""
"html-keyboard-response","160","335480","0.0-18.0-0.58","4468","approach_avoid_sv1","""event"",""trial"",""time""
""fullscreenenter"",""1"",""5556""
","
","
","""event"",""trial"",""time""
""fullscreenenter"",""1"",""5556""
","
","","","","","","null","<div style=""font-size:60px;"">+</div>","null","","fixation","","",""
"memory-trial","161","337857","0.0-18.0-1.58","4468","approach_avoid_sv1","""event"",""trial"",""time""
""fullscreenenter"",""1"",""5556""
","
","
","""event"",""trial"",""time""
""fullscreenenter"",""1"",""5556""
","
","","","","","","1368.3000001907349","images/chair4.png","","","memory_trial","2","maybe_old",""
"html-keyboard-response","162","338372","0.0-18.0-0.59","4468","approach_avoid_sv1","""event"",""trial"",""time""
""fullscreenenter"",""1"",""5556""
","
","
","""event"",""trial"",""time""
""fullscreenenter"",""1"",""5556""
","
","","","","","","null","<div style=""font-size:60px;"">+</div>","null","","fixation","","",""
"memory-trial","163","340778","0.0-18.0-1.59","4468","approach_avoid_sv1","""event"",""trial"",""time""
""fullscreenenter"",""1"",""5556""
","
","
","""event"",""trial"",""time""
""fullscreenenter"",""1"",""5556""
","
","","","","","","1397.5","images/bush4.png","","","memory_trial","2","maybe_old",""
"html-keyboard-response","164","341281","0.0-18.0-0.60","4468","approach_avoid_sv1","""event"",""trial"",""time""
""fullscreenenter"",""1"",""5556""
","
","
","""event"",""trial"",""time""
""fullscreenenter"",""1"",""5556""
","
","","","","","","null","<div style=""font-size:60px;"">+</div>","null","","fixation","","",""
"memory-trial","165","343243","0.0-18.0-1.60","4468","approach_avoid_sv1","""event"",""trial"",""time""
""fullscreenenter"",""1"",""5556""
","
","
","""event"",""trial"",""time""
""fullscreenenter"",""1"",""5556""
","
","","","","","","941.3000001907349","images/chair2.png","","","memory_trial","2","maybe_old",""
"html-keyboard-response","166","343745","0.0-18.0-0.61","4468","approach_avoid_sv1","""event"",""trial"",""time""
""fullscreenenter"",""1"",""5556""
","
","
","""event"",""trial"",""time""
""fullscreenenter"",""1"",""5556""
","
","","","","","","null","<div style=""font-size:60px;"">+</div>","null","","fixation","","",""
"memory-trial","167","345561","0.0-18.0-1.61","4468","approach_avoid_sv1","""event"",""trial"",""time""
""fullscreenenter"",""1"",""5556""
","
","
","""event"",""trial"",""time""
""fullscreenenter"",""1"",""5556""
","
","","","","","","805.7000002861023","images/chair6.png","","","memory_trial","2","maybe_old",""
"html-keyboard-response","168","346064","0.0-18.0-0.62","4468","approach_avoid_sv1","""event"",""trial"",""time""
""fullscreenenter"",""1"",""5556""
","
","
","""event"",""trial"",""time""
""fullscreenenter"",""1"",""5556""
","
","","","","","","null","<div style=""font-size:60px;"">+</div>","null","","fixation","","",""
"memory-trial","169","348393","0.0-18.0-1.62","4468","approach_avoid_sv1","""event"",""trial"",""time""
""fullscreenenter"",""1"",""5556""
","
","
","""event"",""trial"",""time""
""fullscreenenter"",""1"",""5556""
","
","","","","","","1319","images/boat3.png","","","memory_trial","2","maybe_old",""
"html-keyboard-response","170","348897","0.0-18.0-0.63","4468","approach_avoid_sv1","""event"",""trial"",""time""
""fullscreenenter"",""1"",""5556""
","
","
","""event"",""trial"",""time""
""fullscreenenter"",""1"",""5556""
","
","","","","","","null","<div style=""font-size:60px;"">+</div>","null","","fixation","","",""
"memory-trial","171","351570","0.0-18.0-1.63","4468","approach_avoid_sv1","""event"",""trial"",""time""
""fullscreenenter"",""1"",""5556""
","
","
","""event"",""trial"",""time""
""fullscreenenter"",""1"",""5556""
","
","","","","","","1663.9000000953674","images/goat8.png","","","memory_trial","1","definitely_old",""
"html-keyboard-response","172","352073","0.0-18.0-0.64","4468","approach_avoid_sv1","""event"",""trial"",""time""
""fullscreenenter"",""1"",""5556""
","
","
","""event"",""trial"",""time""
""fullscreenenter"",""1"",""5556""
","
","","","","","","null","<div style=""font-size:60px;"">+</div>","null","","fixation","","",""
"memory-trial","173","354129","0.0-18.0-1.64","4468","approach_avoid_sv1","""event"",""trial"",""time""
""fullscreenenter"",""1"",""5556""
","
","
","""event"",""trial"",""time""
""fullscreenenter"",""1"",""5556""
","
","","","","","","1047","images/sheep5.png","","","memory_trial","2","maybe_old",""
"html-keyboard-response","174","354637","0.0-18.0-0.65","4468","approach_avoid_sv1","""event"",""trial"",""time""
""fullscreenenter"",""1"",""5556""
","
","
","""event"",""trial"",""time""
""fullscreenenter"",""1"",""5556""
","
","","","","","","null","<div style=""font-size:60px;"">+</div>","null","","fixation","","",""
"memory-trial","175","356369","0.0-18.0-1.65","4468","approach_avoid_sv1","""event"",""trial"",""time""
""fullscreenenter"",""1"",""5556""
","
","
","""event"",""trial"",""time""
""fullscreenenter"",""1"",""5556""
","
","","","","","","721","images/sheep1.png","","","memory_trial","2","maybe_old",""
"html-keyboard-response","176","356874","0.0-18.0-0.66","4468","approach_avoid_sv1","""event"",""trial"",""time""
""fullscreenenter"",""1"",""5556""
","
","
","""event"",""trial"",""time""
""fullscreenenter"",""1"",""5556""
","
","","","","","","null","<div style=""font-size:60px;"">+</div>","null","","fixation","","",""
"memory-trial","177","358721","0.0-18.0-1.66","4468","approach_avoid_sv1","""event"",""trial"",""time""
""fullscreenenter"",""1"",""5556""
","
","
","""event"",""trial"",""time""
""fullscreenenter"",""1"",""5556""
","
","","","","","","836.1000003814697","images/tree7.png","","","memory_trial","1","definitely_old",""
"html-keyboard-response","178","359226","0.0-18.0-0.67","4468","approach_avoid_sv1","""event"",""trial"",""time""
""fullscreenenter"",""1"",""5556""
","
","
","""event"",""trial"",""time""
""fullscreenenter"",""1"",""5556""
","
","","","","","","null","<div style=""font-size:60px;"">+</div>","null","","fixation","","",""
"memory-trial","179","361514","0.0-18.0-1.67","4468","approach_avoid_sv1","""event"",""trial"",""time""
""fullscreenenter"",""1"",""5556""
","
","
","""event"",""trial"",""time""
""fullscreenenter"",""1"",""5556""
","
","","","","","","1283.6999998092651","images/table4.png","","","memory_trial","2","maybe_old",""
"html-keyboard-response","180","362018","0.0-18.0-0.68","4468","approach_avoid_sv1","""event"",""trial"",""time""
""fullscreenenter"",""1"",""5556""
","
","
","""event"",""trial"",""time""
""fullscreenenter"",""1"",""5556""
","
","","","","","","null","<div style=""font-size:60px;"">+</div>","null","","fixation","","",""
"memory-trial","181","363745","0.0-18.0-1.68","4468","approach_avoid_sv1","""event"",""trial"",""time""
""fullscreenenter"",""1"",""5556""
","
","
","""event"",""trial"",""time""
""fullscreenenter"",""1"",""5556""
","
","","","","","","716.5","images/tree1.png","","","memory_trial","1","definitely_old",""
"html-keyboard-response","182","364249","0.0-18.0-0.69","4468","approach_avoid_sv1","""event"",""trial"",""time""
""fullscreenenter"",""1"",""5556""
","
","
","""event"",""trial"",""time""
""fullscreenenter"",""1"",""5556""
","
","","","","","","null","<div style=""font-size:60px;"">+</div>","null","","fixation","","",""
"memory-trial","183","366871","0.0-18.0-1.69","4468","approach_avoid_sv1","""event"",""trial"",""time""
""fullscreenenter"",""1"",""5556""
","
","
","""event"",""trial"",""time""
""fullscreenenter"",""1"",""5556""
","
","","","","","","1609.8000001907349","images/horse5.png","","","memory_trial","2","maybe_old",""
"html-keyboard-response","184","367385","0.0-18.0-0.70","4468","approach_avoid_sv1","""event"",""trial"",""time""
""fullscreenenter"",""1"",""5556""
","
","
","""event"",""trial"",""time""
""fullscreenenter"",""1"",""5556""
","
","","","","","","null","<div style=""font-size:60px;"">+</div>","null","","fixation","","",""
"memory-trial","185","369665","0.0-18.0-1.70","4468","approach_avoid_sv1","""event"",""trial"",""time""
""fullscreenenter"",""1"",""5556""
","
","
","""event"",""trial"",""time""
""fullscreenenter"",""1"",""5556""
","
","","","","","","1269.2000002861023","images/bed4.png","","","memory_trial","2","maybe_old",""
"html-keyboard-response","186","370183","0.0-18.0-0.71","4468","approach_avoid_sv1","""event"",""trial"",""time""
""fullscreenenter"",""1"",""5556""
","
","
","""event"",""trial"",""time""
""fullscreenenter"",""1"",""5556""
","
","","","","","","null","<div style=""font-size:60px;"">+</div>","null","","fixation","","",""
"memory-trial","187","372208","0.0-18.0-1.71","4468","approach_avoid_sv1","""event"",""trial"",""time""
""fullscreenenter"",""1"",""5556""
","
","
","""event"",""trial"",""time""
""fullscreenenter"",""1"",""5556""
","
","","","","","","1009.8999996185303","images/dog2.png","","","memory_trial","3","maybe_new",""
"html-keyboard-response","188","372721","0.0-18.0-0.72","4468","approach_avoid_sv1","""event"",""trial"",""time""
""fullscreenenter"",""1"",""5556""
","
","
","""event"",""trial"",""time""
""fullscreenenter"",""1"",""5556""
","
","","","","","","null","<div style=""font-size:60px;"">+</div>","null","","fixation","","",""
"memory-trial","189","374561","0.0-18.0-1.72","4468","approach_avoid_sv1","""event"",""trial"",""time""
""fullscreenenter"",""1"",""5556""
","
","
","""event"",""trial"",""time""
""fullscreenenter"",""1"",""5556""
","
","","","","","","828.6999998092651","images/sheep3.png","","","memory_trial","2","maybe_old",""
"html-keyboard-response","190","375077","0.0-18.0-0.73","4468","approach_avoid_sv1","""event"",""trial"",""time""
""fullscreenenter"",""1"",""5556""
","
","
","""event"",""trial"",""time""
""fullscreenenter"",""1"",""5556""
","
","","","","","","null","<div style=""font-size:60px;"">+</div>","null","","fixation","","",""
"memory-trial","191","376809","0.0-18.0-1.73","4468","approach_avoid_sv1","""event"",""trial"",""time""
""fullscreenenter"",""1"",""5556""
","
","
","""event"",""trial"",""time""
""fullscreenenter"",""1"",""5556""
","
","","","","","","724.5999999046326","images/table6.png","","","memory_trial","1","definitely_old",""
"html-keyboard-response","192","377313","0.0-18.0-0.74","4468","approach_avoid_sv1","""event"",""trial"",""time""
""fullscreenenter"",""1"",""5556""
","
","
","""event"",""trial"",""time""
""fullscreenenter"",""1"",""5556""
","
","","","","","","null","<div style=""font-size:60px;"">+</div>","null","","fixation","","",""
"memory-trial","193","378961","0.0-18.0-1.74","4468","approach_avoid_sv1","""event"",""trial"",""time""
""fullscreenenter"",""1"",""5556""
","
","
","""event"",""trial"",""time""
""fullscreenenter"",""1"",""5556""
","
","","","","","","641.2999997138977","images/bush5.png","","","memory_trial","1","definitely_old",""
"html-keyboard-response","194","379475","0.0-18.0-0.75","4468","approach_avoid_sv1","""event"",""trial"",""time""
""fullscreenenter"",""1"",""5556""
","
","
","""event"",""trial"",""time""
""fullscreenenter"",""1"",""5556""
","
","","","","","","null","<div style=""font-size:60px;"">+</div>","null","","fixation","","",""
"memory-trial","195","381330","0.0-18.0-1.75","4468","approach_avoid_sv1","""event"",""trial"",""time""
""fullscreenenter"",""1"",""5556""
","
","
","""event"",""trial"",""time""
""fullscreenenter"",""1"",""5556""
","
","","","","","","849.8000001907349","images/rodent3.png","","","memory_trial","2","maybe_old",""
"html-keyboard-response","196","381846","0.0-18.0-0.76","4468","approach_avoid_sv1","""event"",""trial"",""time""
""fullscreenenter"",""1"",""5556""
","
","
","""event"",""trial"",""time""
""fullscreenenter"",""1"",""5556""
","
","","","","","","null","<div style=""font-size:60px;"">+</div>","null","","fixation","","",""
"memory-trial","197","383807","0.0-18.0-1.76","4468","approach_avoid_sv1","""event"",""trial"",""time""
""fullscreenenter"",""1"",""5556""
","
","
","""event"",""trial"",""time""
""fullscreenenter"",""1"",""5556""
","
","","","","","","948.0999999046326","images/rodent1.png","","","memory_trial","2","maybe_old",""
"html-keyboard-response","198","384314","0.0-18.0-0.77","4468","approach_avoid_sv1","""event"",""trial"",""time""
""fullscreenenter"",""1"",""5556""
","
","
","""event"",""trial"",""time""
""fullscreenenter"",""1"",""5556""
","
","","","","","","null","<div style=""font-size:60px;"">+</div>","null","","fixation","","",""
"memory-trial","199","386353","0.0-18.0-1.77","4468","approach_avoid_sv1","""event"",""trial"",""time""
""fullscreenenter"",""1"",""5556""
","
","
","""event"",""trial"",""time""
""fullscreenenter"",""1"",""5556""
","
","","","","","","1032.3999996185303","images/cat2.png","","","memory_trial","2","maybe_old",""
"html-keyboard-response","200","386860","0.0-18.0-0.78","4468","approach_avoid_sv1","""event"",""trial"",""time""
""fullscreenenter"",""1"",""5556""
","
","
","""event"",""trial"",""time""
""fullscreenenter"",""1"",""5556""
","
","","","","","","null","<div style=""font-size:60px;"">+</div>","null","","fixation","","",""
"memory-trial","201","388505","0.0-18.0-1.78","4468","approach_avoid_sv1","""event"",""trial"",""time""
""fullscreenenter"",""1"",""5556""
","
","
","""event"",""trial"",""time""
""fullscreenenter"",""1"",""5556""
","
","","","","","","637.5999999046326","images/flower8.png","","","memory_trial","1","definitely_old",""
"html-keyboard-response","202","389009","0.0-18.0-0.79","4468","approach_avoid_sv1","""event"",""trial"",""time""
""fullscreenenter"",""1"",""5556""
","
","
","""event"",""trial"",""time""
""fullscreenenter"",""1"",""5556""
","
","","","","","","null","<div style=""font-size:60px;"">+</div>","null","","fixation","","",""
"memory-trial","203","391249","0.0-18.0-1.79","4468","approach_avoid_sv1","""event"",""trial"",""time""
""fullscreenenter"",""1"",""5556""
","
","
","""event"",""trial"",""time""
""fullscreenenter"",""1"",""5556""
","
","","","","","","1229.4000000953674","images/train5.png","","","memory_trial","3","maybe_new",""
"html-keyboard-response","204","391767","0.0-18.0-0.80","4468","approach_avoid_sv1","""event"",""trial"",""time""
""fullscreenenter"",""1"",""5556""
","
","
","""event"",""trial"",""time""
""fullscreenenter"",""1"",""5556""
","
","","","","","","null","<div style=""font-size:60px;"">+</div>","null","","fixation","","",""
"memory-trial","205","394249","0.0-18.0-1.80","4468","approach_avoid_sv1","""event"",""trial"",""time""
""fullscreenenter"",""1"",""5556""
","
","
","""event"",""trial"",""time""
""fullscreenenter"",""1"",""5556""
","
","","","","","","1473","images/bed8.png","","","memory_trial","2","maybe_old",""
"html-keyboard-response","206","394761","0.0-18.0-0.81","4468","approach_avoid_sv1","""event"",""trial"",""time""
""fullscreenenter"",""1"",""5556""
","
","
","""event"",""trial"",""time""
""fullscreenenter"",""1"",""5556""
","
","","","","","","null","<div style=""font-size:60px;"">+</div>","null","","fixation","","",""
"memory-trial","207","396945","0.0-18.0-1.81","4468","approach_avoid_sv1","""event"",""trial"",""time""
""fullscreenenter"",""1"",""5556""
","
","
","""event"",""trial"",""time""
""fullscreenenter"",""1"",""5556""
","
","","","","","","1174.6999998092651","images/train4.png","","","memory_trial","1","definitely_old",""
"html-keyboard-response","208","397449","0.0-18.0-0.82","4468","approach_avoid_sv1","""event"",""trial"",""time""
""fullscreenenter"",""1"",""5556""
","
","
","""event"",""trial"",""time""
""fullscreenenter"",""1"",""5556""
","
","","","","","","null","<div style=""font-size:60px;"">+</div>","null","","fixation","","",""
"memory-trial","209","399432","0.0-18.0-1.82","4468","approach_avoid_sv1","""event"",""trial"",""time""
""fullscreenenter"",""1"",""5556""
","
","
","""event"",""trial"",""time""
""fullscreenenter"",""1"",""5556""
","
","","","","","","958.9000000953674","images/straw8.png","","","memory_trial","3","maybe_new",""
"html-keyboard-response","210","399938","0.0-18.0-0.83","4468","approach_avoid_sv1","""event"",""trial"",""time""
""fullscreenenter"",""1"",""5556""
","
","
","""event"",""trial"",""time""
""fullscreenenter"",""1"",""5556""
","
","","","","","","null","<div style=""font-size:60px;"">+</div>","null","","fixation","","",""
"memory-trial","211","401938","0.0-18.0-1.83","4468","approach_avoid_sv1","""event"",""trial"",""time""
""fullscreenenter"",""1"",""5556""
","
","
","""event"",""trial"",""time""
""fullscreenenter"",""1"",""5556""
","
","","","","","","988.5","images/apple1.png","","","memory_trial","2","maybe_old",""
"html-keyboard-response","212","402440","0.0-18.0-0.84","4468","approach_avoid_sv1","""event"",""trial"",""time""
""fullscreenenter"",""1"",""5556""
","
","
","""event"",""trial"",""time""
""fullscreenenter"",""1"",""5556""
","
","","","","","","null","<div style=""font-size:60px;"">+</div>","null","","fixation","","",""
"memory-trial","213","404321","0.0-18.0-1.84","4468","approach_avoid_sv1","""event"",""trial"",""time""
""fullscreenenter"",""1"",""5556""
","
","
","""event"",""trial"",""time""
""fullscreenenter"",""1"",""5556""
","
","","","","","","875.2999997138977","images/horse6.png","","","memory_trial","1","definitely_old",""
"html-keyboard-response","214","404832","0.0-18.0-0.85","4468","approach_avoid_sv1","""event"",""trial"",""time""
""fullscreenenter"",""1"",""5556""
","
","
","""event"",""trial"",""time""
""fullscreenenter"",""1"",""5556""
","
","","","","","","null","<div style=""font-size:60px;"">+</div>","null","","fixation","","",""
"memory-trial","215","406737","0.0-18.0-1.85","4468","approach_avoid_sv1","""event"",""trial"",""time""
""fullscreenenter"",""1"",""5556""
","
","
","""event"",""trial"",""time""
""fullscreenenter"",""1"",""5556""
","
","","","","","","897.0999999046326","images/sheep4.png","","","memory_trial","1","definitely_old",""
"html-keyboard-response","216","407240","0.0-18.0-0.86","4468","approach_avoid_sv1","""event"",""trial"",""time""
""fullscreenenter"",""1"",""5556""
","
","
","""event"",""trial"",""time""
""fullscreenenter"",""1"",""5556""
","
","","","","","","null","<div style=""font-size:60px;"">+</div>","null","","fixation","","",""
"memory-trial","217","408946","0.0-18.0-1.86","4468","approach_avoid_sv1","""event"",""trial"",""time""
""fullscreenenter"",""1"",""5556""
","
","
","""event"",""trial"",""time""
""fullscreenenter"",""1"",""5556""
","
","","","","","","696.5","images/rodent4.png","","","memory_trial","2","maybe_old",""
"html-keyboard-response","218","409459","0.0-18.0-0.87","4468","approach_avoid_sv1","""event"",""trial"",""time""
""fullscreenenter"",""1"",""5556""
","
","
","""event"",""trial"",""time""
""fullscreenenter"",""1"",""5556""
","
","","","","","","null","<div style=""font-size:60px;"">+</div>","null","","fixation","","",""
"memory-trial","219","411817","0.0-18.0-1.87","4468","approach_avoid_sv1","""event"",""trial"",""time""
""fullscreenenter"",""1"",""5556""
","
","
","""event"",""trial"",""time""
""fullscreenenter"",""1"",""5556""
","
","","","","","","1346.9000000953674","images/dog4.png","","","memory_trial","3","maybe_new",""
"html-keyboard-response","220","412321","0.0-18.0-0.88","4468","approach_avoid_sv1","""event"",""trial"",""time""
""fullscreenenter"",""1"",""5556""
","
","
","""event"",""trial"",""time""
""fullscreenenter"",""1"",""5556""
","
","","","","","","null","<div style=""font-size:60px;"">+</div>","null","","fixation","","",""
"memory-trial","221","414411","0.0-18.0-1.88","4468","approach_avoid_sv1","""event"",""trial"",""time""
""fullscreenenter"",""1"",""5556""
","
","
","""event"",""trial"",""time""
""fullscreenenter"",""1"",""5556""
","
","","","","","","1085","images/sheep6.png","","","memory_trial","2","maybe_old",""
"html-keyboard-response","222","414926","0.0-18.0-0.89","4468","approach_avoid_sv1","""event"",""trial"",""time""
""fullscreenenter"",""1"",""5556""
","
","
","""event"",""trial"",""time""
""fullscreenenter"",""1"",""5556""
","
","","","","","","null","<div style=""font-size:60px;"">+</div>","null","","fixation","","",""
"memory-trial","223","416767","0.0-18.0-1.89","4468","approach_avoid_sv1","""event"",""trial"",""time""
""fullscreenenter"",""1"",""5556""
","
","
","""event"",""trial"",""time""
""fullscreenenter"",""1"",""5556""
","
","","","","","","818.5999999046326","images/horse4.png","","","memory_trial","1","definitely_old",""
"html-keyboard-response","224","417273","0.0-18.0-0.90","4468","approach_avoid_sv1","""event"",""trial"",""time""
""fullscreenenter"",""1"",""5556""
","
","
","""event"",""trial"",""time""
""fullscreenenter"",""1"",""5556""
","
","","","","","","null","<div style=""font-size:60px;"">+</div>","null","","fixation","","",""
"memory-trial","225","419041","0.0-18.0-1.90","4468","approach_avoid_sv1","""event"",""trial"",""time""
""fullscreenenter"",""1"",""5556""
","
","
","""event"",""trial"",""time""
""fullscreenenter"",""1"",""5556""
","
","","","","","","761.6999998092651","images/rodent8.png","","","memory_trial","1","definitely_old",""
"html-keyboard-response","226","419545","0.0-18.0-0.91","4468","approach_avoid_sv1","""event"",""trial"",""time""
""fullscreenenter"",""1"",""5556""
","
","
","""event"",""trial"",""time""
""fullscreenenter"",""1"",""5556""
","
","","","","","","null","<div style=""font-size:60px;"">+</div>","null","","fixation","","",""
"memory-trial","227","421481","0.0-18.0-1.91","4468","approach_avoid_sv1","""event"",""trial"",""time""
""fullscreenenter"",""1"",""5556""
","
","
","""event"",""trial"",""time""
""fullscreenenter"",""1"",""5556""
","
","","","","","","928.4000000953674","images/dog7.png","","","memory_trial","4","definitely_new",""
"html-button-response","228","422827","0.0-18.0-2.91-0.91","4468","approach_avoid_sv1","""event"",""trial"",""time""
""fullscreenenter"",""1"",""5556""
","
","
","""event"",""trial"",""time""
""fullscreenenter"",""1"",""5556""
","
","","","","","","1344.2999997138977","<p> Take a break! </p><p> Click the button to continue. </p>","0","","break","","",""
"html-keyboard-response","229","423330","0.0-18.0-0.92","4468","approach_avoid_sv1","""event"",""trial"",""time""
""fullscreenenter"",""1"",""5556""
","
","
","""event"",""trial"",""time""
""fullscreenenter"",""1"",""5556""
","
","","","","","","null","<div style=""font-size:60px;"">+</div>","null","","fixation","","",""
"memory-trial","230","425497","0.0-18.0-1.92","4468","approach_avoid_sv1","""event"",""trial"",""time""
""fullscreenenter"",""1"",""5556""
","
","
","""event"",""trial"",""time""
""fullscreenenter"",""1"",""5556""
","
","","","","","","1158.5","images/boat2.png","","","memory_trial","1","definitely_old",""
"html-keyboard-response","231","426001","0.0-18.0-0.93","4468","approach_avoid_sv1","""event"",""trial"",""time""
""fullscreenenter"",""1"",""5556""
","
","
","""event"",""trial"",""time""
""fullscreenenter"",""1"",""5556""
","
","","","","","","null","<div style=""font-size:60px;"">+</div>","null","","fixation","","",""
"memory-trial","232","428137","0.0-18.0-1.93","4468","approach_avoid_sv1","""event"",""trial"",""time""
""fullscreenenter"",""1"",""5556""
","
","
","""event"",""trial"",""time""
""fullscreenenter"",""1"",""5556""
","
","","","","","","1132.5999999046326","images/apple7.png","","","memory_trial","2","maybe_old",""
"html-keyboard-response","233","428646","0.0-18.0-0.94","4468","approach_avoid_sv1","""event"",""trial"",""time""
""fullscreenenter"",""1"",""5556""
","
","
","""event"",""trial"",""time""
""fullscreenenter"",""1"",""5556""
","
","","","","","","null","<div style=""font-size:60px;"">+</div>","null","","fixation","","",""
"memory-trial","234","430458","0.0-18.0-1.94","4468","approach_avoid_sv1","""event"",""trial"",""time""
""fullscreenenter"",""1"",""5556""
","
","
","""event"",""trial"",""time""
""fullscreenenter"",""1"",""5556""
","
","","","","","","791.5","images/cactus2.png","","","memory_trial","3","maybe_new",""
"html-keyboard-response","235","430961","0.0-18.0-0.95","4468","approach_avoid_sv1","""event"",""trial"",""time""
""fullscreenenter"",""1"",""5556""
","
","
","""event"",""trial"",""time""
""fullscreenenter"",""1"",""5556""
","
","","","","","","null","<div style=""font-size:60px;"">+</div>","null","","fixation","","",""
"memory-trial","236","432953","0.0-18.0-1.95","4468","approach_avoid_sv1","""event"",""trial"",""time""
""fullscreenenter"",""1"",""5556""
","
","
","""event"",""trial"",""time""
""fullscreenenter"",""1"",""5556""
","
","","","","","","983.0999999046326","images/train1.png","","","memory_trial","2","maybe_old",""
"html-keyboard-response","237","433457","0.0-18.0-0.96","4468","approach_avoid_sv1","""event"",""trial"",""time""
""fullscreenenter"",""1"",""5556""
","
","
","""event"",""trial"",""time""
""fullscreenenter"",""1"",""5556""
","
","","","","","","null","<div style=""font-size:60px;"">+</div>","null","","fixation","","",""
"memory-trial","238","435721","0.0-18.0-1.96","4468","approach_avoid_sv1","""event"",""trial"",""time""
""fullscreenenter"",""1"",""5556""
","
","
","""event"",""trial"",""time""
""fullscreenenter"",""1"",""5556""
","
","","","","","","1256.4000000953674","images/truck2.png","","","memory_trial","2","maybe_old",""
"html-keyboard-response","239","436227","0.0-18.0-0.97","4468","approach_avoid_sv1","""event"",""trial"",""time""
""fullscreenenter"",""1"",""5556""
","
","
","""event"",""trial"",""time""
""fullscreenenter"",""1"",""5556""
","
","","","","","","null","<div style=""font-size:60px;"">+</div>","null","","fixation","","",""
"memory-trial","240","438169","0.0-18.0-1.97","4468","approach_avoid_sv1","""event"",""trial"",""time""
""fullscreenenter"",""1"",""5556""
","
","
","""event"",""trial"",""time""
""fullscreenenter"",""1"",""5556""
","
","","","","","","932.1999998092651","images/goat1.png","","","memory_trial","1","definitely_old",""
"html-keyboard-response","241","438674","0.0-18.0-0.98","4468","approach_avoid_sv1","""event"",""trial"",""time""
""fullscreenenter"",""1"",""5556""
","
","
","""event"",""trial"",""time""
""fullscreenenter"",""1"",""5556""
","
","","","","","","null","<div style=""font-size:60px;"">+</div>","null","","fixation","","",""
"memory-trial","242","440529","0.0-18.0-1.98","4468","approach_avoid_sv1","""event"",""trial"",""time""
""fullscreenenter"",""1"",""5556""
","
","
","""event"",""trial"",""time""
""fullscreenenter"",""1"",""5556""
","
","","","","","","849.5999999046326","images/straw5.png","","","memory_trial","3","maybe_new",""
"html-keyboard-response","243","441033","0.0-18.0-0.99","4468","approach_avoid_sv1","""event"",""trial"",""time""
""fullscreenenter"",""1"",""5556""
","
","
","""event"",""trial"",""time""
""fullscreenenter"",""1"",""5556""
","
","","","","","","null","<div style=""font-size:60px;"">+</div>","null","","fixation","","",""
"memory-trial","244","442761","0.0-18.0-1.99","4468","approach_avoid_sv1","""event"",""trial"",""time""
""fullscreenenter"",""1"",""5556""
","
","
","""event"",""trial"",""time""
""fullscreenenter"",""1"",""5556""
","
","","","","","","725","images/truck6.png","","","memory_trial","1","definitely_old",""
"html-keyboard-response","245","443271","0.0-18.0-0.100","4468","approach_avoid_sv1","""event"",""trial"",""time""
""fullscreenenter"",""1"",""5556""
","
","
","""event"",""trial"",""time""
""fullscreenenter"",""1"",""5556""
","
","","","","","","null","<div style=""font-size:60px;"">+</div>","null","","fixation","","",""
"memory-trial","246","445106","0.0-18.0-1.100","4468","approach_avoid_sv1","""event"",""trial"",""time""
""fullscreenenter"",""1"",""5556""
","
","
","""event"",""trial"",""time""
""fullscreenenter"",""1"",""5556""
","
","","","","","","823","images/cat5.png","","","memory_trial","2","maybe_old",""
"html-keyboard-response","247","445610","0.0-18.0-0.101","4468","approach_avoid_sv1","""event"",""trial"",""time""
""fullscreenenter"",""1"",""5556""
","
","
","""event"",""trial"",""time""
""fullscreenenter"",""1"",""5556""
","
","","","","","","null","<div style=""font-size:60px;"">+</div>","null","","fixation","","",""
"memory-trial","248","447569","0.0-18.0-1.101","4468","approach_avoid_sv1","""event"",""trial"",""time""
""fullscreenenter"",""1"",""5556""
","
","
","""event"",""trial"",""time""
""fullscreenenter"",""1"",""5556""
","
","","","","","","952.6000003814697","images/plane8.png","","","memory_trial","3","maybe_new",""
"html-keyboard-response","249","448072","0.0-18.0-0.102","4468","approach_avoid_sv1","""event"",""trial"",""time""
""fullscreenenter"",""1"",""5556""
","
","
","""event"",""trial"",""time""
""fullscreenenter"",""1"",""5556""
","
","","","","","","null","<div style=""font-size:60px;"">+</div>","null","","fixation","","",""
"memory-trial","250","449841","0.0-18.0-1.102","4468","approach_avoid_sv1","""event"",""trial"",""time""
""fullscreenenter"",""1"",""5556""
","
","
","""event"",""trial"",""time""
""fullscreenenter"",""1"",""5556""
","
","","","","","","763.1999998092651","images/straw2.png","","","memory_trial","2","maybe_old",""
"html-keyboard-response","251","450346","0.0-18.0-0.103","4468","approach_avoid_sv1","""event"",""trial"",""time""
""fullscreenenter"",""1"",""5556""
","
","
","""event"",""trial"",""time""
""fullscreenenter"",""1"",""5556""
","
","","","","","","null","<div style=""font-size:60px;"">+</div>","null","","fixation","","",""
"memory-trial","252","452586","0.0-18.0-1.103","4468","approach_avoid_sv1","""event"",""trial"",""time""
""fullscreenenter"",""1"",""5556""
","
","
","""event"",""trial"",""time""
""fullscreenenter"",""1"",""5556""
","
","","","","","","1235.5","images/dog8.png","","","memory_trial","4","definitely_new",""
"html-keyboard-response","253","453090","0.0-18.0-0.104","4468","approach_avoid_sv1","""event"",""trial"",""time""
""fullscreenenter"",""1"",""5556""
","
","
","""event"",""trial"",""time""
""fullscreenenter"",""1"",""5556""
","
","","","","","","null","<div style=""font-size:60px;"">+</div>","null","","fixation","","",""
"memory-trial","254","454818","0.0-18.0-1.104","4468","approach_avoid_sv1","""event"",""trial"",""time""
""fullscreenenter"",""1"",""5556""
","
","
","""event"",""trial"",""time""
""fullscreenenter"",""1"",""5556""
","
","","","","","","714.9000000953674","images/sofa6.png","","","memory_trial","3","maybe_new",""
"html-keyboard-response","255","455320","0.0-18.0-0.105","4468","approach_avoid_sv1","""event"",""trial"",""time""
""fullscreenenter"",""1"",""5556""
","
","
","""event"",""trial"",""time""
""fullscreenenter"",""1"",""5556""
","
","","","","","","null","<div style=""font-size:60px;"">+</div>","null","","fixation","","",""
"memory-trial","256","456986","0.0-18.0-1.105","4468","approach_avoid_sv1","""event"",""trial"",""time""
""fullscreenenter"",""1"",""5556""
","
","
","""event"",""trial"",""time""
""fullscreenenter"",""1"",""5556""
","
","","","","","","659.8000001907349","images/bed7.png","","","memory_trial","2","maybe_old",""
"html-keyboard-response","257","457504","0.0-18.0-0.106","4468","approach_avoid_sv1","""event"",""trial"",""time""
""fullscreenenter"",""1"",""5556""
","
","
","""event"",""trial"",""time""
""fullscreenenter"",""1"",""5556""
","
","","","","","","null","<div style=""font-size:60px;"">+</div>","null","","fixation","","",""
"memory-trial","258","459210","0.0-18.0-1.106","4468","approach_avoid_sv1","""event"",""trial"",""time""
""fullscreenenter"",""1"",""5556""
","
","
","""event"",""trial"",""time""
""fullscreenenter"",""1"",""5556""
","
","","","","","","699.2000002861023","images/train6.png","","","memory_trial","1","definitely_old",""
"html-keyboard-response","259","459719","0.0-18.0-0.107","4468","approach_avoid_sv1","""event"",""trial"",""time""
""fullscreenenter"",""1"",""5556""
","
","
","""event"",""trial"",""time""
""fullscreenenter"",""1"",""5556""
","
","","","","","","null","<div style=""font-size:60px;"">+</div>","null","","fixation","","",""
"memory-trial","260","461731","0.0-18.0-1.107","4468","approach_avoid_sv1","""event"",""trial"",""time""
""fullscreenenter"",""1"",""5556""
","
","
","""event"",""trial"",""time""
""fullscreenenter"",""1"",""5556""
","
","","","","","","1001.4000000953674","images/cat8.png","","","memory_trial","3","maybe_new",""
"html-keyboard-response","261","462233","0.0-18.0-0.108","4468","approach_avoid_sv1","""event"",""trial"",""time""
""fullscreenenter"",""1"",""5556""
","
","
","""event"",""trial"",""time""
""fullscreenenter"",""1"",""5556""
","
","","","","","","null","<div style=""font-size:60px;"">+</div>","null","","fixation","","",""
"memory-trial","262","464145","0.0-18.0-1.108","4468","approach_avoid_sv1","""event"",""trial"",""time""
""fullscreenenter"",""1"",""5556""
","
","
","""event"",""trial"",""time""
""fullscreenenter"",""1"",""5556""
","
","","","","","","904.5","images/tree5.png","","","memory_trial","3","maybe_new",""
"html-keyboard-response","263","464664","0.0-18.0-0.109","4468","approach_avoid_sv1","""event"",""trial"",""time""
""fullscreenenter"",""1"",""5556""
","
","
","""event"",""trial"",""time""
""fullscreenenter"",""1"",""5556""
","
","","","","","","null","<div style=""font-size:60px;"">+</div>","null","","fixation","","",""
"memory-trial","264","466801","0.0-18.0-1.109","4468","approach_avoid_sv1","""event"",""trial"",""time""
""fullscreenenter"",""1"",""5556""
","
","
","""event"",""trial"",""time""
""fullscreenenter"",""1"",""5556""
","
","","","","","","1128.4000000953674","images/apple8.png","","","memory_trial","1","definitely_old",""
"html-keyboard-response","265","467305","0.0-18.0-0.110","4468","approach_avoid_sv1","""event"",""trial"",""time""
""fullscreenenter"",""1"",""5556""
","
","
","""event"",""trial"",""time""
""fullscreenenter"",""1"",""5556""
","
","","","","","","null","<div style=""font-size:60px;"">+</div>","null","","fixation","","",""
"memory-trial","266","469209","0.0-18.0-1.110","4468","approach_avoid_sv1","""event"",""trial"",""time""
""fullscreenenter"",""1"",""5556""
","
","
","""event"",""trial"",""time""
""fullscreenenter"",""1"",""5556""
","
","","","","","","897.1999998092651","images/straw4.png","","","memory_trial","2","maybe_old",""
"html-keyboard-response","267","469712","0.0-18.0-0.111","4468","approach_avoid_sv1","""event"",""trial"",""time""
""fullscreenenter"",""1"",""5556""
","
","
","""event"",""trial"",""time""
""fullscreenenter"",""1"",""5556""
","
","","","","","","null","<div style=""font-size:60px;"">+</div>","null","","fixation","","",""
"memory-trial","268","471437","0.0-18.0-1.111","4468","approach_avoid_sv1","""event"",""trial"",""time""
""fullscreenenter"",""1"",""5556""
","
","
","""event"",""trial"",""time""
""fullscreenenter"",""1"",""5556""
","
","","","","","","707.5999999046326","images/orange6.png","","","memory_trial","4","definitely_new",""
"html-keyboard-response","269","471952","0.0-18.0-0.112","4468","approach_avoid_sv1","""event"",""trial"",""time""
""fullscreenenter"",""1"",""5556""
","
","
","""event"",""trial"",""time""
""fullscreenenter"",""1"",""5556""
","
","","","","","","null","<div style=""font-size:60px;"">+</div>","null","","fixation","","",""
"memory-trial","270","473882","0.0-18.0-1.112","4468","approach_avoid_sv1","""event"",""trial"",""time""
""fullscreenenter"",""1"",""5556""
","
","
","""event"",""trial"",""time""
""fullscreenenter"",""1"",""5556""
","
","","","","","","924.8999996185303","images/plane2.png","","","memory_trial","4","definitely_new",""
"html-keyboard-response","271","474385","0.0-18.0-0.113","4468","approach_avoid_sv1","""event"",""trial"",""time""
""fullscreenenter"",""1"",""5556""
","
","
","""event"",""trial"",""time""
""fullscreenenter"",""1"",""5556""
","
","","","","","","null","<div style=""font-size:60px;"">+</div>","null","","fixation","","",""
"memory-trial","272","476585","0.0-18.0-1.113","4468","approach_avoid_sv1","""event"",""trial"",""time""
""fullscreenenter"",""1"",""5556""
","
","
","""event"",""trial"",""time""
""fullscreenenter"",""1"",""5556""
","
","","","","","","1192.6999998092651","images/train8.png","","","memory_trial","3","maybe_new",""
"html-keyboard-response","273","477092","0.0-18.0-0.114","4468","approach_avoid_sv1","""event"",""trial"",""time""
""fullscreenenter"",""1"",""5556""
","
","
","""event"",""trial"",""time""
""fullscreenenter"",""1"",""5556""
","
","","","","","","null","<div style=""font-size:60px;"">+</div>","null","","fixation","","",""
"memory-trial","274","478865","0.0-18.0-1.114","4468","approach_avoid_sv1","""event"",""trial"",""time""
""fullscreenenter"",""1"",""5556""
","
","
","""event"",""trial"",""time""
""fullscreenenter"",""1"",""5556""
","
","","","","","","762.5","images/table5.png","","","memory_trial","1","definitely_old",""
"html-keyboard-response","275","479369","0.0-18.0-0.115","4468","approach_avoid_sv1","""event"",""trial"",""time""
""fullscreenenter"",""1"",""5556""
","
","
","""event"",""trial"",""time""
""fullscreenenter"",""1"",""5556""
","
","","","","","","null","<div style=""font-size:60px;"">+</div>","null","","fixation","","",""
"memory-trial","276","482015","0.0-18.0-1.115","4468","approach_avoid_sv1","""event"",""trial"",""time""
""fullscreenenter"",""1"",""5556""
","
","
","""event"",""trial"",""time""
""fullscreenenter"",""1"",""5556""
","
","","","","","","1635.7999997138977","images/horse7.png","","","memory_trial","3","maybe_new",""
"html-keyboard-response","277","482531","0.0-18.0-0.116","4468","approach_avoid_sv1","""event"",""trial"",""time""
""fullscreenenter"",""1"",""5556""
","
","
","""event"",""trial"",""time""
""fullscreenenter"",""1"",""5556""
","
","","","","","","null","<div style=""font-size:60px;"">+</div>","null","","fixation","","",""
"memory-trial","278","484555","0.0-18.0-1.116","4468","approach_avoid_sv1","""event"",""trial"",""time""
""fullscreenenter"",""1"",""5556""
","
","
","""event"",""trial"",""time""
""fullscreenenter"",""1"",""5556""
","
","","","","","","1016.5","images/banana8.png","","","memory_trial","3","maybe_new",""
"html-keyboard-response","279","485057","0.0-18.0-0.117","4468","approach_avoid_sv1","""event"",""trial"",""time""
""fullscreenenter"",""1"",""5556""
","
","
","""event"",""trial"",""time""
""fullscreenenter"",""1"",""5556""
","
","","","","","","null","<div style=""font-size:60px;"">+</div>","null","","fixation","","",""
"memory-trial","280","486865","0.0-18.0-1.117","4468","approach_avoid_sv1","""event"",""trial"",""time""
""fullscreenenter"",""1"",""5556""
","
","
","""event"",""trial"",""time""
""fullscreenenter"",""1"",""5556""
","
","","","","","","800.1999998092651","images/boat8.png","","","memory_trial","1","definitely_old",""
"html-keyboard-response","281","487369","0.0-18.0-0.118","4468","approach_avoid_sv1","""event"",""trial"",""time""
""fullscreenenter"",""1"",""5556""
","
","
","""event"",""trial"",""time""
""fullscreenenter"",""1"",""5556""
","
","","","","","","null","<div style=""font-size:60px;"">+</div>","null","","fixation","","",""
"memory-trial","282","489209","0.0-18.0-1.118","4468","approach_avoid_sv1","""event"",""trial"",""time""
""fullscreenenter"",""1"",""5556""
","
","
","""event"",""trial"",""time""
""fullscreenenter"",""1"",""5556""
","
","","","","","","831","images/cat1.png","","","memory_trial","3","maybe_new",""
"html-keyboard-response","283","489713","0.0-18.0-0.119","4468","approach_avoid_sv1","""event"",""trial"",""time""
""fullscreenenter"",""1"",""5556""
","
","
","""event"",""trial"",""time""
""fullscreenenter"",""1"",""5556""
","
","","","","","","null","<div style=""font-size:60px;"">+</div>","null","","fixation","","",""
"memory-trial","284","491545","0.0-18.0-1.119","4468","approach_avoid_sv1","""event"",""trial"",""time""
""fullscreenenter"",""1"",""5556""
","
","
","""event"",""trial"",""time""
""fullscreenenter"",""1"",""5556""
","
","","","","","","827.5999999046326","images/sofa3.png","","","memory_trial","3","maybe_new",""
"html-keyboard-response","285","492053","0.0-18.0-0.120","4468","approach_avoid_sv1","""event"",""trial"",""time""
""fullscreenenter"",""1"",""5556""
","
","
","""event"",""trial"",""time""
""fullscreenenter"",""1"",""5556""
","
","","","","","","null","<div style=""font-size:60px;"">+</div>","null","","fixation","","",""
"memory-trial","286","493914","0.0-18.0-1.120","4468","approach_avoid_sv1","""event"",""trial"",""time""
""fullscreenenter"",""1"",""5556""
","
","
","""event"",""trial"",""time""
""fullscreenenter"",""1"",""5556""
","
","","","","","","852.6999998092651","images/straw6.png","","","memory_trial","3","maybe_new",""
"html-keyboard-response","287","494427","0.0-18.0-0.121","4468","approach_avoid_sv1","""event"",""trial"",""time""
""fullscreenenter"",""1"",""5556""
","
","
","""event"",""trial"",""time""
""fullscreenenter"",""1"",""5556""
","
","","","","","","null","<div style=""font-size:60px;"">+</div>","null","","fixation","","",""
"memory-trial","288","496217","0.0-18.0-1.121","4468","approach_avoid_sv1","""event"",""trial"",""time""
""fullscreenenter"",""1"",""5556""
","
","
","""event"",""trial"",""time""
""fullscreenenter"",""1"",""5556""
","
","","","","","","776.9000000953674","images/rabbit1.png","","","memory_trial","3","maybe_new",""
"html-keyboard-response","289","496721","0.0-18.0-0.122","4468","approach_avoid_sv1","""event"",""trial"",""time""
""fullscreenenter"",""1"",""5556""
","
","
","""event"",""trial"",""time""
""fullscreenenter"",""1"",""5556""
","
","","","","","","null","<div style=""font-size:60px;"">+</div>","null","","fixation","","",""
"memory-trial","290","498265","0.0-18.0-1.122","4468","approach_avoid_sv1","""event"",""trial"",""time""
""fullscreenenter"",""1"",""5556""
","
","
","""event"",""trial"",""time""
""fullscreenenter"",""1"",""5556""
","
","","","","","","532.5999999046326","images/sofa8.png","","","memory_trial","3","maybe_new",""
"html-keyboard-response","291","498769","0.0-18.0-0.123","4468","approach_avoid_sv1","""event"",""trial"",""time""
""fullscreenenter"",""1"",""5556""
","
","
","""event"",""trial"",""time""
""fullscreenenter"",""1"",""5556""
","
","","","","","","null","<div style=""font-size:60px;"">+</div>","null","","fixation","","",""
"memory-trial","292","500655","0.0-18.0-1.123","4468","approach_avoid_sv1","""event"",""trial"",""time""
""fullscreenenter"",""1"",""5556""
","
","
","""event"",""trial"",""time""
""fullscreenenter"",""1"",""5556""
","
","","","","","","866.2000002861023","images/plane5.png","","","memory_trial","3","maybe_new",""
"html-keyboard-response","293","501161","0.0-18.0-0.124","4468","approach_avoid_sv1","""event"",""trial"",""time""
""fullscreenenter"",""1"",""5556""
","
","
","""event"",""trial"",""time""
""fullscreenenter"",""1"",""5556""
","
","","","","","","null","<div style=""font-size:60px;"">+</div>","null","","fixation","","",""
"memory-trial","294","503609","0.0-18.0-1.124","4468","approach_avoid_sv1","""event"",""trial"",""time""
""fullscreenenter"",""1"",""5556""
","
","
","""event"",""trial"",""time""
""fullscreenenter"",""1"",""5556""
","
","","","","","","1433.7999997138977","images/straw7.png","","","memory_trial","2","maybe_old",""
"html-keyboard-response","295","504113","0.0-18.0-0.125","4468","approach_avoid_sv1","""event"",""trial"",""time""
""fullscreenenter"",""1"",""5556""
","
","
","""event"",""trial"",""time""
""fullscreenenter"",""1"",""5556""
","
","","","","","","null","<div style=""font-size:60px;"">+</div>","null","","fixation","","",""
"memory-trial","296","507089","0.0-18.0-1.125","4468","approach_avoid_sv1","""event"",""trial"",""time""
""fullscreenenter"",""1"",""5556""
","
","
","""event"",""trial"",""time""
""fullscreenenter"",""1"",""5556""
","
","","","","","","1960.2000002861023","images/cow3.png","","","memory_trial","4","definitely_new",""
"html-keyboard-response","297","507593","0.0-18.0-0.126","4468","approach_avoid_sv1","""event"",""trial"",""time""
""fullscreenenter"",""1"",""5556""
","
","
","""event"",""trial"",""time""
""fullscreenenter"",""1"",""5556""
","
","","","","","","null","<div style=""font-size:60px;"">+</div>","null","","fixation","","",""
"memory-trial","298","510113","0.0-18.0-1.126","4468","approach_avoid_sv1","""event"",""trial"",""time""
""fullscreenenter"",""1"",""5556""
","
","
