"trial_type","trial_index","time_elapsed","internal_node_id","subject_id","task_version","interactions","blur_events","focus_events","fullscreenenter_events","fullscreenexit_events","success","timeout","failed_images","failed_audio","failed_video","rt","stimulus","response","button_pressed","task_part","key_press","answer","correct"
"pavlovia","0","4","0.0-0.0","4578","approach_avoid_sv1","""event"",""trial"",""time""
""fullscreenenter"",""1"",""1892""
","
","
","""event"",""trial"",""time""
""fullscreenenter"",""1"",""1892""
","
","","","","","","","","","","","","",""
"fullscreen","1","2885","0.0-1.0","4578","approach_avoid_sv1","""event"",""trial"",""time""
""fullscreenenter"",""1"",""1892""
","
","
","""event"",""trial"",""time""
""fullscreenenter"",""1"",""1892""
","
","true","","","","","","","","","","","",""
"preload","2","4807","0.0-2.0","4578","approach_avoid_sv1","""event"",""trial"",""time""
""fullscreenenter"",""1"",""1892""
","
","
","""event"",""trial"",""time""
""fullscreenenter"",""1"",""1892""
","
","true","false","[]","[]","[]","","","","","","","",""
"preload","3","6002","0.0-3.0","4578","approach_avoid_sv1","""event"",""trial"",""time""
""fullscreenenter"",""1"",""1892""
","
","
","""event"",""trial"",""time""
""fullscreenenter"",""1"",""1892""
","
","true","false","[]","[]","[]","","","","","","","",""
"preload","4","6403","0.0-4.0","4578","approach_avoid_sv1","""event"",""trial"",""time""
""fullscreenenter"",""1"",""1892""
","
","
","""event"",""trial"",""time""
""fullscreenenter"",""1"",""1892""
","
","true","false","[]","[]","[]","","","","","","","",""
"audio-keyboard-response","5","8491","0.0-5.0","4578","approach_avoid_sv1","""event"",""trial"",""time""
""fullscreenenter"",""1"",""1892""
","
","
","""event"",""trial"",""time""
""fullscreenenter"",""1"",""1892""
","
","","","","","","2090.6666666666665","audio/beep_loop.wav"," ","","","","",""
"audio-button-response","6","10448","0.0-6.0","4578","approach_avoid_sv1","""event"",""trial"",""time""
""fullscreenenter"",""1"",""1892""
","
","
","""event"",""trial"",""time""
""fullscreenenter"",""1"",""1892""
","
","","","","","","1957","audio/turtle.wav","3","","","","",""
"audio-button-response","7","12597","0.0-7.0","4578","approach_avoid_sv1","""event"",""trial"",""time""
""fullscreenenter"",""1"",""1892""
","
","
","""event"",""trial"",""time""
""fullscreenenter"",""1"",""1892""
","
","","","","","","1141","audio/shark.wav","2","","","","",""
"preload","8","15600","0.0-8.0","4578","approach_avoid_sv1","""event"",""trial"",""time""
""fullscreenenter"",""1"",""1892""
","
","
","""event"",""trial"",""time""
""fullscreenenter"",""1"",""1892""
","
","true","false","[]","[]","[]","","","","","","","",""
"learning-instructions","9","22449","0.0-9.0-0.0","4578","approach_avoid_sv1","""event"",""trial"",""time""
""fullscreenenter"",""1"",""1892""
","
","
","""event"",""trial"",""time""
""fullscreenenter"",""1"",""1892""
","
","","","","","","2368.39999999851","<p> Welcome back! </p><p> Last week, you had to make choices about lots of different items.  </p>","","0","instructions","","",""
"learning-instructions","10","27232","0.0-9.0-0.1","4578","approach_avoid_sv1","""event"",""trial"",""time""
""fullscreenenter"",""1"",""1892""
","
","
","""event"",""trial"",""time""
""fullscreenenter"",""1"",""1892""
","
","","","","","","666.3000000044703","<p> Today, we are going to ask you to try to remember all the items. </p>","","0","instructions","","",""
"learning-instructions","11","38798","0.0-9.0-0.2","4578","approach_avoid_sv1","""event"",""trial"",""time""
""fullscreenenter"",""1"",""1892""
","
","
","""event"",""trial"",""time""
""fullscreenenter"",""1"",""1892""
","
","","","","","","1433.2000000029802","<p> On every trial, you will see an image. </p><p> The image may be an OLD image you saw during the games last week or it may be a NEW image that was not presented. </p>","","0","instructions","","",""
"learning-instructions","12","47815","0.0-9.0-0.3","4578","approach_avoid_sv1","""event"",""trial"",""time""
""fullscreenenter"",""1"",""1892""
","
","
","""event"",""trial"",""time""
""fullscreenenter"",""1"",""1892""
","
","","","","","","518.6000000014901","<p> You need to select whether the image is:  </p><p>  'Definitely old', 'Maybe old', 'Maybe new', or 'Definitely new.'  </p><div class=""mem-choice-instructions-grid""><div class=""choice-option"" id=""choice-option-1"" ><img src=""images/definitely_old_1.png"" id=""choice-option-img-1"" class=""choice-option-img"" stage=""1""></div><div class=""choice-option"" id=""choice-option-2"" ><img src=""images/maybe_old_1.png"" id=""choice-option-img-2"" class=""choice-option-img"" stage=""1""></div><div class=""choice-option"" id=""choice-option-3"" ><img src=""images/maybe_new_1.png"" id=""choice-option-img-3"" class=""choice-option-img"" stage=""1""></div><div class=""choice-option"" id=""choice-option-4"" > <img src=""images/definitely_new_1.png"" id=""choice-option-img-4"" class=""choice-option-img"" stage=""1""></div></div>","","0","instructions","","",""
"learning-instructions","13","54781","0.0-9.0-0.4","4578","approach_avoid_sv1","""event"",""trial"",""time""
""fullscreenenter"",""1"",""1892""
","
","
","""event"",""trial"",""time""
""fullscreenenter"",""1"",""1892""
","
","","","","","","450.19999999552965","<p> You should use the 1, 2, 3, and 4 keys to make your responses.  </p><div class=""mem-choice-instructions-grid""><div class=""choice-option"" id=""choice-option-1"" ><img src=""images/definitely_old.png"" id=""choice-option-img-1"" class=""choice-option-img"" stage=""1""></div><div class=""choice-option"" id=""choice-option-2"" ><img src=""images/maybe_old.png"" id=""choice-option-img-2"" class=""choice-option-img"" stage=""1""></div><div class=""choice-option"" id=""choice-option-3"" ><img src=""images/maybe_new.png"" id=""choice-option-img-3"" class=""choice-option-img"" stage=""1""></div><div class=""choice-option"" id=""choice-option-4"" > <img src=""images/definitely_new.png"" id=""choice-option-img-4"" class=""choice-option-img"" stage=""1""></div></div>","","0","instructions","","",""
"learning-instructions","14","63215","0.0-9.0-0.5","4578","approach_avoid_sv1","""event"",""trial"",""time""
""fullscreenenter"",""1"",""1892""
","
","
","""event"",""trial"",""time""
""fullscreenenter"",""1"",""1892""
","
","","","","","","2105.89999999851","<p> You will have 10 seconds to make each response.  </p><p>  Make sure to respond before time runs out! </p>","","0","instructions","","",""
"learning-instructions","15","71015","0.0-9.0-0.6","4578","approach_avoid_sv1","""event"",""trial"",""time""
""fullscreenenter"",""1"",""1892""
","
","
","""event"",""trial"",""time""
""fullscreenenter"",""1"",""1892""
","
","","","","","","727.1000000014901","<p> Today, you will see each image ONCE only.  </p><p>  That means none of the images will repeat. </p>","","0","instructions","","",""
"learning-instructions","16","84214","0.0-9.0-0.7","4578","approach_avoid_sv1","""event"",""trial"",""time""
""fullscreenenter"",""1"",""1892""
","
","
","""event"",""trial"",""time""
""fullscreenenter"",""1"",""1892""
","
","","","","","","529.6000000014901","<p> Before you play the real game, it is time to practice. </p><p>  Just like in the real game, some of the images in the practice will be ones you have seen before. </p><p>  Others will be entirely new. </p>","","0","instructions","","",""
"html-button-response","17","86716","0.0-10.0","4578","approach_avoid_sv1","""event"",""trial"",""time""
""fullscreenenter"",""1"",""1892""
","
","
","""event"",""trial"",""time""
""fullscreenenter"",""1"",""1892""
","
","","","","","","2397.5999999940395","<p> Ready to practice? </p><p> Remember, use the 1, 2, 3, and 4 keys to make your responses. </p>","0","","instructions","","",""
"html-keyboard-response","18","87326","0.0-11.0-0.0","4578","approach_avoid_sv1","""event"",""trial"",""time""
""fullscreenenter"",""1"",""1892""
","
","
","""event"",""trial"",""time""
""fullscreenenter"",""1"",""1892""
","
","","","","","","null","<div style=""font-size:60px;"">+</div>","null","","fixation","","",""
"memory-trial","19","89735","0.0-11.0-1.0","4578","approach_avoid_sv1","""event"",""trial"",""time""
""fullscreenenter"",""1"",""1892""
","
","
","""event"",""trial"",""time""
""fullscreenenter"",""1"",""1892""
","
","","","","","","1399.5","images/ball5.png","","","practice","1","definitely_old",""
"html-keyboard-response","20","90239","0.0-11.0-0.1","4578","approach_avoid_sv1","""event"",""trial"",""time""
""fullscreenenter"",""1"",""1892""
","
","
","""event"",""trial"",""time""
""fullscreenenter"",""1"",""1892""
","
","","","","","","null","<div style=""font-size:60px;"">+</div>","null","","fixation","","",""
"memory-trial","21","92911","0.0-11.0-1.1","4578","approach_avoid_sv1","""event"",""trial"",""time""
""fullscreenenter"",""1"",""1892""
","
","
","""event"",""trial"",""time""
""fullscreenenter"",""1"",""1892""
","
","","","","","","1669.2999999970198","images/racket2.png","","","practice","4","definitely_new",""
"html-keyboard-response","22","93417","0.0-11.0-0.2","4578","approach_avoid_sv1","""event"",""trial"",""time""
""fullscreenenter"",""1"",""1892""
","
","
","""event"",""trial"",""time""
""fullscreenenter"",""1"",""1892""
","
","","","","","","null","<div style=""font-size:60px;"">+</div>","null","","fixation","","",""
"memory-trial","23","95344","0.0-11.0-1.2","4578","approach_avoid_sv1","""event"",""trial"",""time""
""fullscreenenter"",""1"",""1892""
","
","
","""event"",""trial"",""time""
""fullscreenenter"",""1"",""1892""
","
","","","","","","922.1000000014901","images/racket3.png","","","practice","3","maybe_new",""
"html-keyboard-response","24","95850","0.0-11.0-0.3","4578","approach_avoid_sv1","""event"",""trial"",""time""
""fullscreenenter"",""1"",""1892""
","
","
","""event"",""trial"",""time""
""fullscreenenter"",""1"",""1892""
","
","","","","","","null","<div style=""font-size:60px;"">+</div>","null","","fixation","","",""
"memory-trial","25","97530","0.0-11.0-1.3","4578","approach_avoid_sv1","""event"",""trial"",""time""
""fullscreenenter"",""1"",""1892""
","
","
","""event"",""trial"",""time""
""fullscreenenter"",""1"",""1892""
","
","","","","","","678","images/ball1.png","","","practice","3","maybe_new",""
"html-keyboard-response","26","98037","0.0-11.0-0.4","4578","approach_avoid_sv1","""event"",""trial"",""time""
""fullscreenenter"",""1"",""1892""
","
","
","""event"",""trial"",""time""
""fullscreenenter"",""1"",""1892""
","
","","","","","","null","<div style=""font-size:60px;"">+</div>","null","","fixation","","",""
"memory-trial","27","99493","0.0-11.0-1.4","4578","approach_avoid_sv1","""event"",""trial"",""time""
""fullscreenenter"",""1"",""1892""
","
","
","""event"",""trial"",""time""
""fullscreenenter"",""1"",""1892""
","
","","","","","","449.1000000014901","images/ball3.png","","","practice","2","maybe_old",""
"html-keyboard-response","28","100000","0.0-11.0-0.5","4578","approach_avoid_sv1","""event"",""trial"",""time""
""fullscreenenter"",""1"",""1892""
","
","
","""event"",""trial"",""time""
""fullscreenenter"",""1"",""1892""
","
","","","","","","null","<div style=""font-size:60px;"">+</div>","null","","fixation","","",""
"memory-trial","29","102041","0.0-11.0-1.5","4578","approach_avoid_sv1","""event"",""trial"",""time""
""fullscreenenter"",""1"",""1892""
","
","
","""event"",""trial"",""time""
""fullscreenenter"",""1"",""1892""
","
","","","","","","1038.1000000014901","images/ball2.png","","","practice","2","maybe_old",""
"html-keyboard-response","30","102547","0.0-11.0-0.6","4578","approach_avoid_sv1","""event"",""trial"",""time""
""fullscreenenter"",""1"",""1892""
","
","
","""event"",""trial"",""time""
""fullscreenenter"",""1"",""1892""
","
","","","","","","null","<div style=""font-size:60px;"">+</div>","null","","fixation","","",""
"memory-trial","31","103996","0.0-11.0-1.6","4578","approach_avoid_sv1","""event"",""trial"",""time""
""fullscreenenter"",""1"",""1892""
","
","
","""event"",""trial"",""time""
""fullscreenenter"",""1"",""1892""
","
","","","","","","445.6000000014901","images/racket5.png","","","practice","3","maybe_new",""
"html-keyboard-response","32","104502","0.0-11.0-0.7","4578","approach_avoid_sv1","""event"",""trial"",""time""
""fullscreenenter"",""1"",""1892""
","
","
","""event"",""trial"",""time""
""fullscreenenter"",""1"",""1892""
","
","","","","","","null","<div style=""font-size:60px;"">+</div>","null","","fixation","","",""
"memory-trial","33","106346","0.0-11.0-1.7","4578","approach_avoid_sv1","""event"",""trial"",""time""
""fullscreenenter"",""1"",""1892""
","
","
","""event"",""trial"",""time""
""fullscreenenter"",""1"",""1892""
","
","","","","","","841.4000000059605","images/racket1.png","","","practice","3","maybe_new",""
"learning-instructions","34","115315","0.0-12.0-0.0","4578","approach_avoid_sv1","""event"",""trial"",""time""
""fullscreenenter"",""1"",""1892""
","
","
","""event"",""trial"",""time""
""fullscreenenter"",""1"",""1892""
","
","","","","","","1661.7999999970198","<p> Great! You have completed the practice. </p><p> Before you start, we're going to ask you a few questions about how the game works.  </p>","","0","instructions","","",""
"preload","35","117057","0.0-13.0","4578","approach_avoid_sv1","""event"",""trial"",""time""
""fullscreenenter"",""1"",""1892""
","
","
","""event"",""trial"",""time""
""fullscreenenter"",""1"",""1892""
","
","true","false","[]","[]","[]","","","","","","","",""
"comp-q","36","123982","0.0-14.0-0.0","4578","approach_avoid_sv1","""event"",""trial"",""time""
""fullscreenenter"",""1"",""1892""
","
","
","""event"",""trial"",""time""
""fullscreenenter"",""1"",""1892""
","
","","","","","","1096.8999999985099","<p> <b> True or False? </b> </p><p> In this game, you will only see each image once. </p>","","0","comp_question","","","true"
"comp-q","37","131782","0.0-14.0-1.0","4578","approach_avoid_sv1","""event"",""trial"",""time""
""fullscreenenter"",""1"",""1892""
","
","
","""event"",""trial"",""time""
""fullscreenenter"",""1"",""1892""
","
","","","","","","1462.3000000044703","<p> <b> That's right! </b> You will see many different images <i> one time each </i> in this game. </p>","","0","comp_answer","","",""
"comp-q","38","137331","0.0-15.0-0.0","4578","approach_avoid_sv1","""event"",""trial"",""time""
""fullscreenenter"",""1"",""1892""
","
","
","""event"",""trial"",""time""
""fullscreenenter"",""1"",""1892""
","
","","","","","","547.8999999985099","<p> <b> True or False? </b> </p><p> You should use the mouse and click to make your response. </p>","","1","comp_question","","","true"
"comp-q","39","144865","0.0-15.0-1.0","4578","approach_avoid_sv1","""event"",""trial"",""time""
""fullscreenenter"",""1"",""1892""
","
","
","""event"",""trial"",""time""
""fullscreenenter"",""1"",""1892""
","
","","","","","","1030.5","<p><b> That's right! </b> You should use the '1', '2', '3', and '4' keys to make your response. </p>","","0","comp_answer","","",""
"comp-q","40","151131","0.0-16.0-0.0","4578","approach_avoid_sv1","""event"",""trial"",""time""
""fullscreenenter"",""1"",""1892""
","
","
","""event"",""trial"",""time""
""fullscreenenter"",""1"",""1892""
","
","","","","","","593.3999999985099","<p> <b> True or False? </b> </p><p> You will have as much time as you want to make each choice. </p>","","1","comp_question","","","true"
"comp-q","41","157097","0.0-16.0-1.0","4578","approach_avoid_sv1","""event"",""trial"",""time""
""fullscreenenter"",""1"",""1892""
","
","
","""event"",""trial"",""time""
""fullscreenenter"",""1"",""1892""
","
","","","","","","1274.1000000014901","<p> <b> That's right! </b> You will only have 10 seconds to make each choice. </p>","","0","comp_answer","","",""
"learning-instructions","42","167331","0.0-17.0","4578","approach_avoid_sv1","""event"",""trial"",""time""
""fullscreenenter"",""1"",""1892""
","
","
","""event"",""trial"",""time""
""fullscreenenter"",""1"",""1892""
","
","","","","","","1561.5","<p> Great! You are now ready to begin the game. </p><p> Remember, use the 1, 2, 3, and 4 keys to make your responses. </p>","","0","instructions","","",""
"html-keyboard-response","43","167938","0.0-18.0-0.0","4578","approach_avoid_sv1","""event"",""trial"",""time""
""fullscreenenter"",""1"",""1892""
","
","
","""event"",""trial"",""time""
""fullscreenenter"",""1"",""1892""
","
","","","","","","null","<div style=""font-size:60px;"">+</div>","null","","fixation","","",""
"memory-trial","44","170513","0.0-18.0-1.0","4578","approach_avoid_sv1","""event"",""trial"",""time""
""fullscreenenter"",""1"",""1892""
","
","
","""event"",""trial"",""time""
""fullscreenenter"",""1"",""1892""
","
","","","","","","1569.7999999970198","images/flower1.png","","","memory_trial","3","maybe_new",""
"html-keyboard-response","45","171020","0.0-18.0-0.1","4578","approach_avoid_sv1","""event"",""trial"",""time""
""fullscreenenter"",""1"",""1892""
","
","
","""event"",""trial"",""time""
""fullscreenenter"",""1"",""1892""
","
","","","","","","null","<div style=""font-size:60px;"">+</div>","null","","fixation","","",""
"memory-trial","46","173979","0.0-18.0-1.1","4578","approach_avoid_sv1","""event"",""trial"",""time""
""fullscreenenter"",""1"",""1892""
","
","
","""event"",""trial"",""time""
""fullscreenenter"",""1"",""1892""
","
","","","","","","1956.5","images/rodent3.png","","","memory_trial","2","maybe_old",""
"html-keyboard-response","47","174486","0.0-18.0-0.2","4578","approach_avoid_sv1","""event"",""trial"",""time""
""fullscreenenter"",""1"",""1892""
","
","
","""event"",""trial"",""time""
""fullscreenenter"",""1"",""1892""
","
","","","","","","null","<div style=""font-size:60px;"">+</div>","null","","fixation","","",""
"memory-trial","48","176340","0.0-18.0-1.2","4578","approach_avoid_sv1","""event"",""trial"",""time""
""fullscreenenter"",""1"",""1892""
","
","
","""event"",""trial"",""time""
""fullscreenenter"",""1"",""1892""
","
","","","","","","846","images/cow1.png","","","memory_trial","4","definitely_new",""
"html-keyboard-response","49","176841","0.0-18.0-0.3","4578","approach_avoid_sv1","""event"",""trial"",""time""
""fullscreenenter"",""1"",""1892""
","
","
","""event"",""trial"",""time""
""fullscreenenter"",""1"",""1892""
","
","","","","","","null","<div style=""font-size:60px;"">+</div>","null","","fixation","","",""
"memory-trial","50","178415","0.0-18.0-1.3","4578","approach_avoid_sv1","""event"",""trial"",""time""
""fullscreenenter"",""1"",""1892""
","
","
","""event"",""trial"",""time""
""fullscreenenter"",""1"",""1892""
","
","","","","","","566.8999999985099","images/tree7.png","","","memory_trial","4","definitely_new",""
"html-keyboard-response","51","178921","0.0-18.0-0.4","4578","approach_avoid_sv1","""event"",""trial"",""time""
""fullscreenenter"",""1"",""1892""
","
","
","""event"",""trial"",""time""
""fullscreenenter"",""1"",""1892""
","
","","","","","","null","<div style=""font-size:60px;"">+</div>","null","","fixation","","",""
"memory-trial","52","180268","0.0-18.0-1.4","4578","approach_avoid_sv1","""event"",""trial"",""time""
""fullscreenenter"",""1"",""1892""
","
","
","""event"",""trial"",""time""
""fullscreenenter"",""1"",""1892""
","
","","","","","","339.6000000014901","images/boat8.png","","","memory_trial","2","maybe_old",""
"html-keyboard-response","53","180774","0.0-18.0-0.5","4578","approach_avoid_sv1","""event"",""trial"",""time""
""fullscreenenter"",""1"",""1892""
","
","
","""event"",""trial"",""time""
""fullscreenenter"",""1"",""1892""
","
","","","","","","null","<div style=""font-size:60px;"">+</div>","null","","fixation","","",""
"memory-trial","54","182133","0.0-18.0-1.5","4578","approach_avoid_sv1","""event"",""trial"",""time""
""fullscreenenter"",""1"",""1892""
","
","
","""event"",""trial"",""time""
""fullscreenenter"",""1"",""1892""
","
","","","","","","356.8999999985099","images/bed1.png","","","memory_trial","3","maybe_new",""
"html-keyboard-response","55","182640","0.0-18.0-0.6","4578","approach_avoid_sv1","""event"",""trial"",""time""
""fullscreenenter"",""1"",""1892""
","
","
","""event"",""trial"",""time""
""fullscreenenter"",""1"",""1892""
","
","","","","","","null","<div style=""font-size:60px;"">+</div>","null","","fixation","","",""
"memory-trial","56","183933","0.0-18.0-1.6","4578","approach_avoid_sv1","""event"",""trial"",""time""
""fullscreenenter"",""1"",""1892""
","
","
","""event"",""trial"",""time""
""fullscreenenter"",""1"",""1892""
","
","","","","","","290.1000000014901","images/rodent1.png","","","memory_trial","3","maybe_new",""
"html-keyboard-response","57","184437","0.0-18.0-0.7","4578","approach_avoid_sv1","""event"",""trial"",""time""
""fullscreenenter"",""1"",""1892""
","
","
","""event"",""trial"",""time""
""fullscreenenter"",""1"",""1892""
","
","","","","","","null","<div style=""font-size:60px;"">+</div>","null","","fixation","","",""
"memory-trial","58","185922","0.0-18.0-1.7","4578","approach_avoid_sv1","""event"",""trial"",""time""
""fullscreenenter"",""1"",""1892""
","
","
","""event"",""trial"",""time""
""fullscreenenter"",""1"",""1892""
","
","","","","","","477.5","images/apple1.png","","","memory_trial","2","maybe_old",""
"html-keyboard-response","59","186428","0.0-18.0-0.8","4578","approach_avoid_sv1","""event"",""trial"",""time""
""fullscreenenter"",""1"",""1892""
","
","
","""event"",""trial"",""time""
""fullscreenenter"",""1"",""1892""
","
","","","","","","null","<div style=""font-size:60px;"">+</div>","null","","fixation","","",""
"memory-trial","60","187937","0.0-18.0-1.8","4578","approach_avoid_sv1","""event"",""trial"",""time""
""fullscreenenter"",""1"",""1892""
","
","
","""event"",""trial"",""time""
""fullscreenenter"",""1"",""1892""
","
","","","","","","501.19999999552965","images/apple2.png","","","memory_trial","2","maybe_old",""
"html-keyboard-response","61","188439","0.0-18.0-0.9","4578","approach_avoid_sv1","""event"",""trial"",""time""
""fullscreenenter"",""1"",""1892""
","
","
","""event"",""trial"",""time""
""fullscreenenter"",""1"",""1892""
","
","","","","","","null","<div style=""font-size:60px;"">+</div>","null","","fixation","","",""
"memory-trial","62","190273","0.0-18.0-1.9","4578","approach_avoid_sv1","""event"",""trial"",""time""
""fullscreenenter"",""1"",""1892""
","
","
","""event"",""trial"",""time""
""fullscreenenter"",""1"",""1892""
","
","","","","","","828.3999999985099","images/truck3.png","","","memory_trial","2","maybe_old",""
"html-keyboard-response","63","190780","0.0-18.0-0.10","4578","approach_avoid_sv1","""event"",""trial"",""time""
""fullscreenenter"",""1"",""1892""
","
","
","""event"",""trial"",""time""
""fullscreenenter"",""1"",""1892""
","
","","","","","","null","<div style=""font-size:60px;"">+</div>","null","","fixation","","",""
"memory-trial","64","193664","0.0-18.0-1.10","4578","approach_avoid_sv1","""event"",""trial"",""time""
""fullscreenenter"",""1"",""1892""
","
","
","""event"",""trial"",""time""
""fullscreenenter"",""1"",""1892""
","
","","","","","","1878.1000000014901","images/cow7.png","","","memory_trial","1","definitely_old",""
"html-keyboard-response","65","194169","0.0-18.0-0.11","4578","approach_avoid_sv1","""event"",""trial"",""time""
""fullscreenenter"",""1"",""1892""
","
","
","""event"",""trial"",""time""
""fullscreenenter"",""1"",""1892""
","
","","","","","","null","<div style=""font-size:60px;"">+</div>","null","","fixation","","",""
"memory-trial","66","196863","0.0-18.0-1.11","4578","approach_avoid_sv1","""event"",""trial"",""time""
""fullscreenenter"",""1"",""1892""
","
","
","""event"",""trial"",""time""
""fullscreenenter"",""1"",""1892""
","
","","","","","","1688","images/dog7.png","","","memory_trial","1","definitely_old",""
"html-keyboard-response","67","197364","0.0-18.0-0.12","4578","approach_avoid_sv1","""event"",""trial"",""time""
""fullscreenenter"",""1"",""1892""
","
","
","""event"",""trial"",""time""
""fullscreenenter"",""1"",""1892""
","
","","","","","","null","<div style=""font-size:60px;"">+</div>","null","","fixation","","",""
"memory-trial","68","200356","0.0-18.0-1.12","4578","approach_avoid_sv1","""event"",""trial"",""time""
""fullscreenenter"",""1"",""1892""
","
","
","""event"",""trial"",""time""
""fullscreenenter"",""1"",""1892""
","
","","","","","","1986.8000000044703","images/chair5.png","","","memory_trial","4","definitely_new",""
"html-keyboard-response","69","200857","0.0-18.0-0.13","4578","approach_avoid_sv1","""event"",""trial"",""time""
""fullscreenenter"",""1"",""1892""
","
","
","""event"",""trial"",""time""
""fullscreenenter"",""1"",""1892""
","
","","","","","","null","<div style=""font-size:60px;"">+</div>","null","","fixation","","",""
"memory-trial","70","202622","0.0-18.0-1.13","4578","approach_avoid_sv1","""event"",""trial"",""time""
""fullscreenenter"",""1"",""1892""
","
","
","""event"",""trial"",""time""
""fullscreenenter"",""1"",""1892""
","
","","","","","","762.1000000014901","images/flower7.png","","","memory_trial","4","definitely_new",""
"html-keyboard-response","71","203124","0.0-18.0-0.14","4578","approach_avoid_sv1","""event"",""trial"",""time""
""fullscreenenter"",""1"",""1892""
","
","
","""event"",""trial"",""time""
""fullscreenenter"",""1"",""1892""
","
","","","","","","null","<div style=""font-size:60px;"">+</div>","null","","fixation","","",""
"memory-trial","72","204526","0.0-18.0-1.14","4578","approach_avoid_sv1","""event"",""trial"",""time""
""fullscreenenter"",""1"",""1892""
","
","
","""event"",""trial"",""time""
""fullscreenenter"",""1"",""1892""
","
","","","","","","396","images/chair3.png","","","memory_trial","2","maybe_old",""
"html-keyboard-response","73","205027","0.0-18.0-0.15","4578","approach_avoid_sv1","""event"",""trial"",""time""
""fullscreenenter"",""1"",""1892""
","
","
","""event"",""trial"",""time""
""fullscreenenter"",""1"",""1892""
","
","","","","","","null","<div style=""font-size:60px;"">+</div>","null","","fixation","","",""
"memory-trial","74","206384","0.0-18.0-1.15","4578","approach_avoid_sv1","""event"",""trial"",""time""
""fullscreenenter"",""1"",""1892""
","
","
","""event"",""trial"",""time""
""fullscreenenter"",""1"",""1892""
","
","","","","","","352.69999999552965","images/bed5.png","","","memory_trial","3","maybe_new",""
"html-keyboard-response","75","206888","0.0-18.0-0.16","4578","approach_avoid_sv1","""event"",""trial"",""time""
""fullscreenenter"",""1"",""1892""
","
","
","""event"",""trial"",""time""
""fullscreenenter"",""1"",""1892""
","
","","","","","","null","<div style=""font-size:60px;"">+</div>","null","","fixation","","",""
"memory-trial","76","208254","0.0-18.0-1.16","4578","approach_avoid_sv1","""event"",""trial"",""time""
""fullscreenenter"",""1"",""1892""
","
","
","""event"",""trial"",""time""
""fullscreenenter"",""1"",""1892""
","
","","","","","","358.8999999985099","images/cow2.png","","","memory_trial","3","maybe_new",""
"html-keyboard-response","77","208755","0.0-18.0-0.17","4578","approach_avoid_sv1","""event"",""trial"",""time""
""fullscreenenter"",""1"",""1892""
","
","
","""event"",""trial"",""time""
""fullscreenenter"",""1"",""1892""
","
","","","","","","null","<div style=""font-size:60px;"">+</div>","null","","fixation","","",""
"memory-trial","78","211166","0.0-18.0-1.17","4578","approach_avoid_sv1","""event"",""trial"",""time""
""fullscreenenter"",""1"",""1892""
","
","
","""event"",""trial"",""time""
""fullscreenenter"",""1"",""1892""
","
","","","","","","1406.4000000059605","images/dog2.png","","","memory_trial","2","maybe_old",""
"html-keyboard-response","79","211667","0.0-18.0-0.18","4578","approach_avoid_sv1","""event"",""trial"",""time""
""fullscreenenter"",""1"",""1892""
","
","
","""event"",""trial"",""time""
""fullscreenenter"",""1"",""1892""
","
","","","","","","null","<div style=""font-size:60px;"">+</div>","null","","fixation","","",""
"memory-trial","80","213066","0.0-18.0-1.18","4578","approach_avoid_sv1","""event"",""trial"",""time""
""fullscreenenter"",""1"",""1892""
","
","
","""event"",""trial"",""time""
""fullscreenenter"",""1"",""1892""
","
","","","","","","395.29999999701977","images/bush2.png","","","memory_trial","4","definitely_new",""
"html-keyboard-response","81","213571","0.0-18.0-0.19","4578","approach_avoid_sv1","""event"",""trial"",""time""
""fullscreenenter"",""1"",""1892""
","
","
","""event"",""trial"",""time""
""fullscreenenter"",""1"",""1892""
","
","","","","","","null","<div style=""font-size:60px;"">+</div>","null","","fixation","","",""
"memory-trial","82","215370","0.0-18.0-1.19","4578","approach_avoid_sv1","""event"",""trial"",""time""
""fullscreenenter"",""1"",""1892""
","
","
","""event"",""trial"",""time""
""fullscreenenter"",""1"",""1892""
","
","","","","","","794.0999999940395","images/apple6.png","","","memory_trial","4","definitely_new",""
"html-keyboard-response","83","215875","0.0-18.0-0.20","4578","approach_avoid_sv1","""event"",""trial"",""time""
""fullscreenenter"",""1"",""1892""
","
","
","""event"",""trial"",""time""
""fullscreenenter"",""1"",""1892""
","
","","","","","","null","<div style=""font-size:60px;"">+</div>","null","","fixation","","",""
"memory-trial","84","217352","0.0-18.0-1.20","4578","approach_avoid_sv1","""event"",""trial"",""time""
""fullscreenenter"",""1"",""1892""
","
","
","""event"",""trial"",""time""
""fullscreenenter"",""1"",""1892""
","
","","","","","","474.5","images/cat1.png","","","memory_trial","1","definitely_old",""
"html-keyboard-response","85","217854","0.0-18.0-0.21","4578","approach_avoid_sv1","""event"",""trial"",""time""
""fullscreenenter"",""1"",""1892""
","
","
","""event"",""trial"",""time""
""fullscreenenter"",""1"",""1892""
","
","","","","","","null","<div style=""font-size:60px;"">+</div>","null","","fixation","","",""
"memory-trial","86","219454","0.0-18.0-1.21","4578","approach_avoid_sv1","""event"",""trial"",""time""
""fullscreenenter"",""1"",""1892""
","
","
","""event"",""trial"",""time""
""fullscreenenter"",""1"",""1892""
","
","","","","","","593.3000000044703","images/orange6.png","","","memory_trial","1","definitely_old",""
"html-keyboard-response","87","219955","0.0-18.0-0.22","4578","approach_avoid_sv1","""event"",""trial"",""time""
""fullscreenenter"",""1"",""1892""
","
","
","""event"",""trial"",""time""
""fullscreenenter"",""1"",""1892""
","
","","","","","","null","<div style=""font-size:60px;"">+</div>","null","","fixation","","",""
"memory-trial","88","221048","0.0-18.0-1.22","4578","approach_avoid_sv1","""event"",""trial"",""time""
""fullscreenenter"",""1"",""1892""
","
","
","""event"",""trial"",""time""
""fullscreenenter"",""1"",""1892""
","
","","","","","","86.90000000596046","images/horse7.png","","","memory_trial","2","maybe_old",""
"html-keyboard-response","89","221554","0.0-18.0-0.23","4578","approach_avoid_sv1","""event"",""trial"",""time""
""fullscreenenter"",""1"",""1892""
","
","
","""event"",""trial"",""time""
""fullscreenenter"",""1"",""1892""
","
","","","","","","null","<div style=""font-size:60px;"">+</div>","null","","fixation","","",""
"memory-trial","90","223320","0.0-18.0-1.23","4578","approach_avoid_sv1","""event"",""trial"",""time""
""fullscreenenter"",""1"",""1892""
","
","
","""event"",""trial"",""time""
""fullscreenenter"",""1"",""1892""
","
","","","","","","760.1000000014901","images/table3.png","","","memory_trial","3","maybe_new",""
"html-keyboard-response","91","223821","0.0-18.0-0.24","4578","approach_avoid_sv1","""event"",""trial"",""time""
""fullscreenenter"",""1"",""1892""
","
","
","""event"",""trial"",""time""
""fullscreenenter"",""1"",""1892""
","
","","","","","","null","<div style=""font-size:60px;"">+</div>","null","","fixation","","",""
"memory-trial","92","225139","0.0-18.0-1.24","4578","approach_avoid_sv1","""event"",""trial"",""time""
""fullscreenenter"",""1"",""1892""
","
","
","""event"",""trial"",""time""
""fullscreenenter"",""1"",""1892""
","
","","","","","","314.70000000298023","images/rodent4.png","","","memory_trial","2","maybe_old",""
"html-keyboard-response","93","225640","0.0-18.0-0.25","4578","approach_avoid_sv1","""event"",""trial"",""time""
""fullscreenenter"",""1"",""1892""
","
","
","""event"",""trial"",""time""
""fullscreenenter"",""1"",""1892""
","
","","","","","","null","<div style=""font-size:60px;"">+</div>","null","","fixation","","",""
"memory-trial","94","227021","0.0-18.0-1.25","4578","approach_avoid_sv1","""event"",""trial"",""time""
""fullscreenenter"",""1"",""1892""
","
","
","""event"",""trial"",""time""
""fullscreenenter"",""1"",""1892""
","
","","","","","","377.69999999552965","images/apple5.png","","","memory_trial","2","maybe_old",""
"html-keyboard-response","95","227528","0.0-18.0-0.26","4578","approach_avoid_sv1","""event"",""trial"",""time""
""fullscreenenter"",""1"",""1892""
","
","
","""event"",""trial"",""time""
""fullscreenenter"",""1"",""1892""
","
","","","","","","null","<div style=""font-size:60px;"">+</div>","null","","fixation","","",""
"memory-trial","96","229702","0.0-18.0-1.26","4578","approach_avoid_sv1","""event"",""trial"",""time""
""fullscreenenter"",""1"",""1892""
","
","
","""event"",""trial"",""time""
""fullscreenenter"",""1"",""1892""
","
","","","","","","1168.1000000014901","images/table4.png","","","memory_trial","1","definitely_old",""
"html-keyboard-response","97","230207","0.0-18.0-0.27","4578","approach_avoid_sv1","""event"",""trial"",""time""
""fullscreenenter"",""1"",""1892""
","
","
","""event"",""trial"",""time""
""fullscreenenter"",""1"",""1892""
","
","","","","","","null","<div style=""font-size:60px;"">+</div>","null","","fixation","","",""
"memory-trial","98","232088","0.0-18.0-1.27","4578","approach_avoid_sv1","""event"",""trial"",""time""
""fullscreenenter"",""1"",""1892""
","
","
","""event"",""trial"",""time""
""fullscreenenter"",""1"",""1892""
","
","","","","","","875.5","images/rabbit8.png","","","memory_trial","4","definitely_new",""
"html-keyboard-response","99","232589","0.0-18.0-0.28","4578","approach_avoid_sv1","""event"",""trial"",""time""
""fullscreenenter"",""1"",""1892""
","
","
","""event"",""trial"",""time""
""fullscreenenter"",""1"",""1892""
","
","","","","","","null","<div style=""font-size:60px;"">+</div>","null","","fixation","","",""
"memory-trial","100","234754","0.0-18.0-1.28","4578","approach_avoid_sv1","""event"",""trial"",""time""
""fullscreenenter"",""1"",""1892""
","
","
","""event"",""trial"",""time""
""fullscreenenter"",""1"",""1892""
","
","","","","","","1158.3000000044703","images/banana1.png","","","memory_trial","4","definitely_new",""
"html-keyboard-response","101","235256","0.0-18.0-0.29","4578","approach_avoid_sv1","""event"",""trial"",""time""
""fullscreenenter"",""1"",""1892""
","
","
","""event"",""trial"",""time""
""fullscreenenter"",""1"",""1892""
","
","","","","","","null","<div style=""font-size:60px;"">+</div>","null","","fixation","","",""
"memory-trial","102","236664","0.0-18.0-1.29","4578","approach_avoid_sv1","""event"",""trial"",""time""
""fullscreenenter"",""1"",""1892""
","
","
","""event"",""trial"",""time""
""fullscreenenter"",""1"",""1892""
","
","","","","","","404.30000000447035","images/bush1.png","","","memory_trial","4","definitely_new",""
"html-keyboard-response","103","237170","0.0-18.0-0.30","4578","approach_avoid_sv1","""event"",""trial"",""time""
""fullscreenenter"",""1"",""1892""
","
","
","""event"",""trial"",""time""
""fullscreenenter"",""1"",""1892""
","
","","","","","","null","<div style=""font-size:60px;"">+</div>","null","","fixation","","",""
"memory-trial","104","238605","0.0-18.0-1.30","4578","approach_avoid_sv1","""event"",""trial"",""time""
""fullscreenenter"",""1"",""1892""
","
","
","""event"",""trial"",""time""
""fullscreenenter"",""1"",""1892""
","
","","","","","","427.69999999552965","images/train7.png","","","memory_trial","3","maybe_new",""
"html-keyboard-response","105","239106","0.0-18.0-0.31","4578","approach_avoid_sv1","""event"",""trial"",""time""
""fullscreenenter"",""1"",""1892""
","
","
","""event"",""trial"",""time""
""fullscreenenter"",""1"",""1892""
","
","","","","","","null","<div style=""font-size:60px;"">+</div>","null","","fixation","","",""
"memory-trial","106","241271","0.0-18.0-1.31","4578","approach_avoid_sv1","""event"",""trial"",""time""
""fullscreenenter"",""1"",""1892""
","
","
","""event"",""trial"",""time""
""fullscreenenter"",""1"",""1892""
","
","","","","","","1158","images/cow6.png","","","memory_trial","1","definitely_old",""
"html-keyboard-response","107","241777","0.0-18.0-0.32","4578","approach_avoid_sv1","""event"",""trial"",""time""
""fullscreenenter"",""1"",""1892""
","
","
","""event"",""trial"",""time""
""fullscreenenter"",""1"",""1892""
","
","","","","","","null","<div style=""font-size:60px;"">+</div>","null","","fixation","","",""
"memory-trial","108","243127","0.0-18.0-1.32","4578","approach_avoid_sv1","""event"",""trial"",""time""
""fullscreenenter"",""1"",""1892""
","
","
","""event"",""trial"",""time""
""fullscreenenter"",""1"",""1892""
","
","","","","","","344.3999999985099","images/sofa4.png","","","memory_trial","3","maybe_new",""
"html-keyboard-response","109","243629","0.0-18.0-0.33","4578","approach_avoid_sv1","""event"",""trial"",""time""
""fullscreenenter"",""1"",""1892""
","
","
","""event"",""trial"",""time""
""fullscreenenter"",""1"",""1892""
","
","","","","","","null","<div style=""font-size:60px;"">+</div>","null","","fixation","","",""
"memory-trial","110","245021","0.0-18.0-1.33","4578","approach_avoid_sv1","""event"",""trial"",""time""
""fullscreenenter"",""1"",""1892""
","
","
","""event"",""trial"",""time""
""fullscreenenter"",""1"",""1892""
","
","","","","","","389.3999999985099","images/plane7.png","","","memory_trial","3","maybe_new",""
"html-keyboard-response","111","245522","0.0-18.0-0.34","4578","approach_avoid_sv1","""event"",""trial"",""time""
""fullscreenenter"",""1"",""1892""
","
","
","""event"",""trial"",""time""
""fullscreenenter"",""1"",""1892""
","
","","","","","","null","<div style=""font-size:60px;"">+</div>","null","","fixation","","",""
"memory-trial","112","247287","0.0-18.0-1.34","4578","approach_avoid_sv1","""event"",""trial"",""time""
""fullscreenenter"",""1"",""1892""
","
","
","""event"",""trial"",""time""
""fullscreenenter"",""1"",""1892""
","
","","","","","","759.7999999970198","images/cow3.png","","","memory_trial","2","maybe_old",""
"html-keyboard-response","113","247788","0.0-18.0-0.35","4578","approach_avoid_sv1","""event"",""trial"",""time""
""fullscreenenter"",""1"",""1892""
","
","
","""event"",""trial"",""time""
""fullscreenenter"",""1"",""1892""
","
","","","","","","null","<div style=""font-size:60px;"">+</div>","null","","fixation","","",""
"memory-trial","114","249362","0.0-18.0-1.35","4578","approach_avoid_sv1","""event"",""trial"",""time""
""fullscreenenter"",""1"",""1892""
","
","
","""event"",""trial"",""time""
""fullscreenenter"",""1"",""1892""
","
","","","","","","566.8000000044703","images/plane3.png","","","memory_trial","2","maybe_old",""
"html-keyboard-response","115","249868","0.0-18.0-0.36","4578","approach_avoid_sv1","""event"",""trial"",""time""
""fullscreenenter"",""1"",""1892""
","
","
","""event"",""trial"",""time""
""fullscreenenter"",""1"",""1892""
","
","","","","","","null","<div style=""font-size:60px;"">+</div>","null","","fixation","","",""
"memory-trial","116","252140","0.0-18.0-1.36","4578","approach_avoid_sv1","""event"",""trial"",""time""
""fullscreenenter"",""1"",""1892""
","
","
","""event"",""trial"",""time""
""fullscreenenter"",""1"",""1892""
","
","","","","","","1269","images/plane5.png","","","memory_trial","2","maybe_old",""
"html-keyboard-response","117","252641","0.0-18.0-0.37","4578","approach_avoid_sv1","""event"",""trial"",""time""
""fullscreenenter"",""1"",""1892""
","
","
","""event"",""trial"",""time""
""fullscreenenter"",""1"",""1892""
","
","","","","","","null","<div style=""font-size:60px;"">+</div>","null","","fixation","","",""
"memory-trial","118","253959","0.0-18.0-1.37","4578","approach_avoid_sv1","""event"",""trial"",""time""
""fullscreenenter"",""1"",""1892""
","
","
","""event"",""trial"",""time""
""fullscreenenter"",""1"",""1892""
","
","","","","","","313.79999999701977","images/boat1.png","","","memory_trial","3","maybe_new",""
"html-keyboard-response","119","254465","0.0-18.0-0.38","4578","approach_avoid_sv1","""event"",""trial"",""time""
""fullscreenenter"",""1"",""1892""
","
","
","""event"",""trial"",""time""
""fullscreenenter"",""1"",""1892""
","
","","","","","","null","<div style=""font-size:60px;"">+</div>","null","","fixation","","",""
"memory-trial","120","256711","0.0-18.0-1.38","4578","approach_avoid_sv1","""event"",""trial"",""time""
""fullscreenenter"",""1"",""1892""
","
","
","""event"",""trial"",""time""
""fullscreenenter"",""1"",""1892""
","
","","","","","","1242","images/chair6.png","","","memory_trial","2","maybe_old",""
"html-keyboard-response","121","257217","0.0-18.0-0.39","4578","approach_avoid_sv1","""event"",""trial"",""time""
""fullscreenenter"",""1"",""1892""
","
","
","""event"",""trial"",""time""
""fullscreenenter"",""1"",""1892""
","
","","","","","","null","<div style=""font-size:60px;"">+</div>","null","","fixation","","",""
"memory-trial","122","261356","0.0-18.0-1.39","4578","approach_avoid_sv1","""event"",""trial"",""time""
""fullscreenenter"",""1"",""1892""
","
","
","""event"",""trial"",""time""
""fullscreenenter"",""1"",""1892""
","
","","","","","","3134.2000000029802","images/horse8.png","","","memory_trial","1","definitely_old",""
"html-keyboard-response","123","261862","0.0-18.0-0.40","4578","approach_avoid_sv1","""event"",""trial"",""time""
""fullscreenenter"",""1"",""1892""
","
","
","""event"",""trial"",""time""
""fullscreenenter"",""1"",""1892""
","
","","","","","","null","<div style=""font-size:60px;"">+</div>","null","","fixation","","",""
"memory-trial","124","263265","0.0-18.0-1.40","4578","approach_avoid_sv1","""event"",""trial"",""time""
""fullscreenenter"",""1"",""1892""
","
","
","""event"",""trial"",""time""
""fullscreenenter"",""1"",""1892""
","
","","","","","","397.29999999701977","images/orange8.png","","","memory_trial","4","definitely_new",""
"html-keyboard-response","125","263771","0.0-18.0-0.41","4578","approach_avoid_sv1","""event"",""trial"",""time""
""fullscreenenter"",""1"",""1892""
","
","
","""event"",""trial"",""time""
""fullscreenenter"",""1"",""1892""
","
","","","","","","null","<div style=""font-size:60px;"">+</div>","null","","fixation","","",""
"memory-trial","126","266172","0.0-18.0-1.41","4578","approach_avoid_sv1","""event"",""trial"",""time""
""fullscreenenter"",""1"",""1892""
","
","
","""event"",""trial"",""time""
""fullscreenenter"",""1"",""1892""
","
","","","","","","1395.1999999955297","images/plane2.png","","","memory_trial","2","maybe_old",""
"html-button-response","127","269881","0.0-18.0-2.41-0.41","4578","approach_avoid_sv1","""event"",""trial"",""time""
""fullscreenenter"",""1"",""1892""
","
","
","""event"",""trial"",""time""
""fullscreenenter"",""1"",""1892""
","
","","","","","","3707.10000000149","<p> Take a break! </p><p> Click the button to continue. </p>","0","","break","","",""
"html-keyboard-response","128","270385","0.0-18.0-0.42","4578","approach_avoid_sv1","""event"",""trial"",""time""
""fullscreenenter"",""1"",""1892""
","
","
","""event"",""trial"",""time""
""fullscreenenter"",""1"",""1892""
","
","","","","","","null","<div style=""font-size:60px;"">+</div>","null","","fixation","","",""
"memory-trial","129","272550","0.0-18.0-1.42","4578","approach_avoid_sv1","""event"",""trial"",""time""
""fullscreenenter"",""1"",""1892""
","
","
","""event"",""trial"",""time""
""fullscreenenter"",""1"",""1892""
","
","","","","","","1161.9000000059605","images/sofa2.png","","","memory_trial","3","maybe_new",""
"html-keyboard-response","130","273051","0.0-18.0-0.43","4578","approach_avoid_sv1","""event"",""trial"",""time""
""fullscreenenter"",""1"",""1892""
","
","
","""event"",""trial"",""time""
""fullscreenenter"",""1"",""1892""
","
","","","","","","null","<div style=""font-size:60px;"">+</div>","null","","fixation","","",""
"memory-trial","131","274987","0.0-18.0-1.43","4578","approach_avoid_sv1","""event"",""trial"",""time""
""fullscreenenter"",""1"",""1892""
","
","
","""event"",""trial"",""time""
""fullscreenenter"",""1"",""1892""
","
","","","","","","932.2000000029802","images/sofa8.png","","","memory_trial","2","maybe_old",""
"html-keyboard-response","132","275494","0.0-18.0-0.44","4578","approach_avoid_sv1","""event"",""trial"",""time""
""fullscreenenter"",""1"",""1892""
","
","
","""event"",""trial"",""time""
""fullscreenenter"",""1"",""1892""
","
","","","","","","null","<div style=""font-size:60px;"">+</div>","null","","fixation","","",""
"memory-trial","133","277697","0.0-18.0-1.44","4578","approach_avoid_sv1","""event"",""trial"",""time""
""fullscreenenter"",""1"",""1892""
","
","
","""event"",""trial"",""time""
""fullscreenenter"",""1"",""1892""
","
","","","","","","1196.7000000029802","images/cow4.png","","","memory_trial","1","definitely_old",""
"html-keyboard-response","134","278203","0.0-18.0-0.45","4578","approach_avoid_sv1","""event"",""trial"",""time""
""fullscreenenter"",""1"",""1892""
","
","
","""event"",""trial"",""time""
""fullscreenenter"",""1"",""1892""
","
","","","","","","null","<div style=""font-size:60px;"">+</div>","null","","fixation","","",""
"memory-trial","135","280285","0.0-18.0-1.45","4578","approach_avoid_sv1","""event"",""trial"",""time""
""fullscreenenter"",""1"",""1892""
","
","
","""event"",""trial"",""time""
""fullscreenenter"",""1"",""1892""
","
","","","","","","1078.1999999955297","images/plane1.png","","","memory_trial","2","maybe_old",""
"html-keyboard-response","136","280790","0.0-18.0-0.46","4578","approach_avoid_sv1","""event"",""trial"",""time""
""fullscreenenter"",""1"",""1892""
","
","
","""event"",""trial"",""time""
""fullscreenenter"",""1"",""1892""
","
","","","","","","null","<div style=""font-size:60px;"">+</div>","null","","fixation","","",""
"memory-trial","137","282646","0.0-18.0-1.46","4578","approach_avoid_sv1","""event"",""trial"",""time""
""fullscreenenter"",""1"",""1892""
","
","
","""event"",""trial"",""time""
""fullscreenenter"",""1"",""1892""
","
","","","","","","850.6999999955297","images/horse2.png","","","memory_trial","4","definitely_new",""
"html-keyboard-response","138","283150","0.0-18.0-0.47","4578","approach_avoid_sv1","""event"",""trial"",""time""
""fullscreenenter"",""1"",""1892""
","
","
","""event"",""trial"",""time""
""fullscreenenter"",""1"",""1892""
","
","","","","","","null","<div style=""font-size:60px;"">+</div>","null","","fixation","","",""
"memory-trial","139","286352","0.0-18.0-1.47","4578","approach_avoid_sv1","""event"",""trial"",""time""
""fullscreenenter"",""1"",""1892""
","
","
","""event"",""trial"",""time""
""fullscreenenter"",""1"",""1892""
","
","","","","","","2199.6999999955297","images/dog6.png","","","memory_trial","4","definitely_new",""
"html-keyboard-response","140","286859","0.0-18.0-0.48","4578","approach_avoid_sv1","""event"",""trial"",""time""
""fullscreenenter"",""1"",""1892""
","
","
","""event"",""trial"",""time""
""fullscreenenter"",""1"",""1892""
","
","","","","","","null","<div style=""font-size:60px;"">+</div>","null","","fixation","","",""
"memory-trial","141","288523","0.0-18.0-1.48","4578","approach_avoid_sv1","""event"",""trial"",""time""
""fullscreenenter"",""1"",""1892""
","
","
","""event"",""trial"",""time""
""fullscreenenter"",""1"",""1892""
","
","","","","","","658.6000000014901","images/train4.png","","","memory_trial","2","maybe_old",""
"html-keyboard-response","142","289029","0.0-18.0-0.49","4578","approach_avoid_sv1","""event"",""trial"",""time""
""fullscreenenter"",""1"",""1892""
","
","
","""event"",""trial"",""time""
""fullscreenenter"",""1"",""1892""
","
","","","","","","null","<div style=""font-size:60px;"">+</div>","null","","fixation","","",""
"memory-trial","143","290453","0.0-18.0-1.49","4578","approach_avoid_sv1","""event"",""trial"",""time""
""fullscreenenter"",""1"",""1892""
","
","
","""event"",""trial"",""time""
""fullscreenenter"",""1"",""1892""
","
","","","","","","420.1000000014901","images/table7.png","","","memory_trial","2","maybe_old",""
"html-keyboard-response","144","290959","0.0-18.0-0.50","4578","approach_avoid_sv1","""event"",""trial"",""time""
""fullscreenenter"",""1"",""1892""
","
","
","""event"",""trial"",""time""
""fullscreenenter"",""1"",""1892""
","
","","","","","","null","<div style=""font-size:60px;"">+</div>","null","","fixation","","",""
"memory-trial","145","292288","0.0-18.0-1.50","4578","approach_avoid_sv1","""event"",""trial"",""time""
""fullscreenenter"",""1"",""1892""
","
","
","""event"",""trial"",""time""
""fullscreenenter"",""1"",""1892""
","
","","","","","","321.5","images/flower2.png","","","memory_trial","3","maybe_new",""
"html-keyboard-response","146","292790","0.0-18.0-0.51","4578","approach_avoid_sv1","""event"",""trial"",""time""
""fullscreenenter"",""1"",""1892""
","
","
","""event"",""trial"",""time""
""fullscreenenter"",""1"",""1892""
","
","","","","","","null","<div style=""font-size:60px;"">+</div>","null","","fixation","","",""
"memory-trial","147","294480","0.0-18.0-1.51","4578","approach_avoid_sv1","""event"",""trial"",""time""
""fullscreenenter"",""1"",""1892""
","
","
","""event"",""trial"",""time""
""fullscreenenter"",""1"",""1892""
","
","","","","","","686.5","images/orange3.png","","","memory_trial","3","maybe_new",""
"html-keyboard-response","148","294981","0.0-18.0-0.52","4578","approach_avoid_sv1","""event"",""trial"",""time""
""fullscreenenter"",""1"",""1892""
","
","
","""event"",""trial"",""time""
""fullscreenenter"",""1"",""1892""
","
","","","","","","null","<div style=""font-size:60px;"">+</div>","null","","fixation","","",""
"memory-trial","149","297114","0.0-18.0-1.52","4578","approach_avoid_sv1","""event"",""trial"",""time""
""fullscreenenter"",""1"",""1892""
","
","
","""event"",""trial"",""time""
""fullscreenenter"",""1"",""1892""
","
","","","","","","1130.1000000014901","images/apple8.png","","","memory_trial","4","definitely_new",""
"html-keyboard-response","150","297616","0.0-18.0-0.53","4578","approach_avoid_sv1","""event"",""trial"",""time""
""fullscreenenter"",""1"",""1892""
","
","
","""event"",""trial"",""time""
""fullscreenenter"",""1"",""1892""
","
","","","","","","null","<div style=""font-size:60px;"">+</div>","null","","fixation","","",""
"memory-trial","151","300517","0.0-18.0-1.53","4578","approach_avoid_sv1","""event"",""trial"",""time""
""fullscreenenter"",""1"",""1892""
","
","
","""event"",""trial"",""time""
""fullscreenenter"",""1"",""1892""
","
","","","","","","1894.8999999985099","images/tree2.png","","","memory_trial","2","maybe_old",""
"html-keyboard-response","152","301018","0.0-18.0-0.54","4578","approach_avoid_sv1","""event"",""trial"",""time""
""fullscreenenter"",""1"",""1892""
","
","
","""event"",""trial"",""time""
""fullscreenenter"",""1"",""1892""
","
","","","","","","null","<div style=""font-size:60px;"">+</div>","null","","fixation","","",""
"memory-trial","153","302394","0.0-18.0-1.54","4578","approach_avoid_sv1","""event"",""trial"",""time""
""fullscreenenter"",""1"",""1892""
","
","
","""event"",""trial"",""time""
""fullscreenenter"",""1"",""1892""
","
","","","","","","371.69999999552965","images/boat7.png","","","memory_trial","1","definitely_old",""
"html-keyboard-response","154","302900","0.0-18.0-0.55","4578","approach_avoid_sv1","""event"",""trial"",""time""
""fullscreenenter"",""1"",""1892""
","
","
","""event"",""trial"",""time""
""fullscreenenter"",""1"",""1892""
","
","","","","","","null","<div style=""font-size:60px;"">+</div>","null","","fixation","","",""
"memory-trial","155","304440","0.0-18.0-1.55","4578","approach_avoid_sv1","""event"",""trial"",""time""
""fullscreenenter"",""1"",""1892""
","
","
","""event"",""trial"",""time""
""fullscreenenter"",""1"",""1892""
","
","","","","","","536.9000000059605","images/cactus4.png","","","memory_trial","4","definitely_new",""
"html-keyboard-response","156","304943","0.0-18.0-0.56","4578","approach_avoid_sv1","""event"",""trial"",""time""
""fullscreenenter"",""1"",""1892""
","
","
","""event"",""trial"",""time""
""fullscreenenter"",""1"",""1892""
","
","","","","","","null","<div style=""font-size:60px;"">+</div>","null","","fixation","","",""
"memory-trial","157","307349","0.0-18.0-1.56","4578","approach_avoid_sv1","""event"",""trial"",""time""
""fullscreenenter"",""1"",""1892""
","
","
","""event"",""trial"",""time""
""fullscreenenter"",""1"",""1892""
","
","","","","","","1398.2000000029802","images/tree5.png","","","memory_trial","3","maybe_new",""
"html-keyboard-response","158","307850","0.0-18.0-0.57","4578","approach_avoid_sv1","""event"",""trial"",""time""
""fullscreenenter"",""1"",""1892""
","
","
","""event"",""trial"",""time""
""fullscreenenter"",""1"",""1892""
","
","","","","","","null","<div style=""font-size:60px;"">+</div>","null","","fixation","","",""
"memory-trial","159","309183","0.0-18.0-1.57","4578","approach_avoid_sv1","""event"",""trial"",""time""
""fullscreenenter"",""1"",""1892""
","
","
","""event"",""trial"",""time""
""fullscreenenter"",""1"",""1892""
","
","","","","","","327.20000000298023","images/banana5.png","","","memory_trial","3","maybe_new",""
"html-keyboard-response","160","309684","0.0-18.0-0.58","4578","approach_avoid_sv1","""event"",""trial"",""time""
""fullscreenenter"",""1"",""1892""
","
","
","""event"",""trial"",""time""
""fullscreenenter"",""1"",""1892""
","
","","","","","","null","<div style=""font-size:60px;"">+</div>","null","","fixation","","",""
"memory-trial","161","311487","0.0-18.0-1.58","4578","approach_avoid_sv1","""event"",""trial"",""time""
""fullscreenenter"",""1"",""1892""
","
","
","""event"",""trial"",""time""
""fullscreenenter"",""1"",""1892""
","
","","","","","","795.5","images/table5.png","","","memory_trial","2","maybe_old",""
"html-keyboard-response","162","311988","0.0-18.0-0.59","4578","approach_avoid_sv1","""event"",""trial"",""time""
""fullscreenenter"",""1"",""1892""
","
","
","""event"",""trial"",""time""
""fullscreenenter"",""1"",""1892""
","
","","","","","","null","<div style=""font-size:60px;"">+</div>","null","","fixation","","",""
"memory-trial","163","314068","0.0-18.0-1.59","4578","approach_avoid_sv1","""event"",""trial"",""time""
""fullscreenenter"",""1"",""1892""
","
","
","""event"",""trial"",""time""
""fullscreenenter"",""1"",""1892""
","
","","","","","","1076.1000000014901","images/flower5.png","","","memory_trial","3","maybe_new",""
"html-keyboard-response","164","314570","0.0-18.0-0.60","4578","approach_avoid_sv1","""event"",""trial"",""time""
""fullscreenenter"",""1"",""1892""
","
","
","""event"",""trial"",""time""
""fullscreenenter"",""1"",""1892""
","
","","","","","","null","<div style=""font-size:60px;"">+</div>","null","","fixation","","",""
"memory-trial","165","316938","0.0-18.0-1.60","4578","approach_avoid_sv1","""event"",""trial"",""time""
""fullscreenenter"",""1"",""1892""
","
","
","""event"",""trial"",""time""
""fullscreenenter"",""1"",""1892""
","
","","","","","","1364.0999999940395","images/straw3.png","","","memory_trial","3","maybe_new",""
"html-keyboard-response","166","317444","0.0-18.0-0.61","4578","approach_avoid_sv1","""event"",""trial"",""time""
""fullscreenenter"",""1"",""1892""
","
","
","""event"",""trial"",""time""
""fullscreenenter"",""1"",""1892""
","
","","","","","","null","<div style=""font-size:60px;"">+</div>","null","","fixation","","",""
"memory-trial","167","319214","0.0-18.0-1.61","4578","approach_avoid_sv1","""event"",""trial"",""time""
""fullscreenenter"",""1"",""1892""
","
","
","""event"",""trial"",""time""
""fullscreenenter"",""1"",""1892""
","
","","","","","","763.1000000014901","images/horse3.png","","","memory_trial","4","definitely_new",""
"html-keyboard-response","168","319716","0.0-18.0-0.62","4578","approach_avoid_sv1","""event"",""trial"",""time""
""fullscreenenter"",""1"",""1892""
","
","
","""event"",""trial"",""time""
""fullscreenenter"",""1"",""1892""
","
","","","","","","null","<div style=""font-size:60px;"">+</div>","null","","fixation","","",""
"memory-trial","169","328666","0.0-18.0-1.62","4578","approach_avoid_sv1","""event"",""trial"",""time""
""fullscreenenter"",""1"",""1892""
","
","
","""event"",""trial"",""time""
""fullscreenenter"",""1"",""1892""
","
","","","","","","7945","images/truck8.png","","","memory_trial","2","maybe_old",""
"html-keyboard-response","170","329172","0.0-18.0-0.63","4578","approach_avoid_sv1","""event"",""trial"",""time""
""fullscreenenter"",""1"",""1892""
","
","
","""event"",""trial"",""time""
""fullscreenenter"",""1"",""1892""
","
","","","","","","null","<div style=""font-size:60px;"">+</div>","null","","fixation","","",""
"memory-trial","171","331486","0.0-18.0-1.63","4578","approach_avoid_sv1","""event"",""trial"",""time""
""fullscreenenter"",""1"",""1892""
","
","
","""event"",""trial"",""time""
""fullscreenenter"",""1"",""1892""
","
","","","","","","1309.3999999985099","images/rabbit2.png","","","memory_trial","2","maybe_old",""
"html-keyboard-response","172","331987","0.0-18.0-0.64","4578","approach_avoid_sv1","""event"",""trial"",""time""
""fullscreenenter"",""1"",""1892""
","
","
","""event"",""trial"",""time""
""fullscreenenter"",""1"",""1892""
","
","","","","","","null","<div style=""font-size:60px;"">+</div>","null","","fixation","","",""
"memory-trial","173","333406","0.0-18.0-1.64","4578","approach_avoid_sv1","""event"",""trial"",""time""
""fullscreenenter"",""1"",""1892""
","
","
","""event"",""trial"",""time""
""fullscreenenter"",""1"",""1892""
","
","","","","","","412.69999999552965","images/cactus2.png","","","memory_trial","4","definitely_new",""
"html-keyboard-response","174","333907","0.0-18.0-0.65","4578","approach_avoid_sv1","""event"",""trial"",""time""
""fullscreenenter"",""1"",""1892""
","
","
","""event"",""trial"",""time""
""fullscreenenter"",""1"",""1892""
","
","","","","","","null","<div style=""font-size:60px;"">+</div>","null","","fixation","","",""
"memory-trial","175","336430","0.0-18.0-1.65","4578","approach_avoid_sv1","""event"",""trial"",""time""
""fullscreenenter"",""1"",""1892""
","
","
","""event"",""trial"",""time""
""fullscreenenter"",""1"",""1892""
","
","","","","","","1516.7999999970198","images/cow8.png","","","memory_trial","3","maybe_new",""
"html-keyboard-response","176","336935","0.0-18.0-0.66","4578","approach_avoid_sv1","""event"",""trial"",""time""
""fullscreenenter"",""1"",""1892""
","
","
","""event"",""trial"",""time""
""fullscreenenter"",""1"",""1892""
","
","","","","","","null","<div style=""font-size:60px;"">+</div>","null","","fixation","","",""
"memory-trial","177","338851","0.0-18.0-1.66","4578","approach_avoid_sv1","""event"",""trial"",""time""
""fullscreenenter"",""1"",""1892""
","
","
","""event"",""trial"",""time""
""fullscreenenter"",""1"",""1892""
","
","","","","","","909.6000000014901","images/plane4.png","","","memory_trial","3","maybe_new",""
"html-keyboard-response","178","339358","0.0-18.0-0.67","4578","approach_avoid_sv1","""event"",""trial"",""time""
""fullscreenenter"",""1"",""1892""
","
","
","""event"",""trial"",""time""
""fullscreenenter"",""1"",""1892""
","
","","","","","","null","<div style=""font-size:60px;"">+</div>","null","","fixation","","",""
"memory-trial","179","341102","0.0-18.0-1.67","4578","approach_avoid_sv1","""event"",""trial"",""time""
""fullscreenenter"",""1"",""1892""
","
","
","""event"",""trial"",""time""
""fullscreenenter"",""1"",""1892""
","
","","","","","","740.4000000059605","images/straw5.png","","","memory_trial","2","maybe_old",""
"html-keyboard-response","180","341608","0.0-18.0-0.68","4578","approach_avoid_sv1","""event"",""trial"",""time""
""fullscreenenter"",""1"",""1892""
","
","
","""event"",""trial"",""time""
""fullscreenenter"",""1"",""1892""
","
","","","","","","null","<div style=""font-size:60px;"">+</div>","null","","fixation","","",""
"memory-trial","181","343512","0.0-18.0-1.68","4578","approach_avoid_sv1","""event"",""trial"",""time""
""fullscreenenter"",""1"",""1892""
","
","
","""event"",""trial"",""time""
""fullscreenenter"",""1"",""1892""
","
","","","","","","901","images/train3.png","","","memory_trial","3","maybe_new",""
"html-keyboard-response","182","344019","0.0-18.0-0.69","4578","approach_avoid_sv1","""event"",""trial"",""time""
""fullscreenenter"",""1"",""1892""
","
","
","""event"",""trial"",""time""
""fullscreenenter"",""1"",""1892""
","
","","","","","","null","<div style=""font-size:60px;"">+</div>","null","","fixation","","",""
"memory-trial","183","346039","0.0-18.0-1.69","4578","approach_avoid_sv1","""event"",""trial"",""time""
""fullscreenenter"",""1"",""1892""
","
","
","""event"",""trial"",""time""
""fullscreenenter"",""1"",""1892""
","
","","","","","","1016.1000000014901","images/sheep5.png","","","memory_trial","4","definitely_new",""
"html-keyboard-response","184","346542","0.0-18.0-0.70","4578","approach_avoid_sv1","""event"",""trial"",""time""
""fullscreenenter"",""1"",""1892""
","
","
","""event"",""trial"",""time""
""fullscreenenter"",""1"",""1892""
","
","","","","","","null","<div style=""font-size:60px;"">+</div>","null","","fixation","","",""
"memory-trial","185","347928","0.0-18.0-1.70","4578","approach_avoid_sv1","""event"",""trial"",""time""
""fullscreenenter"",""1"",""1892""
","
","
","""event"",""trial"",""time""
""fullscreenenter"",""1"",""1892""
","
","","","","","","381.30000000447035","images/orange1.png","","","memory_trial","1","definitely_old",""
"html-keyboard-response","186","348429","0.0-18.0-0.71","4578","approach_avoid_sv1","""event"",""trial"",""time""
""fullscreenenter"",""1"",""1892""
","
","
","""event"",""trial"",""time""
""fullscreenenter"",""1"",""1892""
","
","","","","","","null","<div style=""font-size:60px;"">+</div>","null","","fixation","","",""
"memory-trial","187","350616","0.0-18.0-1.71","4578","approach_avoid_sv1","""event"",""trial"",""time""
""fullscreenenter"",""1"",""1892""
","
","
","""event"",""trial"",""time""
""fullscreenenter"",""1"",""1892""
","
","","","","","","1182.6999999955297","images/sheep6.png","","","memory_trial","1","definitely_old",""
"html-keyboard-response","188","351120","0.0-18.0-0.72","4578","approach_avoid_sv1","""event"",""trial"",""time""
""fullscreenenter"",""1"",""1892""
","
","
","""event"",""trial"",""time""
""fullscreenenter"",""1"",""1892""
","
","","","","","","null","<div style=""font-size:60px;"">+</div>","null","","fixation","","",""
"memory-trial","189","353480","0.0-18.0-1.72","4578","approach_avoid_sv1","""event"",""trial"",""time""
""fullscreenenter"",""1"",""1892""
","
","
","""event"",""trial"",""time""
""fullscreenenter"",""1"",""1892""
","
","","","","","","1356.1999999955297","images/train2.png","","","memory_trial","2","maybe_old",""
"html-keyboard-response","190","353981","0.0-18.0-0.73","4578","approach_avoid_sv1","""event"",""trial"",""time""
""fullscreenenter"",""1"",""1892""
","
","
","""event"",""trial"",""time""
""fullscreenenter"",""1"",""1892""
","
","","","","","","null","<div style=""font-size:60px;"">+</div>","null","","fixation","","",""
"memory-trial","191","355865","0.0-18.0-1.73","4578","approach_avoid_sv1","""event"",""trial"",""time""
""fullscreenenter"",""1"",""1892""
","
","
","""event"",""trial"",""time""
""fullscreenenter"",""1"",""1892""
","
","","","","","","876.8999999985099","images/train6.png","","","memory_trial","2","maybe_old",""
"html-keyboard-response","192","356370","0.0-18.0-0.74","4578","approach_avoid_sv1","""event"",""trial"",""time""
""fullscreenenter"",""1"",""1892""
","
","
","""event"",""trial"",""time""
""fullscreenenter"",""1"",""1892""
","
","","","","","","null","<div style=""font-size:60px;"">+</div>","null","","fixation","","",""
"memory-trial","193","357901","0.0-18.0-1.74","4578","approach_avoid_sv1","""event"",""trial"",""time""
""fullscreenenter"",""1"",""1892""
","
","
","""event"",""trial"",""time""
""fullscreenenter"",""1"",""1892""
","
","","","","","","526.7999999970198","images/rabbit3.png","","","memory_trial","3","maybe_new",""
"html-keyboard-response","194","358402","0.0-18.0-0.75","4578","approach_avoid_sv1","""event"",""trial"",""time""
""fullscreenenter"",""1"",""1892""
","
","
","""event"",""trial"",""time""
""fullscreenenter"",""1"",""1892""
","
","","","","","","null","<div style=""font-size:60px;"">+</div>","null","","fixation","","",""
"memory-trial","195","360882","0.0-18.0-1.75","4578","approach_avoid_sv1","""event"",""trial"",""time""
""fullscreenenter"",""1"",""1892""
","
","
","""event"",""trial"",""time""
""fullscreenenter"",""1"",""1892""
","
","","","","","","1473.9000000059605","images/cat7.png","","","memory_trial","1","definitely_old",""
"html-keyboard-response","196","361387","0.0-18.0-0.76","4578","approach_avoid_sv1","""event"",""trial"",""time""
""fullscreenenter"",""1"",""1892""
","
","
","""event"",""trial"",""time""
""fullscreenenter"",""1"",""1892""
","
","","","","","","null","<div style=""font-size:60px;"">+</div>","null","","fixation","","",""
"memory-trial","197","363016","0.0-18.0-1.76","4578","approach_avoid_sv1","""event"",""trial"",""time""
""fullscreenenter"",""1"",""1892""
","
","
","""event"",""trial"",""time""
""fullscreenenter"",""1"",""1892""
","
","","","","","","621.2000000029802","images/bush6.png","","","memory_trial","4","definitely_new",""
"html-keyboard-response","198","363522","0.0-18.0-0.77","4578","approach_avoid_sv1","""event"",""trial"",""time""
""fullscreenenter"",""1"",""1892""
","
","
","""event"",""trial"",""time""
""fullscreenenter"",""1"",""1892""
","
","","","","","","null","<div style=""font-size:60px;"">+</div>","null","","fixation","","",""
"memory-trial","199","366205","0.0-18.0-1.77","4578","approach_avoid_sv1","""event"",""trial"",""time""
""fullscreenenter"",""1"",""1892""
","
","
","""event"",""trial"",""time""
""fullscreenenter"",""1"",""1892""
","
","","","","","","1678.1000000014901","images/horse5.png","","","memory_trial","1","definitely_old",""
"html-keyboard-response","200","366709","0.0-18.0-0.78","4578","approach_avoid_sv1","""event"",""trial"",""time""
""fullscreenenter"",""1"",""1892""
","
","
","""event"",""trial"",""time""
""fullscreenenter"",""1"",""1892""
","
","","","","","","null","<div style=""font-size:60px;"">+</div>","null","","fixation","","",""
"memory-trial","201","368098","0.0-18.0-1.78","4578","approach_avoid_sv1","""event"",""trial"",""time""
""fullscreenenter"",""1"",""1892""
","
","
","""event"",""trial"",""time""
""fullscreenenter"",""1"",""1892""
","
","","","","","","384.70000000298023","images/boat2.png","","","memory_trial","2","maybe_old",""
"html-keyboard-response","202","368599","0.0-18.0-0.79","4578","approach_avoid_sv1","""event"",""trial"",""time""
""fullscreenenter"",""1"",""1892""
","
","
","""event"",""trial"",""time""
""fullscreenenter"",""1"",""1892""
","
","","","","","","null","<div style=""font-size:60px;"">+</div>","null","","fixation","","",""
"memory-trial","203","370055","0.0-18.0-1.79","4578","approach_avoid_sv1","""event"",""trial"",""time""
""fullscreenenter"",""1"",""1892""
","
","
","""event"",""trial"",""time""
""fullscreenenter"",""1"",""1892""
","
","","","","","","452.79999999701977","images/bed8.png","","","memory_trial","3","maybe_new",""
"html-keyboard-response","204","370562","0.0-18.0-0.80","4578","approach_avoid_sv1","""event"",""trial"",""time""
""fullscreenenter"",""1"",""1892""
","
","
","""event"",""trial"",""time""
""fullscreenenter"",""1"",""1892""
","
","","","","","","null","<div style=""font-size:60px;"">+</div>","null","","fixation","","",""
"memory-trial","205","371954","0.0-18.0-1.80","4578","approach_avoid_sv1","""event"",""trial"",""time""
""fullscreenenter"",""1"",""1892""
","
","
","""event"",""trial"",""time""
""fullscreenenter"",""1"",""1892""
","
","","","","","","388.40000000596046","images/cactus7.png","","","memory_trial","3","maybe_new",""
"html-keyboard-response","206","372460","0.0-18.0-0.81","4578","approach_avoid_sv1","""event"",""trial"",""time""
""fullscreenenter"",""1"",""1892""
","
","
","""event"",""trial"",""time""
""fullscreenenter"",""1"",""1892""
","
","","","","","","null","<div style=""font-size:60px;"">+</div>","null","","fixation","","",""
"memory-trial","207","373762","0.0-18.0-1.81","4578","approach_avoid_sv1","""event"",""trial"",""time""
""fullscreenenter"",""1"",""1892""
","
","
","""event"",""trial"",""time""
""fullscreenenter"",""1"",""1892""
","
","","","","","","295","images/boat3.png","","","memory_trial","2","maybe_old",""
"html-keyboard-response","208","374265","0.0-18.0-0.82","4578","approach_avoid_sv1","""event"",""trial"",""time""
""fullscreenenter"",""1"",""1892""
","
","
","""event"",""trial"",""time""
""fullscreenenter"",""1"",""1892""
","
","","","","","","null","<div style=""font-size:60px;"">+</div>","null","","fixation","","",""
"memory-trial","209","375639","0.0-18.0-1.82","4578","approach_avoid_sv1","""event"",""trial"",""time""
""fullscreenenter"",""1"",""1892""
","
","
","""event"",""trial"",""time""
""fullscreenenter"",""1"",""1892""
","
","","","","","","371","images/cat2.png","","","memory_trial","2","maybe_old",""
"html-keyboard-response","210","376140","0.0-18.0-0.83","4578","approach_avoid_sv1","""event"",""trial"",""time""
""fullscreenenter"",""1"",""1892""
","
","
","""event"",""trial"",""time""
""fullscreenenter"",""1"",""1892""
","
","","","","","","null","<div style=""font-size:60px;"">+</div>","null","","fixation","","",""
"memory-trial","211","377468","0.0-18.0-1.83","4578","approach_avoid_sv1","""event"",""trial"",""time""
""fullscreenenter"",""1"",""1892""
","
","
","""event"",""trial"",""time""
""fullscreenenter"",""1"",""1892""
","
","","","","","","322.70000000298023","images/truck1.png","","","memory_trial","3","maybe_new",""
"html-keyboard-response","212","377974","0.0-18.0-0.84","4578","approach_avoid_sv1","""event"",""trial"",""time""
""fullscreenenter"",""1"",""1892""
","
","
","""event"",""trial"",""time""
""fullscreenenter"",""1"",""1892""
","
","","","","","","null","<div style=""font-size:60px;"">+</div>","null","","fixation","","",""
"memory-trial","213","379212","0.0-18.0-1.84","4578","approach_avoid_sv1","""event"",""trial"",""time""
""fullscreenenter"",""1"",""1892""
","
","
","""event"",""trial"",""time""
""fullscreenenter"",""1"",""1892""
","
","","","","","","234.79999999701977","images/rabbit6.png","","","memory_trial","3","maybe_new",""
"html-keyboard-response","214","379719","0.0-18.0-0.85","4578","approach_avoid_sv1","""event"",""trial"",""time""
""fullscreenenter"",""1"",""1892""
","
","
","""event"",""trial"",""time""
""fullscreenenter"",""1"",""1892""
","
","","","","","","null","<div style=""font-size:60px;"">+</div>","null","","fixation","","",""
"memory-trial","215","382612","0.0-18.0-1.85","4578","approach_avoid_sv1","""event"",""trial"",""time""
""fullscreenenter"",""1"",""1892""
","
","
","""event"",""trial"",""time""
""fullscreenenter"",""1"",""1892""
","
","","","","","","1886.7000000029802","images/goat5.png","","","memory_trial","3","maybe_new",""
"html-keyboard-response","216","383116","0.0-18.0-0.86","4578","approach_avoid_sv1","""event"",""trial"",""time""
""fullscreenenter"",""1"",""1892""
","
","
","""event"",""trial"",""time""
""fullscreenenter"",""1"",""1892""
","
","","","","","","null","<div style=""font-size:60px;"">+</div>","null","","fixation","","",""
"memory-trial","217","386305","0.0-18.0-1.86","4578","approach_avoid_sv1","""event"",""trial"",""time""
""fullscreenenter"",""1"",""1892""
","
","
","""event"",""trial"",""time""
""fullscreenenter"",""1"",""1892""
","
","","","","","","2186.7999999970198","images/bush8.png","","","memory_trial","4","definitely_new",""
"html-keyboard-response","218","386812","0.0-18.0-0.87","4578","approach_avoid_sv1","""event"",""trial"",""time""
""fullscreenenter"",""1"",""1892""
","
","
","""event"",""trial"",""time""
""fullscreenenter"",""1"",""1892""
","
","","","","","","null","<div style=""font-size:60px;"">+</div>","null","","fixation","","",""
"memory-trial","219","388044","0.0-18.0-1.87","4578","approach_avoid_sv1","""event"",""trial"",""time""
""fullscreenenter"",""1"",""1892""
","
","
","""event"",""trial"",""time""
""fullscreenenter"",""1"",""1892""
","
","","","","","","224.60000000149012","images/chair8.png","","","memory_trial","3","maybe_new",""
"html-keyboard-response","220","388550","0.0-18.0-0.88","4578","approach_avoid_sv1","""event"",""trial"",""time""
""fullscreenenter"",""1"",""1892""
","
","
","""event"",""trial"",""time""
""fullscreenenter"",""1"",""1892""
","
","","","","","","null","<div style=""font-size:60px;"">+</div>","null","","fixation","","",""
"memory-trial","221","390262","0.0-18.0-1.88","4578","approach_avoid_sv1","""event"",""trial"",""time""
""fullscreenenter"",""1"",""1892""
","
","
","""event"",""trial"",""time""
""fullscreenenter"",""1"",""1892""
","
","","","","","","709.1000000014901","images/cactus3.png","","","memory_trial","2","maybe_old",""
"html-keyboard-response","222","390764","0.0-18.0-0.89","4578","approach_avoid_sv1","""event"",""trial"",""time""
""fullscreenenter"",""1"",""1892""
","
","
","""event"",""trial"",""time""
""fullscreenenter"",""1"",""1892""
","
","","","","","","null","<div style=""font-size:60px;"">+</div>","null","","fixation","","",""
"memory-trial","223","393004","0.0-18.0-1.89","4578","approach_avoid_sv1","""event"",""trial"",""time""
""fullscreenenter"",""1"",""1892""
","
","
","""event"",""trial"",""time""
""fullscreenenter"",""1"",""1892""
","
","","","","","","1233.3000000044703","images/train1.png","","","memory_trial","1","definitely_old",""
"html-keyboard-response","224","393510","0.0-18.0-0.90","4578","approach_avoid_sv1","""event"",""trial"",""time""
""fullscreenenter"",""1"",""1892""
","
","
","""event"",""trial"",""time""
""fullscreenenter"",""1"",""1892""
","
","","","","","","null","<div style=""font-size:60px;"">+</div>","null","","fixation","","",""
"memory-trial","225","394566","0.0-18.0-1.90","4578","approach_avoid_sv1","""event"",""trial"",""time""
""fullscreenenter"",""1"",""1892""
","
","
","""event"",""trial"",""time""
""fullscreenenter"",""1"",""1892""
","
","","","","","","52.600000001490116","images/orange2.png","","","memory_trial","2","maybe_old",""
"html-keyboard-response","226","395068","0.0-18.0-0.91","4578","approach_avoid_sv1","""event"",""trial"",""time""
""fullscreenenter"",""1"",""1892""
","
","
","""event"",""trial"",""time""
""fullscreenenter"",""1"",""1892""
","
","","","","","","null","<div style=""font-size:60px;"">+</div>","null","","fixation","","",""
"memory-trial","227","396617","0.0-18.0-1.91","4578","approach_avoid_sv1","""event"",""trial"",""time""
""fullscreenenter"",""1"",""1892""
","
","
","""event"",""trial"",""time""
""fullscreenenter"",""1"",""1892""
","
","","","","","","543.5","images/cactus5.png","","","memory_trial","3","maybe_new",""
"html-button-response","228","399063","0.0-18.0-2.91-0.91","4578","approach_avoid_sv1","""event"",""trial"",""time""
""fullscreenenter"",""1"",""1892""
","
","
","""event"",""trial"",""time""
""fullscreenenter"",""1"",""1892""
","
","","","","","","2443.6999999955297","<p> Take a break! </p><p> Click the button to continue. </p>","0","","break","","",""
"html-keyboard-response","229","399564","0.0-18.0-0.92","4578","approach_avoid_sv1","""event"",""trial"",""time""
""fullscreenenter"",""1"",""1892""
","
","
","""event"",""trial"",""time""
""fullscreenenter"",""1"",""1892""
","
","","","","","","null","<div style=""font-size:60px;"">+</div>","null","","fixation","","",""
"memory-trial","230","401841","0.0-18.0-1.92","4578","approach_avoid_sv1","""event"",""trial"",""time""
""fullscreenenter"",""1"",""1892""
","
","
","""event"",""trial"",""time""
""fullscreenenter"",""1"",""1892""
","
","","","","","","1269.3999999985099","images/train8.png","","","memory_trial","2","maybe_old",""
"html-keyboard-response","231","402347","0.0-18.0-0.93","4578","approach_avoid_sv1","""event"",""trial"",""time""
""fullscreenenter"",""1"",""1892""
","
","
","""event"",""trial"",""time""
""fullscreenenter"",""1"",""1892""
","
","","","","","","null","<div style=""font-size:60px;"">+</div>","null","","fixation","","",""
"memory-trial","232","403782","0.0-18.0-1.93","4578","approach_avoid_sv1","""event"",""trial"",""time""
""fullscreenenter"",""1"",""1892""
","
","
","""event"",""trial"",""time""
""fullscreenenter"",""1"",""1892""
","
","","","","","","428.6000000014901","images/flower4.png","","","memory_trial","4","definitely_new",""
"html-keyboard-response","233","404288","0.0-18.0-0.94","4578","approach_avoid_sv1","""event"",""trial"",""time""
""fullscreenenter"",""1"",""1892""
","
","
","""event"",""trial"",""time""
""fullscreenenter"",""1"",""1892""
","
","","","","","","null","<div style=""font-size:60px;"">+</div>","null","","fixation","","",""
"memory-trial","234","405739","0.0-18.0-1.94","4578","approach_avoid_sv1","""event"",""trial"",""time""
""fullscreenenter"",""1"",""1892""
","
","
","""event"",""trial"",""time""
""fullscreenenter"",""1"",""1892""
","
","","","","","","446.3999999985099","images/chair1.png","","","memory_trial","3","maybe_new",""
"html-keyboard-response","235","406245","0.0-18.0-0.95","4578","approach_avoid_sv1","""event"",""trial"",""time""
""fullscreenenter"",""1"",""1892""
","
","
","""event"",""trial"",""time""
""fullscreenenter"",""1"",""1892""
","
","","","","","","null","<div style=""font-size:60px;"">+</div>","null","","fixation","","",""
"memory-trial","236","407888","0.0-18.0-1.95","4578","approach_avoid_sv1","""event"",""trial"",""time""
""fullscreenenter"",""1"",""1892""
","
","
","""event"",""trial"",""time""
""fullscreenenter"",""1"",""1892""
","
","","","","","","639.3000000044703","images/cactus6.png","","","memory_trial","3","maybe_new",""
"html-keyboard-response","237","408395","0.0-18.0-0.96","4578","approach_avoid_sv1","""event"",""trial"",""time""
""fullscreenenter"",""1"",""1892""
","
","
","""event"",""trial"",""time""
""fullscreenenter"",""1"",""1892""
","
","","","","","","null","<div style=""font-size:60px;"">+</div>","null","","fixation","","",""
"memory-trial","238","410246","0.0-18.0-1.96","4578","approach_avoid_sv1","""event"",""trial"",""time""
""fullscreenenter"",""1"",""1892""
","
","
","""event"",""trial"",""time""
""fullscreenenter"",""1"",""1892""
","
","","","","","","845.5","images/plane6.png","","","memory_trial","2","maybe_old",""
"html-keyboard-response","239","410752","0.0-18.0-0.97","4578","approach_avoid_sv1","""event"",""trial"",""time""
""fullscreenenter"",""1"",""1892""
","
","
","""event"",""trial"",""time""
""fullscreenenter"",""1"",""1892""
","
","","","","","","null","<div style=""font-size:60px;"">+</div>","null","","fixation","","",""
"memory-trial","240","412112","0.0-18.0-1.97","4578","approach_avoid_sv1","""event"",""trial"",""time""
""fullscreenenter"",""1"",""1892""
","
","
","""event"",""trial"",""time""
""fullscreenenter"",""1"",""1892""
","
","","","","","","352.70000000298023","images/horse1.png","","","memory_trial","3","maybe_new",""
"html-keyboard-response","241","412613","0.0-18.0-0.98","4578","approach_avoid_sv1","""event"",""trial"",""time""
""fullscreenenter"",""1"",""1892""
","
","
","""event"",""trial"",""time""
""fullscreenenter"",""1"",""1892""
","
","","","","","","null","<div style=""font-size:60px;"">+</div>","null","","fixation","","",""
"memory-trial","242","414438","0.0-18.0-1.98","4578","approach_avoid_sv1","""event"",""trial"",""time""
""fullscreenenter"",""1"",""1892""
","
","
","""event"",""trial"",""time""
""fullscreenenter"",""1"",""1892""
","
","","","","","","817.5999999940395","images/cactus1.png","","","memory_trial","2","maybe_old",""
"html-keyboard-response","243","414944","0.0-18.0-0.99","4578","approach_avoid_sv1","""event"",""trial"",""time""
""fullscreenenter"",""1"",""1892""
","
","
","""event"",""trial"",""time""
""fullscreenenter"",""1"",""1892""
","
","","","","","","null","<div style=""font-size:60px;"">+</div>","null","","fixation","","",""
"memory-trial","244","417035","0.0-18.0-1.99","4578","approach_avoid_sv1","""event"",""trial"",""time""
""fullscreenenter"",""1"",""1892""
","
","
","""event"",""trial"",""time""
""fullscreenenter"",""1"",""1892""
","
","","","","","","1088","images/table2.png","","","memory_trial","4","definitely_new",""
"html-keyboard-response","245","417541","0.0-18.0-0.100","4578","approach_avoid_sv1","""event"",""trial"",""time""
""fullscreenenter"",""1"",""1892""
","
","
","""event"",""trial"",""time""
""fullscreenenter"",""1"",""1892""
","
","","","","","","null","<div style=""font-size:60px;"">+</div>","null","","fixation","","",""
"memory-trial","246","418978","0.0-18.0-1.100","4578","approach_avoid_sv1","""event"",""trial"",""time""
""fullscreenenter"",""1"",""1892""
","
","
","""event"",""trial"",""time""
""fullscreenenter"",""1"",""1892""
","
","","","","","","432.6000000014901","images/sofa3.png","","","memory_trial","2","maybe_old",""
"html-keyboard-response","247","419483","0.0-18.0-0.101","4578","approach_avoid_sv1","""event"",""trial"",""time""
""fullscreenenter"",""1"",""1892""
","
","
","""event"",""trial"",""time""
""fullscreenenter"",""1"",""1892""
","
","","","","","","null","<div style=""font-size:60px;"">+</div>","null","","fixation","","",""
"memory-trial","248","421120","0.0-18.0-1.101","4578","approach_avoid_sv1","""event"",""trial"",""time""
""fullscreenenter"",""1"",""1892""
","
","
","""event"",""trial"",""time""
""fullscreenenter"",""1"",""1892""
","
","","","","","","632.8999999985099","images/boat4.png","","","memory_trial","2","maybe_old",""
"html-keyboard-response","249","421621","0.0-18.0-0.102","4578","approach_avoid_sv1","""event"",""trial"",""time""
""fullscreenenter"",""1"",""1892""
","
","
","""event"",""trial"",""time""
""fullscreenenter"",""1"",""1892""
","
","","","","","","null","<div style=""font-size:60px;"">+</div>","null","","fixation","","",""
"memory-trial","250","423077","0.0-18.0-1.102","4578","approach_avoid_sv1","""event"",""trial"",""time""
""fullscreenenter"",""1"",""1892""
","
","
","""event"",""trial"",""time""
""fullscreenenter"",""1"",""1892""
","
","","","","","","448.19999999552965","images/apple7.png","","","memory_trial","3","maybe_new",""
"html-keyboard-response","251","423578","0.0-18.0-0.103","4578","approach_avoid_sv1","""event"",""trial"",""time""
""fullscreenenter"",""1"",""1892""
","
","
","""event"",""trial"",""time""
""fullscreenenter"",""1"",""1892""
","
","","","","","","null","<div style=""font-size:60px;"">+</div>","null","","fixation","","",""
"memory-trial","252","425770","0.0-18.0-1.103","4578","approach_avoid_sv1","""event"",""trial"",""time""
""fullscreenenter"",""1"",""1892""
","
","
","""event"",""trial"",""time""
""fullscreenenter"",""1"",""1892""
","
","","","","","","1189.1000000014901","images/sheep3.png","","","memory_trial","2","maybe_old",""
"html-keyboard-response","253","426277","0.0-18.0-0.104","4578","approach_avoid_sv1","""event"",""trial"",""time""
""fullscreenenter"",""1"",""1892""
","
","
","""event"",""trial"",""time""
""fullscreenenter"",""1"",""1892""
","
","","","","","","null","<div style=""font-size:60px;"">+</div>","null","","fixation","","",""
"memory-trial","254","428021","0.0-18.0-1.104","4578","approach_avoid_sv1","""event"",""trial"",""time""
""fullscreenenter"",""1"",""1892""
","
","
","""event"",""trial"",""time""
""fullscreenenter"",""1"",""1892""
","
","","","","","","736.6999999955297","images/rabbit7.png","","","memory_trial","1","definitely_old",""
"html-keyboard-response","255","428522","0.0-18.0-0.105","4578","approach_avoid_sv1","""event"",""trial"",""time""
""fullscreenenter"",""1"",""1892""
","
","
","""event"",""trial"",""time""
""fullscreenenter"",""1"",""1892""
","
","","","","","","null","<div style=""font-size:60px;"">+</div>","null","","fixation","","",""
"memory-trial","256","430655","0.0-18.0-1.105","4578","approach_avoid_sv1","""event"",""trial"",""time""
""fullscreenenter"",""1"",""1892""
","
","
","""event"",""trial"",""time""
""fullscreenenter"",""1"",""1892""
","
","","","","","","1126.2000000029802","images/orange4.png","","","memory_trial","3","maybe_new",""
"html-keyboard-response","257","431157","0.0-18.0-0.106","4578","approach_avoid_sv1","""event"",""trial"",""time""
""fullscreenenter"",""1"",""1892""
","
","
","""event"",""trial"",""time""
""fullscreenenter"",""1"",""1892""
","
","","","","","","null","<div style=""font-size:60px;"">+</div>","null","","fixation","","",""
"memory-trial","258","434031","0.0-18.0-1.106","4578","approach_avoid_sv1","""event"",""trial"",""time""
""fullscreenenter"",""1"",""1892""
","
","
","""event"",""trial"",""time""
""fullscreenenter"",""1"",""1892""
","
","","","","","","1868.3999999985099","images/dog8.png","","","memory_trial","2","maybe_old",""
"html-keyboard-response","259","434538","0.0-18.0-0.107","4578","approach_avoid_sv1","""event"",""trial"",""time""
""fullscreenenter"",""1"",""1892""
","
","
","""event"",""trial"",""time""
""fullscreenenter"",""1"",""1892""
","
","","","","","","null","<div style=""font-size:60px;"">+</div>","null","","fixation","","",""
"memory-trial","260","437786","0.0-18.0-1.107","4578","approach_avoid_sv1","""event"",""trial"",""time""
""fullscreenenter"",""1"",""1892""
","
","
","""event"",""trial"",""time""
""fullscreenenter"",""1"",""1892""
","
","","","","","","2241.7999999970198","images/rodent5.png","","","memory_trial","3","maybe_new",""
"html-keyboard-response","261","438292","0.0-18.0-0.108","4578","approach_avoid_sv1","""event"",""trial"",""time""
""fullscreenenter"",""1"",""1892""
","
","
","""event"",""trial"",""time""
""fullscreenenter"",""1"",""1892""
","
","","","","","","null","<div style=""font-size:60px;"">+</div>","null","","fixation","","",""
"memory-trial","262","439631","0.0-18.0-1.108","4578","approach_avoid_sv1","""event"",""trial"",""time""
""fullscreenenter"",""1"",""1892""
","
","
","""event"",""trial"",""time""
""fullscreenenter"",""1"",""1892""
","
","","","","","","332.70000000298023","images/banana6.png","","","memory_trial","2","maybe_old",""
"html-keyboard-response","263","440133","0.0-18.0-0.109","4578","approach_avoid_sv1","""event"",""trial"",""time""
""fullscreenenter"",""1"",""1892""
","
","
","""event"",""trial"",""time""
""fullscreenenter"",""1"",""1892""
","
","","","","","","null","<div style=""font-size:60px;"">+</div>","null","","fixation","","",""
"memory-trial","264","441818","0.0-18.0-1.109","4578","approach_avoid_sv1","""event"",""trial"",""time""
""fullscreenenter"",""1"",""1892""
","
","
","""event"",""trial"",""time""
""fullscreenenter"",""1"",""1892""
","
","","","","","","679","images/straw1.png","","","memory_trial","4","definitely_new",""
"html-keyboard-response","265","442324","0.0-18.0-0.110","4578","approach_avoid_sv1","""event"",""trial"",""time""
""fullscreenenter"",""1"",""1892""
","
","
","""event"",""trial"",""time""
""fullscreenenter"",""1"",""1892""
","
","","","","","","null","<div style=""font-size:60px;"">+</div>","null","","fixation","","",""
"memory-trial","266","443775","0.0-18.0-1.110","4578","approach_avoid_sv1","""event"",""trial"",""time""
""fullscreenenter"",""1"",""1892""
","
","
","""event"",""trial"",""time""
""fullscreenenter"",""1"",""1892""
","
","","","","","","447.69999999552965","images/sofa6.png","","","memory_trial","2","maybe_old",""
"html-keyboard-response","267","444281","0.0-18.0-0.111","4578","approach_avoid_sv1","""event"",""trial"",""time""
""fullscreenenter"",""1"",""1892""
","
","
","""event"",""trial"",""time""
""fullscreenenter"",""1"",""1892""
","
","","","","","","null","<div style=""font-size:60px;"">+</div>","null","","fixation","","",""
"memory-trial","268","446404","0.0-18.0-1.111","4578","approach_avoid_sv1","""event"",""trial"",""time""
""fullscreenenter"",""1"",""1892""
","
","
","""event"",""trial"",""time""
""fullscreenenter"",""1"",""1892""
","
","","","","","","1116.7999999970198","images/rabbit1.png","","","memory_trial","1","definitely_old",""
"html-keyboard-response","269","446910","0.0-18.0-0.112","4578","approach_avoid_sv1","""event"",""trial"",""time""
""fullscreenenter"",""1"",""1892""
","
","
","""event"",""trial"",""time""
""fullscreenenter"",""1"",""1892""
","
","","","","","","null","<div style=""font-size:60px;"">+</div>","null","","fixation","","",""
"memory-trial","270","448111","0.0-18.0-1.112","4578","approach_avoid_sv1","""event"",""trial"",""time""
""fullscreenenter"",""1"",""1892""
","
","
","""event"",""trial"",""time""
""fullscreenenter"",""1"",""1892""
","
","","","","","","195.70000000298023","images/sofa5.png","","","memory_trial","2","maybe_old",""
"html-keyboard-response","271","448617","0.0-18.0-0.113","4578","approach_avoid_sv1","""event"",""trial"",""time""
""fullscreenenter"",""1"",""1892""
","
","
","""event"",""trial"",""time""
""fullscreenenter"",""1"",""1892""
","
","","","","","","null","<div style=""font-size:60px;"">+</div>","null","","fixation","","",""
"memory-trial","272","450772","0.0-18.0-1.113","4578","approach_avoid_sv1","""event"",""trial"",""time""
""fullscreenenter"",""1"",""1892""
","
","
","""event"",""trial"",""time""
""fullscreenenter"",""1"",""1892""
","
","","","","","","1148.5","images/truck2.png","","","memory_trial","3","maybe_new",""
"html-keyboard-response","273","451278","0.0-18.0-0.114","4578","approach_avoid_sv1","""event"",""trial"",""time""
""fullscreenenter"",""1"",""1892""
","
","
","""event"",""trial"",""time""
""fullscreenenter"",""1"",""1892""
","
","","","","","","null","<div style=""font-size:60px;"">+</div>","null","","fixation","","",""
"memory-trial","274","454398","0.0-18.0-1.114","4578","approach_avoid_sv1","""event"",""trial"",""time""
""fullscreenenter"",""1"",""1892""
","
","
","""event"",""trial"",""time""
""fullscreenenter"",""1"",""1892""
","
","","","","","","2115.7000000029802","images/rabbit5.png","","","memory_trial","1","definitely_old",""
"html-keyboard-response","275","454905","0.0-18.0-0.115","4578","approach_avoid_sv1","""event"",""trial"",""time""
""fullscreenenter"",""1"",""1892""
","
","
","""event"",""trial"",""time""
""fullscreenenter"",""1"",""1892""
","
","","","","","","null","<div style=""font-size:60px;"">+</div>","null","","fixation","","",""
"memory-trial","276","456356","0.0-18.0-1.115","4578","approach_avoid_sv1","""event"",""trial"",""time""
""fullscreenenter"",""1"",""1892""
","
","
","""event"",""trial"",""time""
""fullscreenenter"",""1"",""1892""
","
","","","","","","444.20000000298023","images/train5.png","","","memory_trial","3","maybe_new",""
"html-keyboard-response","277","456862","0.0-18.0-0.116","4578","approach_avoid_sv1","""event"",""trial"",""time""
""fullscreenenter"",""1"",""1892""
","
","
","""event"",""trial"",""time""
""fullscreenenter"",""1"",""1892""
","
","","","","","","null","<div style=""font-size:60px;"">+</div>","null","","fixation","","",""
"memory-trial","278","458217","0.0-18.0-1.116","4578","approach_avoid_sv1","""event"",""trial"",""time""
""fullscreenenter"",""1"",""1892""
","
","
","""event"",""trial"",""time""
""fullscreenenter"",""1"",""1892""
","
","","","","","","348.8999999985099","images/banana3.png","","","memory_trial","2","maybe_old",""
"html-keyboard-response","279","458723","0.0-18.0-0.117","4578","approach_avoid_sv1","""event"",""trial"",""time""
""fullscreenenter"",""1"",""1892""
","
","
","""event"",""trial"",""time""
""fullscreenenter"",""1"",""1892""
","
","","","","","","null","<div style=""font-size:60px;"">+</div>","null","","fixation","","",""
"memory-trial","280","460478","0.0-18.0-1.117","4578","approach_avoid_sv1","""event"",""trial"",""time""
""fullscreenenter"",""1"",""1892""
","
","
","""event"",""trial"",""time""
""fullscreenenter"",""1"",""1892""
","
","","","","","","748.5","images/truck5.png","","","memory_trial","2","maybe_old",""
"html-keyboard-response","281","460980","0.0-18.0-0.118","4578","approach_avoid_sv1","""event"",""trial"",""time""
""fullscreenenter"",""1"",""1892""
","
","
","""event"",""trial"",""time""
""fullscreenenter"",""1"",""1892""
","
","","","","","","null","<div style=""font-size:60px;"">+</div>","null","","fixation","","",""
"memory-trial","282","465577","0.0-18.0-1.118","4578","approach_avoid_sv1","""event"",""trial"",""time""
""fullscreenenter"",""1"",""1892""
","
","
","""event"",""trial"",""time""
""fullscreenenter"",""1"",""1892""
","
","","","","","","3589.6999999955297","images/rodent8.png","","","memory_trial","1","definitely_old",""
"html-keyboard-response","283","466083","0.0-18.0-0.119","4578","approach_avoid_sv1","""event"",""trial"",""time""
""fullscreenenter"",""1"",""1892""
","
","
","""event"",""trial"",""time""
""fullscreenenter"",""1"",""1892""
","
","","","","","","null","<div style=""font-size:60px;"">+</div>","null","","fixation","","",""
"memory-trial","284","467438","0.0-18.0-1.119","4578","approach_avoid_sv1","""event"",""trial"",""time""
""fullscreenenter"",""1"",""1892""
","
","
","""event"",""trial"",""time""
""fullscreenenter"",""1"",""1892""
","
","","","","","","349.1000000014901","images/plane8.png","","","memory_trial","4","definitely_new",""
"html-keyboard-response","285","467944","0.0-18.0-0.120","4578","approach_avoid_sv1","""event"",""trial"",""time""
""fullscreenenter"",""1"",""1892""
","
","
","""event"",""trial"",""time""
""fullscreenenter"",""1"",""1892""
","
","","","","","","null","<div style=""font-size:60px;"">+</div>","null","","fixation","","",""
"memory-trial","286","470025","0.0-18.0-1.120","4578","approach_avoid_sv1","""event"",""trial"",""time""
""fullscreenenter"",""1"",""1892""
","
","
","""event"",""trial"",""time""
""fullscreenenter"",""1"",""1892""
","
","","","","","","1075.5","images/boat6.png","","","memory_trial","2","maybe_old",""
"html-keyboard-response","287","470527","0.0-18.0-0.121","4578","approach_avoid_sv1","""event"",""trial"",""time""
""fullscreenenter"",""1"",""1892""
","
","
","""event"",""trial"",""time""
""fullscreenenter"",""1"",""1892""
","
","","","","","","null","<div style=""font-size:60px;"">+</div>","null","","fixation","","",""
"memory-trial","288","471550","0.0-18.0-1.121","4578","approach_avoid_sv1","""event"",""trial"",""time""
""fullscreenenter"",""1"",""1892""
","
","
","""event"",""trial"",""time""
""fullscreenenter"",""1"",""1892""
","
","","","","","","16.100000001490116","images/rodent2.png","","","memory_trial","2","maybe_old",""
"html-keyboard-response","289","472056","0.0-18.0-0.122","4578","approach_avoid_sv1","""event"",""trial"",""time""
""fullscreenenter"",""1"",""1892""
","
","
","""event"",""trial"",""time""
""fullscreenenter"",""1"",""1892""
","
","","","","","","null","<div style=""font-size:60px;"">+</div>","null","","fixation","","",""
"memory-trial","290","474046","0.0-18.0-1.122","4578","approach_avoid_sv1","""event"",""trial"",""time""
""fullscreenenter"",""1"",""1892""
","
","
","""event"",""trial"",""time""
""fullscreenenter"",""1"",""1892""
","
","","","","","","987","images/table8.png","","","memory_trial","3","maybe_new",""
"html-keyboard-response","291","474552","0.0-18.0-0.123","4578","approach_avoid_sv1","""event"",""trial"",""time""
""fullscreenenter"",""1"",""1892""
","
","
","""event"",""trial"",""time""
""fullscreenenter"",""1"",""1892""
","
","","","","","","null","<div style=""font-size:60px;"">+</div>","null","","fixation","","",""
"memory-trial","292","476910","0.0-18.0-1.123","4578","approach_avoid_sv1","""event"",""trial"",""time""
""fullscreenenter"",""1"",""1892""
","
","
","""event"",""trial"",""time""
""fullscreenenter"",""1"",""1892""
","
","","","","","","1353.3999999985099","images/goat4.png","","","memory_trial","2","maybe_old",""
"html-keyboard-response","293","477416","0.0-18.0-0.124","4578","approach_avoid_sv1","""event"",""trial"",""time""
""fullscreenenter"",""1"",""1892""
","
","
","""event"",""trial"",""time""
""fullscreenenter"",""1"",""1892""
","
","","","","","","null","<div style=""font-size:60px;"">+</div>","null","","fixation","","",""
"memory-trial","294","479053","0.0-18.0-1.124","4578","approach_avoid_sv1","""event"",""trial"",""time""
""fullscreenenter"",""1"",""1892""
","
","
","""event"",""trial"",""time""
""fullscreenenter"",""1"",""1892""
","
","","","","","","632.7999999970198","images/boat5.png","","","memory_trial","3","maybe_new",""
"html-keyboard-response","295","479560","0.0-18.0-0.125","4578","approach_avoid_sv1","""event"",""trial"",""time""
""fullscreenenter"",""1"",""1892""
","
","
","""event"",""trial"",""time""
""fullscreenenter"",""1"",""1892""
","
","","","","","","null","<div style=""font-size:60px;"">+</div>","null","","fixation","","",""
"memory-trial","296","480872","0.0-18.0-1.125","4578","approach_avoid_sv1","""event"",""trial"",""time""
""fullscreenenter"",""1"",""1892""
","
","
","""event"",""trial"",""time""
""fullscreenenter"",""1"",""1892""
","
","","","","","","307.79999999701977","images/bush3.png","","","memory_trial","3","maybe_new",""
"html-keyboard-response","297","481373","0.0-18.0-0.126","4578","approach_avoid_sv1","""event"",""trial"",""time""
""fullscreenenter"",""1"",""1892""
","
","
","""event"",""trial"",""time""
""fullscreenenter"",""1"",""1892""
","
","","","","","","null","<div style=""font-size:60px;"">+</div>","null","","fixation","","",""
