"trial_type","trial_index","time_elapsed","internal_node_id","subject_id","task_version","interactions","blur_events","focus_events","fullscreenenter_events","fullscreenexit_events","success","timeout","failed_images","failed_audio","failed_video","rt","stimulus","response","button_pressed","task_part","key_press","answer","correct"
"pavlovia","0","8","0.0-0.0","5883","approach_avoid_sv1","""event"",""trial"",""time""
""fullscreenenter"",""1"",""2114""
","
","
","""event"",""trial"",""time""
""fullscreenenter"",""1"",""2114""
","
","","","","","","","","","","","","",""
"fullscreen","1","3029","0.0-1.0","5883","approach_avoid_sv1","""event"",""trial"",""time""
""fullscreenenter"",""1"",""2114""
","
","
","""event"",""trial"",""time""
""fullscreenenter"",""1"",""2114""
","
","true","","","","","","","","","","","",""
"preload","2","5968","0.0-2.0","5883","approach_avoid_sv1","""event"",""trial"",""time""
""fullscreenenter"",""1"",""2114""
","
","
","""event"",""trial"",""time""
""fullscreenenter"",""1"",""2114""
","
","true","false","[]","[]","[]","","","","","","","",""
"preload","3","7967","0.0-3.0","5883","approach_avoid_sv1","""event"",""trial"",""time""
""fullscreenenter"",""1"",""2114""
","
","
","""event"",""trial"",""time""
""fullscreenenter"",""1"",""2114""
","
","true","false","[]","[]","[]","","","","","","","",""
"preload","4","8254","0.0-4.0","5883","approach_avoid_sv1","""event"",""trial"",""time""
""fullscreenenter"",""1"",""2114""
","
","
","""event"",""trial"",""time""
""fullscreenenter"",""1"",""2114""
","
","true","false","[]","[]","[]","","","","","","","",""
"audio-keyboard-response","5","11436","0.0-5.0","5883","approach_avoid_sv1","""event"",""trial"",""time""
""fullscreenenter"",""1"",""2114""
","
","
","""event"",""trial"",""time""
""fullscreenenter"",""1"",""2114""
","
","","","","","","3061.333333333333","audio/beep_loop.wav"," ","","","","",""
"audio-button-response","6","13440","0.0-6.0","5883","approach_avoid_sv1","""event"",""trial"",""time""
""fullscreenenter"",""1"",""2114""
","
","
","""event"",""trial"",""time""
""fullscreenenter"",""1"",""2114""
","
","","","","","","2000","audio/turtle.wav","3","","","","",""
"audio-button-response","7","15407","0.0-7.0","5883","approach_avoid_sv1","""event"",""trial"",""time""
""fullscreenenter"",""1"",""2114""
","
","
","""event"",""trial"",""time""
""fullscreenenter"",""1"",""2114""
","
","","","","","","949","audio/shark.wav","2","","","","",""
"preload","8","19509","0.0-8.0","5883","approach_avoid_sv1","""event"",""trial"",""time""
""fullscreenenter"",""1"",""2114""
","
","
","""event"",""trial"",""time""
""fullscreenenter"",""1"",""2114""
","
","true","false","[]","[]","[]","","","","","","","",""
"learning-instructions","9","26770","0.0-9.0-0.0","5883","approach_avoid_sv1","""event"",""trial"",""time""
""fullscreenenter"",""1"",""2114""
","
","
","""event"",""trial"",""time""
""fullscreenenter"",""1"",""2114""
","
","","","","","","2785.5","<p> Welcome back! </p><p> Last week, you had to make choices about lots of different items.  </p>","","0","instructions","","",""
"learning-instructions","10","37100","0.0-9.0-0.1","5883","approach_avoid_sv1","""event"",""trial"",""time""
""fullscreenenter"",""1"",""2114""
","
","
","""event"",""trial"",""time""
""fullscreenenter"",""1"",""2114""
","
","","","","","","6206.5","<p> Today, we are going to ask you to try to remember all the items. </p>","","0","instructions","","",""
"learning-instructions","11","49986","0.0-9.0-0.2","5883","approach_avoid_sv1","""event"",""trial"",""time""
""fullscreenenter"",""1"",""2114""
","
","
","""event"",""trial"",""time""
""fullscreenenter"",""1"",""2114""
","
","","","","","","2752.5","<p> On every trial, you will see an image. </p><p> The image may be an OLD image you saw during the games last week or it may be a NEW image that was not presented. </p>","","0","instructions","","",""
"learning-instructions","12","60269","0.0-9.0-0.3","5883","approach_avoid_sv1","""event"",""trial"",""time""
""fullscreenenter"",""1"",""2114""
","
","
","""event"",""trial"",""time""
""fullscreenenter"",""1"",""2114""
","
","","","","","","1771.6000000238419","<p> You need to select whether the image is:  </p><p>  'Definitely old', 'Maybe old', 'Maybe new', or 'Definitely new.'  </p><div class=""mem-choice-instructions-grid""><div class=""choice-option"" id=""choice-option-1"" ><img src=""images/definitely_old_1.png"" id=""choice-option-img-1"" class=""choice-option-img"" stage=""1""></div><div class=""choice-option"" id=""choice-option-2"" ><img src=""images/maybe_old_1.png"" id=""choice-option-img-2"" class=""choice-option-img"" stage=""1""></div><div class=""choice-option"" id=""choice-option-3"" ><img src=""images/maybe_new_1.png"" id=""choice-option-img-3"" class=""choice-option-img"" stage=""1""></div><div class=""choice-option"" id=""choice-option-4"" > <img src=""images/definitely_new_1.png"" id=""choice-option-img-4"" class=""choice-option-img"" stage=""1""></div></div>","","0","instructions","","",""
"learning-instructions","13","67846","0.0-9.0-0.4","5883","approach_avoid_sv1","""event"",""trial"",""time""
""fullscreenenter"",""1"",""2114""
","
","
","""event"",""trial"",""time""
""fullscreenenter"",""1"",""2114""
","
","","","","","","1058.5","<p> You should use the 1, 2, 3, and 4 keys to make your responses.  </p><div class=""mem-choice-instructions-grid""><div class=""choice-option"" id=""choice-option-1"" ><img src=""images/definitely_old.png"" id=""choice-option-img-1"" class=""choice-option-img"" stage=""1""></div><div class=""choice-option"" id=""choice-option-2"" ><img src=""images/maybe_old.png"" id=""choice-option-img-2"" class=""choice-option-img"" stage=""1""></div><div class=""choice-option"" id=""choice-option-3"" ><img src=""images/maybe_new.png"" id=""choice-option-img-3"" class=""choice-option-img"" stage=""1""></div><div class=""choice-option"" id=""choice-option-4"" > <img src=""images/definitely_new.png"" id=""choice-option-img-4"" class=""choice-option-img"" stage=""1""></div></div>","","0","instructions","","",""
"learning-instructions","14","92066","0.0-9.0-0.5","5883","approach_avoid_sv1","""event"",""trial"",""time""
""fullscreenenter"",""1"",""2114""
","
","
","""event"",""trial"",""time""
""fullscreenenter"",""1"",""2114""
","
","","","","","","17889.199999928474","<p> You will have 10 seconds to make each response.  </p><p>  Make sure to respond before time runs out! </p>","","0","instructions","","",""
"learning-instructions","15","99476","0.0-9.0-0.6","5883","approach_avoid_sv1","""event"",""trial"",""time""
""fullscreenenter"",""1"",""2114""
","
","
","""event"",""trial"",""time""
""fullscreenenter"",""1"",""2114""
","
","","","","","","328.89999997615814","<p> Today, you will see each image ONCE only.  </p><p>  That means none of the images will repeat. </p>","","0","instructions","","",""
"learning-instructions","16","112668","0.0-9.0-0.7","5883","approach_avoid_sv1","""event"",""trial"",""time""
""fullscreenenter"",""1"",""2114""
","
","
","""event"",""trial"",""time""
""fullscreenenter"",""1"",""2114""
","
","","","","","","510.40000009536743","<p> Before you play the real game, it is time to practice. </p><p>  Just like in the real game, some of the images in the practice will be ones you have seen before. </p><p>  Others will be entirely new. </p>","","0","instructions","","",""
"html-button-response","17","113998","0.0-10.0","5883","approach_avoid_sv1","""event"",""trial"",""time""
""fullscreenenter"",""1"",""2114""
","
","
","""event"",""trial"",""time""
""fullscreenenter"",""1"",""2114""
","
","","","","","","1222.3999999761581","<p> Ready to practice? </p><p> Remember, use the 1, 2, 3, and 4 keys to make your responses. </p>","0","","instructions","","",""
"html-keyboard-response","18","114615","0.0-11.0-0.0","5883","approach_avoid_sv1","""event"",""trial"",""time""
""fullscreenenter"",""1"",""2114""
","
","
","""event"",""trial"",""time""
""fullscreenenter"",""1"",""2114""
","
","","","","","","null","<div style=""font-size:60px;"">+</div>","null","","fixation","","",""
"memory-trial","19","117086","0.0-11.0-1.0","5883","approach_avoid_sv1","""event"",""trial"",""time""
""fullscreenenter"",""1"",""2114""
","
","
","""event"",""trial"",""time""
""fullscreenenter"",""1"",""2114""
","
","","","","","","1462.4000000953674","images/ball5.png","","","practice","2","maybe_old",""
"html-keyboard-response","20","117588","0.0-11.0-0.1","5883","approach_avoid_sv1","""event"",""trial"",""time""
""fullscreenenter"",""1"",""2114""
","
","
","""event"",""trial"",""time""
""fullscreenenter"",""1"",""2114""
","
","","","","","","null","<div style=""font-size:60px;"">+</div>","null","","fixation","","",""
"memory-trial","21","119443","0.0-11.0-1.1","5883","approach_avoid_sv1","""event"",""trial"",""time""
""fullscreenenter"",""1"",""2114""
","
","
","""event"",""trial"",""time""
""fullscreenenter"",""1"",""2114""
","
","","","","","","829.6000000238419","images/ball1.png","","","practice","1","definitely_old",""
"html-keyboard-response","22","119955","0.0-11.0-0.2","5883","approach_avoid_sv1","""event"",""trial"",""time""
""fullscreenenter"",""1"",""2114""
","
","
","""event"",""trial"",""time""
""fullscreenenter"",""1"",""2114""
","
","","","","","","null","<div style=""font-size:60px;"">+</div>","null","","fixation","","",""
"memory-trial","23","122126","0.0-11.0-1.2","5883","approach_avoid_sv1","""event"",""trial"",""time""
""fullscreenenter"",""1"",""2114""
","
","
","""event"",""trial"",""time""
""fullscreenenter"",""1"",""2114""
","
","","","","","","1159.8999999761581","images/ball3.png","","","practice","2","maybe_old",""
"html-keyboard-response","24","122645","0.0-11.0-0.3","5883","approach_avoid_sv1","""event"",""trial"",""time""
""fullscreenenter"",""1"",""2114""
","
","
","""event"",""trial"",""time""
""fullscreenenter"",""1"",""2114""
","
","","","","","","null","<div style=""font-size:60px;"">+</div>","null","","fixation","","",""
"memory-trial","25","125277","0.0-11.0-1.3","5883","approach_avoid_sv1","""event"",""trial"",""time""
""fullscreenenter"",""1"",""2114""
","
","
","""event"",""trial"",""time""
""fullscreenenter"",""1"",""2114""
","
","","","","","","1613.4000000953674","images/racket1.png","","","practice","4","definitely_new",""
"html-keyboard-response","26","125786","0.0-11.0-0.4","5883","approach_avoid_sv1","""event"",""trial"",""time""
""fullscreenenter"",""1"",""2114""
","
","
","""event"",""trial"",""time""
""fullscreenenter"",""1"",""2114""
","
","","","","","","null","<div style=""font-size:60px;"">+</div>","null","","fixation","","",""
"memory-trial","27","128096","0.0-11.0-1.4","5883","approach_avoid_sv1","""event"",""trial"",""time""
""fullscreenenter"",""1"",""2114""
","
","
","""event"",""trial"",""time""
""fullscreenenter"",""1"",""2114""
","
","","","","","","1298.7000000476837","images/ball2.png","","","practice","2","maybe_old",""
"html-keyboard-response","28","128612","0.0-11.0-0.5","5883","approach_avoid_sv1","""event"",""trial"",""time""
""fullscreenenter"",""1"",""2114""
","
","
","""event"",""trial"",""time""
""fullscreenenter"",""1"",""2114""
","
","","","","","","null","<div style=""font-size:60px;"">+</div>","null","","fixation","","",""
"memory-trial","29","130556","0.0-11.0-1.5","5883","approach_avoid_sv1","""event"",""trial"",""time""
""fullscreenenter"",""1"",""2114""
","
","
","""event"",""trial"",""time""
""fullscreenenter"",""1"",""2114""
","
","","","","","","918.5","images/racket2.png","","","practice","1","definitely_old",""
"html-keyboard-response","30","131066","0.0-11.0-0.6","5883","approach_avoid_sv1","""event"",""trial"",""time""
""fullscreenenter"",""1"",""2114""
","
","
","""event"",""trial"",""time""
""fullscreenenter"",""1"",""2114""
","
","","","","","","null","<div style=""font-size:60px;"">+</div>","null","","fixation","","",""
"memory-trial","31","132824","0.0-11.0-1.6","5883","approach_avoid_sv1","""event"",""trial"",""time""
""fullscreenenter"",""1"",""2114""
","
","
","""event"",""trial"",""time""
""fullscreenenter"",""1"",""2114""
","
","","","","","","747.5","images/racket5.png","","","practice","1","definitely_old",""
"html-keyboard-response","32","133337","0.0-11.0-0.7","5883","approach_avoid_sv1","""event"",""trial"",""time""
""fullscreenenter"",""1"",""2114""
","
","
","""event"",""trial"",""time""
""fullscreenenter"",""1"",""2114""
","
","","","","","","null","<div style=""font-size:60px;"">+</div>","null","","fixation","","",""
"memory-trial","33","135296","0.0-11.0-1.7","5883","approach_avoid_sv1","""event"",""trial"",""time""
""fullscreenenter"",""1"",""2114""
","
","
","""event"",""trial"",""time""
""fullscreenenter"",""1"",""2114""
","
","","","","","","948.8999999761581","images/racket3.png","","","practice","1","definitely_old",""
"learning-instructions","34","143293","0.0-12.0-0.0","5883","approach_avoid_sv1","""event"",""trial"",""time""
""fullscreenenter"",""1"",""2114""
","
","
","""event"",""trial"",""time""
""fullscreenenter"",""1"",""2114""
","
","","","","","","693.6999999284744","<p> Great! You have completed the practice. </p><p> Before you start, we're going to ask you a few questions about how the game works.  </p>","","0","instructions","","",""
"preload","35","145311","0.0-13.0","5883","approach_avoid_sv1","""event"",""trial"",""time""
""fullscreenenter"",""1"",""2114""
","
","
","""event"",""trial"",""time""
""fullscreenenter"",""1"",""2114""
","
","true","false","[]","[]","[]","","","","","","","",""
"comp-q","36","152114","0.0-14.0-0.0","5883","approach_avoid_sv1","""event"",""trial"",""time""
""fullscreenenter"",""1"",""2114""
","
","
","""event"",""trial"",""time""
""fullscreenenter"",""1"",""2114""
","
","","","","","","974.1999999284744","<p> <b> True or False? </b> </p><p> In this game, you will only see each image once. </p>","","0","comp_question","","","true"
"comp-q","37","160028","0.0-14.0-1.0","5883","approach_avoid_sv1","""event"",""trial"",""time""
""fullscreenenter"",""1"",""2114""
","
","
","""event"",""trial"",""time""
""fullscreenenter"",""1"",""2114""
","
","","","","","","1586.2000000476837","<p> <b> That's right! </b> You will see many different images <i> one time each </i> in this game. </p>","","0","comp_answer","","",""
"comp-q","38","165567","0.0-15.0-0.0","5883","approach_avoid_sv1","""event"",""trial"",""time""
""fullscreenenter"",""1"",""2114""
","
","
","""event"",""trial"",""time""
""fullscreenenter"",""1"",""2114""
","
","","","","","","538.1000000238419","<p> <b> True or False? </b> </p><p> You should use the mouse and click to make your response. </p>","","1","comp_question","","","true"
"comp-q","39","173813","0.0-15.0-1.0","5883","approach_avoid_sv1","""event"",""trial"",""time""
""fullscreenenter"",""1"",""2114""
","
","
","""event"",""trial"",""time""
""fullscreenenter"",""1"",""2114""
","
","","","","","","1733.7000000476837","<p><b> That's right! </b> You should use the '1', '2', '3', and '4' keys to make your response. </p>","","0","comp_answer","","",""
"comp-q","40","179907","0.0-16.0-0.0","5883","approach_avoid_sv1","""event"",""trial"",""time""
""fullscreenenter"",""1"",""2114""
","
","
","""event"",""trial"",""time""
""fullscreenenter"",""1"",""2114""
","
","","","","","","405.8000000715256","<p> <b> True or False? </b> </p><p> You will have as much time as you want to make each choice. </p>","","1","comp_question","","","true"
"comp-q","41","186473","0.0-16.0-1.0","5883","approach_avoid_sv1","""event"",""trial"",""time""
""fullscreenenter"",""1"",""2114""
","
","
","""event"",""trial"",""time""
""fullscreenenter"",""1"",""2114""
","
","","","","","","1873.7000000476837","<p> <b> That's right! </b> You will only have 10 seconds to make each choice. </p>","","0","comp_answer","","",""
"learning-instructions","42","196969","0.0-17.0","5883","approach_avoid_sv1","""event"",""trial"",""time""
""fullscreenenter"",""1"",""2114""
","
","
","""event"",""trial"",""time""
""fullscreenenter"",""1"",""2114""
","
","","","","","","1829.8999999761581","<p> Great! You are now ready to begin the game. </p><p> Remember, use the 1, 2, 3, and 4 keys to make your responses. </p>","","0","instructions","","",""
"html-keyboard-response","43","197603","0.0-18.0-0.0","5883","approach_avoid_sv1","""event"",""trial"",""time""
""fullscreenenter"",""1"",""2114""
","
","
","""event"",""trial"",""time""
""fullscreenenter"",""1"",""2114""
","
","","","","","","null","<div style=""font-size:60px;"">+</div>","null","","fixation","","",""
"memory-trial","44","200535","0.0-18.0-1.0","5883","approach_avoid_sv1","""event"",""trial"",""time""
""fullscreenenter"",""1"",""2114""
","
","
","""event"",""trial"",""time""
""fullscreenenter"",""1"",""2114""
","
","","","","","","1926.2000000476837","images/sofa3.png","","","memory_trial","1","definitely_old",""
"html-keyboard-response","45","201044","0.0-18.0-0.1","5883","approach_avoid_sv1","""event"",""trial"",""time""
""fullscreenenter"",""1"",""2114""
","
","
","""event"",""trial"",""time""
""fullscreenenter"",""1"",""2114""
","
","","","","","","null","<div style=""font-size:60px;"">+</div>","null","","fixation","","",""
"memory-trial","46","202985","0.0-18.0-1.1","5883","approach_avoid_sv1","""event"",""trial"",""time""
""fullscreenenter"",""1"",""2114""
","
","
","""event"",""trial"",""time""
""fullscreenenter"",""1"",""2114""
","
","","","","","","934.1000000238419","images/chair3.png","","","memory_trial","1","definitely_old",""
"html-keyboard-response","47","203495","0.0-18.0-0.2","5883","approach_avoid_sv1","""event"",""trial"",""time""
""fullscreenenter"",""1"",""2114""
","
","
","""event"",""trial"",""time""
""fullscreenenter"",""1"",""2114""
","
","","","","","","null","<div style=""font-size:60px;"">+</div>","null","","fixation","","",""
"memory-trial","48","206461","0.0-18.0-1.2","5883","approach_avoid_sv1","""event"",""trial"",""time""
""fullscreenenter"",""1"",""2114""
","
","
","""event"",""trial"",""time""
""fullscreenenter"",""1"",""2114""
","
","","","","","","1955.1999999284744","images/dog4.png","","","memory_trial","3","maybe_new",""
"html-keyboard-response","49","206966","0.0-18.0-0.3","5883","approach_avoid_sv1","""event"",""trial"",""time""
""fullscreenenter"",""1"",""2114""
","
","
","""event"",""trial"",""time""
""fullscreenenter"",""1"",""2114""
","
","","","","","","null","<div style=""font-size:60px;"">+</div>","null","","fixation","","",""
"memory-trial","50","208877","0.0-18.0-1.3","5883","approach_avoid_sv1","""event"",""trial"",""time""
""fullscreenenter"",""1"",""2114""
","
","
","""event"",""trial"",""time""
""fullscreenenter"",""1"",""2114""
","
","","","","","","891.7999999523163","images/orange4.png","","","memory_trial","3","maybe_new",""
"html-keyboard-response","51","209391","0.0-18.0-0.4","5883","approach_avoid_sv1","""event"",""trial"",""time""
""fullscreenenter"",""1"",""2114""
","
","
","""event"",""trial"",""time""
""fullscreenenter"",""1"",""2114""
","
","","","","","","null","<div style=""font-size:60px;"">+</div>","null","","fixation","","",""
"memory-trial","52","211245","0.0-18.0-1.4","5883","approach_avoid_sv1","""event"",""trial"",""time""
""fullscreenenter"",""1"",""2114""
","
","
","""event"",""trial"",""time""
""fullscreenenter"",""1"",""2114""
","
","","","","","","838.1000000238419","images/flower3.png","","","memory_trial","1","definitely_old",""
"html-keyboard-response","53","211754","0.0-18.0-0.5","5883","approach_avoid_sv1","""event"",""trial"",""time""
""fullscreenenter"",""1"",""2114""
","
","
","""event"",""trial"",""time""
""fullscreenenter"",""1"",""2114""
","
","","","","","","null","<div style=""font-size:60px;"">+</div>","null","","fixation","","",""
"memory-trial","54","213445","0.0-18.0-1.5","5883","approach_avoid_sv1","""event"",""trial"",""time""
""fullscreenenter"",""1"",""2114""
","
","
","""event"",""trial"",""time""
""fullscreenenter"",""1"",""2114""
","
","","","","","","678.8999999761581","images/horse8.png","","","memory_trial","1","definitely_old",""
"html-keyboard-response","55","213965","0.0-18.0-0.6","5883","approach_avoid_sv1","""event"",""trial"",""time""
""fullscreenenter"",""1"",""2114""
","
","
","""event"",""trial"",""time""
""fullscreenenter"",""1"",""2114""
","
","","","","","","null","<div style=""font-size:60px;"">+</div>","null","","fixation","","",""
"memory-trial","56","215623","0.0-18.0-1.6","5883","approach_avoid_sv1","""event"",""trial"",""time""
""fullscreenenter"",""1"",""2114""
","
","
","""event"",""trial"",""time""
""fullscreenenter"",""1"",""2114""
","
","","","","","","638.5","images/chair1.png","","","memory_trial","1","definitely_old",""
"html-keyboard-response","57","216145","0.0-18.0-0.7","5883","approach_avoid_sv1","""event"",""trial"",""time""
""fullscreenenter"",""1"",""2114""
","
","
","""event"",""trial"",""time""
""fullscreenenter"",""1"",""2114""
","
","","","","","","null","<div style=""font-size:60px;"">+</div>","null","","fixation","","",""
"memory-trial","58","219177","0.0-18.0-1.7","5883","approach_avoid_sv1","""event"",""trial"",""time""
""fullscreenenter"",""1"",""2114""
","
","
","""event"",""trial"",""time""
""fullscreenenter"",""1"",""2114""
","
","","","","","","2022.3999999761581","images/rodent3.png","","","memory_trial","3","maybe_new",""
"html-keyboard-response","59","219690","0.0-18.0-0.8","5883","approach_avoid_sv1","""event"",""trial"",""time""
""fullscreenenter"",""1"",""2114""
","
","
","""event"",""trial"",""time""
""fullscreenenter"",""1"",""2114""
","
","","","","","","null","<div style=""font-size:60px;"">+</div>","null","","fixation","","",""
"memory-trial","60","221886","0.0-18.0-1.8","5883","approach_avoid_sv1","""event"",""trial"",""time""
""fullscreenenter"",""1"",""2114""
","
","
","""event"",""trial"",""time""
""fullscreenenter"",""1"",""2114""
","
","","","","","","1177.1000000238419","images/bush4.png","","","memory_trial","3","maybe_new",""
"html-keyboard-response","61","222400","0.0-18.0-0.9","5883","approach_avoid_sv1","""event"",""trial"",""time""
""fullscreenenter"",""1"",""2114""
","
","
","""event"",""trial"",""time""
""fullscreenenter"",""1"",""2114""
","
","","","","","","null","<div style=""font-size:60px;"">+</div>","null","","fixation","","",""
"memory-trial","62","224282","0.0-18.0-1.9","5883","approach_avoid_sv1","""event"",""trial"",""time""
""fullscreenenter"",""1"",""2114""
","
","
","""event"",""trial"",""time""
""fullscreenenter"",""1"",""2114""
","
","","","","","","873.6000000238419","images/boat1.png","","","memory_trial","1","definitely_old",""
"html-keyboard-response","63","224800","0.0-18.0-0.10","5883","approach_avoid_sv1","""event"",""trial"",""time""
""fullscreenenter"",""1"",""2114""
","
","
","""event"",""trial"",""time""
""fullscreenenter"",""1"",""2114""
","
","","","","","","null","<div style=""font-size:60px;"">+</div>","null","","fixation","","",""
"memory-trial","64","226613","0.0-18.0-1.10","5883","approach_avoid_sv1","""event"",""trial"",""time""
""fullscreenenter"",""1"",""2114""
","
","
","""event"",""trial"",""time""
""fullscreenenter"",""1"",""2114""
","
","","","","","","798.2000000476837","images/goat1.png","","","memory_trial","1","definitely_old",""
"html-keyboard-response","65","227121","0.0-18.0-0.11","5883","approach_avoid_sv1","""event"",""trial"",""time""
""fullscreenenter"",""1"",""2114""
","
","
","""event"",""trial"",""time""
""fullscreenenter"",""1"",""2114""
","
","","","","","","null","<div style=""font-size:60px;"">+</div>","null","","fixation","","",""
"memory-trial","66","228858","0.0-18.0-1.11","5883","approach_avoid_sv1","""event"",""trial"",""time""
""fullscreenenter"",""1"",""2114""
","
","
","""event"",""trial"",""time""
""fullscreenenter"",""1"",""2114""
","
","","","","","","724.3000000715256","images/banana1.png","","","memory_trial","1","definitely_old",""
"html-keyboard-response","67","229376","0.0-18.0-0.12","5883","approach_avoid_sv1","""event"",""trial"",""time""
""fullscreenenter"",""1"",""2114""
","
","
","""event"",""trial"",""time""
""fullscreenenter"",""1"",""2114""
","
","","","","","","null","<div style=""font-size:60px;"">+</div>","null","","fixation","","",""
"memory-trial","68","231089","0.0-18.0-1.12","5883","approach_avoid_sv1","""event"",""trial"",""time""
""fullscreenenter"",""1"",""2114""
","
","
","""event"",""trial"",""time""
""fullscreenenter"",""1"",""2114""
","
","","","","","","698.1000000238419","images/goat3.png","","","memory_trial","1","definitely_old",""
"html-keyboard-response","69","231603","0.0-18.0-0.13","5883","approach_avoid_sv1","""event"",""trial"",""time""
""fullscreenenter"",""1"",""2114""
","
","
","""event"",""trial"",""time""
""fullscreenenter"",""1"",""2114""
","
","","","","","","null","<div style=""font-size:60px;"">+</div>","null","","fixation","","",""
"memory-trial","70","233820","0.0-18.0-1.13","5883","approach_avoid_sv1","""event"",""trial"",""time""
""fullscreenenter"",""1"",""2114""
","
","
","""event"",""trial"",""time""
""fullscreenenter"",""1"",""2114""
","
","","","","","","1205.6000000238419","images/horse7.png","","","memory_trial","1","definitely_old",""
"html-keyboard-response","71","234336","0.0-18.0-0.14","5883","approach_avoid_sv1","""event"",""trial"",""time""
""fullscreenenter"",""1"",""2114""
","
","
","""event"",""trial"",""time""
""fullscreenenter"",""1"",""2114""
","
","","","","","","null","<div style=""font-size:60px;"">+</div>","null","","fixation","","",""
"memory-trial","72","236180","0.0-18.0-1.14","5883","approach_avoid_sv1","""event"",""trial"",""time""
""fullscreenenter"",""1"",""2114""
","
","
","""event"",""trial"",""time""
""fullscreenenter"",""1"",""2114""
","
","","","","","","829.7999999523163","images/tree7.png","","","memory_trial","2","maybe_old",""
"html-keyboard-response","73","236689","0.0-18.0-0.15","5883","approach_avoid_sv1","""event"",""trial"",""time""
""fullscreenenter"",""1"",""2114""
","
","
","""event"",""trial"",""time""
""fullscreenenter"",""1"",""2114""
","
","","","","","","null","<div style=""font-size:60px;"">+</div>","null","","fixation","","",""
"memory-trial","74","238437","0.0-18.0-1.15","5883","approach_avoid_sv1","""event"",""trial"",""time""
""fullscreenenter"",""1"",""2114""
","
","
","""event"",""trial"",""time""
""fullscreenenter"",""1"",""2114""
","
","","","","","","737.4000000953674","images/horse1.png","","","memory_trial","1","definitely_old",""
"html-keyboard-response","75","238955","0.0-18.0-0.16","5883","approach_avoid_sv1","""event"",""trial"",""time""
""fullscreenenter"",""1"",""2114""
","
","
","""event"",""trial"",""time""
""fullscreenenter"",""1"",""2114""
","
","","","","","","null","<div style=""font-size:60px;"">+</div>","null","","fixation","","",""
"memory-trial","76","242375","0.0-18.0-1.16","5883","approach_avoid_sv1","""event"",""trial"",""time""
""fullscreenenter"",""1"",""2114""
","
","
","""event"",""trial"",""time""
""fullscreenenter"",""1"",""2114""
","
","","","","","","2410.7999999523163","images/cactus7.png","","","memory_trial","4","definitely_new",""
"html-keyboard-response","77","242892","0.0-18.0-0.17","5883","approach_avoid_sv1","""event"",""trial"",""time""
""fullscreenenter"",""1"",""2114""
","
","
","""event"",""trial"",""time""
""fullscreenenter"",""1"",""2114""
","
","","","","","","null","<div style=""font-size:60px;"">+</div>","null","","fixation","","",""
"memory-trial","78","244738","0.0-18.0-1.17","5883","approach_avoid_sv1","""event"",""trial"",""time""
""fullscreenenter"",""1"",""2114""
","
","
","""event"",""trial"",""time""
""fullscreenenter"",""1"",""2114""
","
","","","","","","830.8999999761581","images/rodent1.png","","","memory_trial","1","definitely_old",""
"html-keyboard-response","79","245250","0.0-18.0-0.18","5883","approach_avoid_sv1","""event"",""trial"",""time""
""fullscreenenter"",""1"",""2114""
","
","
","""event"",""trial"",""time""
""fullscreenenter"",""1"",""2114""
","
","","","","","","null","<div style=""font-size:60px;"">+</div>","null","","fixation","","",""
"memory-trial","80","247441","0.0-18.0-1.18","5883","approach_avoid_sv1","""event"",""trial"",""time""
""fullscreenenter"",""1"",""2114""
","
","
","""event"",""trial"",""time""
""fullscreenenter"",""1"",""2114""
","
","","","","","","1169.1999999284744","images/sheep5.png","","","memory_trial","4","definitely_new",""
"html-keyboard-response","81","247957","0.0-18.0-0.19","5883","approach_avoid_sv1","""event"",""trial"",""time""
""fullscreenenter"",""1"",""2114""
","
","
","""event"",""trial"",""time""
""fullscreenenter"",""1"",""2114""
","
","","","","","","null","<div style=""font-size:60px;"">+</div>","null","","fixation","","",""
"memory-trial","82","250187","0.0-18.0-1.19","5883","approach_avoid_sv1","""event"",""trial"",""time""
""fullscreenenter"",""1"",""2114""
","
","
","""event"",""trial"",""time""
""fullscreenenter"",""1"",""2114""
","
","","","","","","1204.3999999761581","images/cactus2.png","","","memory_trial","4","definitely_new",""
"html-keyboard-response","83","250695","0.0-18.0-0.20","5883","approach_avoid_sv1","""event"",""trial"",""time""
""fullscreenenter"",""1"",""2114""
","
","
","""event"",""trial"",""time""
""fullscreenenter"",""1"",""2114""
","
","","","","","","null","<div style=""font-size:60px;"">+</div>","null","","fixation","","",""
"memory-trial","84","252890","0.0-18.0-1.20","5883","approach_avoid_sv1","""event"",""trial"",""time""
""fullscreenenter"",""1"",""2114""
","
","
","""event"",""trial"",""time""
""fullscreenenter"",""1"",""2114""
","
","","","","","","1177.6999999284744","images/cat8.png","","","memory_trial","4","definitely_new",""
"html-keyboard-response","85","253401","0.0-18.0-0.21","5883","approach_avoid_sv1","""event"",""trial"",""time""
""fullscreenenter"",""1"",""2114""
","
","
","""event"",""trial"",""time""
""fullscreenenter"",""1"",""2114""
","
","","","","","","null","<div style=""font-size:60px;"">+</div>","null","","fixation","","",""
"memory-trial","86","255168","0.0-18.0-1.21","5883","approach_avoid_sv1","""event"",""trial"",""time""
""fullscreenenter"",""1"",""2114""
","
","
","""event"",""trial"",""time""
""fullscreenenter"",""1"",""2114""
","
","","","","","","755.5","images/goat8.png","","","memory_trial","1","definitely_old",""
"html-keyboard-response","87","255679","0.0-18.0-0.22","5883","approach_avoid_sv1","""event"",""trial"",""time""
""fullscreenenter"",""1"",""2114""
","
","
","""event"",""trial"",""time""
""fullscreenenter"",""1"",""2114""
","
","","","","","","null","<div style=""font-size:60px;"">+</div>","null","","fixation","","",""
"memory-trial","88","257935","0.0-18.0-1.22","5883","approach_avoid_sv1","""event"",""trial"",""time""
""fullscreenenter"",""1"",""2114""
","
","
","""event"",""trial"",""time""
""fullscreenenter"",""1"",""2114""
","
","","","","","","1245.3000000715256","images/train2.png","","","memory_trial","4","definitely_new",""
"html-keyboard-response","89","258447","0.0-18.0-0.23","5883","approach_avoid_sv1","""event"",""trial"",""time""
""fullscreenenter"",""1"",""2114""
","
","
","""event"",""trial"",""time""
""fullscreenenter"",""1"",""2114""
","
","","","","","","null","<div style=""font-size:60px;"">+</div>","null","","fixation","","",""
"memory-trial","90","261289","0.0-18.0-1.23","5883","approach_avoid_sv1","""event"",""trial"",""time""
""fullscreenenter"",""1"",""2114""
","
","
","""event"",""trial"",""time""
""fullscreenenter"",""1"",""2114""
","
","","","","","","1830.0999999046326","images/cat3.png","","","memory_trial","4","definitely_new",""
"html-keyboard-response","91","261804","0.0-18.0-0.24","5883","approach_avoid_sv1","""event"",""trial"",""time""
""fullscreenenter"",""1"",""2114""
","
","
","""event"",""trial"",""time""
""fullscreenenter"",""1"",""2114""
","
","","","","","","null","<div style=""font-size:60px;"">+</div>","null","","fixation","","",""
"memory-trial","92","263846","0.0-18.0-1.24","5883","approach_avoid_sv1","""event"",""trial"",""time""
""fullscreenenter"",""1"",""2114""
","
","
","""event"",""trial"",""time""
""fullscreenenter"",""1"",""2114""
","
","","","","","","1037.1000000238419","images/bed2.png","","","memory_trial","4","definitely_new",""
"html-keyboard-response","93","264364","0.0-18.0-0.25","5883","approach_avoid_sv1","""event"",""trial"",""time""
""fullscreenenter"",""1"",""2114""
","
","
","""event"",""trial"",""time""
""fullscreenenter"",""1"",""2114""
","
","","","","","","null","<div style=""font-size:60px;"">+</div>","null","","fixation","","",""
"memory-trial","94","266306","0.0-18.0-1.25","5883","approach_avoid_sv1","""event"",""trial"",""time""
""fullscreenenter"",""1"",""2114""
","
","
","""event"",""trial"",""time""
""fullscreenenter"",""1"",""2114""
","
","","","","","","928.5","images/dog1.png","","","memory_trial","1","definitely_old",""
"html-keyboard-response","95","266818","0.0-18.0-0.26","5883","approach_avoid_sv1","""event"",""trial"",""time""
""fullscreenenter"",""1"",""2114""
","
","
","""event"",""trial"",""time""
""fullscreenenter"",""1"",""2114""
","
","","","","","","null","<div style=""font-size:60px;"">+</div>","null","","fixation","","",""
"memory-trial","96","268742","0.0-18.0-1.26","5883","approach_avoid_sv1","""event"",""trial"",""time""
""fullscreenenter"",""1"",""2114""
","
","
","""event"",""trial"",""time""
""fullscreenenter"",""1"",""2114""
","
","","","","","","912.5","images/train1.png","","","memory_trial","4","definitely_new",""
"html-keyboard-response","97","269259","0.0-18.0-0.27","5883","approach_avoid_sv1","""event"",""trial"",""time""
""fullscreenenter"",""1"",""2114""
","
","
","""event"",""trial"",""time""
""fullscreenenter"",""1"",""2114""
","
","","","","","","null","<div style=""font-size:60px;"">+</div>","null","","fixation","","",""
"memory-trial","98","271138","0.0-18.0-1.27","5883","approach_avoid_sv1","""event"",""trial"",""time""
""fullscreenenter"",""1"",""2114""
","
","
","""event"",""trial"",""time""
""fullscreenenter"",""1"",""2114""
","
","","","","","","866.8000000715256","images/sofa1.png","","","memory_trial","1","definitely_old",""
"html-keyboard-response","99","271650","0.0-18.0-0.28","5883","approach_avoid_sv1","""event"",""trial"",""time""
""fullscreenenter"",""1"",""2114""
","
","
","""event"",""trial"",""time""
""fullscreenenter"",""1"",""2114""
","
","","","","","","null","<div style=""font-size:60px;"">+</div>","null","","fixation","","",""
"memory-trial","100","273430","0.0-18.0-1.28","5883","approach_avoid_sv1","""event"",""trial"",""time""
""fullscreenenter"",""1"",""2114""
","
","
","""event"",""trial"",""time""
""fullscreenenter"",""1"",""2114""
","
","","","","","","768.3000000715256","images/flower7.png","","","memory_trial","1","definitely_old",""
"html-keyboard-response","101","273935","0.0-18.0-0.29","5883","approach_avoid_sv1","""event"",""trial"",""time""
""fullscreenenter"",""1"",""2114""
","
","
","""event"",""trial"",""time""
""fullscreenenter"",""1"",""2114""
","
","","","","","","null","<div style=""font-size:60px;"">+</div>","null","","fixation","","",""
"memory-trial","102","277540","0.0-18.0-1.29","5883","approach_avoid_sv1","""event"",""trial"",""time""
""fullscreenenter"",""1"",""2114""
","
","
","""event"",""trial"",""time""
""fullscreenenter"",""1"",""2114""
","
","","","","","","2587","images/table6.png","","","memory_trial","1","definitely_old",""
"html-keyboard-response","103","278048","0.0-18.0-0.30","5883","approach_avoid_sv1","""event"",""trial"",""time""
""fullscreenenter"",""1"",""2114""
","
","
","""event"",""trial"",""time""
""fullscreenenter"",""1"",""2114""
","
","","","","","","null","<div style=""font-size:60px;"">+</div>","null","","fixation","","",""
"memory-trial","104","279884","0.0-18.0-1.30","5883","approach_avoid_sv1","""event"",""trial"",""time""
""fullscreenenter"",""1"",""2114""
","
","
","""event"",""trial"",""time""
""fullscreenenter"",""1"",""2114""
","
","","","","","","830.1999999284744","images/cactus5.png","","","memory_trial","4","definitely_new",""
"html-keyboard-response","105","280396","0.0-18.0-0.31","5883","approach_avoid_sv1","""event"",""trial"",""time""
""fullscreenenter"",""1"",""2114""
","
","
","""event"",""trial"",""time""
""fullscreenenter"",""1"",""2114""
","
","","","","","","null","<div style=""font-size:60px;"">+</div>","null","","fixation","","",""
"memory-trial","106","282242","0.0-18.0-1.31","5883","approach_avoid_sv1","""event"",""trial"",""time""
""fullscreenenter"",""1"",""2114""
","
","
","""event"",""trial"",""time""
""fullscreenenter"",""1"",""2114""
","
","","","","","","831.8000000715256","images/rabbit3.png","","","memory_trial","1","definitely_old",""
"html-keyboard-response","107","282750","0.0-18.0-0.32","5883","approach_avoid_sv1","""event"",""trial"",""time""
""fullscreenenter"",""1"",""2114""
","
","
","""event"",""trial"",""time""
""fullscreenenter"",""1"",""2114""
","
","","","","","","null","<div style=""font-size:60px;"">+</div>","null","","fixation","","",""
"memory-trial","108","284537","0.0-18.0-1.32","5883","approach_avoid_sv1","""event"",""trial"",""time""
""fullscreenenter"",""1"",""2114""
","
","
","""event"",""trial"",""time""
""fullscreenenter"",""1"",""2114""
","
","","","","","","777.3999999761581","images/rodent7.png","","","memory_trial","1","definitely_old",""
"html-keyboard-response","109","285049","0.0-18.0-0.33","5883","approach_avoid_sv1","""event"",""trial"",""time""
""fullscreenenter"",""1"",""2114""
","
","
","""event"",""trial"",""time""
""fullscreenenter"",""1"",""2114""
","
","","","","","","null","<div style=""font-size:60px;"">+</div>","null","","fixation","","",""
"memory-trial","110","288957","0.0-18.0-1.33","5883","approach_avoid_sv1","""event"",""trial"",""time""
""fullscreenenter"",""1"",""2114""
","
","
","""event"",""trial"",""time""
""fullscreenenter"",""1"",""2114""
","
","","","","","","2904.100000023842","images/rodent5.png","","","memory_trial","1","definitely_old",""
"html-keyboard-response","111","289472","0.0-18.0-0.34","5883","approach_avoid_sv1","""event"",""trial"",""time""
""fullscreenenter"",""1"",""2114""
","
","
","""event"",""trial"",""time""
""fullscreenenter"",""1"",""2114""
","
","","","","","","null","<div style=""font-size:60px;"">+</div>","null","","fixation","","",""
"memory-trial","112","291217","0.0-18.0-1.34","5883","approach_avoid_sv1","""event"",""trial"",""time""
""fullscreenenter"",""1"",""2114""
","
","
","""event"",""trial"",""time""
""fullscreenenter"",""1"",""2114""
","
","","","","","","735.3999999761581","images/cactus3.png","","","memory_trial","4","definitely_new",""
"html-keyboard-response","113","291726","0.0-18.0-0.35","5883","approach_avoid_sv1","""event"",""trial"",""time""
""fullscreenenter"",""1"",""2114""
","
","
","""event"",""trial"",""time""
""fullscreenenter"",""1"",""2114""
","
","","","","","","null","<div style=""font-size:60px;"">+</div>","null","","fixation","","",""
"memory-trial","114","293341","0.0-18.0-1.35","5883","approach_avoid_sv1","""event"",""trial"",""time""
""fullscreenenter"",""1"",""2114""
","
","
","""event"",""trial"",""time""
""fullscreenenter"",""1"",""2114""
","
","","","","","","601.2000000476837","images/rodent4.png","","","memory_trial","4","definitely_new",""
"html-keyboard-response","115","293846","0.0-18.0-0.36","5883","approach_avoid_sv1","""event"",""trial"",""time""
""fullscreenenter"",""1"",""2114""
","
","
","""event"",""trial"",""time""
""fullscreenenter"",""1"",""2114""
","
","","","","","","null","<div style=""font-size:60px;"">+</div>","null","","fixation","","",""
"memory-trial","116","295723","0.0-18.0-1.36","5883","approach_avoid_sv1","""event"",""trial"",""time""
""fullscreenenter"",""1"",""2114""
","
","
","""event"",""trial"",""time""
""fullscreenenter"",""1"",""2114""
","
","","","","","","857.8000000715256","images/sheep8.png","","","memory_trial","4","definitely_new",""
"html-keyboard-response","117","296233","0.0-18.0-0.37","5883","approach_avoid_sv1","""event"",""trial"",""time""
""fullscreenenter"",""1"",""2114""
","
","
","""event"",""trial"",""time""
""fullscreenenter"",""1"",""2114""
","
","","","","","","null","<div style=""font-size:60px;"">+</div>","null","","fixation","","",""
"memory-trial","118","298873","0.0-18.0-1.37","5883","approach_avoid_sv1","""event"",""trial"",""time""
""fullscreenenter"",""1"",""2114""
","
","
","""event"",""trial"",""time""
""fullscreenenter"",""1"",""2114""
","
","","","","","","1626.5","images/chair5.png","","","memory_trial","4","definitely_new",""
"html-keyboard-response","119","299385","0.0-18.0-0.38","5883","approach_avoid_sv1","""event"",""trial"",""time""
""fullscreenenter"",""1"",""2114""
","
","
","""event"",""trial"",""time""
""fullscreenenter"",""1"",""2114""
","
","","","","","","null","<div style=""font-size:60px;"">+</div>","null","","fixation","","",""
"memory-trial","120","302125","0.0-18.0-1.38","5883","approach_avoid_sv1","""event"",""trial"",""time""
""fullscreenenter"",""1"",""2114""
","
","
","""event"",""trial"",""time""
""fullscreenenter"",""1"",""2114""
","
","","","","","","1726.2999999523163","images/plane3.png","","","memory_trial","2","maybe_old",""
"html-keyboard-response","121","302634","0.0-18.0-0.39","5883","approach_avoid_sv1","""event"",""trial"",""time""
""fullscreenenter"",""1"",""2114""
","
","
","""event"",""trial"",""time""
""fullscreenenter"",""1"",""2114""
","
","","","","","","null","<div style=""font-size:60px;"">+</div>","null","","fixation","","",""
"memory-trial","122","304831","0.0-18.0-1.39","5883","approach_avoid_sv1","""event"",""trial"",""time""
""fullscreenenter"",""1"",""2114""
","
","
","""event"",""trial"",""time""
""fullscreenenter"",""1"",""2114""
","
","","","","","","1192","images/apple2.png","","","memory_trial","1","definitely_old",""
"html-keyboard-response","123","305348","0.0-18.0-0.40","5883","approach_avoid_sv1","""event"",""trial"",""time""
""fullscreenenter"",""1"",""2114""
","
","
","""event"",""trial"",""time""
""fullscreenenter"",""1"",""2114""
","
","","","","","","null","<div style=""font-size:60px;"">+</div>","null","","fixation","","",""
"memory-trial","124","307735","0.0-18.0-1.40","5883","approach_avoid_sv1","""event"",""trial"",""time""
""fullscreenenter"",""1"",""2114""
","
","
","""event"",""trial"",""time""
""fullscreenenter"",""1"",""2114""
","
","","","","","","1380.7999999523163","images/table3.png","","","memory_trial","1","definitely_old",""
"html-keyboard-response","125","308243","0.0-18.0-0.41","5883","approach_avoid_sv1","""event"",""trial"",""time""
""fullscreenenter"",""1"",""2114""
","
","
","""event"",""trial"",""time""
""fullscreenenter"",""1"",""2114""
","
","","","","","","null","<div style=""font-size:60px;"">+</div>","null","","fixation","","",""
"memory-trial","126","311013","0.0-18.0-1.41","5883","approach_avoid_sv1","""event"",""trial"",""time""
""fullscreenenter"",""1"",""2114""
","
","
","""event"",""trial"",""time""
""fullscreenenter"",""1"",""2114""
","
","","","","","","1755.6999999284744","images/plane2.png","","","memory_trial","1","definitely_old",""
"html-button-response","127","312833","0.0-18.0-2.41-0.41","5883","approach_avoid_sv1","""event"",""trial"",""time""
""fullscreenenter"",""1"",""2114""
","
","
","""event"",""trial"",""time""
""fullscreenenter"",""1"",""2114""
","
","","","","","","1818.2999999523163","<p> Take a break! </p><p> Click the button to continue. </p>","0","","break","","",""
"html-keyboard-response","128","313337","0.0-18.0-0.42","5883","approach_avoid_sv1","""event"",""trial"",""time""
""fullscreenenter"",""1"",""2114""
","
","
","""event"",""trial"",""time""
""fullscreenenter"",""1"",""2114""
","
","","","","","","null","<div style=""font-size:60px;"">+</div>","null","","fixation","","",""
"memory-trial","129","315940","0.0-18.0-1.42","5883","approach_avoid_sv1","""event"",""trial"",""time""
""fullscreenenter"",""1"",""2114""
","
","
","""event"",""trial"",""time""
""fullscreenenter"",""1"",""2114""
","
","","","","","","1593.8000000715256","images/cow7.png","","","memory_trial","1","definitely_old",""
"html-keyboard-response","130","316448","0.0-18.0-0.43","5883","approach_avoid_sv1","""event"",""trial"",""time""
""fullscreenenter"",""1"",""2114""
","
","
","""event"",""trial"",""time""
""fullscreenenter"",""1"",""2114""
","
","","","","","","null","<div style=""font-size:60px;"">+</div>","null","","fixation","","",""
"memory-trial","131","318830","0.0-18.0-1.43","5883","approach_avoid_sv1","""event"",""trial"",""time""
""fullscreenenter"",""1"",""2114""
","
","
","""event"",""trial"",""time""
""fullscreenenter"",""1"",""2114""
","
","","","","","","1364.6999999284744","images/horse2.png","","","memory_trial","1","definitely_old",""
"html-keyboard-response","132","319349","0.0-18.0-0.44","5883","approach_avoid_sv1","""event"",""trial"",""time""
""fullscreenenter"",""1"",""2114""
","
","
","""event"",""trial"",""time""
""fullscreenenter"",""1"",""2114""
","
","","","","","","null","<div style=""font-size:60px;"">+</div>","null","","fixation","","",""
"memory-trial","133","321920","0.0-18.0-1.44","5883","approach_avoid_sv1","""event"",""trial"",""time""
""fullscreenenter"",""1"",""2114""
","
","
","""event"",""trial"",""time""
""fullscreenenter"",""1"",""2114""
","
","","","","","","1560.7000000476837","images/flower8.png","","","memory_trial","3","maybe_new",""
"html-keyboard-response","134","322429","0.0-18.0-0.45","5883","approach_avoid_sv1","""event"",""trial"",""time""
""fullscreenenter"",""1"",""2114""
","
","
","""event"",""trial"",""time""
""fullscreenenter"",""1"",""2114""
","
","","","","","","null","<div style=""font-size:60px;"">+</div>","null","","fixation","","",""
"memory-trial","135","324159","0.0-18.0-1.45","5883","approach_avoid_sv1","""event"",""trial"",""time""
""fullscreenenter"",""1"",""2114""
","
","
","""event"",""trial"",""time""
""fullscreenenter"",""1"",""2114""
","
","","","","","","720.9000000953674","images/truck6.png","","","memory_trial","3","maybe_new",""
"html-keyboard-response","136","324663","0.0-18.0-0.46","5883","approach_avoid_sv1","""event"",""trial"",""time""
""fullscreenenter"",""1"",""2114""
","
","
","""event"",""trial"",""time""
""fullscreenenter"",""1"",""2114""
","
","","","","","","null","<div style=""font-size:60px;"">+</div>","null","","fixation","","",""
"memory-trial","137","327173","0.0-18.0-1.46","5883","approach_avoid_sv1","""event"",""trial"",""time""
""fullscreenenter"",""1"",""2114""
","
","
","""event"",""trial"",""time""
""fullscreenenter"",""1"",""2114""
","
","","","","","","1485.7000000476837","images/banana5.png","","","memory_trial","2","maybe_old",""
"html-keyboard-response","138","327682","0.0-18.0-0.47","5883","approach_avoid_sv1","""event"",""trial"",""time""
""fullscreenenter"",""1"",""2114""
","
","
","""event"",""trial"",""time""
""fullscreenenter"",""1"",""2114""
","
","","","","","","null","<div style=""font-size:60px;"">+</div>","null","","fixation","","",""
"memory-trial","139","329574","0.0-18.0-1.47","5883","approach_avoid_sv1","""event"",""trial"",""time""
""fullscreenenter"",""1"",""2114""
","
","
","""event"",""trial"",""time""
""fullscreenenter"",""1"",""2114""
","
","","","","","","878.2999999523163","images/banana4.png","","","memory_trial","1","definitely_old",""
"html-keyboard-response","140","330083","0.0-18.0-0.48","5883","approach_avoid_sv1","""event"",""trial"",""time""
""fullscreenenter"",""1"",""2114""
","
","
","""event"",""trial"",""time""
""fullscreenenter"",""1"",""2114""
","
","","","","","","null","<div style=""font-size:60px;"">+</div>","null","","fixation","","",""
"memory-trial","141","331846","0.0-18.0-1.48","5883","approach_avoid_sv1","""event"",""trial"",""time""
""fullscreenenter"",""1"",""2114""
","
","
","""event"",""trial"",""time""
""fullscreenenter"",""1"",""2114""
","
","","","","","","761.2999999523163","images/boat7.png","","","memory_trial","1","definitely_old",""
"html-keyboard-response","142","332358","0.0-18.0-0.49","5883","approach_avoid_sv1","""event"",""trial"",""time""
""fullscreenenter"",""1"",""2114""
","
","
","""event"",""trial"",""time""
""fullscreenenter"",""1"",""2114""
","
","","","","","","null","<div style=""font-size:60px;"">+</div>","null","","fixation","","",""
"memory-trial","143","334696","0.0-18.0-1.49","5883","approach_avoid_sv1","""event"",""trial"",""time""
""fullscreenenter"",""1"",""2114""
","
","
","""event"",""trial"",""time""
""fullscreenenter"",""1"",""2114""
","
","","","","","","1329.3999999761581","images/horse3.png","","","memory_trial","3","maybe_new",""
"html-keyboard-response","144","335214","0.0-18.0-0.50","5883","approach_avoid_sv1","""event"",""trial"",""time""
""fullscreenenter"",""1"",""2114""
","
","
","""event"",""trial"",""time""
""fullscreenenter"",""1"",""2114""
","
","","","","","","null","<div style=""font-size:60px;"">+</div>","null","","fixation","","",""
"memory-trial","145","337132","0.0-18.0-1.50","5883","approach_avoid_sv1","""event"",""trial"",""time""
""fullscreenenter"",""1"",""2114""
","
","
","""event"",""trial"",""time""
""fullscreenenter"",""1"",""2114""
","
","","","","","","905.2999999523163","images/truck3.png","","","memory_trial","3","maybe_new",""
"html-keyboard-response","146","337642","0.0-18.0-0.51","5883","approach_avoid_sv1","""event"",""trial"",""time""
""fullscreenenter"",""1"",""2114""
","
","
","""event"",""trial"",""time""
""fullscreenenter"",""1"",""2114""
","
","","","","","","null","<div style=""font-size:60px;"">+</div>","null","","fixation","","",""
"memory-trial","147","339652","0.0-18.0-1.51","5883","approach_avoid_sv1","""event"",""trial"",""time""
""fullscreenenter"",""1"",""2114""
","
","
","""event"",""trial"",""time""
""fullscreenenter"",""1"",""2114""
","
","","","","","","1001.5","images/chair2.png","","","memory_trial","3","maybe_new",""
"html-keyboard-response","148","340158","0.0-18.0-0.52","5883","approach_avoid_sv1","""event"",""trial"",""time""
""fullscreenenter"",""1"",""2114""
","
","
","""event"",""trial"",""time""
""fullscreenenter"",""1"",""2114""
","
","","","","","","null","<div style=""font-size:60px;"">+</div>","null","","fixation","","",""
"memory-trial","149","341957","0.0-18.0-1.52","5883","approach_avoid_sv1","""event"",""trial"",""time""
""fullscreenenter"",""1"",""2114""
","
","
","""event"",""trial"",""time""
""fullscreenenter"",""1"",""2114""
","
","","","","","","778.1000000238419","images/tree4.png","","","memory_trial","3","maybe_new",""
"html-keyboard-response","150","342474","0.0-18.0-0.53","5883","approach_avoid_sv1","""event"",""trial"",""time""
""fullscreenenter"",""1"",""2114""
","
","
","""event"",""trial"",""time""
""fullscreenenter"",""1"",""2114""
","
","","","","","","null","<div style=""font-size:60px;"">+</div>","null","","fixation","","",""
"memory-trial","151","344356","0.0-18.0-1.53","5883","approach_avoid_sv1","""event"",""trial"",""time""
""fullscreenenter"",""1"",""2114""
","
","
","""event"",""trial"",""time""
""fullscreenenter"",""1"",""2114""
","
","","","","","","866.8000000715256","images/cat1.png","","","memory_trial","4","definitely_new",""
"html-keyboard-response","152","344874","0.0-18.0-0.54","5883","approach_avoid_sv1","""event"",""trial"",""time""
""fullscreenenter"",""1"",""2114""
","
","
","""event"",""trial"",""time""
""fullscreenenter"",""1"",""2114""
","
","","","","","","null","<div style=""font-size:60px;"">+</div>","null","","fixation","","",""
"memory-trial","153","346615","0.0-18.0-1.54","5883","approach_avoid_sv1","""event"",""trial"",""time""
""fullscreenenter"",""1"",""2114""
","
","
","""event"",""trial"",""time""
""fullscreenenter"",""1"",""2114""
","
","","","","","","730.1000000238419","images/table1.png","","","memory_trial","4","definitely_new",""
"html-keyboard-response","154","347123","0.0-18.0-0.55","5883","approach_avoid_sv1","""event"",""trial"",""time""
""fullscreenenter"",""1"",""2114""
","
","
","""event"",""trial"",""time""
""fullscreenenter"",""1"",""2114""
","
","","","","","","null","<div style=""font-size:60px;"">+</div>","null","","fixation","","",""
"memory-trial","155","349183","0.0-18.0-1.55","5883","approach_avoid_sv1","""event"",""trial"",""time""
""fullscreenenter"",""1"",""2114""
","
","
","""event"",""trial"",""time""
""fullscreenenter"",""1"",""2114""
","
","","","","","","1048.9000000953674","images/cactus4.png","","","memory_trial","4","definitely_new",""
"html-keyboard-response","156","349691","0.0-18.0-0.56","5883","approach_avoid_sv1","""event"",""trial"",""time""
""fullscreenenter"",""1"",""2114""
","
","
","""event"",""trial"",""time""
""fullscreenenter"",""1"",""2114""
","
","","","","","","null","<div style=""font-size:60px;"">+</div>","null","","fixation","","",""
"memory-trial","157","353252","0.0-18.0-1.56","5883","approach_avoid_sv1","""event"",""trial"",""time""
""fullscreenenter"",""1"",""2114""
","
","
","""event"",""trial"",""time""
""fullscreenenter"",""1"",""2114""
","
","","","","","","2544","images/apple3.png","","","memory_trial","3","maybe_new",""
"html-keyboard-response","158","353763","0.0-18.0-0.57","5883","approach_avoid_sv1","""event"",""trial"",""time""
""fullscreenenter"",""1"",""2114""
","
","
","""event"",""trial"",""time""
""fullscreenenter"",""1"",""2114""
","
","","","","","","null","<div style=""font-size:60px;"">+</div>","null","","fixation","","",""
"memory-trial","159","356170","0.0-18.0-1.57","5883","approach_avoid_sv1","""event"",""trial"",""time""
""fullscreenenter"",""1"",""2114""
","
","
","""event"",""trial"",""time""
""fullscreenenter"",""1"",""2114""
","
","","","","","","1395","images/chair8.png","","","memory_trial","2","maybe_old",""
"html-keyboard-response","160","356681","0.0-18.0-0.58","5883","approach_avoid_sv1","""event"",""trial"",""time""
""fullscreenenter"",""1"",""2114""
","
","
","""event"",""trial"",""time""
""fullscreenenter"",""1"",""2114""
","
","","","","","","null","<div style=""font-size:60px;"">+</div>","null","","fixation","","",""
"memory-trial","161","358813","0.0-18.0-1.58","5883","approach_avoid_sv1","""event"",""trial"",""time""
""fullscreenenter"",""1"",""2114""
","
","
","""event"",""trial"",""time""
""fullscreenenter"",""1"",""2114""
","
","","","","","","1119.2000000476837","images/bush2.png","","","memory_trial","1","definitely_old",""
"html-keyboard-response","162","359324","0.0-18.0-0.59","5883","approach_avoid_sv1","""event"",""trial"",""time""
""fullscreenenter"",""1"",""2114""
","
","
","""event"",""trial"",""time""
""fullscreenenter"",""1"",""2114""
","
","","","","","","null","<div style=""font-size:60px;"">+</div>","null","","fixation","","",""
"memory-trial","163","360993","0.0-18.0-1.59","5883","approach_avoid_sv1","""event"",""trial"",""time""
""fullscreenenter"",""1"",""2114""
","
","
","""event"",""trial"",""time""
""fullscreenenter"",""1"",""2114""
","
","","","","","","656.9000000953674","images/cactus1.png","","","memory_trial","4","definitely_new",""
"html-keyboard-response","164","361502","0.0-18.0-0.60","5883","approach_avoid_sv1","""event"",""trial"",""time""
""fullscreenenter"",""1"",""2114""
","
","
","""event"",""trial"",""time""
""fullscreenenter"",""1"",""2114""
","
","","","","","","null","<div style=""font-size:60px;"">+</div>","null","","fixation","","",""
"memory-trial","165","364170","0.0-18.0-1.60","5883","approach_avoid_sv1","""event"",""trial"",""time""
""fullscreenenter"",""1"",""2114""
","
","
","""event"",""trial"",""time""
""fullscreenenter"",""1"",""2114""
","
","","","","","","1655.3999999761581","images/orange8.png","","","memory_trial","2","maybe_old",""
"html-keyboard-response","166","364687","0.0-18.0-0.61","5883","approach_avoid_sv1","""event"",""trial"",""time""
""fullscreenenter"",""1"",""2114""
","
","
","""event"",""trial"",""time""
""fullscreenenter"",""1"",""2114""
","
","","","","","","null","<div style=""font-size:60px;"">+</div>","null","","fixation","","",""
"memory-trial","167","366829","0.0-18.0-1.61","5883","approach_avoid_sv1","""event"",""trial"",""time""
""fullscreenenter"",""1"",""2114""
","
","
","""event"",""trial"",""time""
""fullscreenenter"",""1"",""2114""
","
","","","","","","1134.6000000238419","images/truck5.png","","","memory_trial","1","definitely_old",""
"html-keyboard-response","168","367338","0.0-18.0-0.62","5883","approach_avoid_sv1","""event"",""trial"",""time""
""fullscreenenter"",""1"",""2114""
","
","
","""event"",""trial"",""time""
""fullscreenenter"",""1"",""2114""
","
","","","","","","null","<div style=""font-size:60px;"">+</div>","null","","fixation","","",""
"memory-trial","169","370263","0.0-18.0-1.62","5883","approach_avoid_sv1","""event"",""trial"",""time""
""fullscreenenter"",""1"",""2114""
","
","
","""event"",""trial"",""time""
""fullscreenenter"",""1"",""2114""
","
","","","","","","1912.0999999046326","images/cow8.png","","","memory_trial","3","maybe_new",""
"html-keyboard-response","170","370771","0.0-18.0-0.63","5883","approach_avoid_sv1","""event"",""trial"",""time""
""fullscreenenter"",""1"",""2114""
","
","
","""event"",""trial"",""time""
""fullscreenenter"",""1"",""2114""
","
","","","","","","null","<div style=""font-size:60px;"">+</div>","null","","fixation","","",""
"memory-trial","171","372844","0.0-18.0-1.63","5883","approach_avoid_sv1","""event"",""trial"",""time""
""fullscreenenter"",""1"",""2114""
","
","
","""event"",""trial"",""time""
""fullscreenenter"",""1"",""2114""
","
","","","","","","1062.2999999523163","images/orange1.png","","","memory_trial","3","maybe_new",""
"html-keyboard-response","172","373354","0.0-18.0-0.64","5883","approach_avoid_sv1","""event"",""trial"",""time""
""fullscreenenter"",""1"",""2114""
","
","
","""event"",""trial"",""time""
""fullscreenenter"",""1"",""2114""
","
","","","","","","null","<div style=""font-size:60px;"">+</div>","null","","fixation","","",""
"memory-trial","173","376457","0.0-18.0-1.64","5883","approach_avoid_sv1","""event"",""trial"",""time""
""fullscreenenter"",""1"",""2114""
","
","
","""event"",""trial"",""time""
""fullscreenenter"",""1"",""2114""
","
","","","","","","2086","images/bush6.png","","","memory_trial","2","maybe_old",""
"html-keyboard-response","174","376967","0.0-18.0-0.65","5883","approach_avoid_sv1","""event"",""trial"",""time""
""fullscreenenter"",""1"",""2114""
","
","
","""event"",""trial"",""time""
""fullscreenenter"",""1"",""2114""
","
","","","","","","null","<div style=""font-size:60px;"">+</div>","null","","fixation","","",""
"memory-trial","175","379044","0.0-18.0-1.65","5883","approach_avoid_sv1","""event"",""trial"",""time""
""fullscreenenter"",""1"",""2114""
","
","
","""event"",""trial"",""time""
""fullscreenenter"",""1"",""2114""
","
","","","","","","1069.1999999284744","images/train4.png","","","memory_trial","4","definitely_new",""
"html-keyboard-response","176","379552","0.0-18.0-0.66","5883","approach_avoid_sv1","""event"",""trial"",""time""
""fullscreenenter"",""1"",""2114""
","
","
","""event"",""trial"",""time""
""fullscreenenter"",""1"",""2114""
","
","","","","","","null","<div style=""font-size:60px;"">+</div>","null","","fixation","","",""
"memory-trial","177","382283","0.0-18.0-1.66","5883","approach_avoid_sv1","""event"",""trial"",""time""
""fullscreenenter"",""1"",""2114""
","
","
","""event"",""trial"",""time""
""fullscreenenter"",""1"",""2114""
","
","","","","","","1716.3999999761581","images/sheep7.png","","","memory_trial","3","maybe_new",""
"html-keyboard-response","178","382791","0.0-18.0-0.67","5883","approach_avoid_sv1","""event"",""trial"",""time""
""fullscreenenter"",""1"",""2114""
","
","
","""event"",""trial"",""time""
""fullscreenenter"",""1"",""2114""
","
","","","","","","null","<div style=""font-size:60px;"">+</div>","null","","fixation","","",""
"memory-trial","179","384890","0.0-18.0-1.67","5883","approach_avoid_sv1","""event"",""trial"",""time""
""fullscreenenter"",""1"",""2114""
","
","
","""event"",""trial"",""time""
""fullscreenenter"",""1"",""2114""
","
","","","","","","1075.5","images/rabbit7.png","","","memory_trial","2","maybe_old",""
"html-keyboard-response","180","385399","0.0-18.0-0.68","5883","approach_avoid_sv1","""event"",""trial"",""time""
""fullscreenenter"",""1"",""2114""
","
","
","""event"",""trial"",""time""
""fullscreenenter"",""1"",""2114""
","
","","","","","","null","<div style=""font-size:60px;"">+</div>","null","","fixation","","",""
"memory-trial","181","387131","0.0-18.0-1.68","5883","approach_avoid_sv1","""event"",""trial"",""time""
""fullscreenenter"",""1"",""2114""
","
","
","""event"",""trial"",""time""
""fullscreenenter"",""1"",""2114""
","
","","","","","","720.1999999284744","images/boat5.png","","","memory_trial","1","definitely_old",""
"html-keyboard-response","182","387641","0.0-18.0-0.69","5883","approach_avoid_sv1","""event"",""trial"",""time""
""fullscreenenter"",""1"",""2114""
","
","
","""event"",""trial"",""time""
""fullscreenenter"",""1"",""2114""
","
","","","","","","null","<div style=""font-size:60px;"">+</div>","null","","fixation","","",""
"memory-trial","183","389733","0.0-18.0-1.69","5883","approach_avoid_sv1","""event"",""trial"",""time""
""fullscreenenter"",""1"",""2114""
","
","
","""event"",""trial"",""time""
""fullscreenenter"",""1"",""2114""
","
","","","","","","1081.3999999761581","images/bed5.png","","","memory_trial","4","definitely_new",""
"html-keyboard-response","184","390250","0.0-18.0-0.70","5883","approach_avoid_sv1","""event"",""trial"",""time""
""fullscreenenter"",""1"",""2114""
","
","
","""event"",""trial"",""time""
""fullscreenenter"",""1"",""2114""
","
","","","","","","null","<div style=""font-size:60px;"">+</div>","null","","fixation","","",""
"memory-trial","185","392476","0.0-18.0-1.70","5883","approach_avoid_sv1","""event"",""trial"",""time""
""fullscreenenter"",""1"",""2114""
","
","
","""event"",""trial"",""time""
""fullscreenenter"",""1"",""2114""
","
","","","","","","1218.2000000476837","images/straw8.png","","","memory_trial","1","definitely_old",""
"html-keyboard-response","186","392986","0.0-18.0-0.71","5883","approach_avoid_sv1","""event"",""trial"",""time""
""fullscreenenter"",""1"",""2114""
","
","
","""event"",""trial"",""time""
""fullscreenenter"",""1"",""2114""
","
","","","","","","null","<div style=""font-size:60px;"">+</div>","null","","fixation","","",""
"memory-trial","187","394971","0.0-18.0-1.71","5883","approach_avoid_sv1","""event"",""trial"",""time""
""fullscreenenter"",""1"",""2114""
","
","
","""event"",""trial"",""time""
""fullscreenenter"",""1"",""2114""
","
","","","","","","981.3000000715256","images/horse4.png","","","memory_trial","3","maybe_new",""
"html-keyboard-response","188","395481","0.0-18.0-0.72","5883","approach_avoid_sv1","""event"",""trial"",""time""
""fullscreenenter"",""1"",""2114""
","
","
","""event"",""trial"",""time""
""fullscreenenter"",""1"",""2114""
","
","","","","","","null","<div style=""font-size:60px;"">+</div>","null","","fixation","","",""
"memory-trial","189","397160","0.0-18.0-1.72","5883","approach_avoid_sv1","""event"",""trial"",""time""
""fullscreenenter"",""1"",""2114""
","
","
","""event"",""trial"",""time""
""fullscreenenter"",""1"",""2114""
","
","","","","","","670.3000000715256","images/train8.png","","","memory_trial","3","maybe_new",""
"html-keyboard-response","190","397672","0.0-18.0-0.73","5883","approach_avoid_sv1","""event"",""trial"",""time""
""fullscreenenter"",""1"",""2114""
","
","
","""event"",""trial"",""time""
""fullscreenenter"",""1"",""2114""
","
","","","","","","null","<div style=""font-size:60px;"">+</div>","null","","fixation","","",""
"memory-trial","191","400713","0.0-18.0-1.73","5883","approach_avoid_sv1","""event"",""trial"",""time""
""fullscreenenter"",""1"",""2114""
","
","
","""event"",""trial"",""time""
""fullscreenenter"",""1"",""2114""
","
","","","","","","2024.7999999523163","images/cow6.png","","","memory_trial","4","definitely_new",""
"html-keyboard-response","192","401222","0.0-18.0-0.74","5883","approach_avoid_sv1","""event"",""trial"",""time""
""fullscreenenter"",""1"",""2114""
","
","
","""event"",""trial"",""time""
""fullscreenenter"",""1"",""2114""
","
","","","","","","null","<div style=""font-size:60px;"">+</div>","null","","fixation","","",""
"memory-trial","193","403234","0.0-18.0-1.74","5883","approach_avoid_sv1","""event"",""trial"",""time""
""fullscreenenter"",""1"",""2114""
","
","
","""event"",""trial"",""time""
""fullscreenenter"",""1"",""2114""
","
","","","","","","1006.7000000476837","images/banana8.png","","","memory_trial","4","definitely_new",""
"html-keyboard-response","194","403741","0.0-18.0-0.75","5883","approach_avoid_sv1","""event"",""trial"",""time""
""fullscreenenter"",""1"",""2114""
","
","
","""event"",""trial"",""time""
""fullscreenenter"",""1"",""2114""
","
","","","","","","null","<div style=""font-size:60px;"">+</div>","null","","fixation","","",""
"memory-trial","195","405716","0.0-18.0-1.75","5883","approach_avoid_sv1","""event"",""trial"",""time""
""fullscreenenter"",""1"",""2114""
","
","
","""event"",""trial"",""time""
""fullscreenenter"",""1"",""2114""
","
","","","","","","956.8999999761581","images/sheep6.png","","","memory_trial","4","definitely_new",""
"html-keyboard-response","196","406221","0.0-18.0-0.76","5883","approach_avoid_sv1","""event"",""trial"",""time""
""fullscreenenter"",""1"",""2114""
","
","
","""event"",""trial"",""time""
""fullscreenenter"",""1"",""2114""
","
","","","","","","null","<div style=""font-size:60px;"">+</div>","null","","fixation","","",""
"memory-trial","197","408309","0.0-18.0-1.76","5883","approach_avoid_sv1","""event"",""trial"",""time""
""fullscreenenter"",""1"",""2114""
","
","
","""event"",""trial"",""time""
""fullscreenenter"",""1"",""2114""
","
","","","","","","1080.7000000476837","images/orange5.png","","","memory_trial","2","maybe_old",""
"html-keyboard-response","198","408817","0.0-18.0-0.77","5883","approach_avoid_sv1","""event"",""trial"",""time""
""fullscreenenter"",""1"",""2114""
","
","
","""event"",""trial"",""time""
""fullscreenenter"",""1"",""2114""
","
","","","","","","null","<div style=""font-size:60px;"">+</div>","null","","fixation","","",""
"memory-trial","199","410414","0.0-18.0-1.77","5883","approach_avoid_sv1","""event"",""trial"",""time""
""fullscreenenter"",""1"",""2114""
","
","
","""event"",""trial"",""time""
""fullscreenenter"",""1"",""2114""
","
","","","","","","588.2000000476837","images/rabbit6.png","","","memory_trial","4","definitely_new",""
"html-keyboard-response","200","410928","0.0-18.0-0.78","5883","approach_avoid_sv1","""event"",""trial"",""time""
""fullscreenenter"",""1"",""2114""
","
","
","""event"",""trial"",""time""
""fullscreenenter"",""1"",""2114""
","
","","","","","","null","<div style=""font-size:60px;"">+</div>","null","","fixation","","",""
"memory-trial","201","413266","0.0-18.0-1.78","5883","approach_avoid_sv1","""event"",""trial"",""time""
""fullscreenenter"",""1"",""2114""
","
","
","""event"",""trial"",""time""
""fullscreenenter"",""1"",""2114""
","
","","","","","","1334.3000000715256","images/apple8.png","","","memory_trial","1","definitely_old",""
"html-keyboard-response","202","413771","0.0-18.0-0.79","5883","approach_avoid_sv1","""event"",""trial"",""time""
""fullscreenenter"",""1"",""2114""
","
","
","""event"",""trial"",""time""
""fullscreenenter"",""1"",""2114""
","
","","","","","","null","<div style=""font-size:60px;"">+</div>","null","","fixation","","",""
"memory-trial","203","416125","0.0-18.0-1.79","5883","approach_avoid_sv1","""event"",""trial"",""time""
""fullscreenenter"",""1"",""2114""
","
","
","""event"",""trial"",""time""
""fullscreenenter"",""1"",""2114""
","
","","","","","","1344.6000000238419","images/chair6.png","","","memory_trial","2","maybe_old",""
"html-keyboard-response","204","416647","0.0-18.0-0.80","5883","approach_avoid_sv1","""event"",""trial"",""time""
""fullscreenenter"",""1"",""2114""
","
","
","""event"",""trial"",""time""
""fullscreenenter"",""1"",""2114""
","
","","","","","","null","<div style=""font-size:60px;"">+</div>","null","","fixation","","",""
"memory-trial","205","418613","0.0-18.0-1.80","5883","approach_avoid_sv1","""event"",""trial"",""time""
""fullscreenenter"",""1"",""2114""
","
","
","""event"",""trial"",""time""
""fullscreenenter"",""1"",""2114""
","
","","","","","","952.5","images/train3.png","","","memory_trial","4","definitely_new",""
"html-keyboard-response","206","419130","0.0-18.0-0.81","5883","approach_avoid_sv1","""event"",""trial"",""time""
""fullscreenenter"",""1"",""2114""
","
","
","""event"",""trial"",""time""
""fullscreenenter"",""1"",""2114""
","
","","","","","","null","<div style=""font-size:60px;"">+</div>","null","","fixation","","",""
"memory-trial","207","421353","0.0-18.0-1.81","5883","approach_avoid_sv1","""event"",""trial"",""time""
""fullscreenenter"",""1"",""2114""
","
","
","""event"",""trial"",""time""
""fullscreenenter"",""1"",""2114""
","
","","","","","","1213.5","images/tree6.png","","","memory_trial","3","maybe_new",""
"html-keyboard-response","208","421863","0.0-18.0-0.82","5883","approach_avoid_sv1","""event"",""trial"",""time""
""fullscreenenter"",""1"",""2114""
","
","
","""event"",""trial"",""time""
""fullscreenenter"",""1"",""2114""
","
","","","","","","null","<div style=""font-size:60px;"">+</div>","null","","fixation","","",""
"memory-trial","209","423619","0.0-18.0-1.82","5883","approach_avoid_sv1","""event"",""trial"",""time""
""fullscreenenter"",""1"",""2114""
","
","
","""event"",""trial"",""time""
""fullscreenenter"",""1"",""2114""
","
","","","","","","732.1999999284744","images/orange2.png","","","memory_trial","3","maybe_new",""
"html-keyboard-response","210","424127","0.0-18.0-0.83","5883","approach_avoid_sv1","""event"",""trial"",""time""
""fullscreenenter"",""1"",""2114""
","
","
","""event"",""trial"",""time""
""fullscreenenter"",""1"",""2114""
","
","","","","","","null","<div style=""font-size:60px;"">+</div>","null","","fixation","","",""
"memory-trial","211","428423","0.0-18.0-1.83","5883","approach_avoid_sv1","""event"",""trial"",""time""
""fullscreenenter"",""1"",""2114""
","
","
","""event"",""trial"",""time""
""fullscreenenter"",""1"",""2114""
","
","","","","","","3287.100000023842","images/boat8.png","","","memory_trial","3","maybe_new",""
"html-keyboard-response","212","428929","0.0-18.0-0.84","5883","approach_avoid_sv1","""event"",""trial"",""time""
""fullscreenenter"",""1"",""2114""
","
","
","""event"",""trial"",""time""
""fullscreenenter"",""1"",""2114""
","
","","","","","","null","<div style=""font-size:60px;"">+</div>","null","","fixation","","",""
"memory-trial","213","431485","0.0-18.0-1.84","5883","approach_avoid_sv1","""event"",""trial"",""time""
""fullscreenenter"",""1"",""2114""
","
","
","""event"",""trial"",""time""
""fullscreenenter"",""1"",""2114""
","
","","","","","","1545.7000000476837","images/straw4.png","","","memory_trial","2","maybe_old",""
"html-keyboard-response","214","431999","0.0-18.0-0.85","5883","approach_avoid_sv1","""event"",""trial"",""time""
""fullscreenenter"",""1"",""2114""
","
","
","""event"",""trial"",""time""
""fullscreenenter"",""1"",""2114""
","
","","","","","","null","<div style=""font-size:60px;"">+</div>","null","","fixation","","",""
"memory-trial","215","433809","0.0-18.0-1.85","5883","approach_avoid_sv1","""event"",""trial"",""time""
""fullscreenenter"",""1"",""2114""
","
","
","""event"",""trial"",""time""
""fullscreenenter"",""1"",""2114""
","
","","","","","","798.3000000715256","images/boat6.png","","","memory_trial","1","definitely_old",""
"html-keyboard-response","216","434323","0.0-18.0-0.86","5883","approach_avoid_sv1","""event"",""trial"",""time""
""fullscreenenter"",""1"",""2114""
","
","
","""event"",""trial"",""time""
""fullscreenenter"",""1"",""2114""
","
","","","","","","null","<div style=""font-size:60px;"">+</div>","null","","fixation","","",""
"memory-trial","217","436958","0.0-18.0-1.86","5883","approach_avoid_sv1","""event"",""trial"",""time""
""fullscreenenter"",""1"",""2114""
","
","
","""event"",""trial"",""time""
""fullscreenenter"",""1"",""2114""
","
","","","","","","1625.1000000238419","images/bed1.png","","","memory_trial","2","maybe_old",""
"html-keyboard-response","218","437465","0.0-18.0-0.87","5883","approach_avoid_sv1","""event"",""trial"",""time""
""fullscreenenter"",""1"",""2114""
","
","
","""event"",""trial"",""time""
""fullscreenenter"",""1"",""2114""
","
","","","","","","null","<div style=""font-size:60px;"">+</div>","null","","fixation","","",""
"memory-trial","219","439459","0.0-18.0-1.87","5883","approach_avoid_sv1","""event"",""trial"",""time""
""fullscreenenter"",""1"",""2114""
","
","
","""event"",""trial"",""time""
""fullscreenenter"",""1"",""2114""
","
","","","","","","981","images/rabbit1.png","","","memory_trial","2","maybe_old",""
"html-keyboard-response","220","439972","0.0-18.0-0.88","5883","approach_avoid_sv1","""event"",""trial"",""time""
""fullscreenenter"",""1"",""2114""
","
","
","""event"",""trial"",""time""
""fullscreenenter"",""1"",""2114""
","
","","","","","","null","<div style=""font-size:60px;"">+</div>","null","","fixation","","",""
"memory-trial","221","442828","0.0-18.0-1.88","5883","approach_avoid_sv1","""event"",""trial"",""time""
""fullscreenenter"",""1"",""2114""
","
","
","""event"",""trial"",""time""
""fullscreenenter"",""1"",""2114""
","
","","","","","","1843.1000000238419","images/plane1.png","","","memory_trial","2","maybe_old",""
"html-keyboard-response","222","443336","0.0-18.0-0.89","5883","approach_avoid_sv1","""event"",""trial"",""time""
""fullscreenenter"",""1"",""2114""
","
","
","""event"",""trial"",""time""
""fullscreenenter"",""1"",""2114""
","
","","","","","","null","<div style=""font-size:60px;"">+</div>","null","","fixation","","",""
"memory-trial","223","445177","0.0-18.0-1.89","5883","approach_avoid_sv1","""event"",""trial"",""time""
""fullscreenenter"",""1"",""2114""
","
","
","""event"",""trial"",""time""
""fullscreenenter"",""1"",""2114""
","
","","","","","","831.2999999523163","images/train7.png","","","memory_trial","4","definitely_new",""
"html-keyboard-response","224","445692","0.0-18.0-0.90","5883","approach_avoid_sv1","""event"",""trial"",""time""
""fullscreenenter"",""1"",""2114""
","
","
","""event"",""trial"",""time""
""fullscreenenter"",""1"",""2114""
","
","","","","","","null","<div style=""font-size:60px;"">+</div>","null","","fixation","","",""
"memory-trial","225","447973","0.0-18.0-1.90","5883","approach_avoid_sv1","""event"",""trial"",""time""
""fullscreenenter"",""1"",""2114""
","
","
","""event"",""trial"",""time""
""fullscreenenter"",""1"",""2114""
","
","","","","","","1261.7000000476837","images/flower5.png","","","memory_trial","3","maybe_new",""
"html-keyboard-response","226","448491","0.0-18.0-0.91","5883","approach_avoid_sv1","""event"",""trial"",""time""
""fullscreenenter"",""1"",""2114""
","
","
","""event"",""trial"",""time""
""fullscreenenter"",""1"",""2114""
","
","","","","","","null","<div style=""font-size:60px;"">+</div>","null","","fixation","","",""
"memory-trial","227","450371","0.0-18.0-1.91","5883","approach_avoid_sv1","""event"",""trial"",""time""
""fullscreenenter"",""1"",""2114""
","
","
","""event"",""trial"",""time""
""fullscreenenter"",""1"",""2114""
","
","","","","","","869.6999999284744","images/plane4.png","","","memory_trial","3","maybe_new",""
"html-button-response","228","569355","0.0-18.0-2.91-0.91","5883","approach_avoid_sv1","""event"",""trial"",""time""
""fullscreenenter"",""1"",""2114""
","
","
","""event"",""trial"",""time""
""fullscreenenter"",""1"",""2114""
","
","","","","","","118983.89999997616","<p> Take a break! </p><p> Click the button to continue. </p>","0","","break","","",""
"html-keyboard-response","229","569868","0.0-18.0-0.92","5883","approach_avoid_sv1","""event"",""trial"",""time""
""fullscreenenter"",""1"",""2114""
","
","
","""event"",""trial"",""time""
""fullscreenenter"",""1"",""2114""
","
","","","","","","null","<div style=""font-size:60px;"">+</div>","null","","fixation","","",""
"memory-trial","230","572318","0.0-18.0-1.92","5883","approach_avoid_sv1","""event"",""trial"",""time""
""fullscreenenter"",""1"",""2114""
","
","
","""event"",""trial"",""time""
""fullscreenenter"",""1"",""2114""
","
","","","","","","1440.2000000476837","images/truck2.png","","","memory_trial","1","definitely_old",""
"html-keyboard-response","231","572820","0.0-18.0-0.93","5883","approach_avoid_sv1","""event"",""trial"",""time""
""fullscreenenter"",""1"",""2114""
","
","
","""event"",""trial"",""time""
""fullscreenenter"",""1"",""2114""
","
","","","","","","null","<div style=""font-size:60px;"">+</div>","null","","fixation","","",""
"memory-trial","232","575317","0.0-18.0-1.93","5883","approach_avoid_sv1","""event"",""trial"",""time""
""fullscreenenter"",""1"",""2114""
","
","
","""event"",""trial"",""time""
""fullscreenenter"",""1"",""2114""
","
","","","","","","1484.6999999284744","images/rodent6.png","","","memory_trial","1","definitely_old",""
"html-keyboard-response","233","575821","0.0-18.0-0.94","5883","approach_avoid_sv1","""event"",""trial"",""time""
""fullscreenenter"",""1"",""2114""
","
","
","""event"",""trial"",""time""
""fullscreenenter"",""1"",""2114""
","
","","","","","","null","<div style=""font-size:60px;"">+</div>","null","","fixation","","",""
"memory-trial","234","577976","0.0-18.0-1.94","5883","approach_avoid_sv1","""event"",""trial"",""time""
""fullscreenenter"",""1"",""2114""
","
","
","""event"",""trial"",""time""
""fullscreenenter"",""1"",""2114""
","
","","","","","","1144.1000000238419","images/straw1.png","","","memory_trial","1","definitely_old",""
"html-keyboard-response","235","578490","0.0-18.0-0.95","5883","approach_avoid_sv1","""event"",""trial"",""time""
""fullscreenenter"",""1"",""2114""
","
","
","""event"",""trial"",""time""
""fullscreenenter"",""1"",""2114""
","
","","","","","","null","<div style=""font-size:60px;"">+</div>","null","","fixation","","",""
"memory-trial","236","581012","0.0-18.0-1.95","5883","approach_avoid_sv1","""event"",""trial"",""time""
""fullscreenenter"",""1"",""2114""
","
","
","""event"",""trial"",""time""
""fullscreenenter"",""1"",""2114""
","
","","","","","","1515.5","images/cow2.png","","","memory_trial","3","maybe_new",""
"html-keyboard-response","237","581516","0.0-18.0-0.96","5883","approach_avoid_sv1","""event"",""trial"",""time""
""fullscreenenter"",""1"",""2114""
","
","
","""event"",""trial"",""time""
""fullscreenenter"",""1"",""2114""
","
","","","","","","null","<div style=""font-size:60px;"">+</div>","null","","fixation","","",""
"memory-trial","238","585534","0.0-18.0-1.96","5883","approach_avoid_sv1","""event"",""trial"",""time""
""fullscreenenter"",""1"",""2114""
","
","
","""event"",""trial"",""time""
""fullscreenenter"",""1"",""2114""
","
","","","","","","3010.100000023842","images/plane8.png","","","memory_trial","1","definitely_old",""
"html-keyboard-response","239","586043","0.0-18.0-0.97","5883","approach_avoid_sv1","""event"",""trial"",""time""
""fullscreenenter"",""1"",""2114""
","
","
","""event"",""trial"",""time""
""fullscreenenter"",""1"",""2114""
","
","","","","","","null","<div style=""font-size:60px;"">+</div>","null","","fixation","","",""
"memory-trial","240","587881","0.0-18.0-1.97","5883","approach_avoid_sv1","""event"",""trial"",""time""
""fullscreenenter"",""1"",""2114""
","
","
","""event"",""trial"",""time""
""fullscreenenter"",""1"",""2114""
","
","","","","","","816.2999999523163","images/truck8.png","","","memory_trial","1","definitely_old",""
"html-keyboard-response","241","588392","0.0-18.0-0.98","5883","approach_avoid_sv1","""event"",""trial"",""time""
""fullscreenenter"",""1"",""2114""
","
","
","""event"",""trial"",""time""
""fullscreenenter"",""1"",""2114""
","
","","","","","","null","<div style=""font-size:60px;"">+</div>","null","","fixation","","",""
"memory-trial","242","591912","0.0-18.0-1.98","5883","approach_avoid_sv1","""event"",""trial"",""time""
""fullscreenenter"",""1"",""2114""
","
","
","""event"",""trial"",""time""
""fullscreenenter"",""1"",""2114""
","
","","","","","","2509.1999999284744","images/truck7.png","","","memory_trial","1","definitely_old",""
"html-keyboard-response","243","592425","0.0-18.0-0.99","5883","approach_avoid_sv1","""event"",""trial"",""time""
""fullscreenenter"",""1"",""2114""
","
","
","""event"",""trial"",""time""
""fullscreenenter"",""1"",""2114""
","
","","","","","","null","<div style=""font-size:60px;"">+</div>","null","","fixation","","",""
"memory-trial","244","593569","0.0-18.0-1.99","5883","approach_avoid_sv1","""event"",""trial"",""time""
""fullscreenenter"",""1"",""2114""
","
","
","""event"",""trial"",""time""
""fullscreenenter"",""1"",""2114""
","
","","","","","","131.60000002384186","images/rabbit5.png","","","memory_trial","4","definitely_new",""
"html-keyboard-response","245","594082","0.0-18.0-0.100","5883","approach_avoid_sv1","""event"",""trial"",""time""
""fullscreenenter"",""1"",""2114""
","
","
","""event"",""trial"",""time""
""fullscreenenter"",""1"",""2114""
","
","","","","","","null","<div style=""font-size:60px;"">+</div>","null","","fixation","","",""
"memory-trial","246","595916","0.0-18.0-1.100","5883","approach_avoid_sv1","""event"",""trial"",""time""
""fullscreenenter"",""1"",""2114""
","
","
","""event"",""trial"",""time""
""fullscreenenter"",""1"",""2114""
","
","","","","","","826.8000000715256","images/bed8.png","","","memory_trial","4","definitely_new",""
"html-keyboard-response","247","596427","0.0-18.0-0.101","5883","approach_avoid_sv1","""event"",""trial"",""time""
""fullscreenenter"",""1"",""2114""
","
","
","""event"",""trial"",""time""
""fullscreenenter"",""1"",""2114""
","
","","","","","","null","<div style=""font-size:60px;"">+</div>","null","","fixation","","",""
"memory-trial","248","598350","0.0-18.0-1.101","5883","approach_avoid_sv1","""event"",""trial"",""time""
""fullscreenenter"",""1"",""2114""
","
","
","""event"",""trial"",""time""
""fullscreenenter"",""1"",""2114""
","
","","","","","","914.7999999523163","images/bed7.png","","","memory_trial","4","definitely_new",""
"html-keyboard-response","249","598865","0.0-18.0-0.102","5883","approach_avoid_sv1","""event"",""trial"",""time""
""fullscreenenter"",""1"",""2114""
","
","
","""event"",""trial"",""time""
""fullscreenenter"",""1"",""2114""
","
","","","","","","null","<div style=""font-size:60px;"">+</div>","null","","fixation","","",""
"memory-trial","250","601477","0.0-18.0-1.102","5883","approach_avoid_sv1","""event"",""trial"",""time""
""fullscreenenter"",""1"",""2114""
","
","
","""event"",""trial"",""time""
""fullscreenenter"",""1"",""2114""
","
","","","","","","1602.6000000238419","images/goat7.png","","","memory_trial","2","maybe_old",""
"html-keyboard-response","251","601979","0.0-18.0-0.103","5883","approach_avoid_sv1","""event"",""trial"",""time""
""fullscreenenter"",""1"",""2114""
","
","
","""event"",""trial"",""time""
""fullscreenenter"",""1"",""2114""
","
","","","","","","null","<div style=""font-size:60px;"">+</div>","null","","fixation","","",""
"memory-trial","252","604232","0.0-18.0-1.103","5883","approach_avoid_sv1","""event"",""trial"",""time""
""fullscreenenter"",""1"",""2114""
","
","
","""event"",""trial"",""time""
""fullscreenenter"",""1"",""2114""
","
","","","","","","1164.3000000715256","images/flower6.png","","","memory_trial","1","definitely_old",""
"html-keyboard-response","253","604835","0.0-18.0-0.104","5883","approach_avoid_sv1","""event"",""trial"",""time""
""fullscreenenter"",""1"",""2114""
","
","
","""event"",""trial"",""time""
""fullscreenenter"",""1"",""2114""
","
","","","","","","null","<div style=""font-size:60px;"">+</div>","null","","fixation","","",""
"memory-trial","254","607108","0.0-18.0-1.104","5883","approach_avoid_sv1","""event"",""trial"",""time""
""fullscreenenter"",""1"",""2114""
","
","
","""event"",""trial"",""time""
""fullscreenenter"",""1"",""2114""
","
","","","","","","1262.6000000238419","images/bed4.png","","","memory_trial","2","maybe_old",""
"html-keyboard-response","255","607613","0.0-18.0-0.105","5883","approach_avoid_sv1","""event"",""trial"",""time""
""fullscreenenter"",""1"",""2114""
","
","
","""event"",""trial"",""time""
""fullscreenenter"",""1"",""2114""
","
","","","","","","null","<div style=""font-size:60px;"">+</div>","null","","fixation","","",""
"memory-trial","256","609576","0.0-18.0-1.105","5883","approach_avoid_sv1","""event"",""trial"",""time""
""fullscreenenter"",""1"",""2114""
","
","
","""event"",""trial"",""time""
""fullscreenenter"",""1"",""2114""
","
","","","","","","956.6000000238419","images/table7.png","","","memory_trial","3","maybe_new",""
"html-keyboard-response","257","610088","0.0-18.0-0.106","5883","approach_avoid_sv1","""event"",""trial"",""time""
""fullscreenenter"",""1"",""2114""
","
","
","""event"",""trial"",""time""
""fullscreenenter"",""1"",""2114""
","
","","","","","","null","<div style=""font-size:60px;"">+</div>","null","","fixation","","",""
"memory-trial","258","612044","0.0-18.0-1.106","5883","approach_avoid_sv1","""event"",""trial"",""time""
""fullscreenenter"",""1"",""2114""
","
","
","""event"",""trial"",""time""
""fullscreenenter"",""1"",""2114""
","
","","","","","","941.3000000715256","images/rabbit4.png","","","memory_trial","3","maybe_new",""
"html-keyboard-response","259","612552","0.0-18.0-0.107","5883","approach_avoid_sv1","""event"",""trial"",""time""
""fullscreenenter"",""1"",""2114""
","
","
","""event"",""trial"",""time""
""fullscreenenter"",""1"",""2114""
","
","","","","","","null","<div style=""font-size:60px;"">+</div>","null","","fixation","","",""
"memory-trial","260","615169","0.0-18.0-1.107","5883","approach_avoid_sv1","""event"",""trial"",""time""
""fullscreenenter"",""1"",""2114""
","
","
","""event"",""trial"",""time""
""fullscreenenter"",""1"",""2114""
","
","","","","","","1604.7000000476837","images/cat7.png","","","memory_trial","4","definitely_new",""
"html-keyboard-response","261","615679","0.0-18.0-0.108","5883","approach_avoid_sv1","""event"",""trial"",""time""
""fullscreenenter"",""1"",""2114""
","
","
","""event"",""trial"",""time""
""fullscreenenter"",""1"",""2114""
","
","","","","","","null","<div style=""font-size:60px;"">+</div>","null","","fixation","","",""
"memory-trial","262","617851","0.0-18.0-1.108","5883","approach_avoid_sv1","""event"",""trial"",""time""
""fullscreenenter"",""1"",""2114""
","
","
","""event"",""trial"",""time""
""fullscreenenter"",""1"",""2114""
","
","","","","","","1155.2999999523163","images/apple1.png","","","memory_trial","1","definitely_old",""
"html-keyboard-response","263","618356","0.0-18.0-0.109","5883","approach_avoid_sv1","""event"",""trial"",""time""
""fullscreenenter"",""1"",""2114""
","
","
","""event"",""trial"",""time""
""fullscreenenter"",""1"",""2114""
","
","","","","","","null","<div style=""font-size:60px;"">+</div>","null","","fixation","","",""
"memory-trial","264","620157","0.0-18.0-1.109","5883","approach_avoid_sv1","""event"",""trial"",""time""
""fullscreenenter"",""1"",""2114""
","
","
","""event"",""trial"",""time""
""fullscreenenter"",""1"",""2114""
","
","","","","","","794","images/sheep2.png","","","memory_trial","4","definitely_new",""
"html-keyboard-response","265","620663","0.0-18.0-0.110","5883","approach_avoid_sv1","""event"",""trial"",""time""
""fullscreenenter"",""1"",""2114""
","
","
","""event"",""trial"",""time""
""fullscreenenter"",""1"",""2114""
","
","","","","","","null","<div style=""font-size:60px;"">+</div>","null","","fixation","","",""
"memory-trial","266","623242","0.0-18.0-1.110","5883","approach_avoid_sv1","""event"",""trial"",""time""
""fullscreenenter"",""1"",""2114""
","
","
","""event"",""trial"",""time""
""fullscreenenter"",""1"",""2114""
","
","","","","","","1565.7000000476837","images/tree1.png","","","memory_trial","1","definitely_old",""
"html-keyboard-response","267","623749","0.0-18.0-0.111","5883","approach_avoid_sv1","""event"",""trial"",""time""
""fullscreenenter"",""1"",""2114""
","
","
","""event"",""trial"",""time""
""fullscreenenter"",""1"",""2114""
","
","","","","","","null","<div style=""font-size:60px;"">+</div>","null","","fixation","","",""
"memory-trial","268","625929","0.0-18.0-1.111","5883","approach_avoid_sv1","""event"",""trial"",""time""
""fullscreenenter"",""1"",""2114""
","
","
","""event"",""trial"",""time""
""fullscreenenter"",""1"",""2114""
","
","","","","","","1169.6999999284744","images/table8.png","","","memory_trial","1","definitely_old",""
"html-keyboard-response","269","626448","0.0-18.0-0.112","5883","approach_avoid_sv1","""event"",""trial"",""time""
""fullscreenenter"",""1"",""2114""
","
","
","""event"",""trial"",""time""
""fullscreenenter"",""1"",""2114""
","
","","","","","","null","<div style=""font-size:60px;"">+</div>","null","","fixation","","",""
"memory-trial","270","628400","0.0-18.0-1.112","5883","approach_avoid_sv1","""event"",""trial"",""time""
""fullscreenenter"",""1"",""2114""
","
","
","""event"",""trial"",""time""
""fullscreenenter"",""1"",""2114""
","
","","","","","","935.7999999523163","images/dog3.png","","","memory_trial","1","definitely_old",""
"html-keyboard-response","271","628922","0.0-18.0-0.113","5883","approach_avoid_sv1","""event"",""trial"",""time""
""fullscreenenter"",""1"",""2114""
","
","
","""event"",""trial"",""time""
""fullscreenenter"",""1"",""2114""
","
","","","","","","null","<div style=""font-size:60px;"">+</div>","null","","fixation","","",""
"memory-trial","272","631085","0.0-18.0-1.113","5883","approach_avoid_sv1","""event"",""trial"",""time""
""fullscreenenter"",""1"",""2114""
","
","
","""event"",""trial"",""time""
""fullscreenenter"",""1"",""2114""
","
","","","","","","1145.1000000238419","images/bush3.png","","","memory_trial","4","definitely_new",""
"html-keyboard-response","273","631600","0.0-18.0-0.114","5883","approach_avoid_sv1","""event"",""trial"",""time""
""fullscreenenter"",""1"",""2114""
","
","
","""event"",""trial"",""time""
""fullscreenenter"",""1"",""2114""
","
","","","","","","null","<div style=""font-size:60px;"">+</div>","null","","fixation","","",""
"memory-trial","274","633751","0.0-18.0-1.114","5883","approach_avoid_sv1","""event"",""trial"",""time""
""fullscreenenter"",""1"",""2114""
","
","
","""event"",""trial"",""time""
""fullscreenenter"",""1"",""2114""
","
","","","","","","1138.2999999523163","images/tree3.png","","","memory_trial","2","maybe_old",""
"html-keyboard-response","275","634257","0.0-18.0-0.115","5883","approach_avoid_sv1","""event"",""trial"",""time""
""fullscreenenter"",""1"",""2114""
","
","
","""event"",""trial"",""time""
""fullscreenenter"",""1"",""2114""
","
","","","","","","null","<div style=""font-size:60px;"">+</div>","null","","fixation","","",""
"memory-trial","276","637066","0.0-18.0-1.115","5883","approach_avoid_sv1","""event"",""trial"",""time""
""fullscreenenter"",""1"",""2114""
","
","
","""event"",""trial"",""time""
""fullscreenenter"",""1"",""2114""
","
","","","","","","1801.7000000476837","images/banana6.png","","","memory_trial","3","maybe_new",""
"html-keyboard-response","277","637574","0.0-18.0-0.116","5883","approach_avoid_sv1","""event"",""trial"",""time""
""fullscreenenter"",""1"",""2114""
","
","
","""event"",""trial"",""time""
""fullscreenenter"",""1"",""2114""
","
","","","","","","null","<div style=""font-size:60px;"">+</div>","null","","fixation","","",""
"memory-trial","278","639352","0.0-18.0-1.116","5883","approach_avoid_sv1","""event"",""trial"",""time""
""fullscreenenter"",""1"",""2114""
","
","
","""event"",""trial"",""time""
""fullscreenenter"",""1"",""2114""
","
","","","","","","761.6999999284744","images/cactus8.png","","","memory_trial","4","definitely_new",""
"html-keyboard-response","279","639861","0.0-18.0-0.117","5883","approach_avoid_sv1","""event"",""trial"",""time""
""fullscreenenter"",""1"",""2114""
","
","
","""event"",""trial"",""time""
""fullscreenenter"",""1"",""2114""
","
","","","","","","null","<div style=""font-size:60px;"">+</div>","null","","fixation","","",""
"memory-trial","280","641519","0.0-18.0-1.117","5883","approach_avoid_sv1","""event"",""trial"",""time""
""fullscreenenter"",""1"",""2114""
","
","
","""event"",""trial"",""time""
""fullscreenenter"",""1"",""2114""
","
","","","","","","634.0999999046326","images/cat2.png","","","memory_trial","4","definitely_new",""
"html-keyboard-response","281","642025","0.0-18.0-0.118","5883","approach_avoid_sv1","""event"",""trial"",""time""
""fullscreenenter"",""1"",""2114""
","
","
","""event"",""trial"",""time""
""fullscreenenter"",""1"",""2114""
","
","","","","","","null","<div style=""font-size:60px;"">+</div>","null","","fixation","","",""
"memory-trial","282","649838","0.0-18.0-1.118","5883","approach_avoid_sv1","""event"",""trial"",""time""
""fullscreenenter"",""1"",""2114""
","
","
","""event"",""trial"",""time""
""fullscreenenter"",""1"",""2114""
","
","","","","","","6798.299999952316","images/boat3.png","","","memory_trial","3","maybe_new",""
"html-keyboard-response","283","650356","0.0-18.0-0.119","5883","approach_avoid_sv1","""event"",""trial"",""time""
""fullscreenenter"",""1"",""2114""
","
","
","""event"",""trial"",""time""
""fullscreenenter"",""1"",""2114""
","
","","","","","","null","<div style=""font-size:60px;"">+</div>","null","","fixation","","",""
"memory-trial","284","653512","0.0-18.0-1.119","5883","approach_avoid_sv1","""event"",""trial"",""time""
""fullscreenenter"",""1"",""2114""
","
","
","""event"",""trial"",""time""
""fullscreenenter"",""1"",""2114""
","
","","","","","","2129.2999999523163","images/sofa8.png","","","memory_trial","1","definitely_old",""
"html-keyboard-response","285","654019","0.0-18.0-0.120","5883","approach_avoid_sv1","""event"",""trial"",""time""
""fullscreenenter"",""1"",""2114""
","
","
","""event"",""trial"",""time""
""fullscreenenter"",""1"",""2114""
","
","","","","","","null","<div style=""font-size:60px;"">+</div>","null","","fixation","","",""
"memory-trial","286","656180","0.0-18.0-1.120","5883","approach_avoid_sv1","""event"",""trial"",""time""
""fullscreenenter"",""1"",""2114""
","
","
","""event"",""trial"",""time""
""fullscreenenter"",""1"",""2114""
","
","","","","","","1146.5999999046326","images/bush7.png","","","memory_trial","3","maybe_new",""
"html-keyboard-response","287","656692","0.0-18.0-0.121","5883","approach_avoid_sv1","""event"",""trial"",""time""
""fullscreenenter"",""1"",""2114""
","
","
","""event"",""trial"",""time""
""fullscreenenter"",""1"",""2114""
","
","","","","","","null","<div style=""font-size:60px;"">+</div>","null","","fixation","","",""
"memory-trial","288","658295","0.0-18.0-1.121","5883","approach_avoid_sv1","""event"",""trial"",""time""
""fullscreenenter"",""1"",""2114""
","
","
","""event"",""trial"",""time""
""fullscreenenter"",""1"",""2114""
","
","","","","","","585.2000000476837","images/cat5.png","","","memory_trial","3","maybe_new",""
"html-keyboard-response","289","658804","0.0-18.0-0.122","5883","approach_avoid_sv1","""event"",""trial"",""time""
""fullscreenenter"",""1"",""2114""
","
","
","""event"",""trial"",""time""
""fullscreenenter"",""1"",""2114""
","
","","","","","","null","<div style=""font-size:60px;"">+</div>","null","","fixation","","",""
"memory-trial","290","660854","0.0-18.0-1.122","5883","approach_avoid_sv1","""event"",""trial"",""time""
""fullscreenenter"",""1"",""2114""
","
","
","""event"",""trial"",""time""
""fullscreenenter"",""1"",""2114""
","
","","","","","","1037.4000000953674","images/sofa6.png","","","memory_trial","3","maybe_new",""
"html-keyboard-response","291","661366","0.0-18.0-0.123","5883","approach_avoid_sv1","""event"",""trial"",""time""
""fullscreenenter"",""1"",""2114""
","
","
","""event"",""trial"",""time""
""fullscreenenter"",""1"",""2114""
","
","","","","","","null","<div style=""font-size:60px;"">+</div>","null","","fixation","","",""
"memory-trial","292","663198","0.0-18.0-1.123","5883","approach_avoid_sv1","""event"",""trial"",""time""
""fullscreenenter"",""1"",""2114""
","
","
","""event"",""trial"",""time""
""fullscreenenter"",""1"",""2114""
","
","","","","","","813.3000000715256","images/sofa7.png","","","memory_trial","4","definitely_new",""
"html-keyboard-response","293","663705","0.0-18.0-0.124","5883","approach_avoid_sv1","""event"",""trial"",""time""
""fullscreenenter"",""1"",""2114""
","
","
","""event"",""trial"",""time""
""fullscreenenter"",""1"",""2114""
","
","","","","","","null","<div style=""font-size:60px;"">+</div>","null","","fixation","","",""
"memory-trial","294","665976","0.0-18.0-1.124","5883","approach_avoid_sv1","""event"",""trial"",""time""
""fullscreenenter"",""1"",""2114""
","
","
","""event"",""trial"",""time""
""fullscreenenter"",""1"",""2114""
","
","","","","","","1247.1000000238419","images/straw2.png","","","memory_trial","1","definitely_old",""
"html-keyboard-response","295","666487","0.0-18.0-0.125","5883","approach_avoid_sv1","""event"",""trial"",""time""
""fullscreenenter"",""1"",""2114""
","
","
","""event"",""trial"",""time""
""fullscreenenter"",""1"",""2114""
","
","","","","","","null","<div style=""font-size:60px;"">+</div>","null","","fixation","","",""
"memory-trial","296","668994","0.0-18.0-1.125","5883","approach_avoid_sv1","""event"",""trial"",""time""
""fullscreenenter"",""1"",""2114""
","
","
","""event"",""trial"",""time""
""fullscreenenter"",""1"",""2114""
","
","","","","","","1496.1000000238419","images/dog7.png","","","memory_trial","4","definitely_new",""
