"trial_type","trial_index","time_elapsed","internal_node_id","subject_id","task_version","interactions","blur_events","focus_events","fullscreenenter_events","fullscreenexit_events","success","timeout","failed_images","failed_audio","failed_video","rt","stimulus","response","button_pressed","task_part","key_press","answer","correct"
"pavlovia","0","5","0.0-0.0","6198","approach_avoid_sv1","""event"",""trial"",""time""
""fullscreenenter"",""1"",""4791""
","
","
","""event"",""trial"",""time""
""fullscreenenter"",""1"",""4791""
","
","","","","","","","","","","","","",""
"fullscreen","1","5777","0.0-1.0","6198","approach_avoid_sv1","""event"",""trial"",""time""
""fullscreenenter"",""1"",""4791""
","
","
","""event"",""trial"",""time""
""fullscreenenter"",""1"",""4791""
","
","true","","","","","","","","","","","",""
"preload","2","8075","0.0-2.0","6198","approach_avoid_sv1","""event"",""trial"",""time""
""fullscreenenter"",""1"",""4791""
","
","
","""event"",""trial"",""time""
""fullscreenenter"",""1"",""4791""
","
","true","false","[]","[]","[]","","","","","","","",""
"preload","3","9057","0.0-3.0","6198","approach_avoid_sv1","""event"",""trial"",""time""
""fullscreenenter"",""1"",""4791""
","
","
","""event"",""trial"",""time""
""fullscreenenter"",""1"",""4791""
","
","true","false","[]","[]","[]","","","","","","","",""
"preload","4","9354","0.0-4.0","6198","approach_avoid_sv1","""event"",""trial"",""time""
""fullscreenenter"",""1"",""4791""
","
","
","""event"",""trial"",""time""
""fullscreenenter"",""1"",""4791""
","
","true","false","[]","[]","[]","","","","","","","",""
"audio-keyboard-response","5","21765","0.0-5.0","6198","approach_avoid_sv1","""event"",""trial"",""time""
""fullscreenenter"",""1"",""4791""
","
","
","""event"",""trial"",""time""
""fullscreenenter"",""1"",""4791""
","
","","","","","","12408","audio/beep_loop.wav"," ","","","","",""
"audio-button-response","6","29796","0.0-6.0","6198","approach_avoid_sv1","""event"",""trial"",""time""
""fullscreenenter"",""1"",""4791""
","
","
","""event"",""trial"",""time""
""fullscreenenter"",""1"",""4791""
","
","","","","","","8032","audio/turtle.wav","3","","","","",""
"audio-button-response","7","32635","0.0-7.0","6198","approach_avoid_sv1","""event"",""trial"",""time""
""fullscreenenter"",""1"",""4791""
","
","
","""event"",""trial"",""time""
""fullscreenenter"",""1"",""4791""
","
","","","","","","1832","audio/shark.wav","2","","","","",""
"preload","8","35933","0.0-8.0","6198","approach_avoid_sv1","""event"",""trial"",""time""
""fullscreenenter"",""1"",""4791""
","
","
","""event"",""trial"",""time""
""fullscreenenter"",""1"",""4791""
","
","true","false","[]","[]","[]","","","","","","","",""
"learning-instructions","9","43347","0.0-9.0-0.0","6198","approach_avoid_sv1","""event"",""trial"",""time""
""fullscreenenter"",""1"",""4791""
","
","
","""event"",""trial"",""time""
""fullscreenenter"",""1"",""4791""
","
","","","","","","2935","<p> Welcome back! </p><p> Last week, you had to make choices about lots of different items.  </p>","","0","instructions","","",""
"learning-instructions","10","48923","0.0-9.0-0.1","6198","approach_avoid_sv1","""event"",""trial"",""time""
""fullscreenenter"",""1"",""4791""
","
","
","""event"",""trial"",""time""
""fullscreenenter"",""1"",""4791""
","
","","","","","","1461.2000000029802","<p> Today, we are going to ask you to try to remember all the items. </p>","","0","instructions","","",""
"learning-instructions","11","59763","0.0-9.0-0.2","6198","approach_avoid_sv1","""event"",""trial"",""time""
""fullscreenenter"",""1"",""4791""
","
","
","""event"",""trial"",""time""
""fullscreenenter"",""1"",""4791""
","
","","","","","","711.2000000029802","<p> On every trial, you will see an image. </p><p> The image may be an OLD image you saw during the games last week or it may be a NEW image that was not presented. </p>","","0","instructions","","",""
"learning-instructions","12","69715","0.0-9.0-0.3","6198","approach_avoid_sv1","""event"",""trial"",""time""
""fullscreenenter"",""1"",""4791""
","
","
","""event"",""trial"",""time""
""fullscreenenter"",""1"",""4791""
","
","","","","","","1442.2999999970198","<p> You need to select whether the image is:  </p><p>  'Definitely old', 'Maybe old', 'Maybe new', or 'Definitely new.'  </p><div class=""mem-choice-instructions-grid""><div class=""choice-option"" id=""choice-option-1"" ><img src=""images/definitely_old_1.png"" id=""choice-option-img-1"" class=""choice-option-img"" stage=""1""></div><div class=""choice-option"" id=""choice-option-2"" ><img src=""images/maybe_old_1.png"" id=""choice-option-img-2"" class=""choice-option-img"" stage=""1""></div><div class=""choice-option"" id=""choice-option-3"" ><img src=""images/maybe_new_1.png"" id=""choice-option-img-3"" class=""choice-option-img"" stage=""1""></div><div class=""choice-option"" id=""choice-option-4"" > <img src=""images/definitely_new_1.png"" id=""choice-option-img-4"" class=""choice-option-img"" stage=""1""></div></div>","","0","instructions","","",""
"learning-instructions","13","76771","0.0-9.0-0.4","6198","approach_avoid_sv1","""event"",""trial"",""time""
""fullscreenenter"",""1"",""4791""
","
","
","""event"",""trial"",""time""
""fullscreenenter"",""1"",""4791""
","
","","","","","","548.2999999970198","<p> You should use the 1, 2, 3, and 4 keys to make your responses.  </p><div class=""mem-choice-instructions-grid""><div class=""choice-option"" id=""choice-option-1"" ><img src=""images/definitely_old.png"" id=""choice-option-img-1"" class=""choice-option-img"" stage=""1""></div><div class=""choice-option"" id=""choice-option-2"" ><img src=""images/maybe_old.png"" id=""choice-option-img-2"" class=""choice-option-img"" stage=""1""></div><div class=""choice-option"" id=""choice-option-3"" ><img src=""images/maybe_new.png"" id=""choice-option-img-3"" class=""choice-option-img"" stage=""1""></div><div class=""choice-option"" id=""choice-option-4"" > <img src=""images/definitely_new.png"" id=""choice-option-img-4"" class=""choice-option-img"" stage=""1""></div></div>","","0","instructions","","",""
"learning-instructions","14","83875","0.0-9.0-0.5","6198","approach_avoid_sv1","""event"",""trial"",""time""
""fullscreenenter"",""1"",""4791""
","
","
","""event"",""trial"",""time""
""fullscreenenter"",""1"",""4791""
","
","","","","","","763.0999999940395","<p> You will have 10 seconds to make each response.  </p><p>  Make sure to respond before time runs out! </p>","","0","instructions","","",""
"learning-instructions","15","91523","0.0-9.0-0.6","6198","approach_avoid_sv1","""event"",""trial"",""time""
""fullscreenenter"",""1"",""4791""
","
","
","""event"",""trial"",""time""
""fullscreenenter"",""1"",""4791""
","
","","","","","","581.2000000029802","<p> Today, you will see each image ONCE only.  </p><p>  That means none of the images will repeat. </p>","","0","instructions","","",""
"learning-instructions","16","106747","0.0-9.0-0.7","6198","approach_avoid_sv1","""event"",""trial"",""time""
""fullscreenenter"",""1"",""4791""
","
","
","""event"",""trial"",""time""
""fullscreenenter"",""1"",""4791""
","
","","","","","","2545","<p> Before you play the real game, it is time to practice. </p><p>  Just like in the real game, some of the images in the practice will be ones you have seen before. </p><p>  Others will be entirely new. </p>","","0","instructions","","",""
"html-button-response","17","124299","0.0-10.0","6198","approach_avoid_sv1","""event"",""trial"",""time""
""fullscreenenter"",""1"",""4791""
","
","
","""event"",""trial"",""time""
""fullscreenenter"",""1"",""4791""
","
","","","","","","17448","<p> Ready to practice? </p><p> Remember, use the 1, 2, 3, and 4 keys to make your responses. </p>","0","","instructions","","",""
"html-keyboard-response","18","124911","0.0-11.0-0.0","6198","approach_avoid_sv1","""event"",""trial"",""time""
""fullscreenenter"",""1"",""4791""
","
","
","""event"",""trial"",""time""
""fullscreenenter"",""1"",""4791""
","
","","","","","","null","<div style=""font-size:60px;"">+</div>","null","","fixation","","",""
"memory-trial","19","129590","0.0-11.0-1.0","6198","approach_avoid_sv1","""event"",""trial"",""time""
""fullscreenenter"",""1"",""4791""
","
","
","""event"",""trial"",""time""
""fullscreenenter"",""1"",""4791""
","
","","","","","","3664.199999988079","images/racket2.png","","","practice","3","maybe_new",""
"html-keyboard-response","20","130111","0.0-11.0-0.1","6198","approach_avoid_sv1","""event"",""trial"",""time""
""fullscreenenter"",""1"",""4791""
","
","
","""event"",""trial"",""time""
""fullscreenenter"",""1"",""4791""
","
","","","","","","null","<div style=""font-size:60px;"">+</div>","null","","fixation","","",""
"memory-trial","21","131998","0.0-11.0-1.1","6198","approach_avoid_sv1","""event"",""trial"",""time""
""fullscreenenter"",""1"",""4791""
","
","
","""event"",""trial"",""time""
""fullscreenenter"",""1"",""4791""
","
","","","","","","865.3999999910593","images/ball5.png","","","practice","1","definitely_old",""
"html-keyboard-response","22","132519","0.0-11.0-0.2","6198","approach_avoid_sv1","""event"",""trial"",""time""
""fullscreenenter"",""1"",""4791""
","
","
","""event"",""trial"",""time""
""fullscreenenter"",""1"",""4791""
","
","","","","","","null","<div style=""font-size:60px;"">+</div>","null","","fixation","","",""
"memory-trial","23","134953","0.0-11.0-1.2","6198","approach_avoid_sv1","""event"",""trial"",""time""
""fullscreenenter"",""1"",""4791""
","
","
","""event"",""trial"",""time""
""fullscreenenter"",""1"",""4791""
","
","","","","","","1425.1000000089407","images/ball1.png","","","practice","3","maybe_new",""
"html-keyboard-response","24","135457","0.0-11.0-0.3","6198","approach_avoid_sv1","""event"",""trial"",""time""
""fullscreenenter"",""1"",""4791""
","
","
","""event"",""trial"",""time""
""fullscreenenter"",""1"",""4791""
","
","","","","","","null","<div style=""font-size:60px;"">+</div>","null","","fixation","","",""
"memory-trial","25","138521","0.0-11.0-1.3","6198","approach_avoid_sv1","""event"",""trial"",""time""
""fullscreenenter"",""1"",""4791""
","
","
","""event"",""trial"",""time""
""fullscreenenter"",""1"",""4791""
","
","","","","","","2054.199999988079","images/ball3.png","","","practice","2","maybe_old",""
"html-keyboard-response","26","139025","0.0-11.0-0.4","6198","approach_avoid_sv1","""event"",""trial"",""time""
""fullscreenenter"",""1"",""4791""
","
","
","""event"",""trial"",""time""
""fullscreenenter"",""1"",""4791""
","
","","","","","","null","<div style=""font-size:60px;"">+</div>","null","","fixation","","",""
"memory-trial","27","142417","0.0-11.0-1.4","6198","approach_avoid_sv1","""event"",""trial"",""time""
""fullscreenenter"",""1"",""4791""
","
","
","""event"",""trial"",""time""
""fullscreenenter"",""1"",""4791""
","
","","","","","","2382.8999999910593","images/racket1.png","","","practice","1","definitely_old",""
"html-keyboard-response","28","142921","0.0-11.0-0.5","6198","approach_avoid_sv1","""event"",""trial"",""time""
""fullscreenenter"",""1"",""4791""
","
","
","""event"",""trial"",""time""
""fullscreenenter"",""1"",""4791""
","
","","","","","","null","<div style=""font-size:60px;"">+</div>","null","","fixation","","",""
"memory-trial","29","144954","0.0-11.0-1.5","6198","approach_avoid_sv1","""event"",""trial"",""time""
""fullscreenenter"",""1"",""4791""
","
","
","""event"",""trial"",""time""
""fullscreenenter"",""1"",""4791""
","
","","","","","","1023.2999999970198","images/racket3.png","","","practice","1","definitely_old",""
"html-keyboard-response","30","145457","0.0-11.0-0.6","6198","approach_avoid_sv1","""event"",""trial"",""time""
""fullscreenenter"",""1"",""4791""
","
","
","""event"",""trial"",""time""
""fullscreenenter"",""1"",""4791""
","
","","","","","","null","<div style=""font-size:60px;"">+</div>","null","","fixation","","",""
"memory-trial","31","148066","0.0-11.0-1.6","6198","approach_avoid_sv1","""event"",""trial"",""time""
""fullscreenenter"",""1"",""4791""
","
","
","""event"",""trial"",""time""
""fullscreenenter"",""1"",""4791""
","
","","","","","","1598.2999999970198","images/ball2.png","","","practice","1","definitely_old",""
"html-keyboard-response","32","148569","0.0-11.0-0.7","6198","approach_avoid_sv1","""event"",""trial"",""time""
""fullscreenenter"",""1"",""4791""
","
","
","""event"",""trial"",""time""
""fullscreenenter"",""1"",""4791""
","
","","","","","","null","<div style=""font-size:60px;"">+</div>","null","","fixation","","",""
"memory-trial","33","150498","0.0-11.0-1.7","6198","approach_avoid_sv1","""event"",""trial"",""time""
""fullscreenenter"",""1"",""4791""
","
","
","""event"",""trial"",""time""
""fullscreenenter"",""1"",""4791""
","
","","","","","","919","images/racket5.png","","","practice","1","definitely_old",""
"learning-instructions","34","159451","0.0-12.0-0.0","6198","approach_avoid_sv1","""event"",""trial"",""time""
""fullscreenenter"",""1"",""4791""
","
","
","""event"",""trial"",""time""
""fullscreenenter"",""1"",""4791""
","
","","","","","","1588.9000000059605","<p> Great! You have completed the practice. </p><p> Before you start, we're going to ask you a few questions about how the game works.  </p>","","0","instructions","","",""
"preload","35","161330","0.0-13.0","6198","approach_avoid_sv1","""event"",""trial"",""time""
""fullscreenenter"",""1"",""4791""
","
","
","""event"",""trial"",""time""
""fullscreenenter"",""1"",""4791""
","
","true","false","[]","[]","[]","","","","","","","",""
"comp-q","36","170187","0.0-14.0-0.0","6198","approach_avoid_sv1","""event"",""trial"",""time""
""fullscreenenter"",""1"",""4791""
","
","
","""event"",""trial"",""time""
""fullscreenenter"",""1"",""4791""
","
","","","","","","3025.0999999940395","<p> <b> True or False? </b> </p><p> In this game, you will only see each image once. </p>","","0","comp_question","","","true"
"comp-q","37","178906","0.0-14.0-1.0","6198","approach_avoid_sv1","""event"",""trial"",""time""
""fullscreenenter"",""1"",""4791""
","
","
","""event"",""trial"",""time""
""fullscreenenter"",""1"",""4791""
","
","","","","","","2385","<p> <b> That's right! </b> You will see many different images <i> one time each </i> in this game. </p>","","0","comp_answer","","",""
"comp-q","38","185170","0.0-15.0-0.0","6198","approach_avoid_sv1","""event"",""trial"",""time""
""fullscreenenter"",""1"",""4791""
","
","
","""event"",""trial"",""time""
""fullscreenenter"",""1"",""4791""
","
","","","","","","1259","<p> <b> True or False? </b> </p><p> You should use the mouse and click to make your response. </p>","","1","comp_question","","","true"
"comp-q","39","192882","0.0-15.0-1.0","6198","approach_avoid_sv1","""event"",""trial"",""time""
""fullscreenenter"",""1"",""4791""
","
","
","""event"",""trial"",""time""
""fullscreenenter"",""1"",""4791""
","
","","","","","","1201.0999999940395","<p><b> That's right! </b> You should use the '1', '2', '3', and '4' keys to make your response. </p>","","0","comp_answer","","",""
"comp-q","40","199506","0.0-16.0-0.0","6198","approach_avoid_sv1","""event"",""trial"",""time""
""fullscreenenter"",""1"",""4791""
","
","
","""event"",""trial"",""time""
""fullscreenenter"",""1"",""4791""
","
","","","","","","955","<p> <b> True or False? </b> </p><p> You will have as much time as you want to make each choice. </p>","","1","comp_question","","","true"
"comp-q","41","206074","0.0-16.0-1.0","6198","approach_avoid_sv1","""event"",""trial"",""time""
""fullscreenenter"",""1"",""4791""
","
","
","""event"",""trial"",""time""
""fullscreenenter"",""1"",""4791""
","
","","","","","","1873","<p> <b> That's right! </b> You will only have 10 seconds to make each choice. </p>","","0","comp_answer","","",""
"learning-instructions","42","219810","0.0-17.0","6198","approach_avoid_sv1","""event"",""trial"",""time""
""fullscreenenter"",""1"",""4791""
","
","
","""event"",""trial"",""time""
""fullscreenenter"",""1"",""4791""
","
","","","","","","5069","<p> Great! You are now ready to begin the game. </p><p> Remember, use the 1, 2, 3, and 4 keys to make your responses. </p>","","0","instructions","","",""
"html-keyboard-response","43","220428","0.0-18.0-0.0","6198","approach_avoid_sv1","""event"",""trial"",""time""
""fullscreenenter"",""1"",""4791""
","
","
","""event"",""trial"",""time""
""fullscreenenter"",""1"",""4791""
","
","","","","","","null","<div style=""font-size:60px;"">+</div>","null","","fixation","","",""
"memory-trial","44","227476","0.0-18.0-1.0","6198","approach_avoid_sv1","""event"",""trial"",""time""
""fullscreenenter"",""1"",""4791""
","
","
","""event"",""trial"",""time""
""fullscreenenter"",""1"",""4791""
","
","","","","","","6034.79999999702","images/straw5.png","","","memory_trial","4","definitely_new",""
"html-keyboard-response","45","227994","0.0-18.0-0.1","6198","approach_avoid_sv1","""event"",""trial"",""time""
""fullscreenenter"",""1"",""4791""
","
","
","""event"",""trial"",""time""
""fullscreenenter"",""1"",""4791""
","
","","","","","","null","<div style=""font-size:60px;"">+</div>","null","","fixation","","",""
"memory-trial","46","230935","0.0-18.0-1.1","6198","approach_avoid_sv1","""event"",""trial"",""time""
""fullscreenenter"",""1"",""4791""
","
","
","""event"",""trial"",""time""
""fullscreenenter"",""1"",""4791""
","
","","","","","","1924.5999999940395","images/sheep2.png","","","memory_trial","1","definitely_old",""
"html-keyboard-response","47","231442","0.0-18.0-0.2","6198","approach_avoid_sv1","""event"",""trial"",""time""
""fullscreenenter"",""1"",""4791""
","
","
","""event"",""trial"",""time""
""fullscreenenter"",""1"",""4791""
","
","","","","","","null","<div style=""font-size:60px;"">+</div>","null","","fixation","","",""
"memory-trial","48","234030","0.0-18.0-1.2","6198","approach_avoid_sv1","""event"",""trial"",""time""
""fullscreenenter"",""1"",""4791""
","
","
","""event"",""trial"",""time""
""fullscreenenter"",""1"",""4791""
","
","","","","","","1564","images/flower8.png","","","memory_trial","1","definitely_old",""
"html-keyboard-response","49","234552","0.0-18.0-0.3","6198","approach_avoid_sv1","""event"",""trial"",""time""
""fullscreenenter"",""1"",""4791""
","
","
","""event"",""trial"",""time""
""fullscreenenter"",""1"",""4791""
","
","","","","","","null","<div style=""font-size:60px;"">+</div>","null","","fixation","","",""
"memory-trial","50","236532","0.0-18.0-1.3","6198","approach_avoid_sv1","""event"",""trial"",""time""
""fullscreenenter"",""1"",""4791""
","
","
","""event"",""trial"",""time""
""fullscreenenter"",""1"",""4791""
","
","","","","","","959.7999999970198","images/flower2.png","","","memory_trial","1","definitely_old",""
"html-keyboard-response","51","237036","0.0-18.0-0.4","6198","approach_avoid_sv1","""event"",""trial"",""time""
""fullscreenenter"",""1"",""4791""
","
","
","""event"",""trial"",""time""
""fullscreenenter"",""1"",""4791""
","
","","","","","","null","<div style=""font-size:60px;"">+</div>","null","","fixation","","",""
"memory-trial","52","238855","0.0-18.0-1.4","6198","approach_avoid_sv1","""event"",""trial"",""time""
""fullscreenenter"",""1"",""4791""
","
","
","""event"",""trial"",""time""
""fullscreenenter"",""1"",""4791""
","
","","","","","","795.4000000059605","images/flower3.png","","","memory_trial","1","definitely_old",""
"html-keyboard-response","53","239362","0.0-18.0-0.5","6198","approach_avoid_sv1","""event"",""trial"",""time""
""fullscreenenter"",""1"",""4791""
","
","
","""event"",""trial"",""time""
""fullscreenenter"",""1"",""4791""
","
","","","","","","null","<div style=""font-size:60px;"">+</div>","null","","fixation","","",""
"memory-trial","54","242812","0.0-18.0-1.5","6198","approach_avoid_sv1","""event"",""trial"",""time""
""fullscreenenter"",""1"",""4791""
","
","
","""event"",""trial"",""time""
""fullscreenenter"",""1"",""4791""
","
","","","","","","2437.7999999970198","images/train7.png","","","memory_trial","3","maybe_new",""
"html-keyboard-response","55","243321","0.0-18.0-0.6","6198","approach_avoid_sv1","""event"",""trial"",""time""
""fullscreenenter"",""1"",""4791""
","
","
","""event"",""trial"",""time""
""fullscreenenter"",""1"",""4791""
","
","","","","","","null","<div style=""font-size:60px;"">+</div>","null","","fixation","","",""
"memory-trial","56","245368","0.0-18.0-1.6","6198","approach_avoid_sv1","""event"",""trial"",""time""
""fullscreenenter"",""1"",""4791""
","
","
","""event"",""trial"",""time""
""fullscreenenter"",""1"",""4791""
","
","","","","","","1037.699999988079","images/apple6.png","","","memory_trial","1","definitely_old",""
"html-keyboard-response","57","245873","0.0-18.0-0.7","6198","approach_avoid_sv1","""event"",""trial"",""time""
""fullscreenenter"",""1"",""4791""
","
","
","""event"",""trial"",""time""
""fullscreenenter"",""1"",""4791""
","
","","","","","","null","<div style=""font-size:60px;"">+</div>","null","","fixation","","",""
"memory-trial","58","249033","0.0-18.0-1.7","6198","approach_avoid_sv1","""event"",""trial"",""time""
""fullscreenenter"",""1"",""4791""
","
","
","""event"",""trial"",""time""
""fullscreenenter"",""1"",""4791""
","
","","","","","","2150.6000000089407","images/rabbit7.png","","","memory_trial","4","definitely_new",""
"html-keyboard-response","59","249537","0.0-18.0-0.8","6198","approach_avoid_sv1","""event"",""trial"",""time""
""fullscreenenter"",""1"",""4791""
","
","
","""event"",""trial"",""time""
""fullscreenenter"",""1"",""4791""
","
","","","","","","null","<div style=""font-size:60px;"">+</div>","null","","fixation","","",""
"memory-trial","60","251790","0.0-18.0-1.8","6198","approach_avoid_sv1","""event"",""trial"",""time""
""fullscreenenter"",""1"",""4791""
","
","
","""event"",""trial"",""time""
""fullscreenenter"",""1"",""4791""
","
","","","","","","1237.5999999940395","images/truck8.png","","","memory_trial","1","definitely_old",""
"html-keyboard-response","61","252297","0.0-18.0-0.9","6198","approach_avoid_sv1","""event"",""trial"",""time""
""fullscreenenter"",""1"",""4791""
","
","
","""event"",""trial"",""time""
""fullscreenenter"",""1"",""4791""
","
","","","","","","null","<div style=""font-size:60px;"">+</div>","null","","fixation","","",""
"memory-trial","62","254314","0.0-18.0-1.9","6198","approach_avoid_sv1","""event"",""trial"",""time""
""fullscreenenter"",""1"",""4791""
","
","
","""event"",""trial"",""time""
""fullscreenenter"",""1"",""4791""
","
","","","","","","1006.7999999970198","images/banana7.png","","","memory_trial","1","definitely_old",""
"html-keyboard-response","63","254817","0.0-18.0-0.10","6198","approach_avoid_sv1","""event"",""trial"",""time""
""fullscreenenter"",""1"",""4791""
","
","
","""event"",""trial"",""time""
""fullscreenenter"",""1"",""4791""
","
","","","","","","null","<div style=""font-size:60px;"">+</div>","null","","fixation","","",""
"memory-trial","64","258569","0.0-18.0-1.10","6198","approach_avoid_sv1","""event"",""trial"",""time""
""fullscreenenter"",""1"",""4791""
","
","
","""event"",""trial"",""time""
""fullscreenenter"",""1"",""4791""
","
","","","","","","2741.4000000059605","images/dog3.png","","","memory_trial","4","definitely_new",""
"html-keyboard-response","65","259074","0.0-18.0-0.11","6198","approach_avoid_sv1","""event"",""trial"",""time""
""fullscreenenter"",""1"",""4791""
","
","
","""event"",""trial"",""time""
""fullscreenenter"",""1"",""4791""
","
","","","","","","null","<div style=""font-size:60px;"">+</div>","null","","fixation","","",""
"memory-trial","66","261314","0.0-18.0-1.11","6198","approach_avoid_sv1","""event"",""trial"",""time""
""fullscreenenter"",""1"",""4791""
","
","
","""event"",""trial"",""time""
""fullscreenenter"",""1"",""4791""
","
","","","","","","1228.9000000059605","images/rodent8.png","","","memory_trial","1","definitely_old",""
"html-keyboard-response","67","261825","0.0-18.0-0.12","6198","approach_avoid_sv1","""event"",""trial"",""time""
""fullscreenenter"",""1"",""4791""
","
","
","""event"",""trial"",""time""
""fullscreenenter"",""1"",""4791""
","
","","","","","","null","<div style=""font-size:60px;"">+</div>","null","","fixation","","",""
"memory-trial","68","264530","0.0-18.0-1.12","6198","approach_avoid_sv1","""event"",""trial"",""time""
""fullscreenenter"",""1"",""4791""
","
","
","""event"",""trial"",""time""
""fullscreenenter"",""1"",""4791""
","
","","","","","","1694.6000000089407","images/cactus6.png","","","memory_trial","4","definitely_new",""
"html-keyboard-response","69","265033","0.0-18.0-0.13","6198","approach_avoid_sv1","""event"",""trial"",""time""
""fullscreenenter"",""1"",""4791""
","
","
","""event"",""trial"",""time""
""fullscreenenter"",""1"",""4791""
","
","","","","","","null","<div style=""font-size:60px;"">+</div>","null","","fixation","","",""
"memory-trial","70","267402","0.0-18.0-1.13","6198","approach_avoid_sv1","""event"",""trial"",""time""
""fullscreenenter"",""1"",""4791""
","
","
","""event"",""trial"",""time""
""fullscreenenter"",""1"",""4791""
","
","","","","","","1357.5","images/bed2.png","","","memory_trial","1","definitely_old",""
"html-keyboard-response","71","267905","0.0-18.0-0.14","6198","approach_avoid_sv1","""event"",""trial"",""time""
""fullscreenenter"",""1"",""4791""
","
","
","""event"",""trial"",""time""
""fullscreenenter"",""1"",""4791""
","
","","","","","","null","<div style=""font-size:60px;"">+</div>","null","","fixation","","",""
"memory-trial","72","269850","0.0-18.0-1.14","6198","approach_avoid_sv1","""event"",""trial"",""time""
""fullscreenenter"",""1"",""4791""
","
","
","""event"",""trial"",""time""
""fullscreenenter"",""1"",""4791""
","
","","","","","","933.9000000059605","images/rodent3.png","","","memory_trial","1","definitely_old",""
"html-keyboard-response","73","270353","0.0-18.0-0.15","6198","approach_avoid_sv1","""event"",""trial"",""time""
""fullscreenenter"",""1"",""4791""
","
","
","""event"",""trial"",""time""
""fullscreenenter"",""1"",""4791""
","
","","","","","","null","<div style=""font-size:60px;"">+</div>","null","","fixation","","",""
"memory-trial","74","272554","0.0-18.0-1.15","6198","approach_avoid_sv1","""event"",""trial"",""time""
""fullscreenenter"",""1"",""4791""
","
","
","""event"",""trial"",""time""
""fullscreenenter"",""1"",""4791""
","
","","","","","","1190.2000000029802","images/rabbit1.png","","","memory_trial","4","definitely_new",""
"html-keyboard-response","75","273057","0.0-18.0-0.16","6198","approach_avoid_sv1","""event"",""trial"",""time""
""fullscreenenter"",""1"",""4791""
","
","
","""event"",""trial"",""time""
""fullscreenenter"",""1"",""4791""
","
","","","","","","null","<div style=""font-size:60px;"">+</div>","null","","fixation","","",""
"memory-trial","76","275362","0.0-18.0-1.16","6198","approach_avoid_sv1","""event"",""trial"",""time""
""fullscreenenter"",""1"",""4791""
","
","
","""event"",""trial"",""time""
""fullscreenenter"",""1"",""4791""
","
","","","","","","1293.9000000059605","images/truck2.png","","","memory_trial","1","definitely_old",""
"html-keyboard-response","77","275866","0.0-18.0-0.17","6198","approach_avoid_sv1","""event"",""trial"",""time""
""fullscreenenter"",""1"",""4791""
","
","
","""event"",""trial"",""time""
""fullscreenenter"",""1"",""4791""
","
","","","","","","null","<div style=""font-size:60px;"">+</div>","null","","fixation","","",""
"memory-trial","78","277921","0.0-18.0-1.17","6198","approach_avoid_sv1","""event"",""trial"",""time""
""fullscreenenter"",""1"",""4791""
","
","
","""event"",""trial"",""time""
""fullscreenenter"",""1"",""4791""
","
","","","","","","1045.5999999940395","images/cow8.png","","","memory_trial","4","definitely_new",""
"html-keyboard-response","79","278425","0.0-18.0-0.18","6198","approach_avoid_sv1","""event"",""trial"",""time""
""fullscreenenter"",""1"",""4791""
","
","
","""event"",""trial"",""time""
""fullscreenenter"",""1"",""4791""
","
","","","","","","null","<div style=""font-size:60px;"">+</div>","null","","fixation","","",""
"memory-trial","80","280394","0.0-18.0-1.18","6198","approach_avoid_sv1","""event"",""trial"",""time""
""fullscreenenter"",""1"",""4791""
","
","
","""event"",""trial"",""time""
""fullscreenenter"",""1"",""4791""
","
","","","","","","958.2999999970198","images/banana4.png","","","memory_trial","1","definitely_old",""
"html-keyboard-response","81","280897","0.0-18.0-0.19","6198","approach_avoid_sv1","""event"",""trial"",""time""
""fullscreenenter"",""1"",""4791""
","
","
","""event"",""trial"",""time""
""fullscreenenter"",""1"",""4791""
","
","","","","","","null","<div style=""font-size:60px;"">+</div>","null","","fixation","","",""
"memory-trial","82","283537","0.0-18.0-1.19","6198","approach_avoid_sv1","""event"",""trial"",""time""
""fullscreenenter"",""1"",""4791""
","
","
","""event"",""trial"",""time""
""fullscreenenter"",""1"",""4791""
","
","","","","","","1629","images/sofa3.png","","","memory_trial","4","definitely_new",""
"html-keyboard-response","83","284041","0.0-18.0-0.20","6198","approach_avoid_sv1","""event"",""trial"",""time""
""fullscreenenter"",""1"",""4791""
","
","
","""event"",""trial"",""time""
""fullscreenenter"",""1"",""4791""
","
","","","","","","null","<div style=""font-size:60px;"">+</div>","null","","fixation","","",""
"memory-trial","84","287162","0.0-18.0-1.20","6198","approach_avoid_sv1","""event"",""trial"",""time""
""fullscreenenter"",""1"",""4791""
","
","
","""event"",""trial"",""time""
""fullscreenenter"",""1"",""4791""
","
","","","","","","2110.2000000029802","images/cat1.png","","","memory_trial","3","maybe_new",""
"html-keyboard-response","85","287665","0.0-18.0-0.21","6198","approach_avoid_sv1","""event"",""trial"",""time""
""fullscreenenter"",""1"",""4791""
","
","
","""event"",""trial"",""time""
""fullscreenenter"",""1"",""4791""
","
","","","","","","null","<div style=""font-size:60px;"">+</div>","null","","fixation","","",""
"memory-trial","86","289657","0.0-18.0-1.21","6198","approach_avoid_sv1","""event"",""trial"",""time""
""fullscreenenter"",""1"",""4791""
","
","
","""event"",""trial"",""time""
""fullscreenenter"",""1"",""4791""
","
","","","","","","981.3000000119209","images/rodent1.png","","","memory_trial","1","definitely_old",""
"html-keyboard-response","87","290162","0.0-18.0-0.22","6198","approach_avoid_sv1","""event"",""trial"",""time""
""fullscreenenter"",""1"",""4791""
","
","
","""event"",""trial"",""time""
""fullscreenenter"",""1"",""4791""
","
","","","","","","null","<div style=""font-size:60px;"">+</div>","null","","fixation","","",""
"memory-trial","88","292569","0.0-18.0-1.22","6198","approach_avoid_sv1","""event"",""trial"",""time""
""fullscreenenter"",""1"",""4791""
","
","
","""event"",""trial"",""time""
""fullscreenenter"",""1"",""4791""
","
","","","","","","1397.4000000059605","images/train1.png","","","memory_trial","4","definitely_new",""
"html-keyboard-response","89","293074","0.0-18.0-0.23","6198","approach_avoid_sv1","""event"",""trial"",""time""
""fullscreenenter"",""1"",""4791""
","
","
","""event"",""trial"",""time""
""fullscreenenter"",""1"",""4791""
","
","","","","","","null","<div style=""font-size:60px;"">+</div>","null","","fixation","","",""
"memory-trial","90","295889","0.0-18.0-1.23","6198","approach_avoid_sv1","""event"",""trial"",""time""
""fullscreenenter"",""1"",""4791""
","
","
","""event"",""trial"",""time""
""fullscreenenter"",""1"",""4791""
","
","","","","","","1804.5","images/cow7.png","","","memory_trial","1","definitely_old",""
"html-keyboard-response","91","296393","0.0-18.0-0.24","6198","approach_avoid_sv1","""event"",""trial"",""time""
""fullscreenenter"",""1"",""4791""
","
","
","""event"",""trial"",""time""
""fullscreenenter"",""1"",""4791""
","
","","","","","","null","<div style=""font-size:60px;"">+</div>","null","","fixation","","",""
"memory-trial","92","298865","0.0-18.0-1.24","6198","approach_avoid_sv1","""event"",""trial"",""time""
""fullscreenenter"",""1"",""4791""
","
","
","""event"",""trial"",""time""
""fullscreenenter"",""1"",""4791""
","
","","","","","","1462.5999999940395","images/truck4.png","","","memory_trial","1","definitely_old",""
"html-keyboard-response","93","299369","0.0-18.0-0.25","6198","approach_avoid_sv1","""event"",""trial"",""time""
""fullscreenenter"",""1"",""4791""
","
","
","""event"",""trial"",""time""
""fullscreenenter"",""1"",""4791""
","
","","","","","","null","<div style=""font-size:60px;"">+</div>","null","","fixation","","",""
"memory-trial","94","302457","0.0-18.0-1.25","6198","approach_avoid_sv1","""event"",""trial"",""time""
""fullscreenenter"",""1"",""4791""
","
","
","""event"",""trial"",""time""
""fullscreenenter"",""1"",""4791""
","
","","","","","","2077.2999999970198","images/orange8.png","","","memory_trial","3","maybe_new",""
"html-keyboard-response","95","302962","0.0-18.0-0.26","6198","approach_avoid_sv1","""event"",""trial"",""time""
""fullscreenenter"",""1"",""4791""
","
","
","""event"",""trial"",""time""
""fullscreenenter"",""1"",""4791""
","
","","","","","","null","<div style=""font-size:60px;"">+</div>","null","","fixation","","",""
"memory-trial","96","305385","0.0-18.0-1.26","6198","approach_avoid_sv1","""event"",""trial"",""time""
""fullscreenenter"",""1"",""4791""
","
","
","""event"",""trial"",""time""
""fullscreenenter"",""1"",""4791""
","
","","","","","","1412.5","images/apple1.png","","","memory_trial","3","maybe_new",""
"html-keyboard-response","97","305889","0.0-18.0-0.27","6198","approach_avoid_sv1","""event"",""trial"",""time""
""fullscreenenter"",""1"",""4791""
","
","
","""event"",""trial"",""time""
""fullscreenenter"",""1"",""4791""
","
","","","","","","null","<div style=""font-size:60px;"">+</div>","null","","fixation","","",""
"memory-trial","98","308737","0.0-18.0-1.27","6198","approach_avoid_sv1","""event"",""trial"",""time""
""fullscreenenter"",""1"",""4791""
","
","
","""event"",""trial"",""time""
""fullscreenenter"",""1"",""4791""
","
","","","","","","1838","images/train4.png","","","memory_trial","1","definitely_old",""
"html-keyboard-response","99","309242","0.0-18.0-0.28","6198","approach_avoid_sv1","""event"",""trial"",""time""
""fullscreenenter"",""1"",""4791""
","
","
","""event"",""trial"",""time""
""fullscreenenter"",""1"",""4791""
","
","","","","","","null","<div style=""font-size:60px;"">+</div>","null","","fixation","","",""
"memory-trial","100","311170","0.0-18.0-1.28","6198","approach_avoid_sv1","""event"",""trial"",""time""
""fullscreenenter"",""1"",""4791""
","
","
","""event"",""trial"",""time""
""fullscreenenter"",""1"",""4791""
","
","","","","","","916.7999999970198","images/flower4.png","","","memory_trial","1","definitely_old",""
"html-keyboard-response","101","311673","0.0-18.0-0.29","6198","approach_avoid_sv1","""event"",""trial"",""time""
""fullscreenenter"",""1"",""4791""
","
","
","""event"",""trial"",""time""
""fullscreenenter"",""1"",""4791""
","
","","","","","","null","<div style=""font-size:60px;"">+</div>","null","","fixation","","",""
"memory-trial","102","314178","0.0-18.0-1.29","6198","approach_avoid_sv1","""event"",""trial"",""time""
""fullscreenenter"",""1"",""4791""
","
","
","""event"",""trial"",""time""
""fullscreenenter"",""1"",""4791""
","
","","","","","","1493.5","images/train3.png","","","memory_trial","4","definitely_new",""
"html-keyboard-response","103","314682","0.0-18.0-0.30","6198","approach_avoid_sv1","""event"",""trial"",""time""
""fullscreenenter"",""1"",""4791""
","
","
","""event"",""trial"",""time""
""fullscreenenter"",""1"",""4791""
","
","","","","","","null","<div style=""font-size:60px;"">+</div>","null","","fixation","","",""
"memory-trial","104","317722","0.0-18.0-1.30","6198","approach_avoid_sv1","""event"",""trial"",""time""
""fullscreenenter"",""1"",""4791""
","
","
","""event"",""trial"",""time""
""fullscreenenter"",""1"",""4791""
","
","","","","","","2029.4000000059605","images/bush3.png","","","memory_trial","3","maybe_new",""
"html-keyboard-response","105","318236","0.0-18.0-0.31","6198","approach_avoid_sv1","""event"",""trial"",""time""
""fullscreenenter"",""1"",""4791""
","
","
","""event"",""trial"",""time""
""fullscreenenter"",""1"",""4791""
","
","","","","","","null","<div style=""font-size:60px;"">+</div>","null","","fixation","","",""
"memory-trial","106","322698","0.0-18.0-1.31","6198","approach_avoid_sv1","""event"",""trial"",""time""
""fullscreenenter"",""1"",""4791""
","
","
","""event"",""trial"",""time""
""fullscreenenter"",""1"",""4791""
","
","","","","","","3450.2000000029802","images/straw3.png","","","memory_trial","3","maybe_new",""
"html-keyboard-response","107","323201","0.0-18.0-0.32","6198","approach_avoid_sv1","""event"",""trial"",""time""
""fullscreenenter"",""1"",""4791""
","
","
","""event"",""trial"",""time""
""fullscreenenter"",""1"",""4791""
","
","","","","","","null","<div style=""font-size:60px;"">+</div>","null","","fixation","","",""
"memory-trial","108","326249","0.0-18.0-1.32","6198","approach_avoid_sv1","""event"",""trial"",""time""
""fullscreenenter"",""1"",""4791""
","
","
","""event"",""trial"",""time""
""fullscreenenter"",""1"",""4791""
","
","","","","","","2036.800000011921","images/horse1.png","","","memory_trial","1","definitely_old",""
"html-keyboard-response","109","326753","0.0-18.0-0.33","6198","approach_avoid_sv1","""event"",""trial"",""time""
""fullscreenenter"",""1"",""4791""
","
","
","""event"",""trial"",""time""
""fullscreenenter"",""1"",""4791""
","
","","","","","","null","<div style=""font-size:60px;"">+</div>","null","","fixation","","",""
"memory-trial","110","328858","0.0-18.0-1.33","6198","approach_avoid_sv1","""event"",""trial"",""time""
""fullscreenenter"",""1"",""4791""
","
","
","""event"",""trial"",""time""
""fullscreenenter"",""1"",""4791""
","
","","","","","","1093.7000000029802","images/cactus5.png","","","memory_trial","1","definitely_old",""
"html-keyboard-response","111","329361","0.0-18.0-0.34","6198","approach_avoid_sv1","""event"",""trial"",""time""
""fullscreenenter"",""1"",""4791""
","
","
","""event"",""trial"",""time""
""fullscreenenter"",""1"",""4791""
","
","","","","","","null","<div style=""font-size:60px;"">+</div>","null","","fixation","","",""
"memory-trial","112","331481","0.0-18.0-1.34","6198","approach_avoid_sv1","""event"",""trial"",""time""
""fullscreenenter"",""1"",""4791""
","
","
","""event"",""trial"",""time""
""fullscreenenter"",""1"",""4791""
","
","","","","","","1108.5999999940395","images/cow5.png","","","memory_trial","1","definitely_old",""
"html-keyboard-response","113","331986","0.0-18.0-0.35","6198","approach_avoid_sv1","""event"",""trial"",""time""
""fullscreenenter"",""1"",""4791""
","
","
","""event"",""trial"",""time""
""fullscreenenter"",""1"",""4791""
","
","","","","","","null","<div style=""font-size:60px;"">+</div>","null","","fixation","","",""
"memory-trial","114","334105","0.0-18.0-1.35","6198","approach_avoid_sv1","""event"",""trial"",""time""
""fullscreenenter"",""1"",""4791""
","
","
","""event"",""trial"",""time""
""fullscreenenter"",""1"",""4791""
","
","","","","","","1109.4000000059605","images/chair4.png","","","memory_trial","1","definitely_old",""
"html-keyboard-response","115","334609","0.0-18.0-0.36","6198","approach_avoid_sv1","""event"",""trial"",""time""
""fullscreenenter"",""1"",""4791""
","
","
","""event"",""trial"",""time""
""fullscreenenter"",""1"",""4791""
","
","","","","","","null","<div style=""font-size:60px;"">+</div>","null","","fixation","","",""
"memory-trial","116","337098","0.0-18.0-1.36","6198","approach_avoid_sv1","""event"",""trial"",""time""
""fullscreenenter"",""1"",""4791""
","
","
","""event"",""trial"",""time""
""fullscreenenter"",""1"",""4791""
","
","","","","","","1477.5","images/plane2.png","","","memory_trial","4","definitely_new",""
"html-keyboard-response","117","337601","0.0-18.0-0.37","6198","approach_avoid_sv1","""event"",""trial"",""time""
""fullscreenenter"",""1"",""4791""
","
","
","""event"",""trial"",""time""
""fullscreenenter"",""1"",""4791""
","
","","","","","","null","<div style=""font-size:60px;"">+</div>","null","","fixation","","",""
"memory-trial","118","339801","0.0-18.0-1.37","6198","approach_avoid_sv1","""event"",""trial"",""time""
""fullscreenenter"",""1"",""4791""
","
","
","""event"",""trial"",""time""
""fullscreenenter"",""1"",""4791""
","
","","","","","","1188.6000000089407","images/rabbit8.png","","","memory_trial","1","definitely_old",""
"html-keyboard-response","119","340306","0.0-18.0-0.38","6198","approach_avoid_sv1","""event"",""trial"",""time""
""fullscreenenter"",""1"",""4791""
","
","
","""event"",""trial"",""time""
""fullscreenenter"",""1"",""4791""
","
","","","","","","null","<div style=""font-size:60px;"">+</div>","null","","fixation","","",""
"memory-trial","120","342378","0.0-18.0-1.38","6198","approach_avoid_sv1","""event"",""trial"",""time""
""fullscreenenter"",""1"",""4791""
","
","
","""event"",""trial"",""time""
""fullscreenenter"",""1"",""4791""
","
","","","","","","1060.9000000059605","images/bush6.png","","","memory_trial","1","definitely_old",""
"html-keyboard-response","121","342881","0.0-18.0-0.39","6198","approach_avoid_sv1","""event"",""trial"",""time""
""fullscreenenter"",""1"",""4791""
","
","
","""event"",""trial"",""time""
""fullscreenenter"",""1"",""4791""
","
","","","","","","null","<div style=""font-size:60px;"">+</div>","null","","fixation","","",""
"memory-trial","122","344873","0.0-18.0-1.39","6198","approach_avoid_sv1","""event"",""trial"",""time""
""fullscreenenter"",""1"",""4791""
","
","
","""event"",""trial"",""time""
""fullscreenenter"",""1"",""4791""
","
","","","","","","981.8999999910593","images/table8.png","","","memory_trial","1","definitely_old",""
"html-keyboard-response","123","345377","0.0-18.0-0.40","6198","approach_avoid_sv1","""event"",""trial"",""time""
""fullscreenenter"",""1"",""4791""
","
","
","""event"",""trial"",""time""
""fullscreenenter"",""1"",""4791""
","
","","","","","","null","<div style=""font-size:60px;"">+</div>","null","","fixation","","",""
"memory-trial","124","348114","0.0-18.0-1.40","6198","approach_avoid_sv1","""event"",""trial"",""time""
""fullscreenenter"",""1"",""4791""
","
","
","""event"",""trial"",""time""
""fullscreenenter"",""1"",""4791""
","
","","","","","","1732.9000000059605","images/bush8.png","","","memory_trial","4","definitely_new",""
"html-keyboard-response","125","348617","0.0-18.0-0.41","6198","approach_avoid_sv1","""event"",""trial"",""time""
""fullscreenenter"",""1"",""4791""
","
","
","""event"",""trial"",""time""
""fullscreenenter"",""1"",""4791""
","
","","","","","","null","<div style=""font-size:60px;"">+</div>","null","","fixation","","",""
"memory-trial","126","352145","0.0-18.0-1.41","6198","approach_avoid_sv1","""event"",""trial"",""time""
""fullscreenenter"",""1"",""4791""
","
","
","""event"",""trial"",""time""
""fullscreenenter"",""1"",""4791""
","
","","","","","","2517.5","images/sheep3.png","","","memory_trial","4","definitely_new",""
"html-button-response","127","356209","0.0-18.0-2.41-0.41","6198","approach_avoid_sv1","""event"",""trial"",""time""
""fullscreenenter"",""1"",""4791""
","
","
","""event"",""trial"",""time""
""fullscreenenter"",""1"",""4791""
","
","","","","","","4061.7000000029802","<p> Take a break! </p><p> Click the button to continue. </p>","0","","break","","",""
"html-keyboard-response","128","356714","0.0-18.0-0.42","6198","approach_avoid_sv1","""event"",""trial"",""time""
""fullscreenenter"",""1"",""4791""
","
","
","""event"",""trial"",""time""
""fullscreenenter"",""1"",""4791""
","
","","","","","","null","<div style=""font-size:60px;"">+</div>","null","","fixation","","",""
"memory-trial","129","362914","0.0-18.0-1.42","6198","approach_avoid_sv1","""event"",""trial"",""time""
""fullscreenenter"",""1"",""4791""
","
","
","""event"",""trial"",""time""
""fullscreenenter"",""1"",""4791""
","
","","","","","","5187.9000000059605","images/orange1.png","","","memory_trial","1","definitely_old",""
"html-keyboard-response","130","363417","0.0-18.0-0.43","6198","approach_avoid_sv1","""event"",""trial"",""time""
""fullscreenenter"",""1"",""4791""
","
","
","""event"",""trial"",""time""
""fullscreenenter"",""1"",""4791""
","
","","","","","","null","<div style=""font-size:60px;"">+</div>","null","","fixation","","",""
"memory-trial","131","365521","0.0-18.0-1.43","6198","approach_avoid_sv1","""event"",""trial"",""time""
""fullscreenenter"",""1"",""4791""
","
","
","""event"",""trial"",""time""
""fullscreenenter"",""1"",""4791""
","
","","","","","","1092","images/table1.png","","","memory_trial","1","definitely_old",""
"html-keyboard-response","132","366026","0.0-18.0-0.44","6198","approach_avoid_sv1","""event"",""trial"",""time""
""fullscreenenter"",""1"",""4791""
","
","
","""event"",""trial"",""time""
""fullscreenenter"",""1"",""4791""
","
","","","","","","null","<div style=""font-size:60px;"">+</div>","null","","fixation","","",""
"memory-trial","133","368545","0.0-18.0-1.44","6198","approach_avoid_sv1","""event"",""trial"",""time""
""fullscreenenter"",""1"",""4791""
","
","
","""event"",""trial"",""time""
""fullscreenenter"",""1"",""4791""
","
","","","","","","1508.6000000089407","images/dog2.png","","","memory_trial","1","definitely_old",""
"html-keyboard-response","134","369055","0.0-18.0-0.45","6198","approach_avoid_sv1","""event"",""trial"",""time""
""fullscreenenter"",""1"",""4791""
","
","
","""event"",""trial"",""time""
""fullscreenenter"",""1"",""4791""
","
","","","","","","null","<div style=""font-size:60px;"">+</div>","null","","fixation","","",""
"memory-trial","135","370978","0.0-18.0-1.45","6198","approach_avoid_sv1","""event"",""trial"",""time""
""fullscreenenter"",""1"",""4791""
","
","
","""event"",""trial"",""time""
""fullscreenenter"",""1"",""4791""
","
","","","","","","910.7000000029802","images/goat8.png","","","memory_trial","1","definitely_old",""
"html-keyboard-response","136","371481","0.0-18.0-0.46","6198","approach_avoid_sv1","""event"",""trial"",""time""
""fullscreenenter"",""1"",""4791""
","
","
","""event"",""trial"",""time""
""fullscreenenter"",""1"",""4791""
","
","","","","","","null","<div style=""font-size:60px;"">+</div>","null","","fixation","","",""
"memory-trial","137","373593","0.0-18.0-1.46","6198","approach_avoid_sv1","""event"",""trial"",""time""
""fullscreenenter"",""1"",""4791""
","
","
","""event"",""trial"",""time""
""fullscreenenter"",""1"",""4791""
","
","","","","","","1092.9000000059605","images/table4.png","","","memory_trial","1","definitely_old",""
"html-keyboard-response","138","374098","0.0-18.0-0.47","6198","approach_avoid_sv1","""event"",""trial"",""time""
""fullscreenenter"",""1"",""4791""
","
","
","""event"",""trial"",""time""
""fullscreenenter"",""1"",""4791""
","
","","","","","","null","<div style=""font-size:60px;"">+</div>","null","","fixation","","",""
"memory-trial","139","376169","0.0-18.0-1.47","6198","approach_avoid_sv1","""event"",""trial"",""time""
""fullscreenenter"",""1"",""4791""
","
","
","""event"",""trial"",""time""
""fullscreenenter"",""1"",""4791""
","
","","","","","","1068.3999999910593","images/boat6.png","","","memory_trial","1","definitely_old",""
"html-keyboard-response","140","376673","0.0-18.0-0.48","6198","approach_avoid_sv1","""event"",""trial"",""time""
""fullscreenenter"",""1"",""4791""
","
","
","""event"",""trial"",""time""
""fullscreenenter"",""1"",""4791""
","
","","","","","","null","<div style=""font-size:60px;"">+</div>","null","","fixation","","",""
"memory-trial","141","378849","0.0-18.0-1.48","6198","approach_avoid_sv1","""event"",""trial"",""time""
""fullscreenenter"",""1"",""4791""
","
","
","""event"",""trial"",""time""
""fullscreenenter"",""1"",""4791""
","
","","","","","","1165.2999999970198","images/bush2.png","","","memory_trial","1","definitely_old",""
"html-keyboard-response","142","379353","0.0-18.0-0.49","6198","approach_avoid_sv1","""event"",""trial"",""time""
""fullscreenenter"",""1"",""4791""
","
","
","""event"",""trial"",""time""
""fullscreenenter"",""1"",""4791""
","
","","","","","","null","<div style=""font-size:60px;"">+</div>","null","","fixation","","",""
"memory-trial","143","381241","0.0-18.0-1.49","6198","approach_avoid_sv1","""event"",""trial"",""time""
""fullscreenenter"",""1"",""4791""
","
","
","""event"",""trial"",""time""
""fullscreenenter"",""1"",""4791""
","
","","","","","","884","images/cactus1.png","","","memory_trial","1","definitely_old",""
"html-keyboard-response","144","381745","0.0-18.0-0.50","6198","approach_avoid_sv1","""event"",""trial"",""time""
""fullscreenenter"",""1"",""4791""
","
","
","""event"",""trial"",""time""
""fullscreenenter"",""1"",""4791""
","
","","","","","","null","<div style=""font-size:60px;"">+</div>","null","","fixation","","",""
"memory-trial","145","383697","0.0-18.0-1.50","6198","approach_avoid_sv1","""event"",""trial"",""time""
""fullscreenenter"",""1"",""4791""
","
","
","""event"",""trial"",""time""
""fullscreenenter"",""1"",""4791""
","
","","","","","","949.2000000029802","images/tree8.png","","","memory_trial","1","definitely_old",""
"html-keyboard-response","146","384201","0.0-18.0-0.51","6198","approach_avoid_sv1","""event"",""trial"",""time""
""fullscreenenter"",""1"",""4791""
","
","
","""event"",""trial"",""time""
""fullscreenenter"",""1"",""4791""
","
","","","","","","null","<div style=""font-size:60px;"">+</div>","null","","fixation","","",""
"memory-trial","147","386121","0.0-18.0-1.51","6198","approach_avoid_sv1","""event"",""trial"",""time""
""fullscreenenter"",""1"",""4791""
","
","
","""event"",""trial"",""time""
""fullscreenenter"",""1"",""4791""
","
","","","","","","916.5","images/rabbit5.png","","","memory_trial","1","definitely_old",""
"html-keyboard-response","148","386625","0.0-18.0-0.52","6198","approach_avoid_sv1","""event"",""trial"",""time""
""fullscreenenter"",""1"",""4791""
","
","
","""event"",""trial"",""time""
""fullscreenenter"",""1"",""4791""
","
","","","","","","null","<div style=""font-size:60px;"">+</div>","null","","fixation","","",""
"memory-trial","149","388762","0.0-18.0-1.52","6198","approach_avoid_sv1","""event"",""trial"",""time""
""fullscreenenter"",""1"",""4791""
","
","
","""event"",""trial"",""time""
""fullscreenenter"",""1"",""4791""
","
","","","","","","1133","images/dog4.png","","","memory_trial","1","definitely_old",""
"html-keyboard-response","150","389266","0.0-18.0-0.53","6198","approach_avoid_sv1","""event"",""trial"",""time""
""fullscreenenter"",""1"",""4791""
","
","
","""event"",""trial"",""time""
""fullscreenenter"",""1"",""4791""
","
","","","","","","null","<div style=""font-size:60px;"">+</div>","null","","fixation","","",""
"memory-trial","151","391817","0.0-18.0-1.53","6198","approach_avoid_sv1","""event"",""trial"",""time""
""fullscreenenter"",""1"",""4791""
","
","
","""event"",""trial"",""time""
""fullscreenenter"",""1"",""4791""
","
","","","","","","1539.3999999910593","images/apple4.png","","","memory_trial","1","definitely_old",""
"html-keyboard-response","152","392321","0.0-18.0-0.54","6198","approach_avoid_sv1","""event"",""trial"",""time""
""fullscreenenter"",""1"",""4791""
","
","
","""event"",""trial"",""time""
""fullscreenenter"",""1"",""4791""
","
","","","","","","null","<div style=""font-size:60px;"">+</div>","null","","fixation","","",""
"memory-trial","153","394177","0.0-18.0-1.54","6198","approach_avoid_sv1","""event"",""trial"",""time""
""fullscreenenter"",""1"",""4791""
","
","
","""event"",""trial"",""time""
""fullscreenenter"",""1"",""4791""
","
","","","","","","852.3999999910593","images/cactus3.png","","","memory_trial","1","definitely_old",""
"html-keyboard-response","154","394681","0.0-18.0-0.55","6198","approach_avoid_sv1","""event"",""trial"",""time""
""fullscreenenter"",""1"",""4791""
","
","
","""event"",""trial"",""time""
""fullscreenenter"",""1"",""4791""
","
","","","","","","null","<div style=""font-size:60px;"">+</div>","null","","fixation","","",""
"memory-trial","155","396786","0.0-18.0-1.55","6198","approach_avoid_sv1","""event"",""trial"",""time""
""fullscreenenter"",""1"",""4791""
","
","
","""event"",""trial"",""time""
""fullscreenenter"",""1"",""4791""
","
","","","","","","1100.699999988079","images/orange3.png","","","memory_trial","1","definitely_old",""
"html-keyboard-response","156","397289","0.0-18.0-0.56","6198","approach_avoid_sv1","""event"",""trial"",""time""
""fullscreenenter"",""1"",""4791""
","
","
","""event"",""trial"",""time""
""fullscreenenter"",""1"",""4791""
","
","","","","","","null","<div style=""font-size:60px;"">+</div>","null","","fixation","","",""
"memory-trial","157","399097","0.0-18.0-1.56","6198","approach_avoid_sv1","""event"",""trial"",""time""
""fullscreenenter"",""1"",""4791""
","
","
","""event"",""trial"",""time""
""fullscreenenter"",""1"",""4791""
","
","","","","","","803.6999999880791","images/chair6.png","","","memory_trial","1","definitely_old",""
"html-keyboard-response","158","399601","0.0-18.0-0.57","6198","approach_avoid_sv1","""event"",""trial"",""time""
""fullscreenenter"",""1"",""4791""
","
","
","""event"",""trial"",""time""
""fullscreenenter"",""1"",""4791""
","
","","","","","","null","<div style=""font-size:60px;"">+</div>","null","","fixation","","",""
"memory-trial","159","401610","0.0-18.0-1.57","6198","approach_avoid_sv1","""event"",""trial"",""time""
""fullscreenenter"",""1"",""4791""
","
","
","""event"",""trial"",""time""
""fullscreenenter"",""1"",""4791""
","
","","","","","","1005","images/banana3.png","","","memory_trial","4","definitely_new",""
"html-keyboard-response","160","402113","0.0-18.0-0.58","6198","approach_avoid_sv1","""event"",""trial"",""time""
""fullscreenenter"",""1"",""4791""
","
","
","""event"",""trial"",""time""
""fullscreenenter"",""1"",""4791""
","
","","","","","","null","<div style=""font-size:60px;"">+</div>","null","","fixation","","",""
"memory-trial","161","405226","0.0-18.0-1.58","6198","approach_avoid_sv1","""event"",""trial"",""time""
""fullscreenenter"",""1"",""4791""
","
","
","""event"",""trial"",""time""
""fullscreenenter"",""1"",""4791""
","
","","","","","","2100.9000000059605","images/goat5.png","","","memory_trial","1","definitely_old",""
"html-keyboard-response","162","405729","0.0-18.0-0.59","6198","approach_avoid_sv1","""event"",""trial"",""time""
""fullscreenenter"",""1"",""4791""
","
","
","""event"",""trial"",""time""
""fullscreenenter"",""1"",""4791""
","
","","","","","","null","<div style=""font-size:60px;"">+</div>","null","","fixation","","",""
"memory-trial","163","407929","0.0-18.0-1.59","6198","approach_avoid_sv1","""event"",""trial"",""time""
""fullscreenenter"",""1"",""4791""
","
","
","""event"",""trial"",""time""
""fullscreenenter"",""1"",""4791""
","
","","","","","","1195.9000000059605","images/bed4.png","","","memory_trial","4","definitely_new",""
"html-keyboard-response","164","408433","0.0-18.0-0.60","6198","approach_avoid_sv1","""event"",""trial"",""time""
""fullscreenenter"",""1"",""4791""
","
","
","""event"",""trial"",""time""
""fullscreenenter"",""1"",""4791""
","
","","","","","","null","<div style=""font-size:60px;"">+</div>","null","","fixation","","",""
"memory-trial","165","410409","0.0-18.0-1.60","6198","approach_avoid_sv1","""event"",""trial"",""time""
""fullscreenenter"",""1"",""4791""
","
","
","""event"",""trial"",""time""
""fullscreenenter"",""1"",""4791""
","
","","","","","","972.4000000059605","images/goat7.png","","","memory_trial","1","definitely_old",""
"html-keyboard-response","166","410913","0.0-18.0-0.61","6198","approach_avoid_sv1","""event"",""trial"",""time""
""fullscreenenter"",""1"",""4791""
","
","
","""event"",""trial"",""time""
""fullscreenenter"",""1"",""4791""
","
","","","","","","null","<div style=""font-size:60px;"">+</div>","null","","fixation","","",""
"memory-trial","167","414842","0.0-18.0-1.61","6198","approach_avoid_sv1","""event"",""trial"",""time""
""fullscreenenter"",""1"",""4791""
","
","
","""event"",""trial"",""time""
""fullscreenenter"",""1"",""4791""
","
","","","","","","2924.7999999970198","images/straw6.png","","","memory_trial","1","definitely_old",""
"html-keyboard-response","168","415345","0.0-18.0-0.62","6198","approach_avoid_sv1","""event"",""trial"",""time""
""fullscreenenter"",""1"",""4791""
","
","
","""event"",""trial"",""time""
""fullscreenenter"",""1"",""4791""
","
","","","","","","null","<div style=""font-size:60px;"">+</div>","null","","fixation","","",""
"memory-trial","169","417473","0.0-18.0-1.62","6198","approach_avoid_sv1","""event"",""trial"",""time""
""fullscreenenter"",""1"",""4791""
","
","
","""event"",""trial"",""time""
""fullscreenenter"",""1"",""4791""
","
","","","","","","1124.0999999940395","images/sofa5.png","","","memory_trial","1","definitely_old",""
"html-keyboard-response","170","417978","0.0-18.0-0.63","6198","approach_avoid_sv1","""event"",""trial"",""time""
""fullscreenenter"",""1"",""4791""
","
","
","""event"",""trial"",""time""
""fullscreenenter"",""1"",""4791""
","
","","","","","","null","<div style=""font-size:60px;"">+</div>","null","","fixation","","",""
"memory-trial","171","420169","0.0-18.0-1.63","6198","approach_avoid_sv1","""event"",""trial"",""time""
""fullscreenenter"",""1"",""4791""
","
","
","""event"",""trial"",""time""
""fullscreenenter"",""1"",""4791""
","
","","","","","","1188","images/train5.png","","","memory_trial","1","definitely_old",""
"html-keyboard-response","172","420673","0.0-18.0-0.64","6198","approach_avoid_sv1","""event"",""trial"",""time""
""fullscreenenter"",""1"",""4791""
","
","
","""event"",""trial"",""time""
""fullscreenenter"",""1"",""4791""
","
","","","","","","null","<div style=""font-size:60px;"">+</div>","null","","fixation","","",""
"memory-trial","173","422706","0.0-18.0-1.64","6198","approach_avoid_sv1","""event"",""trial"",""time""
""fullscreenenter"",""1"",""4791""
","
","
","""event"",""trial"",""time""
""fullscreenenter"",""1"",""4791""
","
","","","","","","1028.9000000059605","images/goat6.png","","","memory_trial","1","definitely_old",""
"html-keyboard-response","174","423209","0.0-18.0-0.65","6198","approach_avoid_sv1","""event"",""trial"",""time""
""fullscreenenter"",""1"",""4791""
","
","
","""event"",""trial"",""time""
""fullscreenenter"",""1"",""4791""
","
","","","","","","null","<div style=""font-size:60px;"">+</div>","null","","fixation","","",""
"memory-trial","175","425225","0.0-18.0-1.65","6198","approach_avoid_sv1","""event"",""trial"",""time""
""fullscreenenter"",""1"",""4791""
","
","
","""event"",""trial"",""time""
""fullscreenenter"",""1"",""4791""
","
","","","","","","1012.5999999940395","images/plane4.png","","","memory_trial","1","definitely_old",""
"html-keyboard-response","176","425729","0.0-18.0-0.66","6198","approach_avoid_sv1","""event"",""trial"",""time""
""fullscreenenter"",""1"",""4791""
","
","
","""event"",""trial"",""time""
""fullscreenenter"",""1"",""4791""
","
","","","","","","null","<div style=""font-size:60px;"">+</div>","null","","fixation","","",""
"memory-trial","177","428065","0.0-18.0-1.66","6198","approach_avoid_sv1","""event"",""trial"",""time""
""fullscreenenter"",""1"",""4791""
","
","
","""event"",""trial"",""time""
""fullscreenenter"",""1"",""4791""
","
","","","","","","1332.6000000089407","images/rodent4.png","","","memory_trial","1","definitely_old",""
"html-keyboard-response","178","428569","0.0-18.0-0.67","6198","approach_avoid_sv1","""event"",""trial"",""time""
""fullscreenenter"",""1"",""4791""
","
","
","""event"",""trial"",""time""
""fullscreenenter"",""1"",""4791""
","
","","","","","","null","<div style=""font-size:60px;"">+</div>","null","","fixation","","",""
"memory-trial","179","430465","0.0-18.0-1.67","6198","approach_avoid_sv1","""event"",""trial"",""time""
""fullscreenenter"",""1"",""4791""
","
","
","""event"",""trial"",""time""
""fullscreenenter"",""1"",""4791""
","
","","","","","","892.5","images/cat5.png","","","memory_trial","1","definitely_old",""
"html-keyboard-response","180","430970","0.0-18.0-0.68","6198","approach_avoid_sv1","""event"",""trial"",""time""
""fullscreenenter"",""1"",""4791""
","
","
","""event"",""trial"",""time""
""fullscreenenter"",""1"",""4791""
","
","","","","","","null","<div style=""font-size:60px;"">+</div>","null","","fixation","","",""
"memory-trial","181","432867","0.0-18.0-1.68","6198","approach_avoid_sv1","""event"",""trial"",""time""
""fullscreenenter"",""1"",""4791""
","
","
","""event"",""trial"",""time""
""fullscreenenter"",""1"",""4791""
","
","","","","","","884","images/rabbit3.png","","","memory_trial","1","definitely_old",""
"html-keyboard-response","182","433377","0.0-18.0-0.69","6198","approach_avoid_sv1","""event"",""trial"",""time""
""fullscreenenter"",""1"",""4791""
","
","
","""event"",""trial"",""time""
""fullscreenenter"",""1"",""4791""
","
","","","","","","null","<div style=""font-size:60px;"">+</div>","null","","fixation","","",""
"memory-trial","183","435522","0.0-18.0-1.69","6198","approach_avoid_sv1","""event"",""trial"",""time""
""fullscreenenter"",""1"",""4791""
","
","
","""event"",""trial"",""time""
""fullscreenenter"",""1"",""4791""
","
","","","","","","1139.7000000029802","images/train6.png","","","memory_trial","4","definitely_new",""
"html-keyboard-response","184","436025","0.0-18.0-0.70","6198","approach_avoid_sv1","""event"",""trial"",""time""
""fullscreenenter"",""1"",""4791""
","
","
","""event"",""trial"",""time""
""fullscreenenter"",""1"",""4791""
","
","","","","","","null","<div style=""font-size:60px;"">+</div>","null","","fixation","","",""
"memory-trial","185","437929","0.0-18.0-1.70","6198","approach_avoid_sv1","""event"",""trial"",""time""
""fullscreenenter"",""1"",""4791""
","
","
","""event"",""trial"",""time""
""fullscreenenter"",""1"",""4791""
","
","","","","","","900.1000000089407","images/table3.png","","","memory_trial","1","definitely_old",""
"html-keyboard-response","186","438433","0.0-18.0-0.71","6198","approach_avoid_sv1","""event"",""trial"",""time""
""fullscreenenter"",""1"",""4791""
","
","
","""event"",""trial"",""time""
""fullscreenenter"",""1"",""4791""
","
","","","","","","null","<div style=""font-size:60px;"">+</div>","null","","fixation","","",""
"memory-trial","187","440282","0.0-18.0-1.71","6198","approach_avoid_sv1","""event"",""trial"",""time""
""fullscreenenter"",""1"",""4791""
","
","
","""event"",""trial"",""time""
""fullscreenenter"",""1"",""4791""
","
","","","","","","845","images/horse8.png","","","memory_trial","1","definitely_old",""
"html-keyboard-response","188","440785","0.0-18.0-0.72","6198","approach_avoid_sv1","""event"",""trial"",""time""
""fullscreenenter"",""1"",""4791""
","
","
","""event"",""trial"",""time""
""fullscreenenter"",""1"",""4791""
","
","","","","","","null","<div style=""font-size:60px;"">+</div>","null","","fixation","","",""
"memory-trial","189","444609","0.0-18.0-1.72","6198","approach_avoid_sv1","""event"",""trial"",""time""
""fullscreenenter"",""1"",""4791""
","
","
","""event"",""trial"",""time""
""fullscreenenter"",""1"",""4791""
","
","","","","","","2820.0999999940395","images/cat7.png","","","memory_trial","4","definitely_new",""
"html-keyboard-response","190","445114","0.0-18.0-0.73","6198","approach_avoid_sv1","""event"",""trial"",""time""
""fullscreenenter"",""1"",""4791""
","
","
","""event"",""trial"",""time""
""fullscreenenter"",""1"",""4791""
","
","","","","","","null","<div style=""font-size:60px;"">+</div>","null","","fixation","","",""
"memory-trial","191","447257","0.0-18.0-1.73","6198","approach_avoid_sv1","""event"",""trial"",""time""
""fullscreenenter"",""1"",""4791""
","
","
","""event"",""trial"",""time""
""fullscreenenter"",""1"",""4791""
","
","","","","","","1138.7999999970198","images/sheep8.png","","","memory_trial","4","definitely_new",""
"html-keyboard-response","192","447760","0.0-18.0-0.74","6198","approach_avoid_sv1","""event"",""trial"",""time""
""fullscreenenter"",""1"",""4791""
","
","
","""event"",""trial"",""time""
""fullscreenenter"",""1"",""4791""
","
","","","","","","null","<div style=""font-size:60px;"">+</div>","null","","fixation","","",""
"memory-trial","193","450537","0.0-18.0-1.74","6198","approach_avoid_sv1","""event"",""trial"",""time""
""fullscreenenter"",""1"",""4791""
","
","
","""event"",""trial"",""time""
""fullscreenenter"",""1"",""4791""
","
","","","","","","1771.9000000059605","images/dog1.png","","","memory_trial","4","definitely_new",""
"html-keyboard-response","194","451040","0.0-18.0-0.75","6198","approach_avoid_sv1","""event"",""trial"",""time""
""fullscreenenter"",""1"",""4791""
","
","
","""event"",""trial"",""time""
""fullscreenenter"",""1"",""4791""
","
","","","","","","null","<div style=""font-size:60px;"">+</div>","null","","fixation","","",""
"memory-trial","195","454937","0.0-18.0-1.75","6198","approach_avoid_sv1","""event"",""trial"",""time""
""fullscreenenter"",""1"",""4791""
","
","
","""event"",""trial"",""time""
""fullscreenenter"",""1"",""4791""
","
","","","","","","2892.3999999910593","images/banana2.png","","","memory_trial","4","definitely_new",""
"html-keyboard-response","196","455444","0.0-18.0-0.76","6198","approach_avoid_sv1","""event"",""trial"",""time""
""fullscreenenter"",""1"",""4791""
","
","
","""event"",""trial"",""time""
""fullscreenenter"",""1"",""4791""
","
","","","","","","null","<div style=""font-size:60px;"">+</div>","null","","fixation","","",""
"memory-trial","197","458497","0.0-18.0-1.76","6198","approach_avoid_sv1","""event"",""trial"",""time""
""fullscreenenter"",""1"",""4791""
","
","
","""event"",""trial"",""time""
""fullscreenenter"",""1"",""4791""
","
","","","","","","2048.2000000029802","images/truck3.png","","","memory_trial","2","maybe_old",""
"html-keyboard-response","198","459000","0.0-18.0-0.77","6198","approach_avoid_sv1","""event"",""trial"",""time""
""fullscreenenter"",""1"",""4791""
","
","
","""event"",""trial"",""time""
""fullscreenenter"",""1"",""4791""
","
","","","","","","null","<div style=""font-size:60px;"">+</div>","null","","fixation","","",""
"memory-trial","199","460673","0.0-18.0-1.77","6198","approach_avoid_sv1","""event"",""trial"",""time""
""fullscreenenter"",""1"",""4791""
","
","
","""event"",""trial"",""time""
""fullscreenenter"",""1"",""4791""
","
","","","","","","668.5","images/banana1.png","","","memory_trial","3","maybe_new",""
"html-keyboard-response","200","461177","0.0-18.0-0.78","6198","approach_avoid_sv1","""event"",""trial"",""time""
""fullscreenenter"",""1"",""4791""
","
","
","""event"",""trial"",""time""
""fullscreenenter"",""1"",""4791""
","
","","","","","","null","<div style=""font-size:60px;"">+</div>","null","","fixation","","",""
"memory-trial","201","463073","0.0-18.0-1.78","6198","approach_avoid_sv1","""event"",""trial"",""time""
""fullscreenenter"",""1"",""4791""
","
","
","""event"",""trial"",""time""
""fullscreenenter"",""1"",""4791""
","
","","","","","","891.4000000059605","images/sofa8.png","","","memory_trial","2","maybe_old",""
"html-keyboard-response","202","463577","0.0-18.0-0.79","6198","approach_avoid_sv1","""event"",""trial"",""time""
""fullscreenenter"",""1"",""4791""
","
","
","""event"",""trial"",""time""
""fullscreenenter"",""1"",""4791""
","
","","","","","","null","<div style=""font-size:60px;"">+</div>","null","","fixation","","",""
"memory-trial","203","465409","0.0-18.0-1.79","6198","approach_avoid_sv1","""event"",""trial"",""time""
""fullscreenenter"",""1"",""4791""
","
","
","""event"",""trial"",""time""
""fullscreenenter"",""1"",""4791""
","
","","","","","","827.2000000029802","images/table2.png","","","memory_trial","1","definitely_old",""
"html-keyboard-response","204","465912","0.0-18.0-0.80","6198","approach_avoid_sv1","""event"",""trial"",""time""
""fullscreenenter"",""1"",""4791""
","
","
","""event"",""trial"",""time""
""fullscreenenter"",""1"",""4791""
","
","","","","","","null","<div style=""font-size:60px;"">+</div>","null","","fixation","","",""
"memory-trial","205","468513","0.0-18.0-1.80","6198","approach_avoid_sv1","""event"",""trial"",""time""
""fullscreenenter"",""1"",""4791""
","
","
","""event"",""trial"",""time""
""fullscreenenter"",""1"",""4791""
","
","","","","","","1596.4000000059605","images/dog5.png","","","memory_trial","4","definitely_new",""
"html-keyboard-response","206","469016","0.0-18.0-0.81","6198","approach_avoid_sv1","""event"",""trial"",""time""
""fullscreenenter"",""1"",""4791""
","
","
","""event"",""trial"",""time""
""fullscreenenter"",""1"",""4791""
","
","","","","","","null","<div style=""font-size:60px;"">+</div>","null","","fixation","","",""
"memory-trial","207","471225","0.0-18.0-1.81","6198","approach_avoid_sv1","""event"",""trial"",""time""
""fullscreenenter"",""1"",""4791""
","
","
","""event"",""trial"",""time""
""fullscreenenter"",""1"",""4791""
","
","","","","","","1204.6000000089407","images/flower5.png","","","memory_trial","4","definitely_new",""
"html-keyboard-response","208","471729","0.0-18.0-0.82","6198","approach_avoid_sv1","""event"",""trial"",""time""
""fullscreenenter"",""1"",""4791""
","
","
","""event"",""trial"",""time""
""fullscreenenter"",""1"",""4791""
","
","","","","","","null","<div style=""font-size:60px;"">+</div>","null","","fixation","","",""
"memory-trial","209","474017","0.0-18.0-1.82","6198","approach_avoid_sv1","""event"",""trial"",""time""
""fullscreenenter"",""1"",""4791""
","
","
","""event"",""trial"",""time""
""fullscreenenter"",""1"",""4791""
","
","","","","","","1283.0999999940395","images/chair7.png","","","memory_trial","4","definitely_new",""
"html-keyboard-response","210","474521","0.0-18.0-0.83","6198","approach_avoid_sv1","""event"",""trial"",""time""
""fullscreenenter"",""1"",""4791""
","
","
","""event"",""trial"",""time""
""fullscreenenter"",""1"",""4791""
","
","","","","","","null","<div style=""font-size:60px;"">+</div>","null","","fixation","","",""
"memory-trial","211","476904","0.0-18.0-1.83","6198","approach_avoid_sv1","""event"",""trial"",""time""
""fullscreenenter"",""1"",""4791""
","
","
","""event"",""trial"",""time""
""fullscreenenter"",""1"",""4791""
","
","","","","","","1379.6000000089407","images/table6.png","","","memory_trial","4","definitely_new",""
"html-keyboard-response","212","477408","0.0-18.0-0.84","6198","approach_avoid_sv1","""event"",""trial"",""time""
""fullscreenenter"",""1"",""4791""
","
","
","""event"",""trial"",""time""
""fullscreenenter"",""1"",""4791""
","
","","","","","","null","<div style=""font-size:60px;"">+</div>","null","","fixation","","",""
"memory-trial","213","479465","0.0-18.0-1.84","6198","approach_avoid_sv1","""event"",""trial"",""time""
""fullscreenenter"",""1"",""4791""
","
","
","""event"",""trial"",""time""
""fullscreenenter"",""1"",""4791""
","
","","","","","","1052.5999999940395","images/straw2.png","","","memory_trial","1","definitely_old",""
"html-keyboard-response","214","479969","0.0-18.0-0.85","6198","approach_avoid_sv1","""event"",""trial"",""time""
""fullscreenenter"",""1"",""4791""
","
","
","""event"",""trial"",""time""
""fullscreenenter"",""1"",""4791""
","
","","","","","","null","<div style=""font-size:60px;"">+</div>","null","","fixation","","",""
"memory-trial","215","482281","0.0-18.0-1.85","6198","approach_avoid_sv1","""event"",""trial"",""time""
""fullscreenenter"",""1"",""4791""
","
","
","""event"",""trial"",""time""
""fullscreenenter"",""1"",""4791""
","
","","","","","","1307.7000000029802","images/chair3.png","","","memory_trial","4","definitely_new",""
"html-keyboard-response","216","482785","0.0-18.0-0.86","6198","approach_avoid_sv1","""event"",""trial"",""time""
""fullscreenenter"",""1"",""4791""
","
","
","""event"",""trial"",""time""
""fullscreenenter"",""1"",""4791""
","
","","","","","","null","<div style=""font-size:60px;"">+</div>","null","","fixation","","",""
"memory-trial","217","485376","0.0-18.0-1.86","6198","approach_avoid_sv1","""event"",""trial"",""time""
""fullscreenenter"",""1"",""4791""
","
","
","""event"",""trial"",""time""
""fullscreenenter"",""1"",""4791""
","
","","","","","","1587.5","images/rodent5.png","","","memory_trial","3","maybe_new",""
"html-keyboard-response","218","485881","0.0-18.0-0.87","6198","approach_avoid_sv1","""event"",""trial"",""time""
""fullscreenenter"",""1"",""4791""
","
","
","""event"",""trial"",""time""
""fullscreenenter"",""1"",""4791""
","
","","","","","","null","<div style=""font-size:60px;"">+</div>","null","","fixation","","",""
"memory-trial","219","489473","0.0-18.0-1.87","6198","approach_avoid_sv1","""event"",""trial"",""time""
""fullscreenenter"",""1"",""4791""
","
","
","""event"",""trial"",""time""
""fullscreenenter"",""1"",""4791""
","
","","","","","","2586.5999999940395","images/tree2.png","","","memory_trial","1","definitely_old",""
"html-keyboard-response","220","489976","0.0-18.0-0.88","6198","approach_avoid_sv1","""event"",""trial"",""time""
""fullscreenenter"",""1"",""4791""
","
","
","""event"",""trial"",""time""
""fullscreenenter"",""1"",""4791""
","
","","","","","","null","<div style=""font-size:60px;"">+</div>","null","","fixation","","",""
"memory-trial","221","494401","0.0-18.0-1.88","6198","approach_avoid_sv1","""event"",""trial"",""time""
""fullscreenenter"",""1"",""4791""
","
","
","""event"",""trial"",""time""
""fullscreenenter"",""1"",""4791""
","
","","","","","","3419.3999999910593","images/boat3.png","","","memory_trial","4","definitely_new",""
"html-keyboard-response","222","494904","0.0-18.0-0.89","6198","approach_avoid_sv1","""event"",""trial"",""time""
""fullscreenenter"",""1"",""4791""
","
","
","""event"",""trial"",""time""
""fullscreenenter"",""1"",""4791""
","
","","","","","","null","<div style=""font-size:60px;"">+</div>","null","","fixation","","",""
"memory-trial","223","496848","0.0-18.0-1.89","6198","approach_avoid_sv1","""event"",""trial"",""time""
""fullscreenenter"",""1"",""4791""
","
","
","""event"",""trial"",""time""
""fullscreenenter"",""1"",""4791""
","
","","","","","","939.1999999880791","images/goat3.png","","","memory_trial","1","definitely_old",""
"html-keyboard-response","224","497353","0.0-18.0-0.90","6198","approach_avoid_sv1","""event"",""trial"",""time""
""fullscreenenter"",""1"",""4791""
","
","
","""event"",""trial"",""time""
""fullscreenenter"",""1"",""4791""
","
","","","","","","null","<div style=""font-size:60px;"">+</div>","null","","fixation","","",""
"memory-trial","225","499968","0.0-18.0-1.90","6198","approach_avoid_sv1","""event"",""trial"",""time""
""fullscreenenter"",""1"",""4791""
","
","
","""event"",""trial"",""time""
""fullscreenenter"",""1"",""4791""
","
","","","","","","1611.2999999970198","images/tree4.png","","","memory_trial","4","definitely_new",""
"html-keyboard-response","226","500473","0.0-18.0-0.91","6198","approach_avoid_sv1","""event"",""trial"",""time""
""fullscreenenter"",""1"",""4791""
","
","
","""event"",""trial"",""time""
""fullscreenenter"",""1"",""4791""
","
","","","","","","null","<div style=""font-size:60px;"">+</div>","null","","fixation","","",""
"memory-trial","227","503033","0.0-18.0-1.91","6198","approach_avoid_sv1","""event"",""trial"",""time""
""fullscreenenter"",""1"",""4791""
","
","
","""event"",""trial"",""time""
""fullscreenenter"",""1"",""4791""
","
","","","","","","1554.5999999940395","images/horse6.png","","","memory_trial","4","definitely_new",""
"html-button-response","228","506815","0.0-18.0-2.91-0.91","6198","approach_avoid_sv1","""event"",""trial"",""time""
""fullscreenenter"",""1"",""4791""
","
","
","""event"",""trial"",""time""
""fullscreenenter"",""1"",""4791""
","
","","","","","","3779.7000000029802","<p> Take a break! </p><p> Click the button to continue. </p>","0","","break","","",""
"html-keyboard-response","229","507322","0.0-18.0-0.92","6198","approach_avoid_sv1","""event"",""trial"",""time""
""fullscreenenter"",""1"",""4791""
","
","
","""event"",""trial"",""time""
""fullscreenenter"",""1"",""4791""
","
","","","","","","null","<div style=""font-size:60px;"">+</div>","null","","fixation","","",""
"memory-trial","230","511586","0.0-18.0-1.92","6198","approach_avoid_sv1","""event"",""trial"",""time""
""fullscreenenter"",""1"",""4791""
","
","
","""event"",""trial"",""time""
""fullscreenenter"",""1"",""4791""
","
","","","","","","3258.0999999940395","images/truck6.png","","","memory_trial","4","definitely_new",""
"html-keyboard-response","231","512089","0.0-18.0-0.93","6198","approach_avoid_sv1","""event"",""trial"",""time""
""fullscreenenter"",""1"",""4791""
","
","
","""event"",""trial"",""time""
""fullscreenenter"",""1"",""4791""
","
","","","","","","null","<div style=""font-size:60px;"">+</div>","null","","fixation","","",""
"memory-trial","232","514505","0.0-18.0-1.93","6198","approach_avoid_sv1","""event"",""trial"",""time""
""fullscreenenter"",""1"",""4791""
","
","
","""event"",""trial"",""time""
""fullscreenenter"",""1"",""4791""
","
","","","","","","1410.5999999940395","images/cat8.png","","","memory_trial","1","definitely_old",""
"html-keyboard-response","233","515009","0.0-18.0-0.94","6198","approach_avoid_sv1","""event"",""trial"",""time""
""fullscreenenter"",""1"",""4791""
","
","
","""event"",""trial"",""time""
""fullscreenenter"",""1"",""4791""
","
","","","","","","null","<div style=""font-size:60px;"">+</div>","null","","fixation","","",""
"memory-trial","234","517810","0.0-18.0-1.94","6198","approach_avoid_sv1","""event"",""trial"",""time""
""fullscreenenter"",""1"",""4791""
","
","
","""event"",""trial"",""time""
""fullscreenenter"",""1"",""4791""
","
","","","","","","1795.5","images/apple3.png","","","memory_trial","4","definitely_new",""
"html-keyboard-response","235","518313","0.0-18.0-0.95","6198","approach_avoid_sv1","""event"",""trial"",""time""
""fullscreenenter"",""1"",""4791""
","
","
","""event"",""trial"",""time""
""fullscreenenter"",""1"",""4791""
","
","","","","","","null","<div style=""font-size:60px;"">+</div>","null","","fixation","","",""
"memory-trial","236","520777","0.0-18.0-1.95","6198","approach_avoid_sv1","""event"",""trial"",""time""
""fullscreenenter"",""1"",""4791""
","
","
","""event"",""trial"",""time""
""fullscreenenter"",""1"",""4791""
","
","","","","","","1458.5","images/cat4.png","","","memory_trial","1","definitely_old",""
"html-keyboard-response","237","521281","0.0-18.0-0.96","6198","approach_avoid_sv1","""event"",""trial"",""time""
""fullscreenenter"",""1"",""4791""
","
","
","""event"",""trial"",""time""
""fullscreenenter"",""1"",""4791""
","
","","","","","","null","<div style=""font-size:60px;"">+</div>","null","","fixation","","",""
"memory-trial","238","523657","0.0-18.0-1.96","6198","approach_avoid_sv1","""event"",""trial"",""time""
""fullscreenenter"",""1"",""4791""
","
","
","""event"",""trial"",""time""
""fullscreenenter"",""1"",""4791""
","
","","","","","","1370.8999999910593","images/flower7.png","","","memory_trial","4","definitely_new",""
"html-keyboard-response","239","524162","0.0-18.0-0.97","6198","approach_avoid_sv1","""event"",""trial"",""time""
""fullscreenenter"",""1"",""4791""
","
","
","""event"",""trial"",""time""
""fullscreenenter"",""1"",""4791""
","
","","","","","","null","<div style=""font-size:60px;"">+</div>","null","","fixation","","",""
"memory-trial","240","526361","0.0-18.0-1.97","6198","approach_avoid_sv1","""event"",""trial"",""time""
""fullscreenenter"",""1"",""4791""
","
","
","""event"",""trial"",""time""
""fullscreenenter"",""1"",""4791""
","
","","","","","","1194","images/boat5.png","","","memory_trial","4","definitely_new",""
"html-keyboard-response","241","526869","0.0-18.0-0.98","6198","approach_avoid_sv1","""event"",""trial"",""time""
""fullscreenenter"",""1"",""4791""
","
","
","""event"",""trial"",""time""
""fullscreenenter"",""1"",""4791""
","
","","","","","","null","<div style=""font-size:60px;"">+</div>","null","","fixation","","",""
"memory-trial","242","529681","0.0-18.0-1.98","6198","approach_avoid_sv1","""event"",""trial"",""time""
""fullscreenenter"",""1"",""4791""
","
","
","""event"",""trial"",""time""
""fullscreenenter"",""1"",""4791""
","
","","","","","","1807.5","images/orange6.png","","","memory_trial","1","definitely_old",""
"html-keyboard-response","243","530185","0.0-18.0-0.99","6198","approach_avoid_sv1","""event"",""trial"",""time""
""fullscreenenter"",""1"",""4791""
","
","
","""event"",""trial"",""time""
""fullscreenenter"",""1"",""4791""
","
","","","","","","null","<div style=""font-size:60px;"">+</div>","null","","fixation","","",""
"memory-trial","244","532729","0.0-18.0-1.99","6198","approach_avoid_sv1","""event"",""trial"",""time""
""fullscreenenter"",""1"",""4791""
","
","
","""event"",""trial"",""time""
""fullscreenenter"",""1"",""4791""
","
","","","","","","1538.5","images/cactus8.png","","","memory_trial","1","definitely_old",""
"html-keyboard-response","245","533233","0.0-18.0-0.100","6198","approach_avoid_sv1","""event"",""trial"",""time""
""fullscreenenter"",""1"",""4791""
","
","
","""event"",""trial"",""time""
""fullscreenenter"",""1"",""4791""
","
","","","","","","null","<div style=""font-size:60px;"">+</div>","null","","fixation","","",""
"memory-trial","246","536641","0.0-18.0-1.100","6198","approach_avoid_sv1","""event"",""trial"",""time""
""fullscreenenter"",""1"",""4791""
","
","
","""event"",""trial"",""time""
""fullscreenenter"",""1"",""4791""
","
","","","","","","2403.2999999970198","images/rabbit4.png","","","memory_trial","4","definitely_new",""
"html-keyboard-response","247","537146","0.0-18.0-0.101","6198","approach_avoid_sv1","""event"",""trial"",""time""
""fullscreenenter"",""1"",""4791""
","
","
","""event"",""trial"",""time""
""fullscreenenter"",""1"",""4791""
","
","","","","","","null","<div style=""font-size:60px;"">+</div>","null","","fixation","","",""
"memory-trial","248","541553","0.0-18.0-1.101","6198","approach_avoid_sv1","""event"",""trial"",""time""
""fullscreenenter"",""1"",""4791""
","
","
","""event"",""trial"",""time""
""fullscreenenter"",""1"",""4791""
","
","","","","","","3402.4000000059605","images/bed7.png","","","memory_trial","4","definitely_new",""
"html-keyboard-response","249","542058","0.0-18.0-0.102","6198","approach_avoid_sv1","""event"",""trial"",""time""
""fullscreenenter"",""1"",""4791""
","
","
","""event"",""trial"",""time""
""fullscreenenter"",""1"",""4791""
","
","","","","","","null","<div style=""font-size:60px;"">+</div>","null","","fixation","","",""
"memory-trial","250","545065","0.0-18.0-1.102","6198","approach_avoid_sv1","""event"",""trial"",""time""
""fullscreenenter"",""1"",""4791""
","
","
","""event"",""trial"",""time""
""fullscreenenter"",""1"",""4791""
","
","","","","","","2001.7999999970198","images/goat1.png","","","memory_trial","4","definitely_new",""
"html-keyboard-response","251","545569","0.0-18.0-0.103","6198","approach_avoid_sv1","""event"",""trial"",""time""
""fullscreenenter"",""1"",""4791""
","
","
","""event"",""trial"",""time""
""fullscreenenter"",""1"",""4791""
","
","","","","","","null","<div style=""font-size:60px;"">+</div>","null","","fixation","","",""
"memory-trial","252","547873","0.0-18.0-1.103","6198","approach_avoid_sv1","""event"",""trial"",""time""
""fullscreenenter"",""1"",""4791""
","
","
","""event"",""trial"",""time""
""fullscreenenter"",""1"",""4791""
","
","","","","","","1298.5999999940395","images/straw4.png","","","memory_trial","4","definitely_new",""
"html-keyboard-response","253","548377","0.0-18.0-0.104","6198","approach_avoid_sv1","""event"",""trial"",""time""
""fullscreenenter"",""1"",""4791""
","
","
","""event"",""trial"",""time""
""fullscreenenter"",""1"",""4791""
","
","","","","","","null","<div style=""font-size:60px;"">+</div>","null","","fixation","","",""
"memory-trial","254","551041","0.0-18.0-1.104","6198","approach_avoid_sv1","""event"",""trial"",""time""
""fullscreenenter"",""1"",""4791""
","
","
","""event"",""trial"",""time""
""fullscreenenter"",""1"",""4791""
","
","","","","","","1658.5999999940395","images/sheep5.png","","","memory_trial","4","definitely_new",""
"html-keyboard-response","255","551545","0.0-18.0-0.105","6198","approach_avoid_sv1","""event"",""trial"",""time""
""fullscreenenter"",""1"",""4791""
","
","
","""event"",""trial"",""time""
""fullscreenenter"",""1"",""4791""
","
","","","","","","null","<div style=""font-size:60px;"">+</div>","null","","fixation","","",""
"memory-trial","256","553433","0.0-18.0-1.105","6198","approach_avoid_sv1","""event"",""trial"",""time""
""fullscreenenter"",""1"",""4791""
","
","
","""event"",""trial"",""time""
""fullscreenenter"",""1"",""4791""
","
","","","","","","883.7000000029802","images/goat4.png","","","memory_trial","1","definitely_old",""
"html-keyboard-response","257","553937","0.0-18.0-0.106","6198","approach_avoid_sv1","""event"",""trial"",""time""
""fullscreenenter"",""1"",""4791""
","
","
","""event"",""trial"",""time""
""fullscreenenter"",""1"",""4791""
","
","","","","","","null","<div style=""font-size:60px;"">+</div>","null","","fixation","","",""
"memory-trial","258","555865","0.0-18.0-1.106","6198","approach_avoid_sv1","""event"",""trial"",""time""
""fullscreenenter"",""1"",""4791""
","
","
","""event"",""trial"",""time""
""fullscreenenter"",""1"",""4791""
","
","","","","","","921.7999999970198","images/sofa7.png","","","memory_trial","1","definitely_old",""
"html-keyboard-response","259","556369","0.0-18.0-0.107","6198","approach_avoid_sv1","""event"",""trial"",""time""
""fullscreenenter"",""1"",""4791""
","
","
","""event"",""trial"",""time""
""fullscreenenter"",""1"",""4791""
","
","","","","","","null","<div style=""font-size:60px;"">+</div>","null","","fixation","","",""
"memory-trial","260","558378","0.0-18.0-1.107","6198","approach_avoid_sv1","""event"",""trial"",""time""
""fullscreenenter"",""1"",""4791""
","
","
","""event"",""trial"",""time""
""fullscreenenter"",""1"",""4791""
","
","","","","","","1003.2000000029802","images/boat7.png","","","memory_trial","4","definitely_new",""
"html-keyboard-response","261","558886","0.0-18.0-0.108","6198","approach_avoid_sv1","""event"",""trial"",""time""
""fullscreenenter"",""1"",""4791""
","
","
","""event"",""trial"",""time""
""fullscreenenter"",""1"",""4791""
","
","","","","","","null","<div style=""font-size:60px;"">+</div>","null","","fixation","","",""
"memory-trial","262","560937","0.0-18.0-1.108","6198","approach_avoid_sv1","""event"",""trial"",""time""
""fullscreenenter"",""1"",""4791""
","
","
","""event"",""trial"",""time""
""fullscreenenter"",""1"",""4791""
","
","","","","","","1046","images/sofa4.png","","","memory_trial","4","definitely_new",""
"html-keyboard-response","263","561441","0.0-18.0-0.109","6198","approach_avoid_sv1","""event"",""trial"",""time""
""fullscreenenter"",""1"",""4791""
","
","
","""event"",""trial"",""time""
""fullscreenenter"",""1"",""4791""
","
","","","","","","null","<div style=""font-size:60px;"">+</div>","null","","fixation","","",""
"memory-trial","264","563497","0.0-18.0-1.109","6198","approach_avoid_sv1","""event"",""trial"",""time""
""fullscreenenter"",""1"",""4791""
","
","
","""event"",""trial"",""time""
""fullscreenenter"",""1"",""4791""
","
","","","","","","1051.7999999970198","images/sheep4.png","","","memory_trial","4","definitely_new",""
"html-keyboard-response","265","564001","0.0-18.0-0.110","6198","approach_avoid_sv1","""event"",""trial"",""time""
""fullscreenenter"",""1"",""4791""
","
","
","""event"",""trial"",""time""
""fullscreenenter"",""1"",""4791""
","
","","","","","","null","<div style=""font-size:60px;"">+</div>","null","","fixation","","",""
"memory-trial","266","566754","0.0-18.0-1.110","6198","approach_avoid_sv1","""event"",""trial"",""time""
""fullscreenenter"",""1"",""4791""
","
","
","""event"",""trial"",""time""
""fullscreenenter"",""1"",""4791""
","
","","","","","","1746.2000000029802","images/tree6.png","","","memory_trial","4","definitely_new",""
"html-keyboard-response","267","567268","0.0-18.0-0.111","6198","approach_avoid_sv1","""event"",""trial"",""time""
""fullscreenenter"",""1"",""4791""
","
","
","""event"",""trial"",""time""
""fullscreenenter"",""1"",""4791""
","
","","","","","","null","<div style=""font-size:60px;"">+</div>","null","","fixation","","",""
"memory-trial","268","569321","0.0-18.0-1.111","6198","approach_avoid_sv1","""event"",""trial"",""time""
""fullscreenenter"",""1"",""4791""
","
","
","""event"",""trial"",""time""
""fullscreenenter"",""1"",""4791""
","
","","","","","","1047.9000000059605","images/dog6.png","","","memory_trial","1","definitely_old",""
"html-keyboard-response","269","569826","0.0-18.0-0.112","6198","approach_avoid_sv1","""event"",""trial"",""time""
""fullscreenenter"",""1"",""4791""
","
","
","""event"",""trial"",""time""
""fullscreenenter"",""1"",""4791""
","
","","","","","","null","<div style=""font-size:60px;"">+</div>","null","","fixation","","",""
"memory-trial","270","571682","0.0-18.0-1.112","6198","approach_avoid_sv1","""event"",""trial"",""time""
""fullscreenenter"",""1"",""4791""
","
","
","""event"",""trial"",""time""
""fullscreenenter"",""1"",""4791""
","
","","","","","","849.7999999970198","images/chair8.png","","","memory_trial","1","definitely_old",""
"html-keyboard-response","271","572185","0.0-18.0-0.113","6198","approach_avoid_sv1","""event"",""trial"",""time""
""fullscreenenter"",""1"",""4791""
","
","
","""event"",""trial"",""time""
""fullscreenenter"",""1"",""4791""
","
","","","","","","null","<div style=""font-size:60px;"">+</div>","null","","fixation","","",""
"memory-trial","272","574345","0.0-18.0-1.113","6198","approach_avoid_sv1","""event"",""trial"",""time""
""fullscreenenter"",""1"",""4791""
","
","
","""event"",""trial"",""time""
""fullscreenenter"",""1"",""4791""
","
","","","","","","1155.3999999910593","images/cactus2.png","","","memory_trial","1","definitely_old",""
"html-keyboard-response","273","574850","0.0-18.0-0.114","6198","approach_avoid_sv1","""event"",""trial"",""time""
""fullscreenenter"",""1"",""4791""
","
","
","""event"",""trial"",""time""
""fullscreenenter"",""1"",""4791""
","
","","","","","","null","<div style=""font-size:60px;"">+</div>","null","","fixation","","",""
"memory-trial","274","576897","0.0-18.0-1.114","6198","approach_avoid_sv1","""event"",""trial"",""time""
""fullscreenenter"",""1"",""4791""
","
","
","""event"",""trial"",""time""
""fullscreenenter"",""1"",""4791""
","
","","","","","","1042.5","images/horse3.png","","","memory_trial","1","definitely_old",""
"html-keyboard-response","275","577401","0.0-18.0-0.115","6198","approach_avoid_sv1","""event"",""trial"",""time""
""fullscreenenter"",""1"",""4791""
","
","
","""event"",""trial"",""time""
""fullscreenenter"",""1"",""4791""
","
","","","","","","null","<div style=""font-size:60px;"">+</div>","null","","fixation","","",""
"memory-trial","276","580457","0.0-18.0-1.115","6198","approach_avoid_sv1","""event"",""trial"",""time""
""fullscreenenter"",""1"",""4791""
","
","
","""event"",""trial"",""time""
""fullscreenenter"",""1"",""4791""
","
","","","","","","2051.2000000029802","images/cow1.png","","","memory_trial","4","definitely_new",""
"html-keyboard-response","277","580962","0.0-18.0-0.116","6198","approach_avoid_sv1","""event"",""trial"",""time""
""fullscreenenter"",""1"",""4791""
","
","
","""event"",""trial"",""time""
""fullscreenenter"",""1"",""4791""
","
","","","","","","null","<div style=""font-size:60px;"">+</div>","null","","fixation","","",""
"memory-trial","278","584761","0.0-18.0-1.116","6198","approach_avoid_sv1","""event"",""trial"",""time""
""fullscreenenter"",""1"",""4791""
","
","
","""event"",""trial"",""time""
""fullscreenenter"",""1"",""4791""
","
","","","","","","2794.0999999940395","images/plane8.png","","","memory_trial","1","definitely_old",""
"html-keyboard-response","279","585265","0.0-18.0-0.117","6198","approach_avoid_sv1","""event"",""trial"",""time""
""fullscreenenter"",""1"",""4791""
","
","
","""event"",""trial"",""time""
""fullscreenenter"",""1"",""4791""
","
","","","","","","null","<div style=""font-size:60px;"">+</div>","null","","fixation","","",""
"memory-trial","280","588273","0.0-18.0-1.117","6198","approach_avoid_sv1","""event"",""trial"",""time""
""fullscreenenter"",""1"",""4791""
","
","
","""event"",""trial"",""time""
""fullscreenenter"",""1"",""4791""
","
","","","","","","2002.3999999910593","images/straw1.png","","","memory_trial","4","definitely_new",""
"html-keyboard-response","281","588777","0.0-18.0-0.118","6198","approach_avoid_sv1","""event"",""trial"",""time""
""fullscreenenter"",""1"",""4791""
","
","
","""event"",""trial"",""time""
""fullscreenenter"",""1"",""4791""
","
","","","","","","null","<div style=""font-size:60px;"">+</div>","null","","fixation","","",""
"memory-trial","282","590898","0.0-18.0-1.118","6198","approach_avoid_sv1","""event"",""trial"",""time""
""fullscreenenter"",""1"",""4791""
","
","
","""event"",""trial"",""time""
""fullscreenenter"",""1"",""4791""
","
","","","","","","1114.2999999970198","images/sheep1.png","","","memory_trial","4","definitely_new",""
"html-keyboard-response","283","591401","0.0-18.0-0.119","6198","approach_avoid_sv1","""event"",""trial"",""time""
""fullscreenenter"",""1"",""4791""
","
","
","""event"",""trial"",""time""
""fullscreenenter"",""1"",""4791""
","
","","","","","","null","<div style=""font-size:60px;"">+</div>","null","","fixation","","",""
"memory-trial","284","594290","0.0-18.0-1.119","6198","approach_avoid_sv1","""event"",""trial"",""time""
""fullscreenenter"",""1"",""4791""
","
","
","""event"",""trial"",""time""
""fullscreenenter"",""1"",""4791""
","
","","","","","","1882.6000000089407","images/boat2.png","","","memory_trial","3","maybe_new",""
"html-keyboard-response","285","594793","0.0-18.0-0.120","6198","approach_avoid_sv1","""event"",""trial"",""time""
""fullscreenenter"",""1"",""4791""
","
","
","""event"",""trial"",""time""
""fullscreenenter"",""1"",""4791""
","
","","","","","","null","<div style=""font-size:60px;"">+</div>","null","","fixation","","",""
"memory-trial","286","597490","0.0-18.0-1.120","6198","approach_avoid_sv1","""event"",""trial"",""time""
""fullscreenenter"",""1"",""4791""
","
","
","""event"",""trial"",""time""
""fullscreenenter"",""1"",""4791""
","
","","","","","","1690.4000000059605","images/boat4.png","","","memory_trial","4","definitely_new",""
"html-keyboard-response","287","597993","0.0-18.0-0.121","6198","approach_avoid_sv1","""event"",""trial"",""time""
""fullscreenenter"",""1"",""4791""
","
","
","""event"",""trial"",""time""
""fullscreenenter"",""1"",""4791""
","
","","","","","","null","<div style=""font-size:60px;"">+</div>","null","","fixation","","",""
"memory-trial","288","600562","0.0-18.0-1.121","6198","approach_avoid_sv1","""event"",""trial"",""time""
""fullscreenenter"",""1"",""4791""
","
","
","""event"",""trial"",""time""
""fullscreenenter"",""1"",""4791""
","
","","","","","","1562","images/goat2.png","","","memory_trial","3","maybe_new",""
"html-keyboard-response","289","601065","0.0-18.0-0.122","6198","approach_avoid_sv1","""event"",""trial"",""time""
""fullscreenenter"",""1"",""4791""
","
","
","""event"",""trial"",""time""
""fullscreenenter"",""1"",""4791""
","
","","","","","","null","<div style=""font-size:60px;"">+</div>","null","","fixation","","",""
"memory-trial","290","604569","0.0-18.0-1.122","6198","approach_avoid_sv1","""event"",""trial"",""time""
""fullscreenenter"",""1"",""4791""
","
","
","""event"",""trial"",""time""
""fullscreenenter"",""1"",""4791""
","
","","","","","","2498.5999999940395","images/sheep7.png","","","memory_trial","4","definitely_new",""
"html-keyboard-response","291","605074","0.0-18.0-0.123","6198","approach_avoid_sv1","""event"",""trial"",""time""
""fullscreenenter"",""1"",""4791""
","
","
","""event"",""trial"",""time""
""fullscreenenter"",""1"",""4791""
","
","","","","","","null","<div style=""font-size:60px;"">+</div>","null","","fixation","","",""
"memory-trial","292","607274","0.0-18.0-1.123","6198","approach_avoid_sv1","""event"",""trial"",""time""
""fullscreenenter"",""1"",""4791""
","
","
","""event"",""trial"",""time""
""fullscreenenter"",""1"",""4791""
","
","","","","","","1193.3999999910593","images/train8.png","","","memory_trial","4","definitely_new",""
"html-keyboard-response","293","607777","0.0-18.0-0.124","6198","approach_avoid_sv1","""event"",""trial"",""time""
""fullscreenenter"",""1"",""4791""
","
","
","""event"",""trial"",""time""
""fullscreenenter"",""1"",""4791""
","
","","","","","","null","<div style=""font-size:60px;"">+</div>","null","","fixation","","",""
"memory-trial","294","611321","0.0-18.0-1.124","6198","approach_avoid_sv1","""event"",""trial"",""time""
""fullscreenenter"",""1"",""4791""
","
","
","""event"",""trial"",""time""
""fullscreenenter"",""1"",""4791""
","
","","","","","","2538.8999999910593","images/bed1.png","","","memory_trial","4","definitely_new",""
"html-keyboard-response","295","611825","0.0-18.0-0.125","6198","approach_avoid_sv1","""event"",""trial"",""time""
""fullscreenenter"",""1"",""4791""
","
","
","""event"",""trial"",""time""
""fullscreenenter"",""1"",""4791""
","
","","","","","","null","<div style=""font-size:60px;"">+</div>","null","","fixation","","",""
"memory-trial","296","614226","0.0-18.0-1.125","6198","approach_avoid_sv1","""event"",""trial"",""time""
""fullscreenenter"",""1"",""4791""
","
","
","""event"",""trial"",""time""
""fullscreenenter"",""1"",""4791""
","
","","","","","","1394.2000000029802","images/horse7.png","","","memory_trial","4","definitely_new",""
"html-keyboard-response","297","614729","0.0-18.0-0.126","6198","approach_avoid_sv1","""event"",""trial"",""time""
