"trial_type","trial_index","time_elapsed","internal_node_id","subject_id","task_version","interactions","blur_events","focus_events","fullscreenenter_events","fullscreenexit_events","success","timeout","failed_images","failed_audio","failed_video","rt","stimulus","response","button_pressed","task_part","key_press","answer","correct"
"pavlovia","0","2","0.0-0.0","5753","approach_avoid_sv1","""event"",""trial"",""time""
""fullscreenenter"",""1"",""3898""
","
","
","""event"",""trial"",""time""
""fullscreenenter"",""1"",""3898""
","
","","","","","","","","","","","","",""
"fullscreen","1","4870","0.0-1.0","5753","approach_avoid_sv1","""event"",""trial"",""time""
""fullscreenenter"",""1"",""3898""
","
","
","""event"",""trial"",""time""
""fullscreenenter"",""1"",""3898""
","
","true","","","","","","","","","","","",""
"preload","2","6866","0.0-2.0","5753","approach_avoid_sv1","""event"",""trial"",""time""
""fullscreenenter"",""1"",""3898""
","
","
","""event"",""trial"",""time""
""fullscreenenter"",""1"",""3898""
","
","true","false","[]","[]","[]","","","","","","","",""
"preload","3","7817","0.0-3.0","5753","approach_avoid_sv1","""event"",""trial"",""time""
""fullscreenenter"",""1"",""3898""
","
","
","""event"",""trial"",""time""
""fullscreenenter"",""1"",""3898""
","
","true","false","[]","[]","[]","","","","","","","",""
"preload","4","8097","0.0-4.0","5753","approach_avoid_sv1","""event"",""trial"",""time""
""fullscreenenter"",""1"",""3898""
","
","
","""event"",""trial"",""time""
""fullscreenenter"",""1"",""3898""
","
","true","false","[]","[]","[]","","","","","","","",""
"audio-keyboard-response","5","11184","0.0-5.0","5753","approach_avoid_sv1","""event"",""trial"",""time""
""fullscreenenter"",""1"",""3898""
","
","
","""event"",""trial"",""time""
""fullscreenenter"",""1"",""3898""
","
","","","","","","3090.6666666666674","audio/beep_loop.wav","audiovolumeup","","","","",""
"audio-button-response","6","13949","0.0-6.0","5753","approach_avoid_sv1","""event"",""trial"",""time""
""fullscreenenter"",""1"",""3898""
","
","
","""event"",""trial"",""time""
""fullscreenenter"",""1"",""3898""
","
","","","","","","2760","audio/turtle.wav","3","","","","",""
"audio-button-response","7","19351","0.0-7.0","5753","approach_avoid_sv1","""event"",""trial"",""time""
""fullscreenenter"",""1"",""3898""
","
","
","""event"",""trial"",""time""
""fullscreenenter"",""1"",""3898""
","
","","","","","","4371","audio/shark.wav","2","","","","",""
"preload","8","22897","0.0-8.0","5753","approach_avoid_sv1","""event"",""trial"",""time""
""fullscreenenter"",""1"",""3898""
","
","
","""event"",""trial"",""time""
""fullscreenenter"",""1"",""3898""
","
","true","false","[]","[]","[]","","","","","","","",""
"learning-instructions","9","29043","0.0-9.0-0.0","5753","approach_avoid_sv1","""event"",""trial"",""time""
""fullscreenenter"",""1"",""3898""
","
","
","""event"",""trial"",""time""
""fullscreenenter"",""1"",""3898""
","
","","","","","","1671.0999999999767","<p> Welcome back! </p><p> Last week, you had to make choices about lots of different items.  </p>","","0","instructions","","",""
"learning-instructions","10","33591","0.0-9.0-0.1","5753","approach_avoid_sv1","""event"",""trial"",""time""
""fullscreenenter"",""1"",""3898""
","
","
","""event"",""trial"",""time""
""fullscreenenter"",""1"",""3898""
","
","","","","","","428.70000000006985","<p> Today, we are going to ask you to try to remember all the items. </p>","","0","instructions","","",""
"learning-instructions","11","44159","0.0-9.0-0.2","5753","approach_avoid_sv1","""event"",""trial"",""time""
""fullscreenenter"",""1"",""3898""
","
","
","""event"",""trial"",""time""
""fullscreenenter"",""1"",""3898""
","
","","","","","","426.9000000000233","<p> On every trial, you will see an image. </p><p> The image may be an OLD image you saw during the games last week or it may be a NEW image that was not presented. </p>","","0","instructions","","",""
"learning-instructions","12","53604","0.0-9.0-0.3","5753","approach_avoid_sv1","""event"",""trial"",""time""
""fullscreenenter"",""1"",""3898""
","
","
","""event"",""trial"",""time""
""fullscreenenter"",""1"",""3898""
","
","","","","","","921.1000000000931","<p> You need to select whether the image is:  </p><p>  'Definitely old', 'Maybe old', 'Maybe new', or 'Definitely new.'  </p><div class=""mem-choice-instructions-grid""><div class=""choice-option"" id=""choice-option-1"" ><img src=""images/definitely_old_1.png"" id=""choice-option-img-1"" class=""choice-option-img"" stage=""1""></div><div class=""choice-option"" id=""choice-option-2"" ><img src=""images/maybe_old_1.png"" id=""choice-option-img-2"" class=""choice-option-img"" stage=""1""></div><div class=""choice-option"" id=""choice-option-3"" ><img src=""images/maybe_new_1.png"" id=""choice-option-img-3"" class=""choice-option-img"" stage=""1""></div><div class=""choice-option"" id=""choice-option-4"" > <img src=""images/definitely_new_1.png"" id=""choice-option-img-4"" class=""choice-option-img"" stage=""1""></div></div>","","0","instructions","","",""
"learning-instructions","13","60563","0.0-9.0-0.4","5753","approach_avoid_sv1","""event"",""trial"",""time""
""fullscreenenter"",""1"",""3898""
","
","
","""event"",""trial"",""time""
""fullscreenenter"",""1"",""3898""
","
","","","","","","433.9000000001397","<p> You should use the 1, 2, 3, and 4 keys to make your responses.  </p><div class=""mem-choice-instructions-grid""><div class=""choice-option"" id=""choice-option-1"" ><img src=""images/definitely_old.png"" id=""choice-option-img-1"" class=""choice-option-img"" stage=""1""></div><div class=""choice-option"" id=""choice-option-2"" ><img src=""images/maybe_old.png"" id=""choice-option-img-2"" class=""choice-option-img"" stage=""1""></div><div class=""choice-option"" id=""choice-option-3"" ><img src=""images/maybe_new.png"" id=""choice-option-img-3"" class=""choice-option-img"" stage=""1""></div><div class=""choice-option"" id=""choice-option-4"" > <img src=""images/definitely_new.png"" id=""choice-option-img-4"" class=""choice-option-img"" stage=""1""></div></div>","","0","instructions","","",""
"learning-instructions","14","67359","0.0-9.0-0.5","5753","approach_avoid_sv1","""event"",""trial"",""time""
""fullscreenenter"",""1"",""3898""
","
","
","""event"",""trial"",""time""
""fullscreenenter"",""1"",""3898""
","
","","","","","","451.20000000018626","<p> You will have 10 seconds to make each response.  </p><p>  Make sure to respond before time runs out! </p>","","0","instructions","","",""
"learning-instructions","15","74928","0.0-9.0-0.6","5753","approach_avoid_sv1","""event"",""trial"",""time""
""fullscreenenter"",""1"",""3898""
","
","
","""event"",""trial"",""time""
""fullscreenenter"",""1"",""3898""
","
","","","","","","479.5","<p> Today, you will see each image ONCE only.  </p><p>  That means none of the images will repeat. </p>","","0","instructions","","",""
"learning-instructions","16","88817","0.0-9.0-0.7","5753","approach_avoid_sv1","""event"",""trial"",""time""
""fullscreenenter"",""1"",""3898""
","
","
","""event"",""trial"",""time""
""fullscreenenter"",""1"",""3898""
","
","","","","","","1208.9000000001397","<p> Before you play the real game, it is time to practice. </p><p>  Just like in the real game, some of the images in the practice will be ones you have seen before. </p><p>  Others will be entirely new. </p>","","0","instructions","","",""
"html-button-response","17","103569","0.0-10.0","5753","approach_avoid_sv1","""event"",""trial"",""time""
""fullscreenenter"",""1"",""3898""
","
","
","""event"",""trial"",""time""
""fullscreenenter"",""1"",""3898""
","
","","","","","","14644.899999999907","<p> Ready to practice? </p><p> Remember, use the 1, 2, 3, and 4 keys to make your responses. </p>","0","","instructions","","",""
"html-keyboard-response","18","104216","0.0-11.0-0.0","5753","approach_avoid_sv1","""event"",""trial"",""time""
""fullscreenenter"",""1"",""3898""
","
","
","""event"",""trial"",""time""
""fullscreenenter"",""1"",""3898""
","
","","","","","","null","<div style=""font-size:60px;"">+</div>","null","","fixation","","",""
"memory-trial","19","108126","0.0-11.0-1.0","5753","approach_avoid_sv1","""event"",""trial"",""time""
""fullscreenenter"",""1"",""3898""
","
","
","""event"",""trial"",""time""
""fullscreenenter"",""1"",""3898""
","
","","","","","","2894.100000000093","images/ball3.png","","","practice","4","definitely_new",""
"html-keyboard-response","20","108645","0.0-11.0-0.1","5753","approach_avoid_sv1","""event"",""trial"",""time""
""fullscreenenter"",""1"",""3898""
","
","
","""event"",""trial"",""time""
""fullscreenenter"",""1"",""3898""
","
","","","","","","null","<div style=""font-size:60px;"">+</div>","null","","fixation","","",""
"memory-trial","21","112486","0.0-11.0-1.1","5753","approach_avoid_sv1","""event"",""trial"",""time""
""fullscreenenter"",""1"",""3898""
","
","
","""event"",""trial"",""time""
""fullscreenenter"",""1"",""3898""
","
","","","","","","2821.9000000001397","images/ball5.png","","","practice","3","maybe_new",""
"html-keyboard-response","22","113005","0.0-11.0-0.2","5753","approach_avoid_sv1","""event"",""trial"",""time""
""fullscreenenter"",""1"",""3898""
","
","
","""event"",""trial"",""time""
""fullscreenenter"",""1"",""3898""
","
","","","","","","null","<div style=""font-size:60px;"">+</div>","null","","fixation","","",""
"memory-trial","23","116176","0.0-11.0-1.2","5753","approach_avoid_sv1","""event"",""trial"",""time""
""fullscreenenter"",""1"",""3898""
","
","
","""event"",""trial"",""time""
""fullscreenenter"",""1"",""3898""
","
","","","","","","2163.0999999998603","images/ball2.png","","","practice","3","maybe_new",""
"html-keyboard-response","24","116695","0.0-11.0-0.3","5753","approach_avoid_sv1","""event"",""trial"",""time""
""fullscreenenter"",""1"",""3898""
","
","
","""event"",""trial"",""time""
""fullscreenenter"",""1"",""3898""
","
","","","","","","null","<div style=""font-size:60px;"">+</div>","null","","fixation","","",""
"memory-trial","25","119348","0.0-11.0-1.3","5753","approach_avoid_sv1","""event"",""trial"",""time""
""fullscreenenter"",""1"",""3898""
","
","
","""event"",""trial"",""time""
""fullscreenenter"",""1"",""3898""
","
","","","","","","1636.8000000000466","images/ball1.png","","","practice","1","definitely_old",""
"html-keyboard-response","26","119854","0.0-11.0-0.4","5753","approach_avoid_sv1","""event"",""trial"",""time""
""fullscreenenter"",""1"",""3898""
","
","
","""event"",""trial"",""time""
""fullscreenenter"",""1"",""3898""
","
","","","","","","null","<div style=""font-size:60px;"">+</div>","null","","fixation","","",""
"memory-trial","27","122103","0.0-11.0-1.4","5753","approach_avoid_sv1","""event"",""trial"",""time""
""fullscreenenter"",""1"",""3898""
","
","
","""event"",""trial"",""time""
""fullscreenenter"",""1"",""3898""
","
","","","","","","1242.1000000000931","images/racket5.png","","","practice","1","definitely_old",""
"html-keyboard-response","28","122613","0.0-11.0-0.5","5753","approach_avoid_sv1","""event"",""trial"",""time""
""fullscreenenter"",""1"",""3898""
","
","
","""event"",""trial"",""time""
""fullscreenenter"",""1"",""3898""
","
","","","","","","null","<div style=""font-size:60px;"">+</div>","null","","fixation","","",""
"memory-trial","29","124520","0.0-11.0-1.5","5753","approach_avoid_sv1","""event"",""trial"",""time""
""fullscreenenter"",""1"",""3898""
","
","
","""event"",""trial"",""time""
""fullscreenenter"",""1"",""3898""
","
","","","","","","898.1999999999534","images/racket3.png","","","practice","1","definitely_old",""
"html-keyboard-response","30","125034","0.0-11.0-0.6","5753","approach_avoid_sv1","""event"",""trial"",""time""
""fullscreenenter"",""1"",""3898""
","
","
","""event"",""trial"",""time""
""fullscreenenter"",""1"",""3898""
","
","","","","","","null","<div style=""font-size:60px;"">+</div>","null","","fixation","","",""
"memory-trial","31","128256","0.0-11.0-1.6","5753","approach_avoid_sv1","""event"",""trial"",""time""
""fullscreenenter"",""1"",""3898""
","
","
","""event"",""trial"",""time""
""fullscreenenter"",""1"",""3898""
","
","","","","","","2208.600000000093","images/racket2.png","","","practice","4","definitely_new",""
"html-keyboard-response","32","128767","0.0-11.0-0.7","5753","approach_avoid_sv1","""event"",""trial"",""time""
""fullscreenenter"",""1"",""3898""
","
","
","""event"",""trial"",""time""
""fullscreenenter"",""1"",""3898""
","
","","","","","","null","<div style=""font-size:60px;"">+</div>","null","","fixation","","",""
"memory-trial","33","131566","0.0-11.0-1.7","5753","approach_avoid_sv1","""event"",""trial"",""time""
""fullscreenenter"",""1"",""3898""
","
","
","""event"",""trial"",""time""
""fullscreenenter"",""1"",""3898""
","
","","","","","","1791.3999999999069","images/racket1.png","","","practice","3","maybe_new",""
"learning-instructions","34","140871","0.0-12.0-0.0","5753","approach_avoid_sv1","""event"",""trial"",""time""
""fullscreenenter"",""1"",""3898""
","
","
","""event"",""trial"",""time""
""fullscreenenter"",""1"",""3898""
","
","","","","","","1447.1000000000931","<p> Great! You have completed the practice. </p><p> Before you start, we're going to ask you a few questions about how the game works.  </p>","","0","instructions","","",""
"preload","35","142423","0.0-13.0","5753","approach_avoid_sv1","""event"",""trial"",""time""
""fullscreenenter"",""1"",""3898""
","
","
","""event"",""trial"",""time""
""fullscreenenter"",""1"",""3898""
","
","true","false","[]","[]","[]","","","","","","","",""
"comp-q","36","153705","0.0-14.0-0.0","5753","approach_avoid_sv1","""event"",""trial"",""time""
""fullscreenenter"",""1"",""3898""
","
","
","""event"",""trial"",""time""
""fullscreenenter"",""1"",""3898""
","
","","","","","","5451.5","<p> <b> True or False? </b> </p><p> In this game, you will only see each image once. </p>","","0","comp_question","","","true"
"comp-q","37","161764","0.0-14.0-1.0","5753","approach_avoid_sv1","""event"",""trial"",""time""
""fullscreenenter"",""1"",""3898""
","
","
","""event"",""trial"",""time""
""fullscreenenter"",""1"",""3898""
","
","","","","","","1701.3999999999069","<p> <b> That's right! </b> You will see many different images <i> one time each </i> in this game. </p>","","0","comp_answer","","",""
"comp-q","38","167923","0.0-15.0-0.0","5753","approach_avoid_sv1","""event"",""trial"",""time""
""fullscreenenter"",""1"",""3898""
","
","
","""event"",""trial"",""time""
""fullscreenenter"",""1"",""3898""
","
","","","","","","1139.9000000001397","<p> <b> True or False? </b> </p><p> You should use the mouse and click to make your response. </p>","","1","comp_question","","","true"
"comp-q","39","175783","0.0-15.0-1.0","5753","approach_avoid_sv1","""event"",""trial"",""time""
""fullscreenenter"",""1"",""3898""
","
","
","""event"",""trial"",""time""
""fullscreenenter"",""1"",""3898""
","
","","","","","","1340.1999999999534","<p><b> That's right! </b> You should use the '1', '2', '3', and '4' keys to make your response. </p>","","0","comp_answer","","",""
"comp-q","40","183285","0.0-16.0-0.0","5753","approach_avoid_sv1","""event"",""trial"",""time""
""fullscreenenter"",""1"",""3898""
","
","
","""event"",""trial"",""time""
""fullscreenenter"",""1"",""3898""
","
","","","","","","1820","<p> <b> True or False? </b> </p><p> You will have as much time as you want to make each choice. </p>","","1","comp_question","","","true"
"comp-q","41","189341","0.0-16.0-1.0","5753","approach_avoid_sv1","""event"",""trial"",""time""
""fullscreenenter"",""1"",""3898""
","
","
","""event"",""trial"",""time""
""fullscreenenter"",""1"",""3898""
","
","","","","","","1336.6999999999534","<p> <b> That's right! </b> You will only have 10 seconds to make each choice. </p>","","0","comp_answer","","",""
"learning-instructions","42","200226","0.0-17.0","5753","approach_avoid_sv1","""event"",""trial"",""time""
""fullscreenenter"",""1"",""3898""
","
","
","""event"",""trial"",""time""
""fullscreenenter"",""1"",""3898""
","
","","","","","","2199.6999999999534","<p> Great! You are now ready to begin the game. </p><p> Remember, use the 1, 2, 3, and 4 keys to make your responses. </p>","","0","instructions","","",""
"html-keyboard-response","43","200839","0.0-18.0-0.0","5753","approach_avoid_sv1","""event"",""trial"",""time""
""fullscreenenter"",""1"",""3898""
","
","
","""event"",""trial"",""time""
""fullscreenenter"",""1"",""3898""
","
","","","","","","null","<div style=""font-size:60px;"">+</div>","null","","fixation","","",""
"memory-trial","44","204353","0.0-18.0-1.0","5753","approach_avoid_sv1","""event"",""trial"",""time""
""fullscreenenter"",""1"",""3898""
","
","
","""event"",""trial"",""time""
""fullscreenenter"",""1"",""3898""
","
","","","","","","2491.8000000000466","images/flower8.png","","","memory_trial","4","definitely_new",""
"html-keyboard-response","45","204863","0.0-18.0-0.1","5753","approach_avoid_sv1","""event"",""trial"",""time""
""fullscreenenter"",""1"",""3898""
","
","
","""event"",""trial"",""time""
""fullscreenenter"",""1"",""3898""
","
","","","","","","null","<div style=""font-size:60px;"">+</div>","null","","fixation","","",""
"memory-trial","46","207563","0.0-18.0-1.1","5753","approach_avoid_sv1","""event"",""trial"",""time""
""fullscreenenter"",""1"",""3898""
","
","
","""event"",""trial"",""time""
""fullscreenenter"",""1"",""3898""
","
","","","","","","1678.5","images/boat5.png","","","memory_trial","3","maybe_new",""
"html-keyboard-response","47","208083","0.0-18.0-0.2","5753","approach_avoid_sv1","""event"",""trial"",""time""
""fullscreenenter"",""1"",""3898""
","
","
","""event"",""trial"",""time""
""fullscreenenter"",""1"",""3898""
","
","","","","","","null","<div style=""font-size:60px;"">+</div>","null","","fixation","","",""
"memory-trial","48","210993","0.0-18.0-1.2","5753","approach_avoid_sv1","""event"",""trial"",""time""
""fullscreenenter"",""1"",""3898""
","
","
","""event"",""trial"",""time""
""fullscreenenter"",""1"",""3898""
","
","","","","","","1902.0999999998603","images/goat3.png","","","memory_trial","1","definitely_old",""
"html-keyboard-response","49","211513","0.0-18.0-0.3","5753","approach_avoid_sv1","""event"",""trial"",""time""
""fullscreenenter"",""1"",""3898""
","
","
","""event"",""trial"",""time""
""fullscreenenter"",""1"",""3898""
","
","","","","","","null","<div style=""font-size:60px;"">+</div>","null","","fixation","","",""
"memory-trial","50","213663","0.0-18.0-1.3","5753","approach_avoid_sv1","""event"",""trial"",""time""
""fullscreenenter"",""1"",""3898""
","
","
","""event"",""trial"",""time""
""fullscreenenter"",""1"",""3898""
","
","","","","","","1142.3999999999069","images/dog3.png","","","memory_trial","1","definitely_old",""
"html-keyboard-response","51","214173","0.0-18.0-0.4","5753","approach_avoid_sv1","""event"",""trial"",""time""
""fullscreenenter"",""1"",""3898""
","
","
","""event"",""trial"",""time""
""fullscreenenter"",""1"",""3898""
","
","","","","","","null","<div style=""font-size:60px;"">+</div>","null","","fixation","","",""
"memory-trial","52","216253","0.0-18.0-1.4","5753","approach_avoid_sv1","""event"",""trial"",""time""
""fullscreenenter"",""1"",""3898""
","
","
","""event"",""trial"",""time""
""fullscreenenter"",""1"",""3898""
","
","","","","","","1054.8000000000466","images/cactus4.png","","","memory_trial","1","definitely_old",""
"html-keyboard-response","53","216773","0.0-18.0-0.5","5753","approach_avoid_sv1","""event"",""trial"",""time""
""fullscreenenter"",""1"",""3898""
","
","
","""event"",""trial"",""time""
""fullscreenenter"",""1"",""3898""
","
","","","","","","null","<div style=""font-size:60px;"">+</div>","null","","fixation","","",""
"memory-trial","54","219383","0.0-18.0-1.5","5753","approach_avoid_sv1","""event"",""trial"",""time""
""fullscreenenter"",""1"",""3898""
","
","
","""event"",""trial"",""time""
""fullscreenenter"",""1"",""3898""
","
","","","","","","1589.1999999999534","images/cactus3.png","","","memory_trial","3","maybe_new",""
"html-keyboard-response","55","219895","0.0-18.0-0.6","5753","approach_avoid_sv1","""event"",""trial"",""time""
""fullscreenenter"",""1"",""3898""
","
","
","""event"",""trial"",""time""
""fullscreenenter"",""1"",""3898""
","
","","","","","","null","<div style=""font-size:60px;"">+</div>","null","","fixation","","",""
"memory-trial","56","222123","0.0-18.0-1.6","5753","approach_avoid_sv1","""event"",""trial"",""time""
""fullscreenenter"",""1"",""3898""
","
","
","""event"",""trial"",""time""
""fullscreenenter"",""1"",""3898""
","
","","","","","","1204.4000000001397","images/dog2.png","","","memory_trial","1","definitely_old",""
"html-keyboard-response","57","222643","0.0-18.0-0.7","5753","approach_avoid_sv1","""event"",""trial"",""time""
""fullscreenenter"",""1"",""3898""
","
","
","""event"",""trial"",""time""
""fullscreenenter"",""1"",""3898""
","
","","","","","","null","<div style=""font-size:60px;"">+</div>","null","","fixation","","",""
"memory-trial","58","225183","0.0-18.0-1.7","5753","approach_avoid_sv1","""event"",""trial"",""time""
""fullscreenenter"",""1"",""3898""
","
","
","""event"",""trial"",""time""
""fullscreenenter"",""1"",""3898""
","
","","","","","","1517.8000000000466","images/sofa1.png","","","memory_trial","1","definitely_old",""
"html-keyboard-response","59","225693","0.0-18.0-0.8","5753","approach_avoid_sv1","""event"",""trial"",""time""
""fullscreenenter"",""1"",""3898""
","
","
","""event"",""trial"",""time""
""fullscreenenter"",""1"",""3898""
","
","","","","","","null","<div style=""font-size:60px;"">+</div>","null","","fixation","","",""
"memory-trial","60","227853","0.0-18.0-1.8","5753","approach_avoid_sv1","""event"",""trial"",""time""
""fullscreenenter"",""1"",""3898""
","
","
","""event"",""trial"",""time""
""fullscreenenter"",""1"",""3898""
","
","","","","","","1136.6999999999534","images/apple3.png","","","memory_trial","4","definitely_new",""
"html-keyboard-response","61","228373","0.0-18.0-0.9","5753","approach_avoid_sv1","""event"",""trial"",""time""
""fullscreenenter"",""1"",""3898""
","
","
","""event"",""trial"",""time""
""fullscreenenter"",""1"",""3898""
","
","","","","","","null","<div style=""font-size:60px;"">+</div>","null","","fixation","","",""
"memory-trial","62","230805","0.0-18.0-1.9","5753","approach_avoid_sv1","""event"",""trial"",""time""
""fullscreenenter"",""1"",""3898""
","
","
","""event"",""trial"",""time""
""fullscreenenter"",""1"",""3898""
","
","","","","","","1417.3000000000466","images/truck4.png","","","memory_trial","3","maybe_new",""
"html-keyboard-response","63","231313","0.0-18.0-0.10","5753","approach_avoid_sv1","""event"",""trial"",""time""
""fullscreenenter"",""1"",""3898""
","
","
","""event"",""trial"",""time""
""fullscreenenter"",""1"",""3898""
","
","","","","","","null","<div style=""font-size:60px;"">+</div>","null","","fixation","","",""
"memory-trial","64","233567","0.0-18.0-1.10","5753","approach_avoid_sv1","""event"",""trial"",""time""
""fullscreenenter"",""1"",""3898""
","
","
","""event"",""trial"",""time""
""fullscreenenter"",""1"",""3898""
","
","","","","","","1240.1000000000931","images/cat3.png","","","memory_trial","1","definitely_old",""
"html-keyboard-response","65","234075","0.0-18.0-0.11","5753","approach_avoid_sv1","""event"",""trial"",""time""
""fullscreenenter"",""1"",""3898""
","
","
","""event"",""trial"",""time""
""fullscreenenter"",""1"",""3898""
","
","","","","","","null","<div style=""font-size:60px;"">+</div>","null","","fixation","","",""
"memory-trial","66","235910","0.0-18.0-1.11","5753","approach_avoid_sv1","""event"",""trial"",""time""
""fullscreenenter"",""1"",""3898""
","
","
","""event"",""trial"",""time""
""fullscreenenter"",""1"",""3898""
","
","","","","","","818.9000000001397","images/bed4.png","","","memory_trial","1","definitely_old",""
"html-keyboard-response","67","236419","0.0-18.0-0.12","5753","approach_avoid_sv1","""event"",""trial"",""time""
""fullscreenenter"",""1"",""3898""
","
","
","""event"",""trial"",""time""
""fullscreenenter"",""1"",""3898""
","
","","","","","","null","<div style=""font-size:60px;"">+</div>","null","","fixation","","",""
"memory-trial","68","238541","0.0-18.0-1.12","5753","approach_avoid_sv1","""event"",""trial"",""time""
""fullscreenenter"",""1"",""3898""
","
","
","""event"",""trial"",""time""
""fullscreenenter"",""1"",""3898""
","
","","","","","","1109.4000000001397","images/goat7.png","","","memory_trial","1","definitely_old",""
"html-keyboard-response","69","239046","0.0-18.0-0.13","5753","approach_avoid_sv1","""event"",""trial"",""time""
""fullscreenenter"",""1"",""3898""
","
","
","""event"",""trial"",""time""
""fullscreenenter"",""1"",""3898""
","
","","","","","","null","<div style=""font-size:60px;"">+</div>","null","","fixation","","",""
"memory-trial","70","241568","0.0-18.0-1.13","5753","approach_avoid_sv1","""event"",""trial"",""time""
""fullscreenenter"",""1"",""3898""
","
","
","""event"",""trial"",""time""
""fullscreenenter"",""1"",""3898""
","
","","","","","","1501.1999999999534","images/tree6.png","","","memory_trial","3","maybe_new",""
"html-keyboard-response","71","242076","0.0-18.0-0.14","5753","approach_avoid_sv1","""event"",""trial"",""time""
""fullscreenenter"",""1"",""3898""
","
","
","""event"",""trial"",""time""
""fullscreenenter"",""1"",""3898""
","
","","","","","","null","<div style=""font-size:60px;"">+</div>","null","","fixation","","",""
"memory-trial","72","244575","0.0-18.0-1.14","5753","approach_avoid_sv1","""event"",""trial"",""time""
""fullscreenenter"",""1"",""3898""
","
","
","""event"",""trial"",""time""
""fullscreenenter"",""1"",""3898""
","
","","","","","","1482.6000000000931","images/cat8.png","","","memory_trial","3","maybe_new",""
"html-keyboard-response","73","245079","0.0-18.0-0.15","5753","approach_avoid_sv1","""event"",""trial"",""time""
""fullscreenenter"",""1"",""3898""
","
","
","""event"",""trial"",""time""
""fullscreenenter"",""1"",""3898""
","
","","","","","","null","<div style=""font-size:60px;"">+</div>","null","","fixation","","",""
"memory-trial","74","247473","0.0-18.0-1.15","5753","approach_avoid_sv1","""event"",""trial"",""time""
""fullscreenenter"",""1"",""3898""
","
","
","""event"",""trial"",""time""
""fullscreenenter"",""1"",""3898""
","
","","","","","","1388.3999999999069","images/boat6.png","","","memory_trial","3","maybe_new",""
"html-keyboard-response","75","247978","0.0-18.0-0.16","5753","approach_avoid_sv1","""event"",""trial"",""time""
""fullscreenenter"",""1"",""3898""
","
","
","""event"",""trial"",""time""
""fullscreenenter"",""1"",""3898""
","
","","","","","","null","<div style=""font-size:60px;"">+</div>","null","","fixation","","",""
"memory-trial","76","250131","0.0-18.0-1.16","5753","approach_avoid_sv1","""event"",""trial"",""time""
""fullscreenenter"",""1"",""3898""
","
","
","""event"",""trial"",""time""
""fullscreenenter"",""1"",""3898""
","
","","","","","","1140.0999999998603","images/table8.png","","","memory_trial","1","definitely_old",""
"html-keyboard-response","77","250647","0.0-18.0-0.17","5753","approach_avoid_sv1","""event"",""trial"",""time""
""fullscreenenter"",""1"",""3898""
","
","
","""event"",""trial"",""time""
""fullscreenenter"",""1"",""3898""
","
","","","","","","null","<div style=""font-size:60px;"">+</div>","null","","fixation","","",""
"memory-trial","78","253297","0.0-18.0-1.17","5753","approach_avoid_sv1","""event"",""trial"",""time""
""fullscreenenter"",""1"",""3898""
","
","
","""event"",""trial"",""time""
""fullscreenenter"",""1"",""3898""
","
","","","","","","1644.6000000000931","images/flower7.png","","","memory_trial","4","definitely_new",""
"html-keyboard-response","79","253803","0.0-18.0-0.18","5753","approach_avoid_sv1","""event"",""trial"",""time""
""fullscreenenter"",""1"",""3898""
","
","
","""event"",""trial"",""time""
""fullscreenenter"",""1"",""3898""
","
","","","","","","null","<div style=""font-size:60px;"">+</div>","null","","fixation","","",""
"memory-trial","80","256356","0.0-18.0-1.18","5753","approach_avoid_sv1","""event"",""trial"",""time""
""fullscreenenter"",""1"",""3898""
","
","
","""event"",""trial"",""time""
""fullscreenenter"",""1"",""3898""
","
","","","","","","1537.3000000000466","images/truck8.png","","","memory_trial","3","maybe_new",""
"html-keyboard-response","81","256864","0.0-18.0-0.19","5753","approach_avoid_sv1","""event"",""trial"",""time""
""fullscreenenter"",""1"",""3898""
","
","
","""event"",""trial"",""time""
""fullscreenenter"",""1"",""3898""
","
","","","","","","null","<div style=""font-size:60px;"">+</div>","null","","fixation","","",""
"memory-trial","82","259319","0.0-18.0-1.19","5753","approach_avoid_sv1","""event"",""trial"",""time""
""fullscreenenter"",""1"",""3898""
","
","
","""event"",""trial"",""time""
""fullscreenenter"",""1"",""3898""
","
","","","","","","1437.5","images/boat1.png","","","memory_trial","2","maybe_old",""
"html-keyboard-response","83","259831","0.0-18.0-0.20","5753","approach_avoid_sv1","""event"",""trial"",""time""
""fullscreenenter"",""1"",""3898""
","
","
","""event"",""trial"",""time""
""fullscreenenter"",""1"",""3898""
","
","","","","","","null","<div style=""font-size:60px;"">+</div>","null","","fixation","","",""
"memory-trial","84","262129","0.0-18.0-1.20","5753","approach_avoid_sv1","""event"",""trial"",""time""
""fullscreenenter"",""1"",""3898""
","
","
","""event"",""trial"",""time""
""fullscreenenter"",""1"",""3898""
","
","","","","","","1293.2000000001863","images/sofa7.png","","","memory_trial","1","definitely_old",""
"html-keyboard-response","85","262633","0.0-18.0-0.21","5753","approach_avoid_sv1","""event"",""trial"",""time""
""fullscreenenter"",""1"",""3898""
","
","
","""event"",""trial"",""time""
""fullscreenenter"",""1"",""3898""
","
","","","","","","null","<div style=""font-size:60px;"">+</div>","null","","fixation","","",""
"memory-trial","86","264915","0.0-18.0-1.21","5753","approach_avoid_sv1","""event"",""trial"",""time""
""fullscreenenter"",""1"",""3898""
","
","
","""event"",""trial"",""time""
""fullscreenenter"",""1"",""3898""
","
","","","","","","1266.8000000000466","images/orange7.png","","","memory_trial","4","definitely_new",""
"html-keyboard-response","87","265428","0.0-18.0-0.22","5753","approach_avoid_sv1","""event"",""trial"",""time""
""fullscreenenter"",""1"",""3898""
","
","
","""event"",""trial"",""time""
""fullscreenenter"",""1"",""3898""
","
","","","","","","null","<div style=""font-size:60px;"">+</div>","null","","fixation","","",""
"memory-trial","88","267946","0.0-18.0-1.22","5753","approach_avoid_sv1","""event"",""trial"",""time""
""fullscreenenter"",""1"",""3898""
","
","
","""event"",""trial"",""time""
""fullscreenenter"",""1"",""3898""
","
","","","","","","1510.2999999998137","images/bush4.png","","","memory_trial","3","maybe_new",""
"html-keyboard-response","89","268466","0.0-18.0-0.23","5753","approach_avoid_sv1","""event"",""trial"",""time""
""fullscreenenter"",""1"",""3898""
","
","
","""event"",""trial"",""time""
""fullscreenenter"",""1"",""3898""
","
","","","","","","null","<div style=""font-size:60px;"">+</div>","null","","fixation","","",""
"memory-trial","90","270945","0.0-18.0-1.23","5753","approach_avoid_sv1","""event"",""trial"",""time""
""fullscreenenter"",""1"",""3898""
","
","
","""event"",""trial"",""time""
""fullscreenenter"",""1"",""3898""
","
","","","","","","1474.5","images/cow6.png","","","memory_trial","3","maybe_new",""
"html-keyboard-response","91","271451","0.0-18.0-0.24","5753","approach_avoid_sv1","""event"",""trial"",""time""
""fullscreenenter"",""1"",""3898""
","
","
","""event"",""trial"",""time""
""fullscreenenter"",""1"",""3898""
","
","","","","","","null","<div style=""font-size:60px;"">+</div>","null","","fixation","","",""
"memory-trial","92","273923","0.0-18.0-1.24","5753","approach_avoid_sv1","""event"",""trial"",""time""
""fullscreenenter"",""1"",""3898""
","
","
","""event"",""trial"",""time""
""fullscreenenter"",""1"",""3898""
","
","","","","","","1456.3999999999069","images/sheep4.png","","","memory_trial","4","definitely_new",""
"html-keyboard-response","93","274437","0.0-18.0-0.25","5753","approach_avoid_sv1","""event"",""trial"",""time""
""fullscreenenter"",""1"",""3898""
","
","
","""event"",""trial"",""time""
""fullscreenenter"",""1"",""3898""
","
","","","","","","null","<div style=""font-size:60px;"">+</div>","null","","fixation","","",""
"memory-trial","94","276830","0.0-18.0-1.25","5753","approach_avoid_sv1","""event"",""trial"",""time""
""fullscreenenter"",""1"",""3898""
","
","
","""event"",""trial"",""time""
""fullscreenenter"",""1"",""3898""
","
","","","","","","1374.6999999999534","images/goat8.png","","","memory_trial","3","maybe_new",""
"html-keyboard-response","95","277336","0.0-18.0-0.26","5753","approach_avoid_sv1","""event"",""trial"",""time""
""fullscreenenter"",""1"",""3898""
","
","
","""event"",""trial"",""time""
""fullscreenenter"",""1"",""3898""
","
","","","","","","null","<div style=""font-size:60px;"">+</div>","null","","fixation","","",""
"memory-trial","96","279783","0.0-18.0-1.26","5753","approach_avoid_sv1","""event"",""trial"",""time""
""fullscreenenter"",""1"",""3898""
","
","
","""event"",""trial"",""time""
""fullscreenenter"",""1"",""3898""
","
","","","","","","1426.8999999999069","images/cat6.png","","","memory_trial","3","maybe_new",""
"html-keyboard-response","97","280298","0.0-18.0-0.27","5753","approach_avoid_sv1","""event"",""trial"",""time""
""fullscreenenter"",""1"",""3898""
","
","
","""event"",""trial"",""time""
""fullscreenenter"",""1"",""3898""
","
","","","","","","null","<div style=""font-size:60px;"">+</div>","null","","fixation","","",""
"memory-trial","98","282967","0.0-18.0-1.27","5753","approach_avoid_sv1","""event"",""trial"",""time""
""fullscreenenter"",""1"",""3898""
","
","
","""event"",""trial"",""time""
""fullscreenenter"",""1"",""3898""
","
","","","","","","1645.5","images/cow8.png","","","memory_trial","1","definitely_old",""
"html-keyboard-response","99","283476","0.0-18.0-0.28","5753","approach_avoid_sv1","""event"",""trial"",""time""
""fullscreenenter"",""1"",""3898""
","
","
","""event"",""trial"",""time""
""fullscreenenter"",""1"",""3898""
","
","","","","","","null","<div style=""font-size:60px;"">+</div>","null","","fixation","","",""
"memory-trial","100","285709","0.0-18.0-1.28","5753","approach_avoid_sv1","""event"",""trial"",""time""
""fullscreenenter"",""1"",""3898""
","
","
","""event"",""trial"",""time""
""fullscreenenter"",""1"",""3898""
","
","","","","","","1222.2000000001863","images/bush5.png","","","memory_trial","4","definitely_new",""
"html-keyboard-response","101","286217","0.0-18.0-0.29","5753","approach_avoid_sv1","""event"",""trial"",""time""
""fullscreenenter"",""1"",""3898""
","
","
","""event"",""trial"",""time""
""fullscreenenter"",""1"",""3898""
","
","","","","","","null","<div style=""font-size:60px;"">+</div>","null","","fixation","","",""
"memory-trial","102","288638","0.0-18.0-1.29","5753","approach_avoid_sv1","""event"",""trial"",""time""
""fullscreenenter"",""1"",""3898""
","
","
","""event"",""trial"",""time""
""fullscreenenter"",""1"",""3898""
","
","","","","","","1406.8000000000466","images/cow1.png","","","memory_trial","4","definitely_new",""
"html-keyboard-response","103","289157","0.0-18.0-0.30","5753","approach_avoid_sv1","""event"",""trial"",""time""
""fullscreenenter"",""1"",""3898""
","
","
","""event"",""trial"",""time""
""fullscreenenter"",""1"",""3898""
","
","","","","","","null","<div style=""font-size:60px;"">+</div>","null","","fixation","","",""
"memory-trial","104","292039","0.0-18.0-1.30","5753","approach_avoid_sv1","""event"",""trial"",""time""
""fullscreenenter"",""1"",""3898""
","
","
","""event"",""trial"",""time""
""fullscreenenter"",""1"",""3898""
","
","","","","","","1869.3000000000466","images/table6.png","","","memory_trial","2","maybe_old",""
"html-keyboard-response","105","292549","0.0-18.0-0.31","5753","approach_avoid_sv1","""event"",""trial"",""time""
""fullscreenenter"",""1"",""3898""
","
","
","""event"",""trial"",""time""
""fullscreenenter"",""1"",""3898""
","
","","","","","","null","<div style=""font-size:60px;"">+</div>","null","","fixation","","",""
"memory-trial","106","295715","0.0-18.0-1.31","5753","approach_avoid_sv1","""event"",""trial"",""time""
""fullscreenenter"",""1"",""3898""
","
","
","""event"",""trial"",""time""
""fullscreenenter"",""1"",""3898""
","
","","","","","","2156","images/horse8.png","","","memory_trial","2","maybe_old",""
"html-keyboard-response","107","296238","0.0-18.0-0.32","5753","approach_avoid_sv1","""event"",""trial"",""time""
""fullscreenenter"",""1"",""3898""
","
","
","""event"",""trial"",""time""
""fullscreenenter"",""1"",""3898""
","
","","","","","","null","<div style=""font-size:60px;"">+</div>","null","","fixation","","",""
"memory-trial","108","299101","0.0-18.0-1.32","5753","approach_avoid_sv1","""event"",""trial"",""time""
""fullscreenenter"",""1"",""3898""
","
","
","""event"",""trial"",""time""
""fullscreenenter"",""1"",""3898""
","
","","","","","","1853","images/rodent1.png","","","memory_trial","2","maybe_old",""
"html-keyboard-response","109","299607","0.0-18.0-0.33","5753","approach_avoid_sv1","""event"",""trial"",""time""
""fullscreenenter"",""1"",""3898""
","
","
","""event"",""trial"",""time""
""fullscreenenter"",""1"",""3898""
","
","","","","","","null","<div style=""font-size:60px;"">+</div>","null","","fixation","","",""
"memory-trial","110","302426","0.0-18.0-1.33","5753","approach_avoid_sv1","""event"",""trial"",""time""
""fullscreenenter"",""1"",""3898""
","
","
","""event"",""trial"",""time""
""fullscreenenter"",""1"",""3898""
","
","","","","","","1803.5","images/table4.png","","","memory_trial","3","maybe_new",""
"html-keyboard-response","111","302932","0.0-18.0-0.34","5753","approach_avoid_sv1","""event"",""trial"",""time""
""fullscreenenter"",""1"",""3898""
","
","
","""event"",""trial"",""time""
""fullscreenenter"",""1"",""3898""
","
","","","","","","null","<div style=""font-size:60px;"">+</div>","null","","fixation","","",""
"memory-trial","112","306679","0.0-18.0-1.34","5753","approach_avoid_sv1","""event"",""trial"",""time""
""fullscreenenter"",""1"",""3898""
","
","
","""event"",""trial"",""time""
""fullscreenenter"",""1"",""3898""
","
","","","","","","2740.1999999999534","images/rabbit1.png","","","memory_trial","4","definitely_new",""
"html-keyboard-response","113","307190","0.0-18.0-0.35","5753","approach_avoid_sv1","""event"",""trial"",""time""
""fullscreenenter"",""1"",""3898""
","
","
","""event"",""trial"",""time""
""fullscreenenter"",""1"",""3898""
","
","","","","","","null","<div style=""font-size:60px;"">+</div>","null","","fixation","","",""
"memory-trial","114","309124","0.0-18.0-1.35","5753","approach_avoid_sv1","""event"",""trial"",""time""
""fullscreenenter"",""1"",""3898""
","
","
","""event"",""trial"",""time""
""fullscreenenter"",""1"",""3898""
","
","","","","","","923.6999999999534","images/chair8.png","","","memory_trial","4","definitely_new",""
"html-keyboard-response","115","309635","0.0-18.0-0.36","5753","approach_avoid_sv1","""event"",""trial"",""time""
""fullscreenenter"",""1"",""3898""
","
","
","""event"",""trial"",""time""
""fullscreenenter"",""1"",""3898""
","
","","","","","","null","<div style=""font-size:60px;"">+</div>","null","","fixation","","",""
"memory-trial","116","311768","0.0-18.0-1.36","5753","approach_avoid_sv1","""event"",""trial"",""time""
""fullscreenenter"",""1"",""3898""
","
","
","""event"",""trial"",""time""
""fullscreenenter"",""1"",""3898""
","
","","","","","","1119.3999999999069","images/sofa8.png","","","memory_trial","4","definitely_new",""
"html-keyboard-response","117","312276","0.0-18.0-0.37","5753","approach_avoid_sv1","""event"",""trial"",""time""
""fullscreenenter"",""1"",""3898""
","
","
","""event"",""trial"",""time""
""fullscreenenter"",""1"",""3898""
","
","","","","","","null","<div style=""font-size:60px;"">+</div>","null","","fixation","","",""
"memory-trial","118","315002","0.0-18.0-1.37","5753","approach_avoid_sv1","""event"",""trial"",""time""
""fullscreenenter"",""1"",""3898""
","
","
","""event"",""trial"",""time""
""fullscreenenter"",""1"",""3898""
","
","","","","","","1704.8999999999069","images/horse7.png","","","memory_trial","4","definitely_new",""
"html-keyboard-response","119","315518","0.0-18.0-0.38","5753","approach_avoid_sv1","""event"",""trial"",""time""
""fullscreenenter"",""1"",""3898""
","
","
","""event"",""trial"",""time""
""fullscreenenter"",""1"",""3898""
","
","","","","","","null","<div style=""font-size:60px;"">+</div>","null","","fixation","","",""
"memory-trial","120","318721","0.0-18.0-1.38","5753","approach_avoid_sv1","""event"",""trial"",""time""
""fullscreenenter"",""1"",""3898""
","
","
","""event"",""trial"",""time""
""fullscreenenter"",""1"",""3898""
","
","","","","","","2190.8000000000466","images/banana6.png","","","memory_trial","3","maybe_new",""
"html-keyboard-response","121","319233","0.0-18.0-0.39","5753","approach_avoid_sv1","""event"",""trial"",""time""
""fullscreenenter"",""1"",""3898""
","
","
","""event"",""trial"",""time""
""fullscreenenter"",""1"",""3898""
","
","","","","","","null","<div style=""font-size:60px;"">+</div>","null","","fixation","","",""
"memory-trial","122","321660","0.0-18.0-1.39","5753","approach_avoid_sv1","""event"",""trial"",""time""
""fullscreenenter"",""1"",""3898""
","
","
","""event"",""trial"",""time""
""fullscreenenter"",""1"",""3898""
","
","","","","","","1410.7000000001863","images/tree4.png","","","memory_trial","1","definitely_old",""
"html-keyboard-response","123","322174","0.0-18.0-0.40","5753","approach_avoid_sv1","""event"",""trial"",""time""
""fullscreenenter"",""1"",""3898""
","
","
","""event"",""trial"",""time""
""fullscreenenter"",""1"",""3898""
","
","","","","","","null","<div style=""font-size:60px;"">+</div>","null","","fixation","","",""
"memory-trial","124","324621","0.0-18.0-1.40","5753","approach_avoid_sv1","""event"",""trial"",""time""
""fullscreenenter"",""1"",""3898""
","
","
","""event"",""trial"",""time""
""fullscreenenter"",""1"",""3898""
","
","","","","","","1433.3000000000466","images/apple4.png","","","memory_trial","2","maybe_old",""
"html-keyboard-response","125","325133","0.0-18.0-0.41","5753","approach_avoid_sv1","""event"",""trial"",""time""
""fullscreenenter"",""1"",""3898""
","
","
","""event"",""trial"",""time""
""fullscreenenter"",""1"",""3898""
","
","","","","","","null","<div style=""font-size:60px;"">+</div>","null","","fixation","","",""
"memory-trial","126","327668","0.0-18.0-1.41","5753","approach_avoid_sv1","""event"",""trial"",""time""
""fullscreenenter"",""1"",""3898""
","
","
","""event"",""trial"",""time""
""fullscreenenter"",""1"",""3898""
","
","","","","","","1527.8999999999069","images/tree1.png","","","memory_trial","3","maybe_new",""
"html-button-response","127","369999","0.0-18.0-2.41-0.41","5753","approach_avoid_sv1","""event"",""trial"",""time""
""fullscreenenter"",""1"",""3898""
","
","
","""event"",""trial"",""time""
""fullscreenenter"",""1"",""3898""
","
","","","","","","42331.90000000014","<p> Take a break! </p><p> Click the button to continue. </p>","0","","break","","",""
"html-keyboard-response","128","370513","0.0-18.0-0.42","5753","approach_avoid_sv1","""event"",""trial"",""time""
""fullscreenenter"",""1"",""3898""
","
","
","""event"",""trial"",""time""
""fullscreenenter"",""1"",""3898""
","
","","","","","","null","<div style=""font-size:60px;"">+</div>","null","","fixation","","",""
"memory-trial","129","373943","0.0-18.0-1.42","5753","approach_avoid_sv1","""event"",""trial"",""time""
""fullscreenenter"",""1"",""3898""
","
","
","""event"",""trial"",""time""
""fullscreenenter"",""1"",""3898""
","
","","","","","","2410.5","images/apple8.png","","","memory_trial","3","maybe_new",""
"html-keyboard-response","130","374452","0.0-18.0-0.43","5753","approach_avoid_sv1","""event"",""trial"",""time""
""fullscreenenter"",""1"",""3898""
","
","
","""event"",""trial"",""time""
""fullscreenenter"",""1"",""3898""
","
","","","","","","null","<div style=""font-size:60px;"">+</div>","null","","fixation","","",""
"memory-trial","131","377048","0.0-18.0-1.43","5753","approach_avoid_sv1","""event"",""trial"",""time""
""fullscreenenter"",""1"",""3898""
","
","
","""event"",""trial"",""time""
""fullscreenenter"",""1"",""3898""
","
","","","","","","1586.8999999999069","images/apple7.png","","","memory_trial","2","maybe_old",""
"html-keyboard-response","132","377567","0.0-18.0-0.44","5753","approach_avoid_sv1","""event"",""trial"",""time""
""fullscreenenter"",""1"",""3898""
","
","
","""event"",""trial"",""time""
""fullscreenenter"",""1"",""3898""
","
","","","","","","null","<div style=""font-size:60px;"">+</div>","null","","fixation","","",""
"memory-trial","133","380426","0.0-18.0-1.44","5753","approach_avoid_sv1","""event"",""trial"",""time""
""fullscreenenter"",""1"",""3898""
","
","
","""event"",""trial"",""time""
""fullscreenenter"",""1"",""3898""
","
","","","","","","1850.7000000001863","images/cactus8.png","","","memory_trial","1","definitely_old",""
"html-keyboard-response","134","380941","0.0-18.0-0.45","5753","approach_avoid_sv1","""event"",""trial"",""time""
""fullscreenenter"",""1"",""3898""
","
","
","""event"",""trial"",""time""
""fullscreenenter"",""1"",""3898""
","
","","","","","","null","<div style=""font-size:60px;"">+</div>","null","","fixation","","",""
"memory-trial","135","383308","0.0-18.0-1.45","5753","approach_avoid_sv1","""event"",""trial"",""time""
""fullscreenenter"",""1"",""3898""
","
","
","""event"",""trial"",""time""
""fullscreenenter"",""1"",""3898""
","
","","","","","","1356.8000000000466","images/cow4.png","","","memory_trial","2","maybe_old",""
"html-keyboard-response","136","383824","0.0-18.0-0.46","5753","approach_avoid_sv1","""event"",""trial"",""time""
""fullscreenenter"",""1"",""3898""
","
","
","""event"",""trial"",""time""
""fullscreenenter"",""1"",""3898""
","
","","","","","","null","<div style=""font-size:60px;"">+</div>","null","","fixation","","",""
"memory-trial","137","386714","0.0-18.0-1.46","5753","approach_avoid_sv1","""event"",""trial"",""time""
""fullscreenenter"",""1"",""3898""
","
","
","""event"",""trial"",""time""
""fullscreenenter"",""1"",""3898""
","
","","","","","","1878.8999999999069","images/flower5.png","","","memory_trial","3","maybe_new",""
"html-keyboard-response","138","387229","0.0-18.0-0.47","5753","approach_avoid_sv1","""event"",""trial"",""time""
""fullscreenenter"",""1"",""3898""
","
","
","""event"",""trial"",""time""
""fullscreenenter"",""1"",""3898""
","
","","","","","","null","<div style=""font-size:60px;"">+</div>","null","","fixation","","",""
"memory-trial","139","389901","0.0-18.0-1.47","5753","approach_avoid_sv1","""event"",""trial"",""time""
""fullscreenenter"",""1"",""3898""
","
","
","""event"",""trial"",""time""
""fullscreenenter"",""1"",""3898""
","
","","","","","","1658.1999999999534","images/cow2.png","","","memory_trial","2","maybe_old",""
"html-keyboard-response","140","390413","0.0-18.0-0.48","5753","approach_avoid_sv1","""event"",""trial"",""time""
""fullscreenenter"",""1"",""3898""
","
","
","""event"",""trial"",""time""
""fullscreenenter"",""1"",""3898""
","
","","","","","","null","<div style=""font-size:60px;"">+</div>","null","","fixation","","",""
"memory-trial","141","392716","0.0-18.0-1.48","5753","approach_avoid_sv1","""event"",""trial"",""time""
""fullscreenenter"",""1"",""3898""
","
","
","""event"",""trial"",""time""
""fullscreenenter"",""1"",""3898""
","
","","","","","","1294.0999999998603","images/dog5.png","","","memory_trial","3","maybe_new",""
"html-keyboard-response","142","393229","0.0-18.0-0.49","5753","approach_avoid_sv1","""event"",""trial"",""time""
""fullscreenenter"",""1"",""3898""
","
","
","""event"",""trial"",""time""
""fullscreenenter"",""1"",""3898""
","
","","","","","","null","<div style=""font-size:60px;"">+</div>","null","","fixation","","",""
"memory-trial","143","395885","0.0-18.0-1.49","5753","approach_avoid_sv1","""event"",""trial"",""time""
""fullscreenenter"",""1"",""3898""
","
","
","""event"",""trial"",""time""
""fullscreenenter"",""1"",""3898""
","
","","","","","","1633.7999999998137","images/truck1.png","","","memory_trial","2","maybe_old",""
"html-keyboard-response","144","396400","0.0-18.0-0.50","5753","approach_avoid_sv1","""event"",""trial"",""time""
""fullscreenenter"",""1"",""3898""
","
","
","""event"",""trial"",""time""
""fullscreenenter"",""1"",""3898""
","
","","","","","","null","<div style=""font-size:60px;"">+</div>","null","","fixation","","",""
"memory-trial","145","398835","0.0-18.0-1.50","5753","approach_avoid_sv1","""event"",""trial"",""time""
""fullscreenenter"",""1"",""3898""
","
","
","""event"",""trial"",""time""
""fullscreenenter"",""1"",""3898""
","
","","","","","","1425","images/table1.png","","","memory_trial","2","maybe_old",""
"html-keyboard-response","146","399353","0.0-18.0-0.51","5753","approach_avoid_sv1","""event"",""trial"",""time""
""fullscreenenter"",""1"",""3898""
","
","
","""event"",""trial"",""time""
""fullscreenenter"",""1"",""3898""
","
","","","","","","null","<div style=""font-size:60px;"">+</div>","null","","fixation","","",""
"memory-trial","147","401810","0.0-18.0-1.51","5753","approach_avoid_sv1","""event"",""trial"",""time""
""fullscreenenter"",""1"",""3898""
","
","
","""event"",""trial"",""time""
""fullscreenenter"",""1"",""3898""
","
","","","","","","1446.1000000000931","images/goat4.png","","","memory_trial","1","definitely_old",""
"html-keyboard-response","148","402320","0.0-18.0-0.52","5753","approach_avoid_sv1","""event"",""trial"",""time""
""fullscreenenter"",""1"",""3898""
","
","
","""event"",""trial"",""time""
""fullscreenenter"",""1"",""3898""
","
","","","","","","null","<div style=""font-size:60px;"">+</div>","null","","fixation","","",""
"memory-trial","149","404921","0.0-18.0-1.52","5753","approach_avoid_sv1","""event"",""trial"",""time""
""fullscreenenter"",""1"",""3898""
","
","
","""event"",""trial"",""time""
""fullscreenenter"",""1"",""3898""
","
","","","","","","1589.7999999998137","images/cactus6.png","","","memory_trial","2","maybe_old",""
"html-keyboard-response","150","405427","0.0-18.0-0.53","5753","approach_avoid_sv1","""event"",""trial"",""time""
""fullscreenenter"",""1"",""3898""
","
","
","""event"",""trial"",""time""
""fullscreenenter"",""1"",""3898""
","
","","","","","","null","<div style=""font-size:60px;"">+</div>","null","","fixation","","",""
"memory-trial","151","407932","0.0-18.0-1.53","5753","approach_avoid_sv1","""event"",""trial"",""time""
""fullscreenenter"",""1"",""3898""
","
","
","""event"",""trial"",""time""
""fullscreenenter"",""1"",""3898""
","
","","","","","","1496.3000000000466","images/boat2.png","","","memory_trial","3","maybe_new",""
"html-keyboard-response","152","408446","0.0-18.0-0.54","5753","approach_avoid_sv1","""event"",""trial"",""time""
""fullscreenenter"",""1"",""3898""
","
","
","""event"",""trial"",""time""
""fullscreenenter"",""1"",""3898""
","
","","","","","","null","<div style=""font-size:60px;"">+</div>","null","","fixation","","",""
"memory-trial","153","410726","0.0-18.0-1.54","5753","approach_avoid_sv1","""event"",""trial"",""time""
""fullscreenenter"",""1"",""3898""
","
","
","""event"",""trial"",""time""
""fullscreenenter"",""1"",""3898""
","
","","","","","","1266.5","images/banana7.png","","","memory_trial","1","definitely_old",""
"html-keyboard-response","154","411232","0.0-18.0-0.55","5753","approach_avoid_sv1","""event"",""trial"",""time""
""fullscreenenter"",""1"",""3898""
","
","
","""event"",""trial"",""time""
""fullscreenenter"",""1"",""3898""
","
","","","","","","null","<div style=""font-size:60px;"">+</div>","null","","fixation","","",""
"memory-trial","155","413703","0.0-18.0-1.55","5753","approach_avoid_sv1","""event"",""trial"",""time""
""fullscreenenter"",""1"",""3898""
","
","
","""event"",""trial"",""time""
""fullscreenenter"",""1"",""3898""
","
","","","","","","1459.4000000001397","images/rodent4.png","","","memory_trial","3","maybe_new",""
"html-keyboard-response","156","414215","0.0-18.0-0.56","5753","approach_avoid_sv1","""event"",""trial"",""time""
""fullscreenenter"",""1"",""3898""
","
","
","""event"",""trial"",""time""
""fullscreenenter"",""1"",""3898""
","
","","","","","","null","<div style=""font-size:60px;"">+</div>","null","","fixation","","",""
"memory-trial","157","416229","0.0-18.0-1.56","5753","approach_avoid_sv1","""event"",""trial"",""time""
""fullscreenenter"",""1"",""3898""
","
","
","""event"",""trial"",""time""
""fullscreenenter"",""1"",""3898""
","
","","","","","","996.2999999998137","images/flower3.png","","","memory_trial","3","maybe_new",""
"html-keyboard-response","158","416738","0.0-18.0-0.57","5753","approach_avoid_sv1","""event"",""trial"",""time""
""fullscreenenter"",""1"",""3898""
","
","
","""event"",""trial"",""time""
""fullscreenenter"",""1"",""3898""
","
","","","","","","null","<div style=""font-size:60px;"">+</div>","null","","fixation","","",""
"memory-trial","159","419455","0.0-18.0-1.57","5753","approach_avoid_sv1","""event"",""trial"",""time""
""fullscreenenter"",""1"",""3898""
","
","
","""event"",""trial"",""time""
""fullscreenenter"",""1"",""3898""
","
","","","","","","1706.0999999998603","images/tree3.png","","","memory_trial","2","maybe_old",""
"html-keyboard-response","160","419966","0.0-18.0-0.58","5753","approach_avoid_sv1","""event"",""trial"",""time""
""fullscreenenter"",""1"",""3898""
","
","
","""event"",""trial"",""time""
""fullscreenenter"",""1"",""3898""
","
","","","","","","null","<div style=""font-size:60px;"">+</div>","null","","fixation","","",""
"memory-trial","161","422210","0.0-18.0-1.58","5753","approach_avoid_sv1","""event"",""trial"",""time""
""fullscreenenter"",""1"",""3898""
","
","
","""event"",""trial"",""time""
""fullscreenenter"",""1"",""3898""
","
","","","","","","1233.9000000001397","images/dog4.png","","","memory_trial","3","maybe_new",""
"html-keyboard-response","162","422718","0.0-18.0-0.59","5753","approach_avoid_sv1","""event"",""trial"",""time""
""fullscreenenter"",""1"",""3898""
","
","
","""event"",""trial"",""time""
""fullscreenenter"",""1"",""3898""
","
","","","","","","null","<div style=""font-size:60px;"">+</div>","null","","fixation","","",""
"memory-trial","163","424736","0.0-18.0-1.59","5753","approach_avoid_sv1","""event"",""trial"",""time""
""fullscreenenter"",""1"",""3898""
","
","
","""event"",""trial"",""time""
""fullscreenenter"",""1"",""3898""
","
","","","","","","1013.5999999998603","images/rabbit4.png","","","memory_trial","3","maybe_new",""
"html-keyboard-response","164","425241","0.0-18.0-0.60","5753","approach_avoid_sv1","""event"",""trial"",""time""
""fullscreenenter"",""1"",""3898""
","
","
","""event"",""trial"",""time""
""fullscreenenter"",""1"",""3898""
","
","","","","","","null","<div style=""font-size:60px;"">+</div>","null","","fixation","","",""
"memory-trial","165","427209","0.0-18.0-1.60","5753","approach_avoid_sv1","""event"",""trial"",""time""
""fullscreenenter"",""1"",""3898""
","
","
","""event"",""trial"",""time""
""fullscreenenter"",""1"",""3898""
","
","","","","","","957.5","images/cat4.png","","","memory_trial","2","maybe_old",""
"html-keyboard-response","166","427729","0.0-18.0-0.61","5753","approach_avoid_sv1","""event"",""trial"",""time""
""fullscreenenter"",""1"",""3898""
","
","
","""event"",""trial"",""time""
""fullscreenenter"",""1"",""3898""
","
","","","","","","null","<div style=""font-size:60px;"">+</div>","null","","fixation","","",""
"memory-trial","167","430064","0.0-18.0-1.61","5753","approach_avoid_sv1","""event"",""trial"",""time""
""fullscreenenter"",""1"",""3898""
","
","
","""event"",""trial"",""time""
""fullscreenenter"",""1"",""3898""
","
","","","","","","1322.3999999999069","images/sheep2.png","","","memory_trial","4","definitely_new",""
"html-keyboard-response","168","430575","0.0-18.0-0.62","5753","approach_avoid_sv1","""event"",""trial"",""time""
""fullscreenenter"",""1"",""3898""
","
","
","""event"",""trial"",""time""
""fullscreenenter"",""1"",""3898""
","
","","","","","","null","<div style=""font-size:60px;"">+</div>","null","","fixation","","",""
"memory-trial","169","432591","0.0-18.0-1.62","5753","approach_avoid_sv1","""event"",""trial"",""time""
""fullscreenenter"",""1"",""3898""
","
","
","""event"",""trial"",""time""
""fullscreenenter"",""1"",""3898""
","
","","","","","","1003.1000000000931","images/banana5.png","","","memory_trial","2","maybe_old",""
"html-keyboard-response","170","433102","0.0-18.0-0.63","5753","approach_avoid_sv1","""event"",""trial"",""time""
""fullscreenenter"",""1"",""3898""
","
","
","""event"",""trial"",""time""
""fullscreenenter"",""1"",""3898""
","
","","","","","","null","<div style=""font-size:60px;"">+</div>","null","","fixation","","",""
"memory-trial","171","435765","0.0-18.0-1.63","5753","approach_avoid_sv1","""event"",""trial"",""time""
""fullscreenenter"",""1"",""3898""
","
","
","""event"",""trial"",""time""
""fullscreenenter"",""1"",""3898""
","
","","","","","","1651.8000000000466","images/goat2.png","","","memory_trial","4","definitely_new",""
"html-keyboard-response","172","436277","0.0-18.0-0.64","5753","approach_avoid_sv1","""event"",""trial"",""time""
""fullscreenenter"",""1"",""3898""
","
","
","""event"",""trial"",""time""
""fullscreenenter"",""1"",""3898""
","
","","","","","","null","<div style=""font-size:60px;"">+</div>","null","","fixation","","",""
"memory-trial","173","438902","0.0-18.0-1.64","5753","approach_avoid_sv1","""event"",""trial"",""time""
""fullscreenenter"",""1"",""3898""
","
","
","""event"",""trial"",""time""
""fullscreenenter"",""1"",""3898""
","
","","","","","","1615.3999999999069","images/horse4.png","","","memory_trial","4","definitely_new",""
"html-keyboard-response","174","439417","0.0-18.0-0.65","5753","approach_avoid_sv1","""event"",""trial"",""time""
""fullscreenenter"",""1"",""3898""
","
","
","""event"",""trial"",""time""
""fullscreenenter"",""1"",""3898""
","
","","","","","","null","<div style=""font-size:60px;"">+</div>","null","","fixation","","",""
"memory-trial","175","441642","0.0-18.0-1.65","5753","approach_avoid_sv1","""event"",""trial"",""time""
""fullscreenenter"",""1"",""3898""
","
","
","""event"",""trial"",""time""
""fullscreenenter"",""1"",""3898""
","
","","","","","","1212.1999999999534","images/rodent5.png","","","memory_trial","1","definitely_old",""
"html-keyboard-response","176","442148","0.0-18.0-0.66","5753","approach_avoid_sv1","""event"",""trial"",""time""
""fullscreenenter"",""1"",""3898""
","
","
","""event"",""trial"",""time""
""fullscreenenter"",""1"",""3898""
","
","","","","","","null","<div style=""font-size:60px;"">+</div>","null","","fixation","","",""
"memory-trial","177","444211","0.0-18.0-1.66","5753","approach_avoid_sv1","""event"",""trial"",""time""
""fullscreenenter"",""1"",""3898""
","
","
","""event"",""trial"",""time""
""fullscreenenter"",""1"",""3898""
","
","","","","","","1051.5","images/straw2.png","","","memory_trial","1","definitely_old",""
"html-keyboard-response","178","444720","0.0-18.0-0.67","5753","approach_avoid_sv1","""event"",""trial"",""time""
""fullscreenenter"",""1"",""3898""
","
","
","""event"",""trial"",""time""
""fullscreenenter"",""1"",""3898""
","
","","","","","","null","<div style=""font-size:60px;"">+</div>","null","","fixation","","",""
"memory-trial","179","447293","0.0-18.0-1.67","5753","approach_avoid_sv1","""event"",""trial"",""time""
""fullscreenenter"",""1"",""3898""
","
","
","""event"",""trial"",""time""
""fullscreenenter"",""1"",""3898""
","
","","","","","","1563.1999999999534","images/flower4.png","","","memory_trial","3","maybe_new",""
"html-keyboard-response","180","447810","0.0-18.0-0.68","5753","approach_avoid_sv1","""event"",""trial"",""time""
""fullscreenenter"",""1"",""3898""
","
","
","""event"",""trial"",""time""
""fullscreenenter"",""1"",""3898""
","
","","","","","","null","<div style=""font-size:60px;"">+</div>","null","","fixation","","",""
"memory-trial","181","450373","0.0-18.0-1.68","5753","approach_avoid_sv1","""event"",""trial"",""time""
""fullscreenenter"",""1"",""3898""
","
","
","""event"",""trial"",""time""
""fullscreenenter"",""1"",""3898""
","
","","","","","","1549.2999999998137","images/bush7.png","","","memory_trial","1","definitely_old",""
"html-keyboard-response","182","450887","0.0-18.0-0.69","5753","approach_avoid_sv1","""event"",""trial"",""time""
""fullscreenenter"",""1"",""3898""
","
","
","""event"",""trial"",""time""
""fullscreenenter"",""1"",""3898""
","
","","","","","","null","<div style=""font-size:60px;"">+</div>","null","","fixation","","",""
"memory-trial","183","453104","0.0-18.0-1.69","5753","approach_avoid_sv1","""event"",""trial"",""time""
""fullscreenenter"",""1"",""3898""
","
","
","""event"",""trial"",""time""
""fullscreenenter"",""1"",""3898""
","
","","","","","","1204.3999999999069","images/rabbit6.png","","","memory_trial","3","maybe_new",""
"html-keyboard-response","184","453613","0.0-18.0-0.70","5753","approach_avoid_sv1","""event"",""trial"",""time""
""fullscreenenter"",""1"",""3898""
","
","
","""event"",""trial"",""time""
""fullscreenenter"",""1"",""3898""
","
","","","","","","null","<div style=""font-size:60px;"">+</div>","null","","fixation","","",""
"memory-trial","185","456599","0.0-18.0-1.70","5753","approach_avoid_sv1","""event"",""trial"",""time""
""fullscreenenter"",""1"",""3898""
","
","
","""event"",""trial"",""time""
""fullscreenenter"",""1"",""3898""
","
","","","","","","1969.5","images/apple1.png","","","memory_trial","2","maybe_old",""
"html-keyboard-response","186","457109","0.0-18.0-0.71","5753","approach_avoid_sv1","""event"",""trial"",""time""
""fullscreenenter"",""1"",""3898""
","
","
","""event"",""trial"",""time""
""fullscreenenter"",""1"",""3898""
","
","","","","","","null","<div style=""font-size:60px;"">+</div>","null","","fixation","","",""
"memory-trial","187","459737","0.0-18.0-1.71","5753","approach_avoid_sv1","""event"",""trial"",""time""
""fullscreenenter"",""1"",""3898""
","
","
","""event"",""trial"",""time""
""fullscreenenter"",""1"",""3898""
","
","","","","","","1611","images/chair4.png","","","memory_trial","3","maybe_new",""
"html-keyboard-response","188","460246","0.0-18.0-0.72","5753","approach_avoid_sv1","""event"",""trial"",""time""
""fullscreenenter"",""1"",""3898""
","
","
","""event"",""trial"",""time""
""fullscreenenter"",""1"",""3898""
","
","","","","","","null","<div style=""font-size:60px;"">+</div>","null","","fixation","","",""
"memory-trial","189","462586","0.0-18.0-1.72","5753","approach_avoid_sv1","""event"",""trial"",""time""
""fullscreenenter"",""1"",""3898""
","
","
","""event"",""trial"",""time""
""fullscreenenter"",""1"",""3898""
","
","","","","","","1323.8999999999069","images/rodent2.png","","","memory_trial","3","maybe_new",""
"html-keyboard-response","190","463096","0.0-18.0-0.73","5753","approach_avoid_sv1","""event"",""trial"",""time""
""fullscreenenter"",""1"",""3898""
","
","
","""event"",""trial"",""time""
""fullscreenenter"",""1"",""3898""
","
","","","","","","null","<div style=""font-size:60px;"">+</div>","null","","fixation","","",""
"memory-trial","191","465561","0.0-18.0-1.73","5753","approach_avoid_sv1","""event"",""trial"",""time""
""fullscreenenter"",""1"",""3898""
","
","
","""event"",""trial"",""time""
""fullscreenenter"",""1"",""3898""
","
","","","","","","1453.1000000000931","images/orange8.png","","","memory_trial","4","definitely_new",""
"html-keyboard-response","192","466072","0.0-18.0-0.74","5753","approach_avoid_sv1","""event"",""trial"",""time""
""fullscreenenter"",""1"",""3898""
","
","
","""event"",""trial"",""time""
""fullscreenenter"",""1"",""3898""
","
","","","","","","null","<div style=""font-size:60px;"">+</div>","null","","fixation","","",""
"memory-trial","193","467926","0.0-18.0-1.74","5753","approach_avoid_sv1","""event"",""trial"",""time""
""fullscreenenter"",""1"",""3898""
","
","
","""event"",""trial"",""time""
""fullscreenenter"",""1"",""3898""
","
","","","","","","834.6000000000931","images/plane4.png","","","memory_trial","4","definitely_new",""
"html-keyboard-response","194","468436","0.0-18.0-0.75","5753","approach_avoid_sv1","""event"",""trial"",""time""
""fullscreenenter"",""1"",""3898""
","
","
","""event"",""trial"",""time""
""fullscreenenter"",""1"",""3898""
","
","","","","","","null","<div style=""font-size:60px;"">+</div>","null","","fixation","","",""
"memory-trial","195","470757","0.0-18.0-1.75","5753","approach_avoid_sv1","""event"",""trial"",""time""
""fullscreenenter"",""1"",""3898""
","
","
","""event"",""trial"",""time""
""fullscreenenter"",""1"",""3898""
","
","","","","","","1308","images/sofa5.png","","","memory_trial","2","maybe_old",""
"html-keyboard-response","196","471267","0.0-18.0-0.76","5753","approach_avoid_sv1","""event"",""trial"",""time""
""fullscreenenter"",""1"",""3898""
","
","
","""event"",""trial"",""time""
""fullscreenenter"",""1"",""3898""
","
","","","","","","null","<div style=""font-size:60px;"">+</div>","null","","fixation","","",""
"memory-trial","197","474819","0.0-18.0-1.76","5753","approach_avoid_sv1","""event"",""trial"",""time""
""fullscreenenter"",""1"",""3898""
","
","
","""event"",""trial"",""time""
""fullscreenenter"",""1"",""3898""
","
","","","","","","2545","images/sheep8.png","","","memory_trial","3","maybe_new",""
"html-keyboard-response","198","475325","0.0-18.0-0.77","5753","approach_avoid_sv1","""event"",""trial"",""time""
""fullscreenenter"",""1"",""3898""
","
","
","""event"",""trial"",""time""
""fullscreenenter"",""1"",""3898""
","
","","","","","","null","<div style=""font-size:60px;"">+</div>","null","","fixation","","",""
"memory-trial","199","477765","0.0-18.0-1.77","5753","approach_avoid_sv1","""event"",""trial"",""time""
""fullscreenenter"",""1"",""3898""
","
","
","""event"",""trial"",""time""
""fullscreenenter"",""1"",""3898""
","
","","","","","","1428.6000000000931","images/cat5.png","","","memory_trial","2","maybe_old",""
"html-keyboard-response","200","478280","0.0-18.0-0.78","5753","approach_avoid_sv1","""event"",""trial"",""time""
""fullscreenenter"",""1"",""3898""
","
","
","""event"",""trial"",""time""
""fullscreenenter"",""1"",""3898""
","
","","","","","","null","<div style=""font-size:60px;"">+</div>","null","","fixation","","",""
"memory-trial","201","480466","0.0-18.0-1.78","5753","approach_avoid_sv1","""event"",""trial"",""time""
""fullscreenenter"",""1"",""3898""
","
","
","""event"",""trial"",""time""
""fullscreenenter"",""1"",""3898""
","
","","","","","","1169.3000000000466","images/plane5.png","","","memory_trial","4","definitely_new",""
"html-keyboard-response","202","480979","0.0-18.0-0.79","5753","approach_avoid_sv1","""event"",""trial"",""time""
""fullscreenenter"",""1"",""3898""
","
","
","""event"",""trial"",""time""
""fullscreenenter"",""1"",""3898""
","
","","","","","","null","<div style=""font-size:60px;"">+</div>","null","","fixation","","",""
"memory-trial","203","483205","0.0-18.0-1.79","5753","approach_avoid_sv1","""event"",""trial"",""time""
""fullscreenenter"",""1"",""3898""
","
","
","""event"",""trial"",""time""
""fullscreenenter"",""1"",""3898""
","
","","","","","","1214.3000000000466","images/flower2.png","","","memory_trial","3","maybe_new",""
"html-keyboard-response","204","483715","0.0-18.0-0.80","5753","approach_avoid_sv1","""event"",""trial"",""time""
""fullscreenenter"",""1"",""3898""
","
","
","""event"",""trial"",""time""
""fullscreenenter"",""1"",""3898""
","
","","","","","","null","<div style=""font-size:60px;"">+</div>","null","","fixation","","",""
"memory-trial","205","485943","0.0-18.0-1.80","5753","approach_avoid_sv1","""event"",""trial"",""time""
""fullscreenenter"",""1"",""3898""
","
","
","""event"",""trial"",""time""
""fullscreenenter"",""1"",""3898""
","
","","","","","","1218.2000000001863","images/sofa2.png","","","memory_trial","2","maybe_old",""
"html-keyboard-response","206","486458","0.0-18.0-0.81","5753","approach_avoid_sv1","""event"",""trial"",""time""
""fullscreenenter"",""1"",""3898""
","
","
","""event"",""trial"",""time""
""fullscreenenter"",""1"",""3898""
","
","","","","","","null","<div style=""font-size:60px;"">+</div>","null","","fixation","","",""
"memory-trial","207","488797","0.0-18.0-1.81","5753","approach_avoid_sv1","""event"",""trial"",""time""
""fullscreenenter"",""1"",""3898""
","
","
","""event"",""trial"",""time""
""fullscreenenter"",""1"",""3898""
","
","","","","","","1321.6999999999534","images/apple5.png","","","memory_trial","3","maybe_new",""
"html-keyboard-response","208","489305","0.0-18.0-0.82","5753","approach_avoid_sv1","""event"",""trial"",""time""
""fullscreenenter"",""1"",""3898""
","
","
","""event"",""trial"",""time""
""fullscreenenter"",""1"",""3898""
","
","","","","","","null","<div style=""font-size:60px;"">+</div>","null","","fixation","","",""
"memory-trial","209","491877","0.0-18.0-1.82","5753","approach_avoid_sv1","""event"",""trial"",""time""
""fullscreenenter"",""1"",""3898""
","
","
","""event"",""trial"",""time""
""fullscreenenter"",""1"",""3898""
","
","","","","","","1557.1999999999534","images/boat7.png","","","memory_trial","3","maybe_new",""
"html-keyboard-response","210","492390","0.0-18.0-0.83","5753","approach_avoid_sv1","""event"",""trial"",""time""
""fullscreenenter"",""1"",""3898""
","
","
","""event"",""trial"",""time""
""fullscreenenter"",""1"",""3898""
","
","","","","","","null","<div style=""font-size:60px;"">+</div>","null","","fixation","","",""
"memory-trial","211","494815","0.0-18.0-1.83","5753","approach_avoid_sv1","""event"",""trial"",""time""
""fullscreenenter"",""1"",""3898""
","
","
","""event"",""trial"",""time""
""fullscreenenter"",""1"",""3898""
","
","","","","","","1414.5999999998603","images/bed5.png","","","memory_trial","3","maybe_new",""
"html-keyboard-response","212","495324","0.0-18.0-0.84","5753","approach_avoid_sv1","""event"",""trial"",""time""
""fullscreenenter"",""1"",""3898""
","
","
","""event"",""trial"",""time""
""fullscreenenter"",""1"",""3898""
","
","","","","","","null","<div style=""font-size:60px;"">+</div>","null","","fixation","","",""
"memory-trial","213","497562","0.0-18.0-1.84","5753","approach_avoid_sv1","""event"",""trial"",""time""
""fullscreenenter"",""1"",""3898""
","
","
","""event"",""trial"",""time""
""fullscreenenter"",""1"",""3898""
","
","","","","","","1229.3000000000466","images/cactus7.png","","","memory_trial","3","maybe_new",""
"html-keyboard-response","214","498085","0.0-18.0-0.85","5753","approach_avoid_sv1","""event"",""trial"",""time""
""fullscreenenter"",""1"",""3898""
","
","
","""event"",""trial"",""time""
""fullscreenenter"",""1"",""3898""
","
","","","","","","null","<div style=""font-size:60px;"">+</div>","null","","fixation","","",""
"memory-trial","215","500391","0.0-18.0-1.85","5753","approach_avoid_sv1","""event"",""trial"",""time""
""fullscreenenter"",""1"",""3898""
","
","
","""event"",""trial"",""time""
""fullscreenenter"",""1"",""3898""
","
","","","","","","1297.1999999999534","images/orange5.png","","","memory_trial","3","maybe_new",""
"html-keyboard-response","216","500902","0.0-18.0-0.86","5753","approach_avoid_sv1","""event"",""trial"",""time""
""fullscreenenter"",""1"",""3898""
","
","
","""event"",""trial"",""time""
""fullscreenenter"",""1"",""3898""
","
","","","","","","null","<div style=""font-size:60px;"">+</div>","null","","fixation","","",""
"memory-trial","217","503679","0.0-18.0-1.86","5753","approach_avoid_sv1","""event"",""trial"",""time""
""fullscreenenter"",""1"",""3898""
","
","
","""event"",""trial"",""time""
""fullscreenenter"",""1"",""3898""
","
","","","","","","1769.8000000000466","images/tree8.png","","","memory_trial","2","maybe_old",""
"html-keyboard-response","218","504188","0.0-18.0-0.87","5753","approach_avoid_sv1","""event"",""trial"",""time""
""fullscreenenter"",""1"",""3898""
","
","
","""event"",""trial"",""time""
""fullscreenenter"",""1"",""3898""
","
","","","","","","null","<div style=""font-size:60px;"">+</div>","null","","fixation","","",""
"memory-trial","219","507294","0.0-18.0-1.87","5753","approach_avoid_sv1","""event"",""trial"",""time""
""fullscreenenter"",""1"",""3898""
","
","
","""event"",""trial"",""time""
""fullscreenenter"",""1"",""3898""
","
","","","","","","2089.8000000000466","images/horse3.png","","","memory_trial","2","maybe_old",""
"html-keyboard-response","220","507804","0.0-18.0-0.88","5753","approach_avoid_sv1","""event"",""trial"",""time""
""fullscreenenter"",""1"",""3898""
","
","
","""event"",""trial"",""time""
""fullscreenenter"",""1"",""3898""
","
","","","","","","null","<div style=""font-size:60px;"">+</div>","null","","fixation","","",""
"memory-trial","221","510824","0.0-18.0-1.88","5753","approach_avoid_sv1","""event"",""trial"",""time""
""fullscreenenter"",""1"",""3898""
","
","
","""event"",""trial"",""time""
""fullscreenenter"",""1"",""3898""
","
","","","","","","2008.3000000000466","images/rodent8.png","","","memory_trial","2","maybe_old",""
"html-keyboard-response","222","511334","0.0-18.0-0.89","5753","approach_avoid_sv1","""event"",""trial"",""time""
""fullscreenenter"",""1"",""3898""
","
","
","""event"",""trial"",""time""
""fullscreenenter"",""1"",""3898""
","
","","","","","","null","<div style=""font-size:60px;"">+</div>","null","","fixation","","",""
"memory-trial","223","513774","0.0-18.0-1.89","5753","approach_avoid_sv1","""event"",""trial"",""time""
""fullscreenenter"",""1"",""3898""
","
","
","""event"",""trial"",""time""
""fullscreenenter"",""1"",""3898""
","
","","","","","","1435.9000000001397","images/rabbit5.png","","","memory_trial","4","definitely_new",""
"html-keyboard-response","224","514281","0.0-18.0-0.90","5753","approach_avoid_sv1","""event"",""trial"",""time""
""fullscreenenter"",""1"",""3898""
","
","
","""event"",""trial"",""time""
""fullscreenenter"",""1"",""3898""
","
","","","","","","null","<div style=""font-size:60px;"">+</div>","null","","fixation","","",""
"memory-trial","225","517104","0.0-18.0-1.90","5753","approach_avoid_sv1","""event"",""trial"",""time""
""fullscreenenter"",""1"",""3898""
","
","
","""event"",""trial"",""time""
""fullscreenenter"",""1"",""3898""
","
","","","","","","1810.6000000000931","images/bed3.png","","","memory_trial","1","definitely_old",""
"html-keyboard-response","226","517620","0.0-18.0-0.91","5753","approach_avoid_sv1","""event"",""trial"",""time""
""fullscreenenter"",""1"",""3898""
","
","
","""event"",""trial"",""time""
""fullscreenenter"",""1"",""3898""
","
","","","","","","null","<div style=""font-size:60px;"">+</div>","null","","fixation","","",""
"memory-trial","227","519558","0.0-18.0-1.91","5753","approach_avoid_sv1","""event"",""trial"",""time""
""fullscreenenter"",""1"",""3898""
","
","
","""event"",""trial"",""time""
""fullscreenenter"",""1"",""3898""
","
","","","","","","914.8999999999069","images/straw8.png","","","memory_trial","1","definitely_old",""
"html-button-response","228","605313","0.0-18.0-2.91-0.91","5753","approach_avoid_sv1","""event"",""trial"",""time""
""fullscreenenter"",""1"",""3898""
","
","
","""event"",""trial"",""time""
""fullscreenenter"",""1"",""3898""
","
","","","","","","85753","<p> Take a break! </p><p> Click the button to continue. </p>","0","","break","","",""
"html-keyboard-response","229","605825","0.0-18.0-0.92","5753","approach_avoid_sv1","""event"",""trial"",""time""
""fullscreenenter"",""1"",""3898""
","
","
","""event"",""trial"",""time""
""fullscreenenter"",""1"",""3898""
","
","","","","","","null","<div style=""font-size:60px;"">+</div>","null","","fixation","","",""
"memory-trial","230","608813","0.0-18.0-1.92","5753","approach_avoid_sv1","""event"",""trial"",""time""
""fullscreenenter"",""1"",""3898""
","
","
","""event"",""trial"",""time""
""fullscreenenter"",""1"",""3898""
","
","","","","","","1974","images/train8.png","","","memory_trial","2","maybe_old",""
"html-keyboard-response","231","609322","0.0-18.0-0.93","5753","approach_avoid_sv1","""event"",""trial"",""time""
""fullscreenenter"",""1"",""3898""
","
","
","""event"",""trial"",""time""
""fullscreenenter"",""1"",""3898""
","
","","","","","","null","<div style=""font-size:60px;"">+</div>","null","","fixation","","",""
"memory-trial","232","611755","0.0-18.0-1.93","5753","approach_avoid_sv1","""event"",""trial"",""time""
""fullscreenenter"",""1"",""3898""
","
","
","""event"",""trial"",""time""
""fullscreenenter"",""1"",""3898""
","
","","","","","","1417.1999999999534","images/chair6.png","","","memory_trial","3","maybe_new",""
"html-keyboard-response","233","612262","0.0-18.0-0.94","5753","approach_avoid_sv1","""event"",""trial"",""time""
""fullscreenenter"",""1"",""3898""
","
","
","""event"",""trial"",""time""
""fullscreenenter"",""1"",""3898""
","
","","","","","","null","<div style=""font-size:60px;"">+</div>","null","","fixation","","",""
"memory-trial","234","614480","0.0-18.0-1.94","5753","approach_avoid_sv1","""event"",""trial"",""time""
""fullscreenenter"",""1"",""3898""
","
","
","""event"",""trial"",""time""
""fullscreenenter"",""1"",""3898""
","
","","","","","","1206.1999999999534","images/bush6.png","","","memory_trial","2","maybe_old",""
"html-keyboard-response","235","615002","0.0-18.0-0.95","5753","approach_avoid_sv1","""event"",""trial"",""time""
""fullscreenenter"",""1"",""3898""
","
","
","""event"",""trial"",""time""
""fullscreenenter"",""1"",""3898""
","
","","","","","","null","<div style=""font-size:60px;"">+</div>","null","","fixation","","",""
"memory-trial","236","617133","0.0-18.0-1.95","5753","approach_avoid_sv1","""event"",""trial"",""time""
""fullscreenenter"",""1"",""3898""
","
","
","""event"",""trial"",""time""
""fullscreenenter"",""1"",""3898""
","
","","","","","","1114.3999999999069","images/plane7.png","","","memory_trial","4","definitely_new",""
"html-keyboard-response","237","617638","0.0-18.0-0.96","5753","approach_avoid_sv1","""event"",""trial"",""time""
""fullscreenenter"",""1"",""3898""
","
","
","""event"",""trial"",""time""
""fullscreenenter"",""1"",""3898""
","
","","","","","","null","<div style=""font-size:60px;"">+</div>","null","","fixation","","",""
"memory-trial","238","620171","0.0-18.0-1.96","5753","approach_avoid_sv1","""event"",""trial"",""time""
""fullscreenenter"",""1"",""3898""
","
","
","""event"",""trial"",""time""
""fullscreenenter"",""1"",""3898""
","
","","","","","","1523.7999999998137","images/sheep3.png","","","memory_trial","3","maybe_new",""
"html-keyboard-response","239","620679","0.0-18.0-0.97","5753","approach_avoid_sv1","""event"",""trial"",""time""
""fullscreenenter"",""1"",""3898""
","
","
","""event"",""trial"",""time""
""fullscreenenter"",""1"",""3898""
","
","","","","","","null","<div style=""font-size:60px;"">+</div>","null","","fixation","","",""
"memory-trial","240","623123","0.0-18.0-1.97","5753","approach_avoid_sv1","""event"",""trial"",""time""
""fullscreenenter"",""1"",""3898""
","
","
","""event"",""trial"",""time""
""fullscreenenter"",""1"",""3898""
","
","","","","","","1432.1000000000931","images/truck5.png","","","memory_trial","3","maybe_new",""
"html-keyboard-response","241","623633","0.0-18.0-0.98","5753","approach_avoid_sv1","""event"",""trial"",""time""
""fullscreenenter"",""1"",""3898""
","
","
","""event"",""trial"",""time""
""fullscreenenter"",""1"",""3898""
","
","","","","","","null","<div style=""font-size:60px;"">+</div>","null","","fixation","","",""
"memory-trial","242","626529","0.0-18.0-1.98","5753","approach_avoid_sv1","""event"",""trial"",""time""
""fullscreenenter"",""1"",""3898""
","
","
","""event"",""trial"",""time""
""fullscreenenter"",""1"",""3898""
","
","","","","","","1881","images/banana8.png","","","memory_trial","3","maybe_new",""
"html-keyboard-response","243","627042","0.0-18.0-0.99","5753","approach_avoid_sv1","""event"",""trial"",""time""
""fullscreenenter"",""1"",""3898""
","
","
","""event"",""trial"",""time""
""fullscreenenter"",""1"",""3898""
","
","","","","","","null","<div style=""font-size:60px;"">+</div>","null","","fixation","","",""
"memory-trial","244","629495","0.0-18.0-1.99","5753","approach_avoid_sv1","""event"",""trial"",""time""
""fullscreenenter"",""1"",""3898""
","
","
","""event"",""trial"",""time""
""fullscreenenter"",""1"",""3898""
","
","","","","","","1434.1000000000931","images/boat3.png","","","memory_trial","1","definitely_old",""
"html-keyboard-response","245","630002","0.0-18.0-0.100","5753","approach_avoid_sv1","""event"",""trial"",""time""
""fullscreenenter"",""1"",""3898""
","
","
","""event"",""trial"",""time""
""fullscreenenter"",""1"",""3898""
","
","","","","","","null","<div style=""font-size:60px;"">+</div>","null","","fixation","","",""
"memory-trial","246","631890","0.0-18.0-1.100","5753","approach_avoid_sv1","""event"",""trial"",""time""
""fullscreenenter"",""1"",""3898""
","
","
","""event"",""trial"",""time""
""fullscreenenter"",""1"",""3898""
","
","","","","","","878.6000000000931","images/table7.png","","","memory_trial","1","definitely_old",""
"html-keyboard-response","247","632404","0.0-18.0-0.101","5753","approach_avoid_sv1","""event"",""trial"",""time""
""fullscreenenter"",""1"",""3898""
","
","
","""event"",""trial"",""time""
""fullscreenenter"",""1"",""3898""
","
","","","","","","null","<div style=""font-size:60px;"">+</div>","null","","fixation","","",""
"memory-trial","248","634110","0.0-18.0-1.101","5753","approach_avoid_sv1","""event"",""trial"",""time""
""fullscreenenter"",""1"",""3898""
","
","
","""event"",""trial"",""time""
""fullscreenenter"",""1"",""3898""
","
","","","","","","695.5999999998603","images/horse6.png","","","memory_trial","1","definitely_old",""
"html-keyboard-response","249","634617","0.0-18.0-0.102","5753","approach_avoid_sv1","""event"",""trial"",""time""
""fullscreenenter"",""1"",""3898""
","
","
","""event"",""trial"",""time""
""fullscreenenter"",""1"",""3898""
","
","","","","","","null","<div style=""font-size:60px;"">+</div>","null","","fixation","","",""
"memory-trial","250","636496","0.0-18.0-1.102","5753","approach_avoid_sv1","""event"",""trial"",""time""
""fullscreenenter"",""1"",""3898""
","
","
","""event"",""trial"",""time""
""fullscreenenter"",""1"",""3898""
","
","","","","","","866.0999999998603","images/bush1.png","","","memory_trial","2","maybe_old",""
"html-keyboard-response","251","637009","0.0-18.0-0.103","5753","approach_avoid_sv1","""event"",""trial"",""time""
""fullscreenenter"",""1"",""3898""
","
","
","""event"",""trial"",""time""
""fullscreenenter"",""1"",""3898""
","
","","","","","","null","<div style=""font-size:60px;"">+</div>","null","","fixation","","",""
"memory-trial","252","639253","0.0-18.0-1.103","5753","approach_avoid_sv1","""event"",""trial"",""time""
""fullscreenenter"",""1"",""3898""
","
","
","""event"",""trial"",""time""
""fullscreenenter"",""1"",""3898""
","
","","","","","","1228.3000000000466","images/train4.png","","","memory_trial","1","definitely_old",""
"html-keyboard-response","253","639764","0.0-18.0-0.104","5753","approach_avoid_sv1","""event"",""trial"",""time""
""fullscreenenter"",""1"",""3898""
","
","
","""event"",""trial"",""time""
""fullscreenenter"",""1"",""3898""
","
","","","","","","null","<div style=""font-size:60px;"">+</div>","null","","fixation","","",""
"memory-trial","254","641660","0.0-18.0-1.104","5753","approach_avoid_sv1","""event"",""trial"",""time""
""fullscreenenter"",""1"",""3898""
","
","
","""event"",""trial"",""time""
""fullscreenenter"",""1"",""3898""
","
","","","","","","891.5","images/rodent7.png","","","memory_trial","1","definitely_old",""
"html-keyboard-response","255","642167","0.0-18.0-0.105","5753","approach_avoid_sv1","""event"",""trial"",""time""
""fullscreenenter"",""1"",""3898""
","
","
","""event"",""trial"",""time""
""fullscreenenter"",""1"",""3898""
","
","","","","","","null","<div style=""font-size:60px;"">+</div>","null","","fixation","","",""
"memory-trial","256","644212","0.0-18.0-1.105","5753","approach_avoid_sv1","""event"",""trial"",""time""
""fullscreenenter"",""1"",""3898""
","
","
","""event"",""trial"",""time""
""fullscreenenter"",""1"",""3898""
","
","","","","","","1029.5","images/tree2.png","","","memory_trial","2","maybe_old",""
"html-keyboard-response","257","644723","0.0-18.0-0.106","5753","approach_avoid_sv1","""event"",""trial"",""time""
""fullscreenenter"",""1"",""3898""
","
","
","""event"",""trial"",""time""
""fullscreenenter"",""1"",""3898""
","
","","","","","","null","<div style=""font-size:60px;"">+</div>","null","","fixation","","",""
"memory-trial","258","647632","0.0-18.0-1.106","5753","approach_avoid_sv1","""event"",""trial"",""time""
""fullscreenenter"",""1"",""3898""
","
","
","""event"",""trial"",""time""
""fullscreenenter"",""1"",""3898""
","
","","","","","","1895.4000000001397","images/horse5.png","","","memory_trial","2","maybe_old",""
"html-keyboard-response","259","648146","0.0-18.0-0.107","5753","approach_avoid_sv1","""event"",""trial"",""time""
""fullscreenenter"",""1"",""3898""
","
","
","""event"",""trial"",""time""
""fullscreenenter"",""1"",""3898""
","
","","","","","","null","<div style=""font-size:60px;"">+</div>","null","","fixation","","",""
"memory-trial","260","650221","0.0-18.0-1.107","5753","approach_avoid_sv1","""event"",""trial"",""time""
""fullscreenenter"",""1"",""3898""
","
","
","""event"",""trial"",""time""
""fullscreenenter"",""1"",""3898""
","
","","","","","","1048.6000000000931","images/truck2.png","","","memory_trial","1","definitely_old",""
"html-keyboard-response","261","650727","0.0-18.0-0.108","5753","approach_avoid_sv1","""event"",""trial"",""time""
""fullscreenenter"",""1"",""3898""
","
","
","""event"",""trial"",""time""
""fullscreenenter"",""1"",""3898""
","
","","","","","","null","<div style=""font-size:60px;"">+</div>","null","","fixation","","",""
"memory-trial","262","652963","0.0-18.0-1.108","5753","approach_avoid_sv1","""event"",""trial"",""time""
""fullscreenenter"",""1"",""3898""
","
","
","""event"",""trial"",""time""
""fullscreenenter"",""1"",""3898""
","
","","","","","","1214.6000000000931","images/dog7.png","","","memory_trial","1","definitely_old",""
"html-keyboard-response","263","653473","0.0-18.0-0.109","5753","approach_avoid_sv1","""event"",""trial"",""time""
""fullscreenenter"",""1"",""3898""
","
","
","""event"",""trial"",""time""
""fullscreenenter"",""1"",""3898""
","
","","","","","","null","<div style=""font-size:60px;"">+</div>","null","","fixation","","",""
"memory-trial","264","655725","0.0-18.0-1.109","5753","approach_avoid_sv1","""event"",""trial"",""time""
""fullscreenenter"",""1"",""3898""
","
","
","""event"",""trial"",""time""
""fullscreenenter"",""1"",""3898""
","
","","","","","","1240.3999999999069","images/chair7.png","","","memory_trial","3","maybe_new",""
"html-keyboard-response","265","656237","0.0-18.0-0.110","5753","approach_avoid_sv1","""event"",""trial"",""time""
""fullscreenenter"",""1"",""3898""
","
","
","""event"",""trial"",""time""
""fullscreenenter"",""1"",""3898""
","
","","","","","","null","<div style=""font-size:60px;"">+</div>","null","","fixation","","",""
"memory-trial","266","658741","0.0-18.0-1.110","5753","approach_avoid_sv1","""event"",""trial"",""time""
""fullscreenenter"",""1"",""3898""
","
","
","""event"",""trial"",""time""
""fullscreenenter"",""1"",""3898""
","
","","","","","","1484.6999999999534","images/straw1.png","","","memory_trial","2","maybe_old",""
"html-keyboard-response","267","659253","0.0-18.0-0.111","5753","approach_avoid_sv1","""event"",""trial"",""time""
""fullscreenenter"",""1"",""3898""
","
","
","""event"",""trial"",""time""
""fullscreenenter"",""1"",""3898""
","
","","","","","","null","<div style=""font-size:60px;"">+</div>","null","","fixation","","",""
"memory-trial","268","661617","0.0-18.0-1.111","5753","approach_avoid_sv1","""event"",""trial"",""time""
""fullscreenenter"",""1"",""3898""
","
","
","""event"",""trial"",""time""
""fullscreenenter"",""1"",""3898""
","
","","","","","","1354.3000000000466","images/orange4.png","","","memory_trial","3","maybe_new",""
"html-keyboard-response","269","662130","0.0-18.0-0.112","5753","approach_avoid_sv1","""event"",""trial"",""time""
""fullscreenenter"",""1"",""3898""
","
","
","""event"",""trial"",""time""
""fullscreenenter"",""1"",""3898""
","
","","","","","","null","<div style=""font-size:60px;"">+</div>","null","","fixation","","",""
"memory-trial","270","664755","0.0-18.0-1.112","5753","approach_avoid_sv1","""event"",""trial"",""time""
""fullscreenenter"",""1"",""3898""
","
","
","""event"",""trial"",""time""
""fullscreenenter"",""1"",""3898""
","
","","","","","","1608.8000000000466","images/train6.png","","","memory_trial","1","definitely_old",""
"html-keyboard-response","271","665265","0.0-18.0-0.113","5753","approach_avoid_sv1","""event"",""trial"",""time""
""fullscreenenter"",""1"",""3898""
","
","
","""event"",""trial"",""time""
""fullscreenenter"",""1"",""3898""
","
","","","","","","null","<div style=""font-size:60px;"">+</div>","null","","fixation","","",""
"memory-trial","272","668088","0.0-18.0-1.113","5753","approach_avoid_sv1","""event"",""trial"",""time""
""fullscreenenter"",""1"",""3898""
","
","
","""event"",""trial"",""time""
""fullscreenenter"",""1"",""3898""
","
","","","","","","1810.0999999998603","images/banana2.png","","","memory_trial","2","maybe_old",""
"html-keyboard-response","273","668604","0.0-18.0-0.114","5753","approach_avoid_sv1","""event"",""trial"",""time""
""fullscreenenter"",""1"",""3898""
","
","
","""event"",""trial"",""time""
""fullscreenenter"",""1"",""3898""
","
","","","","","","null","<div style=""font-size:60px;"">+</div>","null","","fixation","","",""
"memory-trial","274","670829","0.0-18.0-1.114","5753","approach_avoid_sv1","""event"",""trial"",""time""
""fullscreenenter"",""1"",""3898""
","
","
","""event"",""trial"",""time""
""fullscreenenter"",""1"",""3898""
","
","","","","","","1205","images/truck6.png","","","memory_trial","4","definitely_new",""
"html-keyboard-response","275","671342","0.0-18.0-0.115","5753","approach_avoid_sv1","""event"",""trial"",""time""
""fullscreenenter"",""1"",""3898""
","
","
","""event"",""trial"",""time""
""fullscreenenter"",""1"",""3898""
","
","","","","","","null","<div style=""font-size:60px;"">+</div>","null","","fixation","","",""
"memory-trial","276","673689","0.0-18.0-1.115","5753","approach_avoid_sv1","""event"",""trial"",""time""
""fullscreenenter"",""1"",""3898""
","
","
","""event"",""trial"",""time""
""fullscreenenter"",""1"",""3898""
","
","","","","","","1338.6000000000931","images/table5.png","","","memory_trial","3","maybe_new",""
"html-keyboard-response","277","674198","0.0-18.0-0.116","5753","approach_avoid_sv1","""event"",""trial"",""time""
""fullscreenenter"",""1"",""3898""
","
","
","""event"",""trial"",""time""
""fullscreenenter"",""1"",""3898""
","
","","","","","","null","<div style=""font-size:60px;"">+</div>","null","","fixation","","",""
"memory-trial","278","676997","0.0-18.0-1.116","5753","approach_avoid_sv1","""event"",""trial"",""time""
""fullscreenenter"",""1"",""3898""
","
","
","""event"",""trial"",""time""
""fullscreenenter"",""1"",""3898""
","
","","","","","","1786.3000000000466","images/straw6.png","","","memory_trial","2","maybe_old",""
"html-keyboard-response","279","677505","0.0-18.0-0.117","5753","approach_avoid_sv1","""event"",""trial"",""time""
""fullscreenenter"",""1"",""3898""
","
","
","""event"",""trial"",""time""
""fullscreenenter"",""1"",""3898""
","
","","","","","","null","<div style=""font-size:60px;"">+</div>","null","","fixation","","",""
"memory-trial","280","680151","0.0-18.0-1.117","5753","approach_avoid_sv1","""event"",""trial"",""time""
""fullscreenenter"",""1"",""3898""
","
","
","""event"",""trial"",""time""
""fullscreenenter"",""1"",""3898""
","
","","","","","","1637.9000000001397","images/train7.png","","","memory_trial","2","maybe_old",""
"html-keyboard-response","281","680654","0.0-18.0-0.118","5753","approach_avoid_sv1","""event"",""trial"",""time""
""fullscreenenter"",""1"",""3898""
","
","
","""event"",""trial"",""time""
""fullscreenenter"",""1"",""3898""
","
","","","","","","null","<div style=""font-size:60px;"">+</div>","null","","fixation","","",""
"memory-trial","282","683374","0.0-18.0-1.118","5753","approach_avoid_sv1","""event"",""trial"",""time""
""fullscreenenter"",""1"",""3898""
","
","
","""event"",""trial"",""time""
""fullscreenenter"",""1"",""3898""
","
","","","","","","1713.6000000000931","images/bush3.png","","","memory_trial","2","maybe_old",""
"html-keyboard-response","283","683882","0.0-18.0-0.119","5753","approach_avoid_sv1","""event"",""trial"",""time""
""fullscreenenter"",""1"",""3898""
","
","
","""event"",""trial"",""time""
""fullscreenenter"",""1"",""3898""
","
","","","","","","null","<div style=""font-size:60px;"">+</div>","null","","fixation","","",""
"memory-trial","284","686054","0.0-18.0-1.119","5753","approach_avoid_sv1","""event"",""trial"",""time""
""fullscreenenter"",""1"",""3898""
","
","
","""event"",""trial"",""time""
""fullscreenenter"",""1"",""3898""
","
","","","","","","1153.1000000000931","images/rabbit2.png","","","memory_trial","3","maybe_new",""
"html-keyboard-response","285","686568","0.0-18.0-0.120","5753","approach_avoid_sv1","""event"",""trial"",""time""
""fullscreenenter"",""1"",""3898""
","
","
","""event"",""trial"",""time""
""fullscreenenter"",""1"",""3898""
","
","","","","","","null","<div style=""font-size:60px;"">+</div>","null","","fixation","","",""
"memory-trial","286","688838","0.0-18.0-1.120","5753","approach_avoid_sv1","""event"",""trial"",""time""
""fullscreenenter"",""1"",""3898""
","
","
","""event"",""trial"",""time""
""fullscreenenter"",""1"",""3898""
","
","","","","","","1260.6999999999534","images/truck7.png","","","memory_trial","3","maybe_new",""
"html-keyboard-response","287","689342","0.0-18.0-0.121","5753","approach_avoid_sv1","""event"",""trial"",""time""
""fullscreenenter"",""1"",""3898""
","
","
","""event"",""trial"",""time""
""fullscreenenter"",""1"",""3898""
","
","","","","","","null","<div style=""font-size:60px;"">+</div>","null","","fixation","","",""
"memory-trial","288","691223","0.0-18.0-1.121","5753","approach_avoid_sv1","""event"",""trial"",""time""
""fullscreenenter"",""1"",""3898""
","
","
","""event"",""trial"",""time""
""fullscreenenter"",""1"",""3898""
","
","","","","","","870.3000000000466","images/plane3.png","","","memory_trial","4","definitely_new",""
"html-keyboard-response","289","691739","0.0-18.0-0.122","5753","approach_avoid_sv1","""event"",""trial"",""time""
""fullscreenenter"",""1"",""3898""
","
","
","""event"",""trial"",""time""
""fullscreenenter"",""1"",""3898""
","
","","","","","","null","<div style=""font-size:60px;"">+</div>","null","","fixation","","",""
"memory-trial","290","693740","0.0-18.0-1.122","5753","approach_avoid_sv1","""event"",""trial"",""time""
""fullscreenenter"",""1"",""3898""
","
","
","""event"",""trial"",""time""
""fullscreenenter"",""1"",""3898""
","
","","","","","","985","images/sheep1.png","","","memory_trial","4","definitely_new",""
"html-keyboard-response","291","694247","0.0-18.0-0.123","5753","approach_avoid_sv1","""event"",""trial"",""time""
""fullscreenenter"",""1"",""3898""
","
","
","""event"",""trial"",""time""
""fullscreenenter"",""1"",""3898""
","
","","","","","","null","<div style=""font-size:60px;"">+</div>","null","","fixation","","",""
"memory-trial","292","696422","0.0-18.0-1.123","5753","approach_avoid_sv1","""event"",""trial"",""time""
""fullscreenenter"",""1"",""3898""
","
","
","""event"",""trial"",""time""
""fullscreenenter"",""1"",""3898""
","
","","","","","","1167.1999999999534","images/banana1.png","","","memory_trial","1","definitely_old",""
"html-keyboard-response","293","696933","0.0-18.0-0.124","5753","approach_avoid_sv1","""event"",""trial"",""time""
""fullscreenenter"",""1"",""3898""
","
","
","""event"",""trial"",""time""
""fullscreenenter"",""1"",""3898""
","
","","","","","","null","<div style=""font-size:60px;"">+</div>","null","","fixation","","",""
"memory-trial","294","698812","0.0-18.0-1.124","5753","approach_avoid_sv1","""event"",""trial"",""time""
""fullscreenenter"",""1"",""3898""
","
","
","""event"",""trial"",""time""
""fullscreenenter"",""1"",""3898""
","
","","","","","","865.8999999999069","images/orange2.png","","","memory_trial","3","maybe_new",""
"html-keyboard-response","295","699323","0.0-18.0-0.125","5753","approach_avoid_sv1","""event"",""trial"",""time""
""fullscreenenter"",""1"",""3898""
","
","
","""event"",""trial"",""time""
""fullscreenenter"",""1"",""3898""
","
","","","","","","null","<div style=""font-size:60px;"">+</div>","null","","fixation","","",""
"memory-trial","296","701194","0.0-18.0-1.125","5753","approach_avoid_sv1","""event"",""trial"",""time""
""fullscreenenter"",""1"",""3898""
","
","
","""event"",""trial"",""time""
""fullscreenenter"",""1"",""3898""
","
","","","","","","855.6000000000931","images/orange3.png","","","memory_trial","4","definitely_new",""
"html-keyboard-response","297","701709","0.0-18.0-0.126","5753","approach_avoid_sv1","""event"",""trial"",""time""
""fullscreenenter"",""1"",""3898""
","
","
","""event"",""trial"",""time""
""fullscreenenter"",""1"",""3898""
","
