"trial_type","trial_index","time_elapsed","internal_node_id","subject_id","task_version","interactions","blur_events","focus_events","fullscreenenter_events","fullscreenexit_events","success","timeout","failed_images","failed_audio","failed_video","rt","stimulus","response","button_pressed","task_part","key_press","answer","correct"
"pavlovia","0","1","0.0-0.0","7816","approach_avoid_sv1","""event"",""trial"",""time""
""fullscreenenter"",""1"",""2147""
","
","
","""event"",""trial"",""time""
""fullscreenenter"",""1"",""2147""
","
","","","","","","","","","","","","",""
"fullscreen","1","3127","0.0-1.0","7816","approach_avoid_sv1","""event"",""trial"",""time""
""fullscreenenter"",""1"",""2147""
","
","
","""event"",""trial"",""time""
""fullscreenenter"",""1"",""2147""
","
","true","","","","","","","","","","","",""
"preload","2","4526","0.0-2.0","7816","approach_avoid_sv1","""event"",""trial"",""time""
""fullscreenenter"",""1"",""2147""
","
","
","""event"",""trial"",""time""
""fullscreenenter"",""1"",""2147""
","
","true","false","[]","[]","[]","","","","","","","",""
"preload","3","5134","0.0-3.0","7816","approach_avoid_sv1","""event"",""trial"",""time""
""fullscreenenter"",""1"",""2147""
","
","
","""event"",""trial"",""time""
""fullscreenenter"",""1"",""2147""
","
","true","false","[]","[]","[]","","","","","","","",""
"preload","4","5404","0.0-4.0","7816","approach_avoid_sv1","""event"",""trial"",""time""
""fullscreenenter"",""1"",""2147""
","
","
","""event"",""trial"",""time""
""fullscreenenter"",""1"",""2147""
","
","true","false","[]","[]","[]","","","","","","","",""
"audio-keyboard-response","5","5509","0.0-5.0","7816","approach_avoid_sv1","""event"",""trial"",""time""
""fullscreenenter"",""1"",""2147""
","
","
","""event"",""trial"",""time""
""fullscreenenter"",""1"",""2147""
","
","","","","","","101.33333333333333","audio/beep_loop.wav","audiovolumeup","","","","",""
"audio-button-response","6","8430","0.0-6.0","7816","approach_avoid_sv1","""event"",""trial"",""time""
""fullscreenenter"",""1"",""2147""
","
","
","""event"",""trial"",""time""
""fullscreenenter"",""1"",""2147""
","
","","","","","","2920","audio/turtle.wav","3","","","","",""
"audio-button-response","7","11658","0.0-7.0","7816","approach_avoid_sv1","""event"",""trial"",""time""
""fullscreenenter"",""1"",""2147""
","
","
","""event"",""trial"",""time""
""fullscreenenter"",""1"",""2147""
","
","","","","","","2229","audio/shark.wav","2","","","","",""
"preload","8","14323","0.0-8.0","7816","approach_avoid_sv1","""event"",""trial"",""time""
""fullscreenenter"",""1"",""2147""
","
","
","""event"",""trial"",""time""
""fullscreenenter"",""1"",""2147""
","
","true","false","[]","[]","[]","","","","","","","",""
"learning-instructions","9","22586","0.0-9.0-0.0","7816","approach_avoid_sv1","""event"",""trial"",""time""
""fullscreenenter"",""1"",""2147""
","
","
","""event"",""trial"",""time""
""fullscreenenter"",""1"",""2147""
","
","","","","","","3781.6000000089407","<p> Welcome back! </p><p> Last week, you had to make choices about lots of different items.  </p>","","0","instructions","","",""
"learning-instructions","10","27818","0.0-9.0-0.1","7816","approach_avoid_sv1","""event"",""trial"",""time""
""fullscreenenter"",""1"",""2147""
","
","
","""event"",""trial"",""time""
""fullscreenenter"",""1"",""2147""
","
","","","","","","1093.2000000029802","<p> Today, we are going to ask you to try to remember all the items. </p>","","0","instructions","","",""
"learning-instructions","11","39142","0.0-9.0-0.2","7816","approach_avoid_sv1","""event"",""trial"",""time""
""fullscreenenter"",""1"",""2147""
","
","
","""event"",""trial"",""time""
""fullscreenenter"",""1"",""2147""
","
","","","","","","1187.5","<p> On every trial, you will see an image. </p><p> The image may be an OLD image you saw during the games last week or it may be a NEW image that was not presented. </p>","","0","instructions","","",""
"learning-instructions","12","49402","0.0-9.0-0.3","7816","approach_avoid_sv1","""event"",""trial"",""time""
""fullscreenenter"",""1"",""2147""
","
","
","""event"",""trial"",""time""
""fullscreenenter"",""1"",""2147""
","
","","","","","","1757.5","<p> You need to select whether the image is:  </p><p>  'Definitely old', 'Maybe old', 'Maybe new', or 'Definitely new.'  </p><div class=""mem-choice-instructions-grid""><div class=""choice-option"" id=""choice-option-1"" ><img src=""images/definitely_old_1.png"" id=""choice-option-img-1"" class=""choice-option-img"" stage=""1""></div><div class=""choice-option"" id=""choice-option-2"" ><img src=""images/maybe_old_1.png"" id=""choice-option-img-2"" class=""choice-option-img"" stage=""1""></div><div class=""choice-option"" id=""choice-option-3"" ><img src=""images/maybe_new_1.png"" id=""choice-option-img-3"" class=""choice-option-img"" stage=""1""></div><div class=""choice-option"" id=""choice-option-4"" > <img src=""images/definitely_new_1.png"" id=""choice-option-img-4"" class=""choice-option-img"" stage=""1""></div></div>","","0","instructions","","",""
"learning-instructions","13","57582","0.0-9.0-0.4","7816","approach_avoid_sv1","""event"",""trial"",""time""
""fullscreenenter"",""1"",""2147""
","
","
","""event"",""trial"",""time""
""fullscreenenter"",""1"",""2147""
","
","","","","","","1667.1000000089407","<p> You should use the 1, 2, 3, and 4 keys to make your responses.  </p><div class=""mem-choice-instructions-grid""><div class=""choice-option"" id=""choice-option-1"" ><img src=""images/definitely_old.png"" id=""choice-option-img-1"" class=""choice-option-img"" stage=""1""></div><div class=""choice-option"" id=""choice-option-2"" ><img src=""images/maybe_old.png"" id=""choice-option-img-2"" class=""choice-option-img"" stage=""1""></div><div class=""choice-option"" id=""choice-option-3"" ><img src=""images/maybe_new.png"" id=""choice-option-img-3"" class=""choice-option-img"" stage=""1""></div><div class=""choice-option"" id=""choice-option-4"" > <img src=""images/definitely_new.png"" id=""choice-option-img-4"" class=""choice-option-img"" stage=""1""></div></div>","","0","instructions","","",""
"learning-instructions","14","65082","0.0-9.0-0.5","7816","approach_avoid_sv1","""event"",""trial"",""time""
""fullscreenenter"",""1"",""2147""
","
","
","""event"",""trial"",""time""
""fullscreenenter"",""1"",""2147""
","
","","","","","","1167.7999999970198","<p> You will have 10 seconds to make each response.  </p><p>  Make sure to respond before time runs out! </p>","","0","instructions","","",""
"learning-instructions","15","73606","0.0-9.0-0.6","7816","approach_avoid_sv1","""event"",""trial"",""time""
""fullscreenenter"",""1"",""2147""
","
","
","""event"",""trial"",""time""
""fullscreenenter"",""1"",""2147""
","
","","","","","","1441.5999999940395","<p> Today, you will see each image ONCE only.  </p><p>  That means none of the images will repeat. </p>","","0","instructions","","",""
"learning-instructions","16","86998","0.0-9.0-0.7","7816","approach_avoid_sv1","""event"",""trial"",""time""
""fullscreenenter"",""1"",""2147""
","
","
","""event"",""trial"",""time""
""fullscreenenter"",""1"",""2147""
","
","","","","","","723.6000000089407","<p> Before you play the real game, it is time to practice. </p><p>  Just like in the real game, some of the images in the practice will be ones you have seen before. </p><p>  Others will be entirely new. </p>","","0","instructions","","",""
"html-button-response","17","88991","0.0-10.0","7816","approach_avoid_sv1","""event"",""trial"",""time""
""fullscreenenter"",""1"",""2147""
","
","
","""event"",""trial"",""time""
""fullscreenenter"",""1"",""2147""
","
","","","","","","1876.1000000089407","<p> Ready to practice? </p><p> Remember, use the 1, 2, 3, and 4 keys to make your responses. </p>","0","","instructions","","",""
"html-keyboard-response","18","89609","0.0-11.0-0.0","7816","approach_avoid_sv1","""event"",""trial"",""time""
""fullscreenenter"",""1"",""2147""
","
","
","""event"",""trial"",""time""
""fullscreenenter"",""1"",""2147""
","
","","","","","","null","<div style=""font-size:60px;"">+</div>","null","","fixation","","",""
"memory-trial","19","93023","0.0-11.0-1.0","7816","approach_avoid_sv1","""event"",""trial"",""time""
""fullscreenenter"",""1"",""2147""
","
","
","""event"",""trial"",""time""
""fullscreenenter"",""1"",""2147""
","
","","","","","","2397.300000011921","images/ball2.png","","","practice","2","maybe_old",""
"html-keyboard-response","20","93544","0.0-11.0-0.1","7816","approach_avoid_sv1","""event"",""trial"",""time""
""fullscreenenter"",""1"",""2147""
","
","
","""event"",""trial"",""time""
""fullscreenenter"",""1"",""2147""
","
","","","","","","null","<div style=""font-size:60px;"">+</div>","null","","fixation","","",""
"memory-trial","21","96494","0.0-11.0-1.1","7816","approach_avoid_sv1","""event"",""trial"",""time""
""fullscreenenter"",""1"",""2147""
","
","
","""event"",""trial"",""time""
""fullscreenenter"",""1"",""2147""
","
","","","","","","1936.199999988079","images/racket3.png","","","practice","4","definitely_new",""
"html-keyboard-response","22","97004","0.0-11.0-0.2","7816","approach_avoid_sv1","""event"",""trial"",""time""
""fullscreenenter"",""1"",""2147""
","
","
","""event"",""trial"",""time""
""fullscreenenter"",""1"",""2147""
","
","","","","","","null","<div style=""font-size:60px;"">+</div>","null","","fixation","","",""
"memory-trial","23","100394","0.0-11.0-1.2","7816","approach_avoid_sv1","""event"",""trial"",""time""
""fullscreenenter"",""1"",""2147""
","
","
","""event"",""trial"",""time""
""fullscreenenter"",""1"",""2147""
","
","","","","","","2368.9000000059605","images/ball3.png","","","practice","1","definitely_old",""
"html-keyboard-response","24","100904","0.0-11.0-0.3","7816","approach_avoid_sv1","""event"",""trial"",""time""
""fullscreenenter"",""1"",""2147""
","
","
","""event"",""trial"",""time""
""fullscreenenter"",""1"",""2147""
","
","","","","","","null","<div style=""font-size:60px;"">+</div>","null","","fixation","","",""
"memory-trial","25","103694","0.0-11.0-1.3","7816","approach_avoid_sv1","""event"",""trial"",""time""
""fullscreenenter"",""1"",""2147""
","
","
","""event"",""trial"",""time""
""fullscreenenter"",""1"",""2147""
","
","","","","","","1773.2000000029802","images/ball5.png","","","practice","2","maybe_old",""
"html-keyboard-response","26","104214","0.0-11.0-0.4","7816","approach_avoid_sv1","""event"",""trial"",""time""
""fullscreenenter"",""1"",""2147""
","
","
","""event"",""trial"",""time""
""fullscreenenter"",""1"",""2147""
","
","","","","","","null","<div style=""font-size:60px;"">+</div>","null","","fixation","","",""
"memory-trial","27","107554","0.0-11.0-1.4","7816","approach_avoid_sv1","""event"",""trial"",""time""
""fullscreenenter"",""1"",""2147""
","
","
","""event"",""trial"",""time""
""fullscreenenter"",""1"",""2147""
","
","","","","","","2326.300000011921","images/racket5.png","","","practice","3","maybe_new",""
"html-keyboard-response","28","108063","0.0-11.0-0.5","7816","approach_avoid_sv1","""event"",""trial"",""time""
""fullscreenenter"",""1"",""2147""
","
","
","""event"",""trial"",""time""
""fullscreenenter"",""1"",""2147""
","
","","","","","","null","<div style=""font-size:60px;"">+</div>","null","","fixation","","",""
"memory-trial","29","111060","0.0-11.0-1.5","7816","approach_avoid_sv1","""event"",""trial"",""time""
""fullscreenenter"",""1"",""2147""
","
","
","""event"",""trial"",""time""
""fullscreenenter"",""1"",""2147""
","
","","","","","","1994.5","images/ball1.png","","","practice","1","definitely_old",""
"html-keyboard-response","30","111563","0.0-11.0-0.6","7816","approach_avoid_sv1","""event"",""trial"",""time""
""fullscreenenter"",""1"",""2147""
","
","
","""event"",""trial"",""time""
""fullscreenenter"",""1"",""2147""
","
","","","","","","null","<div style=""font-size:60px;"">+</div>","null","","fixation","","",""
"memory-trial","31","115404","0.0-11.0-1.6","7816","approach_avoid_sv1","""event"",""trial"",""time""
""fullscreenenter"",""1"",""2147""
","
","
","""event"",""trial"",""time""
""fullscreenenter"",""1"",""2147""
","
","","","","","","2833.2999999970198","images/racket2.png","","","practice","2","maybe_old",""
"html-keyboard-response","32","115905","0.0-11.0-0.7","7816","approach_avoid_sv1","""event"",""trial"",""time""
""fullscreenenter"",""1"",""2147""
","
","
","""event"",""trial"",""time""
""fullscreenenter"",""1"",""2147""
","
","","","","","","null","<div style=""font-size:60px;"">+</div>","null","","fixation","","",""
"memory-trial","33","118208","0.0-11.0-1.7","7816","approach_avoid_sv1","""event"",""trial"",""time""
""fullscreenenter"",""1"",""2147""
","
","
","""event"",""trial"",""time""
""fullscreenenter"",""1"",""2147""
","
","","","","","","1300.2000000029802","images/racket1.png","","","practice","2","maybe_old",""
"learning-instructions","34","126510","0.0-12.0-0.0","7816","approach_avoid_sv1","""event"",""trial"",""time""
""fullscreenenter"",""1"",""2147""
","
","
","""event"",""trial"",""time""
""fullscreenenter"",""1"",""2147""
","
","","","","","","1002.4000000059605","<p> Great! You have completed the practice. </p><p> Before you start, we're going to ask you a few questions about how the game works.  </p>","","0","instructions","","",""
"preload","35","128616","0.0-13.0","7816","approach_avoid_sv1","""event"",""trial"",""time""
""fullscreenenter"",""1"",""2147""
","
","
","""event"",""trial"",""time""
""fullscreenenter"",""1"",""2147""
","
","true","false","[]","[]","[]","","","","","","","",""
"comp-q","36","136271","0.0-14.0-0.0","7816","approach_avoid_sv1","""event"",""trial"",""time""
""fullscreenenter"",""1"",""2147""
","
","
","""event"",""trial"",""time""
""fullscreenenter"",""1"",""2147""
","
","","","","","","1822.8999999910593","<p> <b> True or False? </b> </p><p> In this game, you will only see each image once. </p>","","0","comp_question","","","true"
"comp-q","37","144403","0.0-14.0-1.0","7816","approach_avoid_sv1","""event"",""trial"",""time""
""fullscreenenter"",""1"",""2147""
","
","
","""event"",""trial"",""time""
""fullscreenenter"",""1"",""2147""
","
","","","","","","1794.9000000059605","<p> <b> That's right! </b> You will see many different images <i> one time each </i> in this game. </p>","","0","comp_answer","","",""
"comp-q","38","150471","0.0-15.0-0.0","7816","approach_avoid_sv1","""event"",""trial"",""time""
""fullscreenenter"",""1"",""2147""
","
","
","""event"",""trial"",""time""
""fullscreenenter"",""1"",""2147""
","
","","","","","","1032.7999999970198","<p> <b> True or False? </b> </p><p> You should use the mouse and click to make your response. </p>","","1","comp_question","","","true"
"comp-q","39","161335","0.0-15.0-1.0","7816","approach_avoid_sv1","""event"",""trial"",""time""
""fullscreenenter"",""1"",""2147""
","
","
","""event"",""trial"",""time""
""fullscreenenter"",""1"",""2147""
","
","","","","","","4367.399999991059","<p><b> That's right! </b> You should use the '1', '2', '3', and '4' keys to make your response. </p>","","0","comp_answer","","",""
"comp-q","40","167734","0.0-16.0-0.0","7816","approach_avoid_sv1","""event"",""trial"",""time""
""fullscreenenter"",""1"",""2147""
","
","
","""event"",""trial"",""time""
""fullscreenenter"",""1"",""2147""
","
","","","","","","726.5","<p> <b> True or False? </b> </p><p> You will have as much time as you want to make each choice. </p>","","1","comp_question","","","true"
"comp-q","41","172950","0.0-16.0-1.0","7816","approach_avoid_sv1","""event"",""trial"",""time""
""fullscreenenter"",""1"",""2147""
","
","
","""event"",""trial"",""time""
""fullscreenenter"",""1"",""2147""
","
","","","","","","512.3999999910593","<p> <b> That's right! </b> You will only have 10 seconds to make each choice. </p>","","0","comp_answer","","",""
"learning-instructions","42","183010","0.0-17.0","7816","approach_avoid_sv1","""event"",""trial"",""time""
""fullscreenenter"",""1"",""2147""
","
","
","""event"",""trial"",""time""
""fullscreenenter"",""1"",""2147""
","
","","","","","","1392.800000011921","<p> Great! You are now ready to begin the game. </p><p> Remember, use the 1, 2, 3, and 4 keys to make your responses. </p>","","0","instructions","","",""
"html-keyboard-response","43","183625","0.0-18.0-0.0","7816","approach_avoid_sv1","""event"",""trial"",""time""
""fullscreenenter"",""1"",""2147""
","
","
","""event"",""trial"",""time""
""fullscreenenter"",""1"",""2147""
","
","","","","","","null","<div style=""font-size:60px;"">+</div>","null","","fixation","","",""
"memory-trial","44","187330","0.0-18.0-1.0","7816","approach_avoid_sv1","""event"",""trial"",""time""
""fullscreenenter"",""1"",""2147""
","
","
","""event"",""trial"",""time""
""fullscreenenter"",""1"",""2147""
","
","","","","","","2702.5","images/orange1.png","","","memory_trial","2","maybe_old",""
"html-keyboard-response","45","187831","0.0-18.0-0.1","7816","approach_avoid_sv1","""event"",""trial"",""time""
""fullscreenenter"",""1"",""2147""
","
","
","""event"",""trial"",""time""
""fullscreenenter"",""1"",""2147""
","
","","","","","","null","<div style=""font-size:60px;"">+</div>","null","","fixation","","",""
"memory-trial","46","190878","0.0-18.0-1.1","7816","approach_avoid_sv1","""event"",""trial"",""time""
""fullscreenenter"",""1"",""2147""
","
","
","""event"",""trial"",""time""
""fullscreenenter"",""1"",""2147""
","
","","","","","","2045.2000000029802","images/bed6.png","","","memory_trial","3","maybe_new",""
"html-keyboard-response","47","191386","0.0-18.0-0.2","7816","approach_avoid_sv1","""event"",""trial"",""time""
""fullscreenenter"",""1"",""2147""
","
","
","""event"",""trial"",""time""
""fullscreenenter"",""1"",""2147""
","
","","","","","","null","<div style=""font-size:60px;"">+</div>","null","","fixation","","",""
"memory-trial","48","194116","0.0-18.0-1.2","7816","approach_avoid_sv1","""event"",""trial"",""time""
""fullscreenenter"",""1"",""2147""
","
","
","""event"",""trial"",""time""
""fullscreenenter"",""1"",""2147""
","
","","","","","","1709.8999999910593","images/horse6.png","","","memory_trial","1","definitely_old",""
"html-keyboard-response","49","194626","0.0-18.0-0.3","7816","approach_avoid_sv1","""event"",""trial"",""time""
""fullscreenenter"",""1"",""2147""
","
","
","""event"",""trial"",""time""
""fullscreenenter"",""1"",""2147""
","
","","","","","","null","<div style=""font-size:60px;"">+</div>","null","","fixation","","",""
"memory-trial","50","197206","0.0-18.0-1.3","7816","approach_avoid_sv1","""event"",""trial"",""time""
""fullscreenenter"",""1"",""2147""
","
","
","""event"",""trial"",""time""
""fullscreenenter"",""1"",""2147""
","
","","","","","","1573.2000000029802","images/bed8.png","","","memory_trial","3","maybe_new",""
"html-keyboard-response","51","197726","0.0-18.0-0.4","7816","approach_avoid_sv1","""event"",""trial"",""time""
""fullscreenenter"",""1"",""2147""
","
","
","""event"",""trial"",""time""
""fullscreenenter"",""1"",""2147""
","
","","","","","","null","<div style=""font-size:60px;"">+</div>","null","","fixation","","",""
"memory-trial","52","200656","0.0-18.0-1.4","7816","approach_avoid_sv1","""event"",""trial"",""time""
""fullscreenenter"",""1"",""2147""
","
","
","""event"",""trial"",""time""
""fullscreenenter"",""1"",""2147""
","
","","","","","","1926.3999999910593","images/banana2.png","","","memory_trial","1","definitely_old",""
"html-keyboard-response","53","201176","0.0-18.0-0.5","7816","approach_avoid_sv1","""event"",""trial"",""time""
""fullscreenenter"",""1"",""2147""
","
","
","""event"",""trial"",""time""
""fullscreenenter"",""1"",""2147""
","
","","","","","","null","<div style=""font-size:60px;"">+</div>","null","","fixation","","",""
"memory-trial","54","203776","0.0-18.0-1.5","7816","approach_avoid_sv1","""event"",""trial"",""time""
""fullscreenenter"",""1"",""2147""
","
","
","""event"",""trial"",""time""
""fullscreenenter"",""1"",""2147""
","
","","","","","","1579.5","images/dog2.png","","","memory_trial","1","definitely_old",""
"html-keyboard-response","55","204296","0.0-18.0-0.6","7816","approach_avoid_sv1","""event"",""trial"",""time""
""fullscreenenter"",""1"",""2147""
","
","
","""event"",""trial"",""time""
""fullscreenenter"",""1"",""2147""
","
","","","","","","null","<div style=""font-size:60px;"">+</div>","null","","fixation","","",""
"memory-trial","56","206666","0.0-18.0-1.6","7816","approach_avoid_sv1","""event"",""trial"",""time""
""fullscreenenter"",""1"",""2147""
","
","
","""event"",""trial"",""time""
""fullscreenenter"",""1"",""2147""
","
","","","","","","1346.7000000029802","images/tree3.png","","","memory_trial","4","definitely_new",""
"html-keyboard-response","57","207176","0.0-18.0-0.7","7816","approach_avoid_sv1","""event"",""trial"",""time""
""fullscreenenter"",""1"",""2147""
","
","
","""event"",""trial"",""time""
""fullscreenenter"",""1"",""2147""
","
","","","","","","null","<div style=""font-size:60px;"">+</div>","null","","fixation","","",""
"memory-trial","58","210406","0.0-18.0-1.7","7816","approach_avoid_sv1","""event"",""trial"",""time""
""fullscreenenter"",""1"",""2147""
","
","
","""event"",""trial"",""time""
""fullscreenenter"",""1"",""2147""
","
","","","","","","2215.2999999970198","images/apple5.png","","","memory_trial","1","definitely_old",""
"html-keyboard-response","59","210907","0.0-18.0-0.8","7816","approach_avoid_sv1","""event"",""trial"",""time""
""fullscreenenter"",""1"",""2147""
","
","
","""event"",""trial"",""time""
""fullscreenenter"",""1"",""2147""
","
","","","","","","null","<div style=""font-size:60px;"">+</div>","null","","fixation","","",""
"memory-trial","60","213156","0.0-18.0-1.8","7816","approach_avoid_sv1","""event"",""trial"",""time""
""fullscreenenter"",""1"",""2147""
","
","
","""event"",""trial"",""time""
""fullscreenenter"",""1"",""2147""
","
","","","","","","1247","images/truck6.png","","","memory_trial","1","definitely_old",""
"html-keyboard-response","61","213657","0.0-18.0-0.9","7816","approach_avoid_sv1","""event"",""trial"",""time""
""fullscreenenter"",""1"",""2147""
","
","
","""event"",""trial"",""time""
""fullscreenenter"",""1"",""2147""
","
","","","","","","null","<div style=""font-size:60px;"">+</div>","null","","fixation","","",""
"memory-trial","62","215841","0.0-18.0-1.9","7816","approach_avoid_sv1","""event"",""trial"",""time""
""fullscreenenter"",""1"",""2147""
","
","
","""event"",""trial"",""time""
""fullscreenenter"",""1"",""2147""
","
","","","","","","1182.5999999940395","images/sheep5.png","","","memory_trial","1","definitely_old",""
"html-keyboard-response","63","216342","0.0-18.0-0.10","7816","approach_avoid_sv1","""event"",""trial"",""time""
""fullscreenenter"",""1"",""2147""
","
","
","""event"",""trial"",""time""
""fullscreenenter"",""1"",""2147""
","
","","","","","","null","<div style=""font-size:60px;"">+</div>","null","","fixation","","",""
"memory-trial","64","218861","0.0-18.0-1.10","7816","approach_avoid_sv1","""event"",""trial"",""time""
""fullscreenenter"",""1"",""2147""
","
","
","""event"",""trial"",""time""
""fullscreenenter"",""1"",""2147""
","
","","","","","","1516.3999999910593","images/rodent2.png","","","memory_trial","1","definitely_old",""
"html-keyboard-response","65","219361","0.0-18.0-0.11","7816","approach_avoid_sv1","""event"",""trial"",""time""
""fullscreenenter"",""1"",""2147""
","
","
","""event"",""trial"",""time""
""fullscreenenter"",""1"",""2147""
","
","","","","","","null","<div style=""font-size:60px;"">+</div>","null","","fixation","","",""
"memory-trial","66","221239","0.0-18.0-1.11","7816","approach_avoid_sv1","""event"",""trial"",""time""
""fullscreenenter"",""1"",""2147""
","
","
","""event"",""trial"",""time""
""fullscreenenter"",""1"",""2147""
","
","","","","","","877","images/rodent1.png","","","memory_trial","1","definitely_old",""
"html-keyboard-response","67","221740","0.0-18.0-0.12","7816","approach_avoid_sv1","""event"",""trial"",""time""
""fullscreenenter"",""1"",""2147""
","
","
","""event"",""trial"",""time""
""fullscreenenter"",""1"",""2147""
","
","","","","","","null","<div style=""font-size:60px;"">+</div>","null","","fixation","","",""
"memory-trial","68","224525","0.0-18.0-1.12","7816","approach_avoid_sv1","""event"",""trial"",""time""
""fullscreenenter"",""1"",""2147""
","
","
","""event"",""trial"",""time""
""fullscreenenter"",""1"",""2147""
","
","","","","","","1783.8999999910593","images/horse7.png","","","memory_trial","2","maybe_old",""
"html-keyboard-response","69","225025","0.0-18.0-0.13","7816","approach_avoid_sv1","""event"",""trial"",""time""
""fullscreenenter"",""1"",""2147""
","
","
","""event"",""trial"",""time""
""fullscreenenter"",""1"",""2147""
","
","","","","","","null","<div style=""font-size:60px;"">+</div>","null","","fixation","","",""
"memory-trial","70","228011","0.0-18.0-1.13","7816","approach_avoid_sv1","""event"",""trial"",""time""
""fullscreenenter"",""1"",""2147""
","
","
","""event"",""trial"",""time""
""fullscreenenter"",""1"",""2147""
","
","","","","","","1983.2000000029802","images/truck4.png","","","memory_trial","1","definitely_old",""
"html-keyboard-response","71","228513","0.0-18.0-0.14","7816","approach_avoid_sv1","""event"",""trial"",""time""
""fullscreenenter"",""1"",""2147""
","
","
","""event"",""trial"",""time""
""fullscreenenter"",""1"",""2147""
","
","","","","","","null","<div style=""font-size:60px;"">+</div>","null","","fixation","","",""
"memory-trial","72","231592","0.0-18.0-1.14","7816","approach_avoid_sv1","""event"",""trial"",""time""
""fullscreenenter"",""1"",""2147""
","
","
","""event"",""trial"",""time""
""fullscreenenter"",""1"",""2147""
","
","","","","","","2078","images/chair4.png","","","memory_trial","3","maybe_new",""
"html-keyboard-response","73","232094","0.0-18.0-0.15","7816","approach_avoid_sv1","""event"",""trial"",""time""
""fullscreenenter"",""1"",""2147""
","
","
","""event"",""trial"",""time""
""fullscreenenter"",""1"",""2147""
","
","","","","","","null","<div style=""font-size:60px;"">+</div>","null","","fixation","","",""
"memory-trial","74","234734","0.0-18.0-1.15","7816","approach_avoid_sv1","""event"",""trial"",""time""
""fullscreenenter"",""1"",""2147""
","
","
","""event"",""trial"",""time""
""fullscreenenter"",""1"",""2147""
","
","","","","","","1638.5999999940395","images/cat4.png","","","memory_trial","1","definitely_old",""
"html-keyboard-response","75","235235","0.0-18.0-0.16","7816","approach_avoid_sv1","""event"",""trial"",""time""
""fullscreenenter"",""1"",""2147""
","
","
","""event"",""trial"",""time""
""fullscreenenter"",""1"",""2147""
","
","","","","","","null","<div style=""font-size:60px;"">+</div>","null","","fixation","","",""
"memory-trial","76","237222","0.0-18.0-1.16","7816","approach_avoid_sv1","""event"",""trial"",""time""
""fullscreenenter"",""1"",""2147""
","
","
","""event"",""trial"",""time""
""fullscreenenter"",""1"",""2147""
","
","","","","","","985.4000000059605","images/sheep1.png","","","memory_trial","1","definitely_old",""
"html-keyboard-response","77","237724","0.0-18.0-0.17","7816","approach_avoid_sv1","""event"",""trial"",""time""
""fullscreenenter"",""1"",""2147""
","
","
","""event"",""trial"",""time""
""fullscreenenter"",""1"",""2147""
","
","","","","","","null","<div style=""font-size:60px;"">+</div>","null","","fixation","","",""
"memory-trial","78","240343","0.0-18.0-1.17","7816","approach_avoid_sv1","""event"",""trial"",""time""
""fullscreenenter"",""1"",""2147""
","
","
","""event"",""trial"",""time""
""fullscreenenter"",""1"",""2147""
","
","","","","","","1617.2000000029802","images/flower3.png","","","memory_trial","4","definitely_new",""
"html-keyboard-response","79","240844","0.0-18.0-0.18","7816","approach_avoid_sv1","""event"",""trial"",""time""
""fullscreenenter"",""1"",""2147""
","
","
","""event"",""trial"",""time""
""fullscreenenter"",""1"",""2147""
","
","","","","","","null","<div style=""font-size:60px;"">+</div>","null","","fixation","","",""
"memory-trial","80","243411","0.0-18.0-1.18","7816","approach_avoid_sv1","""event"",""trial"",""time""
""fullscreenenter"",""1"",""2147""
","
","
","""event"",""trial"",""time""
""fullscreenenter"",""1"",""2147""
","
","","","","","","1564.8999999910593","images/goat8.png","","","memory_trial","4","definitely_new",""
"html-keyboard-response","81","243912","0.0-18.0-0.19","7816","approach_avoid_sv1","""event"",""trial"",""time""
""fullscreenenter"",""1"",""2147""
","
","
","""event"",""trial"",""time""
""fullscreenenter"",""1"",""2147""
","
","","","","","","null","<div style=""font-size:60px;"">+</div>","null","","fixation","","",""
"memory-trial","82","246820","0.0-18.0-1.19","7816","approach_avoid_sv1","""event"",""trial"",""time""
""fullscreenenter"",""1"",""2147""
","
","
","""event"",""trial"",""time""
""fullscreenenter"",""1"",""2147""
","
","","","","","","1905.9000000059605","images/train1.png","","","memory_trial","4","definitely_new",""
"html-keyboard-response","83","247321","0.0-18.0-0.20","7816","approach_avoid_sv1","""event"",""trial"",""time""
""fullscreenenter"",""1"",""2147""
","
","
","""event"",""trial"",""time""
""fullscreenenter"",""1"",""2147""
","
","","","","","","null","<div style=""font-size:60px;"">+</div>","null","","fixation","","",""
"memory-trial","84","249917","0.0-18.0-1.20","7816","approach_avoid_sv1","""event"",""trial"",""time""
""fullscreenenter"",""1"",""2147""
","
","
","""event"",""trial"",""time""
""fullscreenenter"",""1"",""2147""
","
","","","","","","1594.5","images/banana5.png","","","memory_trial","1","definitely_old",""
"html-keyboard-response","85","250418","0.0-18.0-0.21","7816","approach_avoid_sv1","""event"",""trial"",""time""
""fullscreenenter"",""1"",""2147""
","
","
","""event"",""trial"",""time""
""fullscreenenter"",""1"",""2147""
","
","","","","","","null","<div style=""font-size:60px;"">+</div>","null","","fixation","","",""
"memory-trial","86","254151","0.0-18.0-1.21","7816","approach_avoid_sv1","""event"",""trial"",""time""
""fullscreenenter"",""1"",""2147""
","
","
","""event"",""trial"",""time""
""fullscreenenter"",""1"",""2147""
","
","","","","","","2730.7000000029802","images/plane5.png","","","memory_trial","3","maybe_new",""
"html-keyboard-response","87","254652","0.0-18.0-0.22","7816","approach_avoid_sv1","""event"",""trial"",""time""
""fullscreenenter"",""1"",""2147""
","
","
","""event"",""trial"",""time""
""fullscreenenter"",""1"",""2147""
","
","","","","","","null","<div style=""font-size:60px;"">+</div>","null","","fixation","","",""
"memory-trial","88","256870","0.0-18.0-1.22","7816","approach_avoid_sv1","""event"",""trial"",""time""
""fullscreenenter"",""1"",""2147""
","
","
","""event"",""trial"",""time""
""fullscreenenter"",""1"",""2147""
","
","","","","","","1215.4000000059605","images/cow5.png","","","memory_trial","4","definitely_new",""
"html-keyboard-response","89","257371","0.0-18.0-0.23","7816","approach_avoid_sv1","""event"",""trial"",""time""
""fullscreenenter"",""1"",""2147""
","
","
","""event"",""trial"",""time""
""fullscreenenter"",""1"",""2147""
","
","","","","","","null","<div style=""font-size:60px;"">+</div>","null","","fixation","","",""
"memory-trial","90","261021","0.0-18.0-1.23","7816","approach_avoid_sv1","""event"",""trial"",""time""
""fullscreenenter"",""1"",""2147""
","
","
","""event"",""trial"",""time""
""fullscreenenter"",""1"",""2147""
","
","","","","","","2648.4000000059605","images/cat8.png","","","memory_trial","3","maybe_new",""
"html-keyboard-response","91","261521","0.0-18.0-0.24","7816","approach_avoid_sv1","""event"",""trial"",""time""
""fullscreenenter"",""1"",""2147""
","
","
","""event"",""trial"",""time""
""fullscreenenter"",""1"",""2147""
","
","","","","","","null","<div style=""font-size:60px;"">+</div>","null","","fixation","","",""
"memory-trial","92","263513","0.0-18.0-1.24","7816","approach_avoid_sv1","""event"",""trial"",""time""
""fullscreenenter"",""1"",""2147""
","
","
","""event"",""trial"",""time""
""fullscreenenter"",""1"",""2147""
","
","","","","","","989.3999999910593","images/table6.png","","","memory_trial","4","definitely_new",""
"html-keyboard-response","93","264014","0.0-18.0-0.25","7816","approach_avoid_sv1","""event"",""trial"",""time""
""fullscreenenter"",""1"",""2147""
","
","
","""event"",""trial"",""time""
""fullscreenenter"",""1"",""2147""
","
","","","","","","null","<div style=""font-size:60px;"">+</div>","null","","fixation","","",""
"memory-trial","94","267319","0.0-18.0-1.25","7816","approach_avoid_sv1","""event"",""trial"",""time""
""fullscreenenter"",""1"",""2147""
","
","
","""event"",""trial"",""time""
""fullscreenenter"",""1"",""2147""
","
","","","","","","2302.4000000059605","images/sofa1.png","","","memory_trial","3","maybe_new",""
"html-keyboard-response","95","267821","0.0-18.0-0.26","7816","approach_avoid_sv1","""event"",""trial"",""time""
""fullscreenenter"",""1"",""2147""
","
","
","""event"",""trial"",""time""
""fullscreenenter"",""1"",""2147""
","
","","","","","","null","<div style=""font-size:60px;"">+</div>","null","","fixation","","",""
"memory-trial","96","271064","0.0-18.0-1.26","7816","approach_avoid_sv1","""event"",""trial"",""time""
""fullscreenenter"",""1"",""2147""
","
","
","""event"",""trial"",""time""
""fullscreenenter"",""1"",""2147""
","
","","","","","","2242","images/horse4.png","","","memory_trial","2","maybe_old",""
"html-keyboard-response","97","271565","0.0-18.0-0.27","7816","approach_avoid_sv1","""event"",""trial"",""time""
""fullscreenenter"",""1"",""2147""
","
","
","""event"",""trial"",""time""
""fullscreenenter"",""1"",""2147""
","
","","","","","","null","<div style=""font-size:60px;"">+</div>","null","","fixation","","",""
"memory-trial","98","274645","0.0-18.0-1.27","7816","approach_avoid_sv1","""event"",""trial"",""time""
""fullscreenenter"",""1"",""2147""
","
","
","""event"",""trial"",""time""
""fullscreenenter"",""1"",""2147""
","
","","","","","","2078","images/dog1.png","","","memory_trial","2","maybe_old",""
"html-keyboard-response","99","275146","0.0-18.0-0.28","7816","approach_avoid_sv1","""event"",""trial"",""time""
""fullscreenenter"",""1"",""2147""
","
","
","""event"",""trial"",""time""
""fullscreenenter"",""1"",""2147""
","
","","","","","","null","<div style=""font-size:60px;"">+</div>","null","","fixation","","",""
"memory-trial","100","278076","0.0-18.0-1.28","7816","approach_avoid_sv1","""event"",""trial"",""time""
""fullscreenenter"",""1"",""2147""
","
","
","""event"",""trial"",""time""
""fullscreenenter"",""1"",""2147""
","
","","","","","","1928.2000000029802","images/orange8.png","","","memory_trial","3","maybe_new",""
"html-keyboard-response","101","278577","0.0-18.0-0.29","7816","approach_avoid_sv1","""event"",""trial"",""time""
""fullscreenenter"",""1"",""2147""
","
","
","""event"",""trial"",""time""
""fullscreenenter"",""1"",""2147""
","
","","","","","","null","<div style=""font-size:60px;"">+</div>","null","","fixation","","",""
"memory-trial","102","281575","0.0-18.0-1.29","7816","approach_avoid_sv1","""event"",""trial"",""time""
""fullscreenenter"",""1"",""2147""
","
","
","""event"",""trial"",""time""
""fullscreenenter"",""1"",""2147""
","
","","","","","","1995.7000000029802","images/dog3.png","","","memory_trial","2","maybe_old",""
"html-keyboard-response","103","282076","0.0-18.0-0.30","7816","approach_avoid_sv1","""event"",""trial"",""time""
""fullscreenenter"",""1"",""2147""
","
","
","""event"",""trial"",""time""
""fullscreenenter"",""1"",""2147""
","
","","","","","","null","<div style=""font-size:60px;"">+</div>","null","","fixation","","",""
"memory-trial","104","284470","0.0-18.0-1.30","7816","approach_avoid_sv1","""event"",""trial"",""time""
""fullscreenenter"",""1"",""2147""
","
","
","""event"",""trial"",""time""
""fullscreenenter"",""1"",""2147""
","
","","","","","","1392.2000000029802","images/boat2.png","","","memory_trial","2","maybe_old",""
"html-keyboard-response","105","284972","0.0-18.0-0.31","7816","approach_avoid_sv1","""event"",""trial"",""time""
""fullscreenenter"",""1"",""2147""
","
","
","""event"",""trial"",""time""
""fullscreenenter"",""1"",""2147""
","
","","","","","","null","<div style=""font-size:60px;"">+</div>","null","","fixation","","",""
"memory-trial","106","287079","0.0-18.0-1.31","7816","approach_avoid_sv1","""event"",""trial"",""time""
""fullscreenenter"",""1"",""2147""
","
","
","""event"",""trial"",""time""
""fullscreenenter"",""1"",""2147""
","
","","","","","","1104.7999999970198","images/cat1.png","","","memory_trial","1","definitely_old",""
"html-keyboard-response","107","287580","0.0-18.0-0.32","7816","approach_avoid_sv1","""event"",""trial"",""time""
""fullscreenenter"",""1"",""2147""
","
","
","""event"",""trial"",""time""
""fullscreenenter"",""1"",""2147""
","
","","","","","","null","<div style=""font-size:60px;"">+</div>","null","","fixation","","",""
"memory-trial","108","290207","0.0-18.0-1.32","7816","approach_avoid_sv1","""event"",""trial"",""time""
""fullscreenenter"",""1"",""2147""
","
","
","""event"",""trial"",""time""
""fullscreenenter"",""1"",""2147""
","
","","","","","","1625.6000000089407","images/rabbit3.png","","","memory_trial","3","maybe_new",""
"html-keyboard-response","109","290708","0.0-18.0-0.33","7816","approach_avoid_sv1","""event"",""trial"",""time""
""fullscreenenter"",""1"",""2147""
","
","
","""event"",""trial"",""time""
""fullscreenenter"",""1"",""2147""
","
","","","","","","null","<div style=""font-size:60px;"">+</div>","null","","fixation","","",""
"memory-trial","110","293107","0.0-18.0-1.33","7816","approach_avoid_sv1","""event"",""trial"",""time""
""fullscreenenter"",""1"",""2147""
","
","
","""event"",""trial"",""time""
""fullscreenenter"",""1"",""2147""
","
","","","","","","1396.7000000029802","images/sheep2.png","","","memory_trial","1","definitely_old",""
"html-keyboard-response","111","293608","0.0-18.0-0.34","7816","approach_avoid_sv1","""event"",""trial"",""time""
""fullscreenenter"",""1"",""2147""
","
","
","""event"",""trial"",""time""
""fullscreenenter"",""1"",""2147""
","
","","","","","","null","<div style=""font-size:60px;"">+</div>","null","","fixation","","",""
"memory-trial","112","296663","0.0-18.0-1.34","7816","approach_avoid_sv1","""event"",""trial"",""time""
""fullscreenenter"",""1"",""2147""
","
","
","""event"",""trial"",""time""
""fullscreenenter"",""1"",""2147""
","
","","","","","","2054","images/straw5.png","","","memory_trial","3","maybe_new",""
"html-keyboard-response","113","297164","0.0-18.0-0.35","7816","approach_avoid_sv1","""event"",""trial"",""time""
""fullscreenenter"",""1"",""2147""
","
","
","""event"",""trial"",""time""
""fullscreenenter"",""1"",""2147""
","
","","","","","","null","<div style=""font-size:60px;"">+</div>","null","","fixation","","",""
"memory-trial","114","300224","0.0-18.0-1.35","7816","approach_avoid_sv1","""event"",""trial"",""time""
""fullscreenenter"",""1"",""2147""
","
","
","""event"",""trial"",""time""
""fullscreenenter"",""1"",""2147""
","
","","","","","","2058.3999999910593","images/boat6.png","","","memory_trial","2","maybe_old",""
"html-keyboard-response","115","300725","0.0-18.0-0.36","7816","approach_avoid_sv1","""event"",""trial"",""time""
""fullscreenenter"",""1"",""2147""
","
","
","""event"",""trial"",""time""
""fullscreenenter"",""1"",""2147""
","
","","","","","","null","<div style=""font-size:60px;"">+</div>","null","","fixation","","",""
"memory-trial","116","303879","0.0-18.0-1.36","7816","approach_avoid_sv1","""event"",""trial"",""time""
""fullscreenenter"",""1"",""2147""
","
","
","""event"",""trial"",""time""
""fullscreenenter"",""1"",""2147""
","
","","","","","","2151.9000000059605","images/cow7.png","","","memory_trial","3","maybe_new",""
"html-keyboard-response","117","304380","0.0-18.0-0.37","7816","approach_avoid_sv1","""event"",""trial"",""time""
""fullscreenenter"",""1"",""2147""
","
","
","""event"",""trial"",""time""
""fullscreenenter"",""1"",""2147""
","
","","","","","","null","<div style=""font-size:60px;"">+</div>","null","","fixation","","",""
"memory-trial","118","307689","0.0-18.0-1.37","7816","approach_avoid_sv1","""event"",""trial"",""time""
""fullscreenenter"",""1"",""2147""
","
","
","""event"",""trial"",""time""
""fullscreenenter"",""1"",""2147""
","
","","","","","","2306.3999999910593","images/chair7.png","","","memory_trial","2","maybe_old",""
"html-keyboard-response","119","308190","0.0-18.0-0.38","7816","approach_avoid_sv1","""event"",""trial"",""time""
""fullscreenenter"",""1"",""2147""
","
","
","""event"",""trial"",""time""
""fullscreenenter"",""1"",""2147""
","
","","","","","","null","<div style=""font-size:60px;"">+</div>","null","","fixation","","",""
"memory-trial","120","310934","0.0-18.0-1.38","7816","approach_avoid_sv1","""event"",""trial"",""time""
""fullscreenenter"",""1"",""2147""
","
","
","""event"",""trial"",""time""
""fullscreenenter"",""1"",""2147""
","
","","","","","","1741.2000000029802","images/horse3.png","","","memory_trial","4","definitely_new",""
"html-keyboard-response","121","311434","0.0-18.0-0.39","7816","approach_avoid_sv1","""event"",""trial"",""time""
""fullscreenenter"",""1"",""2147""
","
","
","""event"",""trial"",""time""
""fullscreenenter"",""1"",""2147""
","
","","","","","","null","<div style=""font-size:60px;"">+</div>","null","","fixation","","",""
"memory-trial","122","314222","0.0-18.0-1.39","7816","approach_avoid_sv1","""event"",""trial"",""time""
""fullscreenenter"",""1"",""2147""
","
","
","""event"",""trial"",""time""
""fullscreenenter"",""1"",""2147""
","
","","","","","","1786.0999999940395","images/banana1.png","","","memory_trial","2","maybe_old",""
"html-keyboard-response","123","314723","0.0-18.0-0.40","7816","approach_avoid_sv1","""event"",""trial"",""time""
""fullscreenenter"",""1"",""2147""
","
","
","""event"",""trial"",""time""
""fullscreenenter"",""1"",""2147""
","
","","","","","","null","<div style=""font-size:60px;"">+</div>","null","","fixation","","",""
"memory-trial","124","317750","0.0-18.0-1.40","7816","approach_avoid_sv1","""event"",""trial"",""time""
""fullscreenenter"",""1"",""2147""
","
","
","""event"",""trial"",""time""
""fullscreenenter"",""1"",""2147""
","
","","","","","","2025.9000000059605","images/cactus8.png","","","memory_trial","3","maybe_new",""
"html-keyboard-response","125","318252","0.0-18.0-0.41","7816","approach_avoid_sv1","""event"",""trial"",""time""
""fullscreenenter"",""1"",""2147""
","
","
","""event"",""trial"",""time""
""fullscreenenter"",""1"",""2147""
","
","","","","","","null","<div style=""font-size:60px;"">+</div>","null","","fixation","","",""
"memory-trial","126","320875","0.0-18.0-1.41","7816","approach_avoid_sv1","""event"",""trial"",""time""
""fullscreenenter"",""1"",""2147""
","
","
","""event"",""trial"",""time""
""fullscreenenter"",""1"",""2147""
","
","","","","","","1621.2999999970198","images/goat4.png","","","memory_trial","1","definitely_old",""
"html-button-response","127","323014","0.0-18.0-2.41-0.41","7816","approach_avoid_sv1","""event"",""trial"",""time""
""fullscreenenter"",""1"",""2147""
","
","
","""event"",""trial"",""time""
""fullscreenenter"",""1"",""2147""
","
","","","","","","2138.0999999940395","<p> Take a break! </p><p> Click the button to continue. </p>","0","","break","","",""
"html-keyboard-response","128","323515","0.0-18.0-0.42","7816","approach_avoid_sv1","""event"",""trial"",""time""
""fullscreenenter"",""1"",""2147""
","
","
","""event"",""trial"",""time""
""fullscreenenter"",""1"",""2147""
","
","","","","","","null","<div style=""font-size:60px;"">+</div>","null","","fixation","","",""
"memory-trial","129","326733","0.0-18.0-1.42","7816","approach_avoid_sv1","""event"",""trial"",""time""
""fullscreenenter"",""1"",""2147""
","
","
","""event"",""trial"",""time""
""fullscreenenter"",""1"",""2147""
","
","","","","","","2216.300000011921","images/rabbit6.png","","","memory_trial","2","maybe_old",""
"html-keyboard-response","130","327234","0.0-18.0-0.43","7816","approach_avoid_sv1","""event"",""trial"",""time""
""fullscreenenter"",""1"",""2147""
","
","
","""event"",""trial"",""time""
""fullscreenenter"",""1"",""2147""
","
","","","","","","null","<div style=""font-size:60px;"">+</div>","null","","fixation","","",""
"memory-trial","131","330462","0.0-18.0-1.43","7816","approach_avoid_sv1","""event"",""trial"",""time""
""fullscreenenter"",""1"",""2147""
","
","
","""event"",""trial"",""time""
""fullscreenenter"",""1"",""2147""
","
","","","","","","2226","images/plane6.png","","","memory_trial","2","maybe_old",""
"html-keyboard-response","132","330963","0.0-18.0-0.44","7816","approach_avoid_sv1","""event"",""trial"",""time""
""fullscreenenter"",""1"",""2147""
","
","
","""event"",""trial"",""time""
""fullscreenenter"",""1"",""2147""
","
","","","","","","null","<div style=""font-size:60px;"">+</div>","null","","fixation","","",""
"memory-trial","133","334136","0.0-18.0-1.44","7816","approach_avoid_sv1","""event"",""trial"",""time""
""fullscreenenter"",""1"",""2147""
","
","
","""event"",""trial"",""time""
""fullscreenenter"",""1"",""2147""
","
","","","","","","2170.8999999910593","images/dog8.png","","","memory_trial","3","maybe_new",""
"html-keyboard-response","134","334638","0.0-18.0-0.45","7816","approach_avoid_sv1","""event"",""trial"",""time""
""fullscreenenter"",""1"",""2147""
","
","
","""event"",""trial"",""time""
""fullscreenenter"",""1"",""2147""
","
","","","","","","null","<div style=""font-size:60px;"">+</div>","null","","fixation","","",""
"memory-trial","135","338034","0.0-18.0-1.45","7816","approach_avoid_sv1","""event"",""trial"",""time""
""fullscreenenter"",""1"",""2147""
","
","
","""event"",""trial"",""time""
""fullscreenenter"",""1"",""2147""
","
","","","","","","2394.2999999970198","images/cactus7.png","","","memory_trial","1","definitely_old",""
"html-keyboard-response","136","338534","0.0-18.0-0.46","7816","approach_avoid_sv1","""event"",""trial"",""time""
""fullscreenenter"",""1"",""2147""
","
","
","""event"",""trial"",""time""
""fullscreenenter"",""1"",""2147""
","
","","","","","","null","<div style=""font-size:60px;"">+</div>","null","","fixation","","",""
"memory-trial","137","341556","0.0-18.0-1.46","7816","approach_avoid_sv1","""event"",""trial"",""time""
""fullscreenenter"",""1"",""2147""
","
","
","""event"",""trial"",""time""
""fullscreenenter"",""1"",""2147""
","
","","","","","","2019.5","images/tree6.png","","","memory_trial","4","definitely_new",""
"html-keyboard-response","138","342057","0.0-18.0-0.47","7816","approach_avoid_sv1","""event"",""trial"",""time""
""fullscreenenter"",""1"",""2147""
","
","
","""event"",""trial"",""time""
""fullscreenenter"",""1"",""2147""
","
","","","","","","null","<div style=""font-size:60px;"">+</div>","null","","fixation","","",""
"memory-trial","139","344501","0.0-18.0-1.47","7816","approach_avoid_sv1","""event"",""trial"",""time""
""fullscreenenter"",""1"",""2147""
","
","
","""event"",""trial"",""time""
""fullscreenenter"",""1"",""2147""
","
","","","","","","1441.4000000059605","images/table1.png","","","memory_trial","3","maybe_new",""
"html-keyboard-response","140","345002","0.0-18.0-0.48","7816","approach_avoid_sv1","""event"",""trial"",""time""
""fullscreenenter"",""1"",""2147""
","
","
","""event"",""trial"",""time""
""fullscreenenter"",""1"",""2147""
","
","","","","","","null","<div style=""font-size:60px;"">+</div>","null","","fixation","","",""
"memory-trial","141","347689","0.0-18.0-1.48","7816","approach_avoid_sv1","""event"",""trial"",""time""
""fullscreenenter"",""1"",""2147""
","
","
","""event"",""trial"",""time""
""fullscreenenter"",""1"",""2147""
","
","","","","","","1674.5","images/orange6.png","","","memory_trial","2","maybe_old",""
"html-keyboard-response","142","348190","0.0-18.0-0.49","7816","approach_avoid_sv1","""event"",""trial"",""time""
""fullscreenenter"",""1"",""2147""
","
","
","""event"",""trial"",""time""
""fullscreenenter"",""1"",""2147""
","
","","","","","","null","<div style=""font-size:60px;"">+</div>","null","","fixation","","",""
"memory-trial","143","352969","0.0-18.0-1.49","7816","approach_avoid_sv1","""event"",""trial"",""time""
""fullscreenenter"",""1"",""2147""
","
","
","""event"",""trial"",""time""
""fullscreenenter"",""1"",""2147""
","
","","","","","","3776.7000000029802","images/chair5.png","","","memory_trial","2","maybe_old",""
"html-keyboard-response","144","353470","0.0-18.0-0.50","7816","approach_avoid_sv1","""event"",""trial"",""time""
""fullscreenenter"",""1"",""2147""
","
","
","""event"",""trial"",""time""
""fullscreenenter"",""1"",""2147""
","
","","","","","","null","<div style=""font-size:60px;"">+</div>","null","","fixation","","",""
"memory-trial","145","356621","0.0-18.0-1.50","7816","approach_avoid_sv1","""event"",""trial"",""time""
""fullscreenenter"",""1"",""2147""
","
","
","""event"",""trial"",""time""
""fullscreenenter"",""1"",""2147""
","
","","","","","","2149.5","images/plane8.png","","","memory_trial","2","maybe_old",""
"html-keyboard-response","146","357122","0.0-18.0-0.51","7816","approach_avoid_sv1","""event"",""trial"",""time""
""fullscreenenter"",""1"",""2147""
","
","
","""event"",""trial"",""time""
""fullscreenenter"",""1"",""2147""
","
","","","","","","null","<div style=""font-size:60px;"">+</div>","null","","fixation","","",""
"memory-trial","147","358961","0.0-18.0-1.51","7816","approach_avoid_sv1","""event"",""trial"",""time""
""fullscreenenter"",""1"",""2147""
","
","
","""event"",""trial"",""time""
""fullscreenenter"",""1"",""2147""
","
","","","","","","836.7000000029802","images/plane3.png","","","memory_trial","3","maybe_new",""
"html-keyboard-response","148","359462","0.0-18.0-0.52","7816","approach_avoid_sv1","""event"",""trial"",""time""
""fullscreenenter"",""1"",""2147""
","
","
","""event"",""trial"",""time""
""fullscreenenter"",""1"",""2147""
","
","","","","","","null","<div style=""font-size:60px;"">+</div>","null","","fixation","","",""
"memory-trial","149","362438","0.0-18.0-1.52","7816","approach_avoid_sv1","""event"",""trial"",""time""
""fullscreenenter"",""1"",""2147""
","
","
","""event"",""trial"",""time""
""fullscreenenter"",""1"",""2147""
","
","","","","","","1972.7000000029802","images/rodent8.png","","","memory_trial","2","maybe_old",""
"html-keyboard-response","150","362939","0.0-18.0-0.53","7816","approach_avoid_sv1","""event"",""trial"",""time""
""fullscreenenter"",""1"",""2147""
","
","
","""event"",""trial"",""time""
""fullscreenenter"",""1"",""2147""
","
","","","","","","null","<div style=""font-size:60px;"">+</div>","null","","fixation","","",""
"memory-trial","151","365603","0.0-18.0-1.53","7816","approach_avoid_sv1","""event"",""trial"",""time""
""fullscreenenter"",""1"",""2147""
","
","
","""event"",""trial"",""time""
""fullscreenenter"",""1"",""2147""
","
","","","","","","1662.5","images/rabbit5.png","","","memory_trial","2","maybe_old",""
"html-keyboard-response","152","366104","0.0-18.0-0.54","7816","approach_avoid_sv1","""event"",""trial"",""time""
""fullscreenenter"",""1"",""2147""
","
","
","""event"",""trial"",""time""
""fullscreenenter"",""1"",""2147""
","
","","","","","","null","<div style=""font-size:60px;"">+</div>","null","","fixation","","",""
"memory-trial","153","368726","0.0-18.0-1.54","7816","approach_avoid_sv1","""event"",""trial"",""time""
""fullscreenenter"",""1"",""2147""
","
","
","""event"",""trial"",""time""
""fullscreenenter"",""1"",""2147""
","
","","","","","","1619.7000000029802","images/chair1.png","","","memory_trial","3","maybe_new",""
"html-keyboard-response","154","369227","0.0-18.0-0.55","7816","approach_avoid_sv1","""event"",""trial"",""time""
""fullscreenenter"",""1"",""2147""
","
","
","""event"",""trial"",""time""
""fullscreenenter"",""1"",""2147""
","
","","","","","","null","<div style=""font-size:60px;"">+</div>","null","","fixation","","",""
"memory-trial","155","372393","0.0-18.0-1.55","7816","approach_avoid_sv1","""event"",""trial"",""time""
""fullscreenenter"",""1"",""2147""
","
","
","""event"",""trial"",""time""
""fullscreenenter"",""1"",""2147""
","
","","","","","","2165","images/banana3.png","","","memory_trial","1","definitely_old",""
"html-keyboard-response","156","372894","0.0-18.0-0.56","7816","approach_avoid_sv1","""event"",""trial"",""time""
""fullscreenenter"",""1"",""2147""
","
","
","""event"",""trial"",""time""
""fullscreenenter"",""1"",""2147""
","
","","","","","","null","<div style=""font-size:60px;"">+</div>","null","","fixation","","",""
"memory-trial","157","375646","0.0-18.0-1.56","7816","approach_avoid_sv1","""event"",""trial"",""time""
""fullscreenenter"",""1"",""2147""
","
","
","""event"",""trial"",""time""
""fullscreenenter"",""1"",""2147""
","
","","","","","","1750.0999999940395","images/flower2.png","","","memory_trial","3","maybe_new",""
"html-keyboard-response","158","376148","0.0-18.0-0.57","7816","approach_avoid_sv1","""event"",""trial"",""time""
""fullscreenenter"",""1"",""2147""
","
","
","""event"",""trial"",""time""
""fullscreenenter"",""1"",""2147""
","
","","","","","","null","<div style=""font-size:60px;"">+</div>","null","","fixation","","",""
"memory-trial","159","379015","0.0-18.0-1.57","7816","approach_avoid_sv1","""event"",""trial"",""time""
""fullscreenenter"",""1"",""2147""
","
","
","""event"",""trial"",""time""
""fullscreenenter"",""1"",""2147""
","
","","","","","","1864.8999999910593","images/truck7.png","","","memory_trial","2","maybe_old",""
"html-keyboard-response","160","379516","0.0-18.0-0.58","7816","approach_avoid_sv1","""event"",""trial"",""time""
""fullscreenenter"",""1"",""2147""
","
","
","""event"",""trial"",""time""
""fullscreenenter"",""1"",""2147""
","
","","","","","","null","<div style=""font-size:60px;"">+</div>","null","","fixation","","",""
"memory-trial","161","382424","0.0-18.0-1.58","7816","approach_avoid_sv1","""event"",""trial"",""time""
""fullscreenenter"",""1"",""2147""
","
","
","""event"",""trial"",""time""
""fullscreenenter"",""1"",""2147""
","
","","","","","","1906.2999999970198","images/train8.png","","","memory_trial","4","definitely_new",""
"html-keyboard-response","162","382925","0.0-18.0-0.59","7816","approach_avoid_sv1","""event"",""trial"",""time""
""fullscreenenter"",""1"",""2147""
","
","
","""event"",""trial"",""time""
""fullscreenenter"",""1"",""2147""
","
","","","","","","null","<div style=""font-size:60px;"">+</div>","null","","fixation","","",""
"memory-trial","163","385728","0.0-18.0-1.59","7816","approach_avoid_sv1","""event"",""trial"",""time""
""fullscreenenter"",""1"",""2147""
","
","
","""event"",""trial"",""time""
""fullscreenenter"",""1"",""2147""
","
","","","","","","1801.0999999940395","images/chair3.png","","","memory_trial","2","maybe_old",""
"html-keyboard-response","164","386230","0.0-18.0-0.60","7816","approach_avoid_sv1","""event"",""trial"",""time""
""fullscreenenter"",""1"",""2147""
","
","
","""event"",""trial"",""time""
""fullscreenenter"",""1"",""2147""
","
","","","","","","null","<div style=""font-size:60px;"">+</div>","null","","fixation","","",""
"memory-trial","165","388271","0.0-18.0-1.60","7816","approach_avoid_sv1","""event"",""trial"",""time""
""fullscreenenter"",""1"",""2147""
","
","
","""event"",""trial"",""time""
""fullscreenenter"",""1"",""2147""
","
","","","","","","1038.2999999970198","images/sofa8.png","","","memory_trial","1","definitely_old",""
"html-keyboard-response","166","388772","0.0-18.0-0.61","7816","approach_avoid_sv1","""event"",""trial"",""time""
""fullscreenenter"",""1"",""2147""
","
","
","""event"",""trial"",""time""
""fullscreenenter"",""1"",""2147""
","
","","","","","","null","<div style=""font-size:60px;"">+</div>","null","","fixation","","",""
"memory-trial","167","390510","0.0-18.0-1.61","7816","approach_avoid_sv1","""event"",""trial"",""time""
""fullscreenenter"",""1"",""2147""
","
","
","""event"",""trial"",""time""
""fullscreenenter"",""1"",""2147""
","
","","","","","","737","images/bed1.png","","","memory_trial","1","definitely_old",""
"html-keyboard-response","168","391011","0.0-18.0-0.62","7816","approach_avoid_sv1","""event"",""trial"",""time""
""fullscreenenter"",""1"",""2147""
","
","
","""event"",""trial"",""time""
""fullscreenenter"",""1"",""2147""
","
","","","","","","null","<div style=""font-size:60px;"">+</div>","null","","fixation","","",""
"memory-trial","169","392902","0.0-18.0-1.62","7816","approach_avoid_sv1","""event"",""trial"",""time""
""fullscreenenter"",""1"",""2147""
","
","
","""event"",""trial"",""time""
""fullscreenenter"",""1"",""2147""
","
","","","","","","888.7999999970198","images/goat3.png","","","memory_trial","1","definitely_old",""
"html-keyboard-response","170","393403","0.0-18.0-0.63","7816","approach_avoid_sv1","""event"",""trial"",""time""
""fullscreenenter"",""1"",""2147""
","
","
","""event"",""trial"",""time""
""fullscreenenter"",""1"",""2147""
","
","","","","","","null","<div style=""font-size:60px;"">+</div>","null","","fixation","","",""
"memory-trial","171","396353","0.0-18.0-1.63","7816","approach_avoid_sv1","""event"",""trial"",""time""
""fullscreenenter"",""1"",""2147""
","
","
","""event"",""trial"",""time""
""fullscreenenter"",""1"",""2147""
","
","","","","","","1949.3999999910593","images/bush8.png","","","memory_trial","4","definitely_new",""
"html-keyboard-response","172","396854","0.0-18.0-0.64","7816","approach_avoid_sv1","""event"",""trial"",""time""
""fullscreenenter"",""1"",""2147""
","
","
","""event"",""trial"",""time""
""fullscreenenter"",""1"",""2147""
","
","","","","","","null","<div style=""font-size:60px;"">+</div>","null","","fixation","","",""
"memory-trial","173","399295","0.0-18.0-1.64","7816","approach_avoid_sv1","""event"",""trial"",""time""
""fullscreenenter"",""1"",""2147""
","
","
","""event"",""trial"",""time""
""fullscreenenter"",""1"",""2147""
","
","","","","","","1438","images/goat5.png","","","memory_trial","3","maybe_new",""
"html-keyboard-response","174","399797","0.0-18.0-0.65","7816","approach_avoid_sv1","""event"",""trial"",""time""
""fullscreenenter"",""1"",""2147""
","
","
","""event"",""trial"",""time""
""fullscreenenter"",""1"",""2147""
","
","","","","","","null","<div style=""font-size:60px;"">+</div>","null","","fixation","","",""
"memory-trial","175","402811","0.0-18.0-1.65","7816","approach_avoid_sv1","""event"",""trial"",""time""
""fullscreenenter"",""1"",""2147""
","
","
","""event"",""trial"",""time""
""fullscreenenter"",""1"",""2147""
","
","","","","","","2012.2999999970198","images/apple8.png","","","memory_trial","1","definitely_old",""
"html-keyboard-response","176","403311","0.0-18.0-0.66","7816","approach_avoid_sv1","""event"",""trial"",""time""
""fullscreenenter"",""1"",""2147""
","
","
","""event"",""trial"",""time""
""fullscreenenter"",""1"",""2147""
","
","","","","","","null","<div style=""font-size:60px;"">+</div>","null","","fixation","","",""
"memory-trial","177","405570","0.0-18.0-1.66","7816","approach_avoid_sv1","""event"",""trial"",""time""
""fullscreenenter"",""1"",""2147""
","
","
","""event"",""trial"",""time""
""fullscreenenter"",""1"",""2147""
","
","","","","","","1256.7000000029802","images/sofa5.png","","","memory_trial","2","maybe_old",""
"html-keyboard-response","178","406071","0.0-18.0-0.67","7816","approach_avoid_sv1","""event"",""trial"",""time""
""fullscreenenter"",""1"",""2147""
","
","
","""event"",""trial"",""time""
""fullscreenenter"",""1"",""2147""
","
","","","","","","null","<div style=""font-size:60px;"">+</div>","null","","fixation","","",""
"memory-trial","179","408238","0.0-18.0-1.67","7816","approach_avoid_sv1","""event"",""trial"",""time""
""fullscreenenter"",""1"",""2147""
","
","
","""event"",""trial"",""time""
""fullscreenenter"",""1"",""2147""
","
","","","","","","1155.2000000029802","images/cactus3.png","","","memory_trial","3","maybe_new",""
"html-keyboard-response","180","408739","0.0-18.0-0.68","7816","approach_avoid_sv1","""event"",""trial"",""time""
""fullscreenenter"",""1"",""2147""
","
","
","""event"",""trial"",""time""
""fullscreenenter"",""1"",""2147""
","
","","","","","","null","<div style=""font-size:60px;"">+</div>","null","","fixation","","",""
"memory-trial","181","411816","0.0-18.0-1.68","7816","approach_avoid_sv1","""event"",""trial"",""time""
""fullscreenenter"",""1"",""2147""
","
","
","""event"",""trial"",""time""
""fullscreenenter"",""1"",""2147""
","
","","","","","","2075.7000000029802","images/sheep7.png","","","memory_trial","2","maybe_old",""
"html-keyboard-response","182","412318","0.0-18.0-0.69","7816","approach_avoid_sv1","""event"",""trial"",""time""
""fullscreenenter"",""1"",""2147""
","
","
","""event"",""trial"",""time""
""fullscreenenter"",""1"",""2147""
","
","","","","","","null","<div style=""font-size:60px;"">+</div>","null","","fixation","","",""
"memory-trial","183","414740","0.0-18.0-1.69","7816","approach_avoid_sv1","""event"",""trial"",""time""
""fullscreenenter"",""1"",""2147""
","
","
","""event"",""trial"",""time""
""fullscreenenter"",""1"",""2147""
","
","","","","","","1420.7000000029802","images/cat5.png","","","memory_trial","1","definitely_old",""
"html-keyboard-response","184","415241","0.0-18.0-0.70","7816","approach_avoid_sv1","""event"",""trial"",""time""
""fullscreenenter"",""1"",""2147""
","
","
","""event"",""trial"",""time""
""fullscreenenter"",""1"",""2147""
","
","","","","","","null","<div style=""font-size:60px;"">+</div>","null","","fixation","","",""
"memory-trial","185","417800","0.0-18.0-1.70","7816","approach_avoid_sv1","""event"",""trial"",""time""
""fullscreenenter"",""1"",""2147""
","
","
","""event"",""trial"",""time""
""fullscreenenter"",""1"",""2147""
","
","","","","","","1557.5","images/cow1.png","","","memory_trial","4","definitely_new",""
"html-keyboard-response","186","418301","0.0-18.0-0.71","7816","approach_avoid_sv1","""event"",""trial"",""time""
""fullscreenenter"",""1"",""2147""
","
","
","""event"",""trial"",""time""
""fullscreenenter"",""1"",""2147""
","
","","","","","","null","<div style=""font-size:60px;"">+</div>","null","","fixation","","",""
"memory-trial","187","421038","0.0-18.0-1.71","7816","approach_avoid_sv1","""event"",""trial"",""time""
""fullscreenenter"",""1"",""2147""
","
","
","""event"",""trial"",""time""
""fullscreenenter"",""1"",""2147""
","
","","","","","","1735","images/banana8.png","","","memory_trial","4","definitely_new",""
"html-keyboard-response","188","421539","0.0-18.0-0.72","7816","approach_avoid_sv1","""event"",""trial"",""time""
""fullscreenenter"",""1"",""2147""
","
","
","""event"",""trial"",""time""
""fullscreenenter"",""1"",""2147""
","
","","","","","","null","<div style=""font-size:60px;"">+</div>","null","","fixation","","",""
"memory-trial","189","424625","0.0-18.0-1.72","7816","approach_avoid_sv1","""event"",""trial"",""time""
""fullscreenenter"",""1"",""2147""
","
","
","""event"",""trial"",""time""
""fullscreenenter"",""1"",""2147""
","
","","","","","","2083.8999999910593","images/cat6.png","","","memory_trial","1","definitely_old",""
"html-keyboard-response","190","425128","0.0-18.0-0.73","7816","approach_avoid_sv1","""event"",""trial"",""time""
""fullscreenenter"",""1"",""2147""
","
","
","""event"",""trial"",""time""
""fullscreenenter"",""1"",""2147""
","
","","","","","","null","<div style=""font-size:60px;"">+</div>","null","","fixation","","",""
"memory-trial","191","427371","0.0-18.0-1.73","7816","approach_avoid_sv1","""event"",""trial"",""time""
""fullscreenenter"",""1"",""2147""
","
","
","""event"",""trial"",""time""
""fullscreenenter"",""1"",""2147""
","
","","","","","","1241.300000011921","images/goat2.png","","","memory_trial","3","maybe_new",""
"html-keyboard-response","192","427873","0.0-18.0-0.74","7816","approach_avoid_sv1","""event"",""trial"",""time""
""fullscreenenter"",""1"",""2147""
","
","
","""event"",""trial"",""time""
""fullscreenenter"",""1"",""2147""
","
","","","","","","null","<div style=""font-size:60px;"">+</div>","null","","fixation","","",""
"memory-trial","193","430889","0.0-18.0-1.74","7816","approach_avoid_sv1","""event"",""trial"",""time""
""fullscreenenter"",""1"",""2147""
","
","
","""event"",""trial"",""time""
""fullscreenenter"",""1"",""2147""
","
","","","","","","2013.9000000059605","images/straw3.png","","","memory_trial","4","definitely_new",""
"html-keyboard-response","194","431389","0.0-18.0-0.75","7816","approach_avoid_sv1","""event"",""trial"",""time""
""fullscreenenter"",""1"",""2147""
","
","
","""event"",""trial"",""time""
""fullscreenenter"",""1"",""2147""
","
","","","","","","null","<div style=""font-size:60px;"">+</div>","null","","fixation","","",""
"memory-trial","195","434369","0.0-18.0-1.75","7816","approach_avoid_sv1","""event"",""trial"",""time""
""fullscreenenter"",""1"",""2147""
","
","
","""event"",""trial"",""time""
""fullscreenenter"",""1"",""2147""
","
","","","","","","1977","images/train7.png","","","memory_trial","4","definitely_new",""
"html-keyboard-response","196","434869","0.0-18.0-0.76","7816","approach_avoid_sv1","""event"",""trial"",""time""
""fullscreenenter"",""1"",""2147""
","
","
","""event"",""trial"",""time""
""fullscreenenter"",""1"",""2147""
","
","","","","","","null","<div style=""font-size:60px;"">+</div>","null","","fixation","","",""
"memory-trial","197","438083","0.0-18.0-1.76","7816","approach_avoid_sv1","""event"",""trial"",""time""
""fullscreenenter"",""1"",""2147""
","
","
","""event"",""trial"",""time""
""fullscreenenter"",""1"",""2147""
","
","","","","","","2211.0999999940395","images/bush3.png","","","memory_trial","4","definitely_new",""
"html-keyboard-response","198","438584","0.0-18.0-0.77","7816","approach_avoid_sv1","""event"",""trial"",""time""
""fullscreenenter"",""1"",""2147""
","
","
","""event"",""trial"",""time""
""fullscreenenter"",""1"",""2147""
","
","","","","","","null","<div style=""font-size:60px;"">+</div>","null","","fixation","","",""
"memory-trial","199","442396","0.0-18.0-1.77","7816","approach_avoid_sv1","""event"",""trial"",""time""
""fullscreenenter"",""1"",""2147""
","
","
","""event"",""trial"",""time""
""fullscreenenter"",""1"",""2147""
","
","","","","","","2809.3999999910593","images/cactus2.png","","","memory_trial","2","maybe_old",""
"html-keyboard-response","200","442897","0.0-18.0-0.78","7816","approach_avoid_sv1","""event"",""trial"",""time""
""fullscreenenter"",""1"",""2147""
","
","
","""event"",""trial"",""time""
""fullscreenenter"",""1"",""2147""
","
","","","","","","null","<div style=""font-size:60px;"">+</div>","null","","fixation","","",""
"memory-trial","201","447602","0.0-18.0-1.78","7816","approach_avoid_sv1","""event"",""trial"",""time""
""fullscreenenter"",""1"",""2147""
","
","
","""event"",""trial"",""time""
""fullscreenenter"",""1"",""2147""
","
","","","","","","3703.5","images/goat6.png","","","memory_trial","3","maybe_new",""
"html-keyboard-response","202","448103","0.0-18.0-0.79","7816","approach_avoid_sv1","""event"",""trial"",""time""
""fullscreenenter"",""1"",""2147""
","
","
","""event"",""trial"",""time""
""fullscreenenter"",""1"",""2147""
","
","","","","","","null","<div style=""font-size:60px;"">+</div>","null","","fixation","","",""
"memory-trial","203","450422","0.0-18.0-1.79","7816","approach_avoid_sv1","""event"",""trial"",""time""
""fullscreenenter"",""1"",""2147""
","
","
","""event"",""trial"",""time""
""fullscreenenter"",""1"",""2147""
","
","","","","","","1316.7000000029802","images/train3.png","","","memory_trial","4","definitely_new",""
"html-keyboard-response","204","450924","0.0-18.0-0.80","7816","approach_avoid_sv1","""event"",""trial"",""time""
""fullscreenenter"",""1"",""2147""
","
","
","""event"",""trial"",""time""
""fullscreenenter"",""1"",""2147""
","
","","","","","","null","<div style=""font-size:60px;"">+</div>","null","","fixation","","",""
"memory-trial","205","453301","0.0-18.0-1.80","7816","approach_avoid_sv1","""event"",""trial"",""time""
""fullscreenenter"",""1"",""2147""
","
","
","""event"",""trial"",""time""
""fullscreenenter"",""1"",""2147""
","
","","","","","","1375.7000000029802","images/chair6.png","","","memory_trial","3","maybe_new",""
"html-keyboard-response","206","453802","0.0-18.0-0.81","7816","approach_avoid_sv1","""event"",""trial"",""time""
""fullscreenenter"",""1"",""2147""
","
","
","""event"",""trial"",""time""
""fullscreenenter"",""1"",""2147""
","
","","","","","","null","<div style=""font-size:60px;"">+</div>","null","","fixation","","",""
"memory-trial","207","456631","0.0-18.0-1.81","7816","approach_avoid_sv1","""event"",""trial"",""time""
""fullscreenenter"",""1"",""2147""
","
","
","""event"",""trial"",""time""
""fullscreenenter"",""1"",""2147""
","
","","","","","","1827.9000000059605","images/plane1.png","","","memory_trial","1","definitely_old",""
"html-keyboard-response","208","457132","0.0-18.0-0.82","7816","approach_avoid_sv1","""event"",""trial"",""time""
""fullscreenenter"",""1"",""2147""
","
","
","""event"",""trial"",""time""
""fullscreenenter"",""1"",""2147""
","
","","","","","","null","<div style=""font-size:60px;"">+</div>","null","","fixation","","",""
"memory-trial","209","459080","0.0-18.0-1.82","7816","approach_avoid_sv1","""event"",""trial"",""time""
""fullscreenenter"",""1"",""2147""
","
","
","""event"",""trial"",""time""
""fullscreenenter"",""1"",""2147""
","
","","","","","","945.5","images/truck2.png","","","memory_trial","1","definitely_old",""
"html-keyboard-response","210","459580","0.0-18.0-0.83","7816","approach_avoid_sv1","""event"",""trial"",""time""
""fullscreenenter"",""1"",""2147""
","
","
","""event"",""trial"",""time""
""fullscreenenter"",""1"",""2147""
","
","","","","","","null","<div style=""font-size:60px;"">+</div>","null","","fixation","","",""
"memory-trial","211","461913","0.0-18.0-1.83","7816","approach_avoid_sv1","""event"",""trial"",""time""
""fullscreenenter"",""1"",""2147""
","
","
","""event"",""trial"",""time""
""fullscreenenter"",""1"",""2147""
","
","","","","","","1330.5","images/rabbit8.png","","","memory_trial","1","definitely_old",""
"html-keyboard-response","212","462414","0.0-18.0-0.84","7816","approach_avoid_sv1","""event"",""trial"",""time""
""fullscreenenter"",""1"",""2147""
","
","
","""event"",""trial"",""time""
""fullscreenenter"",""1"",""2147""
","
","","","","","","null","<div style=""font-size:60px;"">+</div>","null","","fixation","","",""
"memory-trial","213","465457","0.0-18.0-1.84","7816","approach_avoid_sv1","""event"",""trial"",""time""
""fullscreenenter"",""1"",""2147""
","
","
","""event"",""trial"",""time""
""fullscreenenter"",""1"",""2147""
","
","","","","","","2041.6000000089407","images/sofa3.png","","","memory_trial","2","maybe_old",""
"html-keyboard-response","214","465959","0.0-18.0-0.85","7816","approach_avoid_sv1","""event"",""trial"",""time""
""fullscreenenter"",""1"",""2147""
","
","
","""event"",""trial"",""time""
""fullscreenenter"",""1"",""2147""
","
","","","","","","null","<div style=""font-size:60px;"">+</div>","null","","fixation","","",""
"memory-trial","215","470619","0.0-18.0-1.85","7816","approach_avoid_sv1","""event"",""trial"",""time""
""fullscreenenter"",""1"",""2147""
","
","
","""event"",""trial"",""time""
""fullscreenenter"",""1"",""2147""
","
","","","","","","3658","images/banana7.png","","","memory_trial","3","maybe_new",""
"html-keyboard-response","216","471120","0.0-18.0-0.86","7816","approach_avoid_sv1","""event"",""trial"",""time""
""fullscreenenter"",""1"",""2147""
","
","
","""event"",""trial"",""time""
""fullscreenenter"",""1"",""2147""
","
","","","","","","null","<div style=""font-size:60px;"">+</div>","null","","fixation","","",""
"memory-trial","217","473953","0.0-18.0-1.86","7816","approach_avoid_sv1","""event"",""trial"",""time""
""fullscreenenter"",""1"",""2147""
","
","
","""event"",""trial"",""time""
""fullscreenenter"",""1"",""2147""
","
","","","","","","1831.0999999940395","images/tree8.png","","","memory_trial","1","definitely_old",""
"html-keyboard-response","218","474454","0.0-18.0-0.87","7816","approach_avoid_sv1","""event"",""trial"",""time""
""fullscreenenter"",""1"",""2147""
","
","
","""event"",""trial"",""time""
""fullscreenenter"",""1"",""2147""
","
","","","","","","null","<div style=""font-size:60px;"">+</div>","null","","fixation","","",""
"memory-trial","219","477466","0.0-18.0-1.87","7816","approach_avoid_sv1","""event"",""trial"",""time""
""fullscreenenter"",""1"",""2147""
","
","
","""event"",""trial"",""time""
""fullscreenenter"",""1"",""2147""
","
","","","","","","2010.5999999940395","images/boat1.png","","","memory_trial","1","definitely_old",""
"html-keyboard-response","220","477967","0.0-18.0-0.88","7816","approach_avoid_sv1","""event"",""trial"",""time""
""fullscreenenter"",""1"",""2147""
","
","
","""event"",""trial"",""time""
""fullscreenenter"",""1"",""2147""
","
","","","","","","null","<div style=""font-size:60px;"">+</div>","null","","fixation","","",""
"memory-trial","221","480312","0.0-18.0-1.88","7816","approach_avoid_sv1","""event"",""trial"",""time""
""fullscreenenter"",""1"",""2147""
","
","
","""event"",""trial"",""time""
""fullscreenenter"",""1"",""2147""
","
","","","","","","1342.6000000089407","images/train6.png","","","memory_trial","4","definitely_new",""
"html-keyboard-response","222","480814","0.0-18.0-0.89","7816","approach_avoid_sv1","""event"",""trial"",""time""
""fullscreenenter"",""1"",""2147""
","
","
","""event"",""trial"",""time""
""fullscreenenter"",""1"",""2147""
","
","","","","","","null","<div style=""font-size:60px;"">+</div>","null","","fixation","","",""
"memory-trial","223","483714","0.0-18.0-1.89","7816","approach_avoid_sv1","""event"",""trial"",""time""
""fullscreenenter"",""1"",""2147""
","
","
","""event"",""trial"",""time""
""fullscreenenter"",""1"",""2147""
","
","","","","","","1898.5999999940395","images/banana6.png","","","memory_trial","4","definitely_new",""
"html-keyboard-response","224","484215","0.0-18.0-0.90","7816","approach_avoid_sv1","""event"",""trial"",""time""
""fullscreenenter"",""1"",""2147""
","
","
","""event"",""trial"",""time""
""fullscreenenter"",""1"",""2147""
","
","","","","","","null","<div style=""font-size:60px;"">+</div>","null","","fixation","","",""
"memory-trial","225","488169","0.0-18.0-1.90","7816","approach_avoid_sv1","""event"",""trial"",""time""
""fullscreenenter"",""1"",""2147""
","
","
","""event"",""trial"",""time""
""fullscreenenter"",""1"",""2147""
","
","","","","","","2951.2000000029802","images/flower1.png","","","memory_trial","4","definitely_new",""
"html-keyboard-response","226","488670","0.0-18.0-0.91","7816","approach_avoid_sv1","""event"",""trial"",""time""
""fullscreenenter"",""1"",""2147""
","
","
","""event"",""trial"",""time""
""fullscreenenter"",""1"",""2147""
","
","","","","","","null","<div style=""font-size:60px;"">+</div>","null","","fixation","","",""
"memory-trial","227","491831","0.0-18.0-1.91","7816","approach_avoid_sv1","""event"",""trial"",""time""
""fullscreenenter"",""1"",""2147""
","
","
","""event"",""trial"",""time""
""fullscreenenter"",""1"",""2147""
","
","","","","","","2159.5","images/rabbit2.png","","","memory_trial","2","maybe_old",""
"html-button-response","228","551897","0.0-18.0-2.91-0.91","7816","approach_avoid_sv1","""event"",""trial"",""time""
""fullscreenenter"",""1"",""2147""
","
","
","""event"",""trial"",""time""
""fullscreenenter"",""1"",""2147""
","
","","","","","","60065.70000000298","<p> Take a break! </p><p> Click the button to continue. </p>","0","","break","","",""
"html-keyboard-response","229","552399","0.0-18.0-0.92","7816","approach_avoid_sv1","""event"",""trial"",""time""
""fullscreenenter"",""1"",""2147""
","
","
","""event"",""trial"",""time""
""fullscreenenter"",""1"",""2147""
","
","","","","","","null","<div style=""font-size:60px;"">+</div>","null","","fixation","","",""
"memory-trial","230","556028","0.0-18.0-1.92","7816","approach_avoid_sv1","""event"",""trial"",""time""
""fullscreenenter"",""1"",""2147""
","
","
","""event"",""trial"",""time""
""fullscreenenter"",""1"",""2147""
","
","","","","","","2627.300000011921","images/cow3.png","","","memory_trial","3","maybe_new",""
"html-keyboard-response","231","556529","0.0-18.0-0.93","7816","approach_avoid_sv1","""event"",""trial"",""time""
""fullscreenenter"",""1"",""2147""
","
","
","""event"",""trial"",""time""
""fullscreenenter"",""1"",""2147""
","
","","","","","","null","<div style=""font-size:60px;"">+</div>","null","","fixation","","",""
"memory-trial","232","558758","0.0-18.0-1.93","7816","approach_avoid_sv1","""event"",""trial"",""time""
""fullscreenenter"",""1"",""2147""
","
","
","""event"",""trial"",""time""
""fullscreenenter"",""1"",""2147""
","
","","","","","","1227.2999999970198","images/cow6.png","","","memory_trial","4","definitely_new",""
"html-keyboard-response","233","559259","0.0-18.0-0.94","7816","approach_avoid_sv1","""event"",""trial"",""time""
""fullscreenenter"",""1"",""2147""
","
","
","""event"",""trial"",""time""
""fullscreenenter"",""1"",""2147""
","
","","","","","","null","<div style=""font-size:60px;"">+</div>","null","","fixation","","",""
"memory-trial","234","561541","0.0-18.0-1.94","7816","approach_avoid_sv1","""event"",""trial"",""time""
""fullscreenenter"",""1"",""2147""
","
","
","""event"",""trial"",""time""
""fullscreenenter"",""1"",""2147""
","
","","","","","","1280.4000000059605","images/straw2.png","","","memory_trial","2","maybe_old",""
"html-keyboard-response","235","562043","0.0-18.0-0.95","7816","approach_avoid_sv1","""event"",""trial"",""time""
""fullscreenenter"",""1"",""2147""
","
","
","""event"",""trial"",""time""
""fullscreenenter"",""1"",""2147""
","
","","","","","","null","<div style=""font-size:60px;"">+</div>","null","","fixation","","",""
"memory-trial","236","564399","0.0-18.0-1.95","7816","approach_avoid_sv1","""event"",""trial"",""time""
""fullscreenenter"",""1"",""2147""
","
","
","""event"",""trial"",""time""
""fullscreenenter"",""1"",""2147""
","
","","","","","","1355.0999999940395","images/goat7.png","","","memory_trial","2","maybe_old",""
"html-keyboard-response","237","564901","0.0-18.0-0.96","7816","approach_avoid_sv1","""event"",""trial"",""time""
""fullscreenenter"",""1"",""2147""
","
","
","""event"",""trial"",""time""
""fullscreenenter"",""1"",""2147""
","
","","","","","","null","<div style=""font-size:60px;"">+</div>","null","","fixation","","",""
"memory-trial","238","567268","0.0-18.0-1.96","7816","approach_avoid_sv1","""event"",""trial"",""time""
""fullscreenenter"",""1"",""2147""
","
","
","""event"",""trial"",""time""
""fullscreenenter"",""1"",""2147""
","
","","","","","","1365.2000000029802","images/chair2.png","","","memory_trial","2","maybe_old",""
"html-keyboard-response","239","567769","0.0-18.0-0.97","7816","approach_avoid_sv1","""event"",""trial"",""time""
""fullscreenenter"",""1"",""2147""
","
","
","""event"",""trial"",""time""
""fullscreenenter"",""1"",""2147""
","
","","","","","","null","<div style=""font-size:60px;"">+</div>","null","","fixation","","",""
"memory-trial","240","570269","0.0-18.0-1.97","7816","approach_avoid_sv1","""event"",""trial"",""time""
""fullscreenenter"",""1"",""2147""
","
","
","""event"",""trial"",""time""
""fullscreenenter"",""1"",""2147""
","
","","","","","","1498.0999999940395","images/plane7.png","","","memory_trial","2","maybe_old",""
"html-keyboard-response","241","570771","0.0-18.0-0.98","7816","approach_avoid_sv1","""event"",""trial"",""time""
""fullscreenenter"",""1"",""2147""
","
","
","""event"",""trial"",""time""
""fullscreenenter"",""1"",""2147""
","
","","","","","","null","<div style=""font-size:60px;"">+</div>","null","","fixation","","",""
"memory-trial","242","573506","0.0-18.0-1.98","7816","approach_avoid_sv1","""event"",""trial"",""time""
""fullscreenenter"",""1"",""2147""
","
","
","""event"",""trial"",""time""
""fullscreenenter"",""1"",""2147""
","
","","","","","","1733.3999999910593","images/apple6.png","","","memory_trial","3","maybe_new",""
"html-keyboard-response","243","574007","0.0-18.0-0.99","7816","approach_avoid_sv1","""event"",""trial"",""time""
""fullscreenenter"",""1"",""2147""
","
","
","""event"",""trial"",""time""
""fullscreenenter"",""1"",""2147""
","
","","","","","","null","<div style=""font-size:60px;"">+</div>","null","","fixation","","",""
"memory-trial","244","576172","0.0-18.0-1.99","7816","approach_avoid_sv1","""event"",""trial"",""time""
""fullscreenenter"",""1"",""2147""
","
","
","""event"",""trial"",""time""
""fullscreenenter"",""1"",""2147""
","
","","","","","","1163.7999999970198","images/flower6.png","","","memory_trial","4","definitely_new",""
"html-keyboard-response","245","576673","0.0-18.0-0.100","7816","approach_avoid_sv1","""event"",""trial"",""time""
""fullscreenenter"",""1"",""2147""
","
","
","""event"",""trial"",""time""
""fullscreenenter"",""1"",""2147""
","
","","","","","","null","<div style=""font-size:60px;"">+</div>","null","","fixation","","",""
"memory-trial","246","579561","0.0-18.0-1.100","7816","approach_avoid_sv1","""event"",""trial"",""time""
""fullscreenenter"",""1"",""2147""
","
","
","""event"",""trial"",""time""
""fullscreenenter"",""1"",""2147""
","
","","","","","","1885.5","images/sofa4.png","","","memory_trial","3","maybe_new",""
"html-keyboard-response","247","580062","0.0-18.0-0.101","7816","approach_avoid_sv1","""event"",""trial"",""time""
""fullscreenenter"",""1"",""2147""
","
","
","""event"",""trial"",""time""
""fullscreenenter"",""1"",""2147""
","
","","","","","","null","<div style=""font-size:60px;"">+</div>","null","","fixation","","",""
"memory-trial","248","582359","0.0-18.0-1.101","7816","approach_avoid_sv1","""event"",""trial"",""time""
""fullscreenenter"",""1"",""2147""
","
","
","""event"",""trial"",""time""
""fullscreenenter"",""1"",""2147""
","
","","","","","","1294.3999999910593","images/bush7.png","","","memory_trial","4","definitely_new",""
"html-keyboard-response","249","582859","0.0-18.0-0.102","7816","approach_avoid_sv1","""event"",""trial"",""time""
""fullscreenenter"",""1"",""2147""
","
","
","""event"",""trial"",""time""
""fullscreenenter"",""1"",""2147""
","
","","","","","","null","<div style=""font-size:60px;"">+</div>","null","","fixation","","",""
"memory-trial","250","584857","0.0-18.0-1.102","7816","approach_avoid_sv1","""event"",""trial"",""time""
""fullscreenenter"",""1"",""2147""
","
","
","""event"",""trial"",""time""
""fullscreenenter"",""1"",""2147""
","
","","","","","","995.6000000089407","images/dog6.png","","","memory_trial","1","definitely_old",""
"html-keyboard-response","251","585358","0.0-18.0-0.103","7816","approach_avoid_sv1","""event"",""trial"",""time""
""fullscreenenter"",""1"",""2147""
","
","
","""event"",""trial"",""time""
""fullscreenenter"",""1"",""2147""
","
","","","","","","null","<div style=""font-size:60px;"">+</div>","null","","fixation","","",""
"memory-trial","252","587575","0.0-18.0-1.103","7816","approach_avoid_sv1","""event"",""trial"",""time""
""fullscreenenter"",""1"",""2147""
","
","
","""event"",""trial"",""time""
""fullscreenenter"",""1"",""2147""
","
","","","","","","1215.7000000029802","images/rodent6.png","","","memory_trial","1","definitely_old",""
"html-keyboard-response","253","588076","0.0-18.0-0.104","7816","approach_avoid_sv1","""event"",""trial"",""time""
""fullscreenenter"",""1"",""2147""
","
","
","""event"",""trial"",""time""
""fullscreenenter"",""1"",""2147""
","
","","","","","","null","<div style=""font-size:60px;"">+</div>","null","","fixation","","",""
"memory-trial","254","590939","0.0-18.0-1.104","7816","approach_avoid_sv1","""event"",""trial"",""time""
""fullscreenenter"",""1"",""2147""
","
","
","""event"",""trial"",""time""
""fullscreenenter"",""1"",""2147""
","
","","","","","","1861.5","images/apple1.png","","","memory_trial","4","definitely_new",""
"html-keyboard-response","255","591440","0.0-18.0-0.105","7816","approach_avoid_sv1","""event"",""trial"",""time""
""fullscreenenter"",""1"",""2147""
","
","
","""event"",""trial"",""time""
""fullscreenenter"",""1"",""2147""
","
","","","","","","null","<div style=""font-size:60px;"">+</div>","null","","fixation","","",""
"memory-trial","256","594908","0.0-18.0-1.105","7816","approach_avoid_sv1","""event"",""trial"",""time""
""fullscreenenter"",""1"",""2147""
","
","
","""event"",""trial"",""time""
""fullscreenenter"",""1"",""2147""
","
","","","","","","2466","images/cow2.png","","","memory_trial","1","definitely_old",""
"html-keyboard-response","257","595409","0.0-18.0-0.106","7816","approach_avoid_sv1","""event"",""trial"",""time""
""fullscreenenter"",""1"",""2147""
","
","
","""event"",""trial"",""time""
""fullscreenenter"",""1"",""2147""
","
","","","","","","null","<div style=""font-size:60px;"">+</div>","null","","fixation","","",""
"memory-trial","258","598743","0.0-18.0-1.106","7816","approach_avoid_sv1","""event"",""trial"",""time""
""fullscreenenter"",""1"",""2147""
","
","
","""event"",""trial"",""time""
""fullscreenenter"",""1"",""2147""
","
","","","","","","2331.0999999940395","images/bush6.png","","","memory_trial","4","definitely_new",""
"html-keyboard-response","259","599243","0.0-18.0-0.107","7816","approach_avoid_sv1","""event"",""trial"",""time""
""fullscreenenter"",""1"",""2147""
","
","
","""event"",""trial"",""time""
""fullscreenenter"",""1"",""2147""
","
","","","","","","null","<div style=""font-size:60px;"">+</div>","null","","fixation","","",""
"memory-trial","260","601965","0.0-18.0-1.107","7816","approach_avoid_sv1","""event"",""trial"",""time""
""fullscreenenter"",""1"",""2147""
","
","
","""event"",""trial"",""time""
""fullscreenenter"",""1"",""2147""
","
","","","","","","1719","images/boat8.png","","","memory_trial","2","maybe_old",""
"html-keyboard-response","261","602466","0.0-18.0-0.108","7816","approach_avoid_sv1","""event"",""trial"",""time""
""fullscreenenter"",""1"",""2147""
","
","
","""event"",""trial"",""time""
""fullscreenenter"",""1"",""2147""
","
","","","","","","null","<div style=""font-size:60px;"">+</div>","null","","fixation","","",""
"memory-trial","262","604780","0.0-18.0-1.108","7816","approach_avoid_sv1","""event"",""trial"",""time""
""fullscreenenter"",""1"",""2147""
","
","
","""event"",""trial"",""time""
""fullscreenenter"",""1"",""2147""
","
","","","","","","1312.699999988079","images/sheep6.png","","","memory_trial","2","maybe_old",""
"html-keyboard-response","263","605281","0.0-18.0-0.109","7816","approach_avoid_sv1","""event"",""trial"",""time""
""fullscreenenter"",""1"",""2147""
","
","
","""event"",""trial"",""time""
""fullscreenenter"",""1"",""2147""
","
","","","","","","null","<div style=""font-size:60px;"">+</div>","null","","fixation","","",""
"memory-trial","264","608246","0.0-18.0-1.109","7816","approach_avoid_sv1","""event"",""trial"",""time""
""fullscreenenter"",""1"",""2147""
","
","
","""event"",""trial"",""time""
""fullscreenenter"",""1"",""2147""
","
","","","","","","1963.8999999910593","images/boat3.png","","","memory_trial","1","definitely_old",""
"html-keyboard-response","265","608747","0.0-18.0-0.110","7816","approach_avoid_sv1","""event"",""trial"",""time""
""fullscreenenter"",""1"",""2147""
","
","
","""event"",""trial"",""time""
""fullscreenenter"",""1"",""2147""
","
","","","","","","null","<div style=""font-size:60px;"">+</div>","null","","fixation","","",""
"memory-trial","266","610831","0.0-18.0-1.110","7816","approach_avoid_sv1","""event"",""trial"",""time""
""fullscreenenter"",""1"",""2147""
","
","
","""event"",""trial"",""time""
""fullscreenenter"",""1"",""2147""
","
","","","","","","1079.5","images/rodent3.png","","","memory_trial","1","definitely_old",""
"html-keyboard-response","267","611332","0.0-18.0-0.111","7816","approach_avoid_sv1","""event"",""trial"",""time""
""fullscreenenter"",""1"",""2147""
","
","
","""event"",""trial"",""time""
""fullscreenenter"",""1"",""2147""
","
","","","","","","null","<div style=""font-size:60px;"">+</div>","null","","fixation","","",""
"memory-trial","268","614055","0.0-18.0-1.111","7816","approach_avoid_sv1","""event"",""trial"",""time""
""fullscreenenter"",""1"",""2147""
","
","
","""event"",""trial"",""time""
""fullscreenenter"",""1"",""2147""
","
","","","","","","1721.5","images/straw7.png","","","memory_trial","1","definitely_old",""
"html-keyboard-response","269","614556","0.0-18.0-0.112","7816","approach_avoid_sv1","""event"",""trial"",""time""
""fullscreenenter"",""1"",""2147""
","
","
","""event"",""trial"",""time""
""fullscreenenter"",""1"",""2147""
","
","","","","","","null","<div style=""font-size:60px;"">+</div>","null","","fixation","","",""
"memory-trial","270","616365","0.0-18.0-1.112","7816","approach_avoid_sv1","""event"",""trial"",""time""
""fullscreenenter"",""1"",""2147""
","
","
","""event"",""trial"",""time""
""fullscreenenter"",""1"",""2147""
","
","","","","","","806.7999999970198","images/straw6.png","","","memory_trial","1","definitely_old",""
"html-keyboard-response","271","616866","0.0-18.0-0.113","7816","approach_avoid_sv1","""event"",""trial"",""time""
""fullscreenenter"",""1"",""2147""
","
","
","""event"",""trial"",""time""
""fullscreenenter"",""1"",""2147""
","
","","","","","","null","<div style=""font-size:60px;"">+</div>","null","","fixation","","",""
"memory-trial","272","619191","0.0-18.0-1.113","7816","approach_avoid_sv1","""event"",""trial"",""time""
""fullscreenenter"",""1"",""2147""
","
","
","""event"",""trial"",""time""
""fullscreenenter"",""1"",""2147""
","
","","","","","","1323.6000000089407","images/truck1.png","","","memory_trial","4","definitely_new",""
"html-keyboard-response","273","619692","0.0-18.0-0.114","7816","approach_avoid_sv1","""event"",""trial"",""time""
""fullscreenenter"",""1"",""2147""
","
","
","""event"",""trial"",""time""
""fullscreenenter"",""1"",""2147""
","
","","","","","","null","<div style=""font-size:60px;"">+</div>","null","","fixation","","",""
"memory-trial","274","621793","0.0-18.0-1.114","7816","approach_avoid_sv1","""event"",""trial"",""time""
""fullscreenenter"",""1"",""2147""
","
","
","""event"",""trial"",""time""
""fullscreenenter"",""1"",""2147""
","
","","","","","","1099.7999999970198","images/rabbit1.png","","","memory_trial","3","maybe_new",""
"html-keyboard-response","275","622294","0.0-18.0-0.115","7816","approach_avoid_sv1","""event"",""trial"",""time""
""fullscreenenter"",""1"",""2147""
","
","
","""event"",""trial"",""time""
""fullscreenenter"",""1"",""2147""
","
","","","","","","null","<div style=""font-size:60px;"">+</div>","null","","fixation","","",""
"memory-trial","276","624378","0.0-18.0-1.115","7816","approach_avoid_sv1","""event"",""trial"",""time""
""fullscreenenter"",""1"",""2147""
","
","
","""event"",""trial"",""time""
""fullscreenenter"",""1"",""2147""
","
","","","","","","1082.300000011921","images/apple4.png","","","memory_trial","4","definitely_new",""
"html-keyboard-response","277","624879","0.0-18.0-0.116","7816","approach_avoid_sv1","""event"",""trial"",""time""
""fullscreenenter"",""1"",""2147""
","
","
","""event"",""trial"",""time""
""fullscreenenter"",""1"",""2147""
","
","","","","","","null","<div style=""font-size:60px;"">+</div>","null","","fixation","","",""
"memory-trial","278","628355","0.0-18.0-1.116","7816","approach_avoid_sv1","""event"",""trial"",""time""
""fullscreenenter"",""1"",""2147""
","
","
","""event"",""trial"",""time""
""fullscreenenter"",""1"",""2147""
","
","","","","","","2473.2000000029802","images/table8.png","","","memory_trial","2","maybe_old",""
"html-keyboard-response","279","628856","0.0-18.0-0.117","7816","approach_avoid_sv1","""event"",""trial"",""time""
""fullscreenenter"",""1"",""2147""
","
","
","""event"",""trial"",""time""
""fullscreenenter"",""1"",""2147""
","
","","","","","","null","<div style=""font-size:60px;"">+</div>","null","","fixation","","",""
"memory-trial","280","631440","0.0-18.0-1.117","7816","approach_avoid_sv1","""event"",""trial"",""time""
""fullscreenenter"",""1"",""2147""
","
","
","""event"",""trial"",""time""
""fullscreenenter"",""1"",""2147""
","
","","","","","","1581.7000000029802","images/sofa7.png","","","memory_trial","2","maybe_old",""
"html-keyboard-response","281","631941","0.0-18.0-0.118","7816","approach_avoid_sv1","""event"",""trial"",""time""
""fullscreenenter"",""1"",""2147""
","
","
","""event"",""trial"",""time""
""fullscreenenter"",""1"",""2147""
","
","","","","","","null","<div style=""font-size:60px;"">+</div>","null","","fixation","","",""
"memory-trial","282","635365","0.0-18.0-1.118","7816","approach_avoid_sv1","""event"",""trial"",""time""
""fullscreenenter"",""1"",""2147""
","
","
","""event"",""trial"",""time""
""fullscreenenter"",""1"",""2147""
","
","","","","","","2422.7000000029802","images/table3.png","","","memory_trial","4","definitely_new",""
"html-keyboard-response","283","635866","0.0-18.0-0.119","7816","approach_avoid_sv1","""event"",""trial"",""time""
""fullscreenenter"",""1"",""2147""
","
","
","""event"",""trial"",""time""
""fullscreenenter"",""1"",""2147""
","
","","","","","","null","<div style=""font-size:60px;"">+</div>","null","","fixation","","",""
"memory-trial","284","638243","0.0-18.0-1.119","7816","approach_avoid_sv1","""event"",""trial"",""time""
""fullscreenenter"",""1"",""2147""
","
","
","""event"",""trial"",""time""
""fullscreenenter"",""1"",""2147""
","
","","","","","","1374.5999999940395","images/cactus1.png","","","memory_trial","1","definitely_old",""
"html-keyboard-response","285","638744","0.0-18.0-0.120","7816","approach_avoid_sv1","""event"",""trial"",""time""
""fullscreenenter"",""1"",""2147""
","
","
","""event"",""trial"",""time""
""fullscreenenter"",""1"",""2147""
","
","","","","","","null","<div style=""font-size:60px;"">+</div>","null","","fixation","","",""
"memory-trial","286","641851","0.0-18.0-1.120","7816","approach_avoid_sv1","""event"",""trial"",""time""
""fullscreenenter"",""1"",""2147""
","
","
","""event"",""trial"",""time""
""fullscreenenter"",""1"",""2147""
","
","","","","","","2105.2999999970198","images/goat1.png","","","memory_trial","3","maybe_new",""
"html-keyboard-response","287","642352","0.0-18.0-0.121","7816","approach_avoid_sv1","""event"",""trial"",""time""
""fullscreenenter"",""1"",""2147""
","
","
","""event"",""trial"",""time""
""fullscreenenter"",""1"",""2147""
","
","","","","","","null","<div style=""font-size:60px;"">+</div>","null","","fixation","","",""
"memory-trial","288","644460","0.0-18.0-1.121","7816","approach_avoid_sv1","""event"",""trial"",""time""
""fullscreenenter"",""1"",""2147""
","
","
","""event"",""trial"",""time""
""fullscreenenter"",""1"",""2147""
","
","","","","","","1105.9000000059605","images/sheep4.png","","","memory_trial","2","maybe_old",""
"html-keyboard-response","289","644961","0.0-18.0-0.122","7816","approach_avoid_sv1","""event"",""trial"",""time""
""fullscreenenter"",""1"",""2147""
","
","
","""event"",""trial"",""time""
""fullscreenenter"",""1"",""2147""
","
","","","","","","null","<div style=""font-size:60px;"">+</div>","null","","fixation","","",""
"memory-trial","290","648366","0.0-18.0-1.122","7816","approach_avoid_sv1","""event"",""trial"",""time""
""fullscreenenter"",""1"",""2147""
","
","
","""event"",""trial"",""time""
""fullscreenenter"",""1"",""2147""
","
","","","","","","2402.2000000029802","images/boat5.png","","","memory_trial","2","maybe_old",""
"html-keyboard-response","291","648868","0.0-18.0-0.123","7816","approach_avoid_sv1","""event"",""trial"",""time""
""fullscreenenter"",""1"",""2147""
","
","
","""event"",""trial"",""time""
""fullscreenenter"",""1"",""2147""
","
","","","","","","null","<div style=""font-size:60px;"">+</div>","null","","fixation","","",""
"memory-trial","292","652016","0.0-18.0-1.123","7816","approach_avoid_sv1","""event"",""trial"",""time""
""fullscreenenter"",""1"",""2147""
","
","
","""event"",""trial"",""time""
""fullscreenenter"",""1"",""2147""
","
","","","","","","2146","images/bed5.png","","","memory_trial","2","maybe_old",""
"html-keyboard-response","293","652518","0.0-18.0-0.124","7816","approach_avoid_sv1","""event"",""trial"",""time""
""fullscreenenter"",""1"",""2147""
","
","
","""event"",""trial"",""time""
""fullscreenenter"",""1"",""2147""
","
","","","","","","null","<div style=""font-size:60px;"">+</div>","null","","fixation","","",""
"memory-trial","294","654851","0.0-18.0-1.124","7816","approach_avoid_sv1","""event"",""trial"",""time""
""fullscreenenter"",""1"",""2147""
","
","
","""event"",""trial"",""time""
""fullscreenenter"",""1"",""2147""
","
","","","","","","1330.2999999970198","images/bed7.png","","","memory_trial","1","definitely_old",""
"html-keyboard-response","295","655352","0.0-18.0-0.125","7816","approach_avoid_sv1","""event"",""trial"",""time""
""fullscreenenter"",""1"",""2147""
","
","
","""event"",""trial"",""time""
""fullscreenenter"",""1"",""2147""
","
","","","","","","null","<div style=""font-size:60px;"">+</div>","null","","fixation","","",""
"memory-trial","296","658330","0.0-18.0-1.125","7816","approach_avoid_sv1","""event"",""trial"",""time""
""fullscreenenter"",""1"",""2147""
","
","
","""event"",""trial"",""time""
""fullscreenenter"",""1"",""2147""
","
","","","","","","1976.0999999940395","images/sofa6.png","","","memory_trial","1","definitely_old",""
"html-keyboard-response","297","658832","0.0-18.0-0.126","7816","approach_avoid_sv1","""event"",""trial"",""time""
""fullscreenenter"",""1"",""2147""
","
","
","""event"",""trial"",""time""
""fullscreenenter"",""1"",""2147""
","
